"rt","stimulus","response","trial_type","trial_index","time_elapsed","internal_node_id","swb_1","swb_2","swb_3","swb_4","swb_5","LOT_1","LOT_2","LOT_3","LOT_4","LOT_5","LOT_6","IPC_1","IPC_2","IPC_3","IPC_4","IPC_5","IPC_6","IPC_7","IPC_8","MorIden_1","MorIden_2","MorIden_3","MorIden_4","MorIden_5","MorIden_6","MorIden_7","MorIden_8","MorIden_9","MorIden_10","moralSeImag_1","moralSeImag_2","moralSeImag_3","moralSeImag_4","moralSeImag_5","moralSeImag_6","moralSeImag_7","moralSeImag_8","moralSeImag_9","sde_1","sde_2","sde_3","sde_4","sde_5","sde_6","sde_7","sde_8","sde_9","sde_10","sde_11","sde_12","sde_13","sde_14","sde_15","sde_16","sde_17","sde_18","sde_19","sde_20","IM_1","IM_2","IM_3","IM_4","IM_5","IM_6","IM_7","IM_8","IM_9","IM_10","IM_11","IM_12","IM_13","IM_14","IM_15","IM_16","IM_17","IM_18","IM_19","IM_20","subj_idx","friend_name","ParticipantID","Sex","Word","Word2","value","success","timeout","failed_images","failed_audio","failed_video","user_agent","responses","item_order","radio_event_ids","radio_event_times","key_event_times","mouse_event_times","straightlining","zigzagging","honeypot","view_history","response_type","key_press","avg_frame_time","center_x","center_y","correct_response","correct","identity","Image","word","condition","task_id","screen_id","time_stamp","person","valence","domain","math","status","duration","question_order"
"1346","
   <p><div style='color:white; font-size: 25px'>您好，欢迎参加本次实验。</div></p>
   <p><div style='color:white; font-size: 25px'>为充分保障您的权利，请确保您已经知晓并同意《参与实验同意书》以及《数据公开知情同意书》。</div></p>
   <p><div style='color:white; font-size: 25px'>如果您未见过上述内容，请咨询实验员。</div></p>
   <p style='color:white; font-size: 25px'>如果您选择继续实验，则表示您已经清楚两份知情同意书的内容并同意。</p>
   <p><div style = ""color: red;font-size:30px;"">请确保您记得day0的实验编号，您将在本次实验输入该编号，若您忘记，请咨询实验员后作答。</div></p>
   <p> <div style = ""color: green""><按空格键至下页></div> </p>
   "," ","html-keyboard-response","0","1347","0.0-0.0","3","2","2","3","1","4","3","2","4","4","4","0","-1","-2","-1","-2","1","0","0","5","3","5","4","3","4","4","3","4","4","7","6","8","8","6","6","7","8","7","6","3","5","4","4","3","5","4","3","3","3","3","6","3","2","5","4","2","4","3","3","4","2","3","3","4","5","6","5","6","7","5","7","3","3","6","3","6","3","7","774306025401749506","张","276","Female","[""好她"",""好我"",""坏我"",""坏她""]","[""强她"",""强我"",""弱我"",""弱她""]","","","","","","","","","","","","","","","","","","","","","","","","","","","","","","","","","","","","","",""
"","","","call-function","1","1348","0.0-1.0-0.0","3","2","2","3","1","4","3","2","4","4","4","0","-1","-2","-1","-2","1","0","0","5","3","5","4","3","4","4","3","4","4","7","6","8","8","6","6","7","8","7","6","3","5","4","4","3","5","4","3","3","3","3","6","3","2","5","4","2","4","3","3","4","2","3","3","4","5","6","5","6","7","5","7","3","3","6","3","6","3","7","774306025401749506","张","276","Female","[""好她"",""好我"",""坏我"",""坏她""]","[""强她"",""强我"",""弱我"",""弱她""]","","","","","","","","","","","","","","","","","","","","","","","","","","","","","","","","","","","","","",""
"13322","","[{""name"":""Sex"",""value"":""1""},{""name"":""friend_name"",""value"":""张""},{""name"":""ParticipantID"",""value"":""276""}]","survey-html-form","2","14671","0.0-1.0-1.0","3","2","2","3","1","4","3","2","4","4","4","0","-1","-2","-1","-2","1","0","0","5","3","5","4","3","4","4","3","4","4","7","6","8","8","6","6","7","8","7","6","3","5","4","4","3","5","4","3","3","3","3","6","3","2","5","4","2","4","3","3","4","2","3","3","4","5","6","5","6","7","5","7","3","3","6","3","6","3","7","774306025401749506","张","276","Female","[""好她"",""好我"",""坏我"",""坏她""]","[""强她"",""强我"",""弱我"",""弱她""]","","","","","","","","","","","","","","","","","","","","","","","","","","","","","","","","","","","","","",""
"","","","preload","3","14773","0.0-2.0","3","2","2","3","1","4","3","2","4","4","4","0","-1","-2","-1","-2","1","0","0","5","3","5","4","3","4","4","3","4","4","7","6","8","8","6","6","7","8","7","6","3","5","4","4","3","5","4","3","3","3","3","6","3","2","5","4","2","4","3","3","4","2","3","3","4","5","6","5","6","7","5","7","3","3","6","3","6","3","7","774306025401749506","张","276","Female","[""好她"",""好我"",""坏我"",""坏她""]","[""强她"",""强我"",""弱我"",""弱她""]","","true","false","[]","[]","[]","","","","","","","","","","","","","","","","","","","","","","","","","","","","","","","",""
"","","","fullscreen","4","16339","0.0-3.0","3","2","2","3","1","4","3","2","4","4","4","0","-1","-2","-1","-2","1","0","0","5","3","5","4","3","4","4","3","4","4","7","6","8","8","6","6","7","8","7","6","3","5","4","4","3","5","4","3","3","3","3","6","3","2","5","4","2","4","3","3","4","2","3","3","4","5","6","5","6","7","5","7","3","3","6","3","6","3","7","774306025401749506","张","276","Female","[""好她"",""好我"",""坏我"",""坏她""]","[""强她"",""强我"",""弱我"",""弱她""]","","true","","","","","{}","","","","","","","","","","","","","","","","","","","","","","","","","","","","","","",""
"11860.200000047684","","{""Q01"":""3"",""Q02"":""2"",""Q03"":""2"",""Q04"":""3"",""Q05"":""1""}","survey-template","5","28201","0.0-4.0","3","2","2","3","1","4","3","2","4","4","4","0","-1","-2","-1","-2","1","0","0","5","3","5","4","3","4","4","3","4","4","7","6","8","8","6","6","7","8","7","6","3","5","4","4","3","5","4","3","3","3","3","6","3","2","5","4","2","4","3","3","4","2","3","3","4","5","6","5","6","7","5","7","3","3","6","3","6","3","7","774306025401749506","张","276","Female","[""好她"",""好我"",""坏我"",""坏她""]","[""强她"",""强我"",""弱我"",""弱她""]","","","","","","","","{""Q01"":""3"",""Q02"":""2"",""Q03"":""2"",""Q04"":""3"",""Q05"":""1""}","[0,1,2,3,4]","[""Q01"",""Q02"",""Q03"",""Q04"",""Q05""]","[2800.300000011921,6034.300000011921,7280.5,8475.300000011921,10817.300000011921]","[]","[2800.300000011921,6034.300000011921,7280.5,8475.300000011921,9547.300000011921,10817.300000011921,11859.5]","0.4","0.5","0","","","","","","","","","","","","","","","","","","","","","",""
"16574.700000047684","","{""Q01"":""4"",""Q02"":""3"",""Q03"":""2"",""Q04"":""4"",""Q05"":""4"",""Q06"":""4""}","survey-template","6","44778","0.0-5.0","3","2","2","3","1","4","3","2","4","4","4","0","-1","-2","-1","-2","1","0","0","5","3","5","4","3","4","4","3","4","4","7","6","8","8","6","6","7","8","7","6","3","5","4","4","3","5","4","3","3","3","3","6","3","2","5","4","2","4","3","3","4","2","3","3","4","5","6","5","6","7","5","7","3","3","6","3","6","3","7","774306025401749506","张","276","Female","[""好她"",""好我"",""坏我"",""坏她""]","[""强她"",""强我"",""弱我"",""弱她""]","","","","","","","","{""Q01"":""4"",""Q02"":""3"",""Q03"":""2"",""Q04"":""4"",""Q05"":""4"",""Q06"":""4""}","[0,1,2,3,4,5]","[""Q01"",""Q02"",""Q03"",""Q04"",""Q04"",""Q05"",""Q06""]","[3576.300000011921,7193.200000047684,9073.200000047684,11664.400000035763,13356.100000023842,14158.100000023842,15876.200000047684]","[]","[2600.5,3576.300000011921,4987.300000011921,5926.200000047684,7193.200000047684,9073.200000047684,11664.400000035763,12859.400000035763,13356.100000023842,14158.100000023842,15003.5,15876.200000047684,16574.200000047684]","0.5","0.4","0","","","","","","","","","","","","","","","","","","","","","",""
"22592.19999998808","","{""Q01"":""0"",""Q02"":""-1"",""Q03"":""-2"",""Q04"":""-1"",""Q05"":""-2"",""Q06"":""1"",""Q07"":""0"",""Q08"":""0""}","survey-template","7","67372","0.0-6.0","3","2","2","3","1","4","3","2","4","4","4","0","-1","-2","-1","-2","1","0","0","5","3","5","4","3","4","4","3","4","4","7","6","8","8","6","6","7","8","7","6","3","5","4","4","3","5","4","3","3","3","3","6","3","2","5","4","2","4","3","3","4","2","3","3","4","5","6","5","6","7","5","7","3","3","6","3","6","3","7","774306025401749506","张","276","Female","[""好她"",""好我"",""坏我"",""坏她""]","[""强她"",""强我"",""弱我"",""弱她""]","","","","","","","","{""Q01"":""0"",""Q02"":""-1"",""Q03"":""-2"",""Q04"":""-1"",""Q05"":""-2"",""Q06"":""1"",""Q07"":""0"",""Q08"":""0""}","[0,1,2,3,4,5,6,7]","[""Q01"",""Q02"",""Q03"",""Q04"",""Q05"",""Q06"",""Q07"",""Q06"",""Q08""]","[2258.100000023842,3411.300000011921,5337.300000011921,8911.600000023842,11724.5,14397.100000023842,17309.80000001192,19872.899999976158,21721.80000001192]","[]","[2258.100000023842,3411.300000011921,5337.300000011921,7346.100000023842,8911.600000023842,10687.600000023842,11724.5,14397.100000023842,17309.80000001192,19872.899999976158,21721.80000001192,22591.5]","0.375","0.7142857142857143","0","","","","","","","","","","","","","","","","","","","","","",""
"9615","","","instructions","8","76988","0.0-7.0","3","2","2","3","1","4","3","2","4","4","4","0","-1","-2","-1","-2","1","0","0","5","3","5","4","3","4","4","3","4","4","7","6","8","8","6","6","7","8","7","6","3","5","4","4","3","5","4","3","3","3","3","6","3","2","5","4","2","4","3","3","4","2","3","3","4","5","6","5","6","7","5","7","3","3","6","3","6","3","7","774306025401749506","张","276","Female","[""好她"",""好我"",""坏我"",""坏她""]","[""强她"",""强我"",""弱我"",""弱她""]","","","","","","","","","","","","","","","","","[{""page_index"":0,""viewing_time"":9615}]","","","","","","","","","","","","","","","","","","","","",""
"103170","","","instructions","9","180158","0.0-8.0-1.0-0.0","3","2","2","3","1","4","3","2","4","4","4","0","-1","-2","-1","-2","1","0","0","5","3","5","4","3","4","4","3","4","4","7","6","8","8","6","6","7","8","7","6","3","5","4","4","3","5","4","3","3","3","3","6","3","2","5","4","2","4","3","3","4","2","3","3","4","5","6","5","6","7","5","7","3","3","6","3","6","3","7","774306025401749506","张","276","Female","[""好她"",""好我"",""坏我"",""坏她""]","[""强她"",""强我"",""弱我"",""弱她""]","","","","","","","","","","","","","","","","","[{""page_index"":0,""viewing_time"":17192},{""page_index"":1,""viewing_time"":4848},{""page_index"":0,""viewing_time"":4270},{""page_index"":1,""viewing_time"":52862},{""page_index"":2,""viewing_time"":6272},{""page_index"":3,""viewing_time"":2151},{""page_index"":2,""viewing_time"":1430},{""page_index"":1,""viewing_time"":4704},{""page_index"":2,""viewing_time"":1574},{""page_index"":3,""viewing_time"":7868}]","","","","","","","","","","","","","","","","","","","","",""
"1124","","f","psychophysics","10","182284","0.0-8.0-1.0-1.0-0.0-0.0","3","2","2","3","1","4","3","2","4","4","4","0","-1","-2","-1","-2","1","0","0","5","3","5","4","3","4","4","3","4","4","7","6","8","8","6","6","7","8","7","6","3","5","4","4","3","5","4","3","3","3","3","6","3","2","5","4","2","4","3","3","4","2","3","3","4","5","6","5","6","7","5","7","3","3","6","3","6","3","7","774306025401749506","张","276","Female","[""好她"",""好我"",""坏我"",""坏她""]","[""强她"",""强我"",""弱我"",""弱她""]","","","","","","","","match","","","","","","","","","","key","f","16.669401574803114","768","428","f","true","match","img/diamond.png","强她","强她","prac_ALT2_ability","practice_ability","","","","","","","",""
"null","<span style='color:GreenYellow; font-size: 70px;'>正确! </span>","null","html-keyboard-response","11","182786","0.0-8.0-1.0-1.0-0.0-1.0","3","2","2","3","1","4","3","2","4","4","4","0","-1","-2","-1","-2","1","0","0","5","3","5","4","3","4","4","3","4","4","7","6","8","8","6","6","7","8","7","6","3","5","4","4","3","5","4","3","3","3","3","6","3","2","5","4","2","4","3","3","4","2","3","3","4","5","6","5","6","7","5","7","3","3","6","3","6","3","7","774306025401749506","张","276","Female","[""好她"",""好我"",""坏我"",""坏她""]","[""强她"",""强我"",""弱我"",""弱她""]","","","","","","","","","","","","","","","","","","","","","","","","","","","","","","feedback_test","","","","","","","",""
"999","","j","psychophysics","12","184785","0.0-8.0-1.0-1.0-0.0-0.1","3","2","2","3","1","4","3","2","4","4","4","0","-1","-2","-1","-2","1","0","0","5","3","5","4","3","4","4","3","4","4","7","6","8","8","6","6","7","8","7","6","3","5","4","4","3","5","4","3","3","3","3","6","3","2","5","4","2","4","3","3","4","2","3","3","4","5","6","5","6","7","5","7","3","3","6","3","6","3","7","774306025401749506","张","276","Female","[""好她"",""好我"",""坏我"",""坏她""]","[""强她"",""强我"",""弱我"",""弱她""]","","","","","","","","nonmatch","","","","","","","","","","key","j","16.666033613445148","768","428","j","true","nonmatch","img/circle.png","弱我","强我","prac_ALT2_ability","practice_ability","","","","","","","",""
"null","<span style='color:GreenYellow; font-size: 70px;'>正确! </span>","null","html-keyboard-response","13","185287","0.0-8.0-1.0-1.0-0.0-1.1","3","2","2","3","1","4","3","2","4","4","4","0","-1","-2","-1","-2","1","0","0","5","3","5","4","3","4","4","3","4","4","7","6","8","8","6","6","7","8","7","6","3","5","4","4","3","5","4","3","3","3","3","6","3","2","5","4","2","4","3","3","4","2","3","3","4","5","6","5","6","7","5","7","3","3","6","3","6","3","7","774306025401749506","张","276","Female","[""好她"",""好我"",""坏我"",""坏她""]","[""强她"",""强我"",""弱我"",""弱她""]","","","","","","","","","","","","","","","","","","","","","","","","","","","","","","feedback_test","","","","","","","",""
"1003","","j","psychophysics","14","187291","0.0-8.0-1.0-1.0-0.0-0.2","3","2","2","3","1","4","3","2","4","4","4","0","-1","-2","-1","-2","1","0","0","5","3","5","4","3","4","4","3","4","4","7","6","8","8","6","6","7","8","7","6","3","5","4","4","3","5","4","3","3","3","3","6","3","2","5","4","2","4","3","3","4","2","3","3","4","5","6","5","6","7","5","7","3","3","6","3","6","3","7","774306025401749506","张","276","Female","[""好她"",""好我"",""坏我"",""坏她""]","[""强她"",""强我"",""弱我"",""弱她""]","","","","","","","","nonmatch","","","","","","","","","","key","j","16.66509243697461","768","428","j","true","nonmatch","img/trapezoid.png","强我","弱我","prac_ALT2_ability","practice_ability","","","","","","","",""
"null","<span style='color:GreenYellow; font-size: 70px;'>正确! </span>","null","html-keyboard-response","15","187793","0.0-8.0-1.0-1.0-0.0-1.2","3","2","2","3","1","4","3","2","4","4","4","0","-1","-2","-1","-2","1","0","0","5","3","5","4","3","4","4","3","4","4","7","6","8","8","6","6","7","8","7","6","3","5","4","4","3","5","4","3","3","3","3","6","3","2","5","4","2","4","3","3","4","2","3","3","4","5","6","5","6","7","5","7","3","3","6","3","6","3","7","774306025401749506","张","276","Female","[""好她"",""好我"",""坏我"",""坏她""]","[""强她"",""强我"",""弱我"",""弱她""]","","","","","","","","","","","","","","","","","","","","","","","","","","","","","","feedback_test","","","","","","","",""
"961","","f","psychophysics","16","189755","0.0-8.0-1.0-1.0-0.0-0.3","3","2","2","3","1","4","3","2","4","4","4","0","-1","-2","-1","-2","1","0","0","5","3","5","4","3","4","4","3","4","4","7","6","8","8","6","6","7","8","7","6","3","5","4","4","3","5","4","3","3","3","3","6","3","2","5","4","2","4","3","3","4","2","3","3","4","5","6","5","6","7","5","7","3","3","6","3","6","3","7","774306025401749506","张","276","Female","[""好她"",""好我"",""坏我"",""坏她""]","[""强她"",""强我"",""弱我"",""弱她""]","","","","","","","","match","","","","","","","","","","key","f","16.66636752136749","768","428","f","true","match","img/trapezoid.png","弱我","弱我","prac_ALT2_ability","practice_ability","","","","","","","",""
"null","<span style='color:GreenYellow; font-size: 70px;'>正确! </span>","null","html-keyboard-response","17","190256","0.0-8.0-1.0-1.0-0.0-1.3","3","2","2","3","1","4","3","2","4","4","4","0","-1","-2","-1","-2","1","0","0","5","3","5","4","3","4","4","3","4","4","7","6","8","8","6","6","7","8","7","6","3","5","4","4","3","5","4","3","3","3","3","6","3","2","5","4","2","4","3","3","4","2","3","3","4","5","6","5","6","7","5","7","3","3","6","3","6","3","7","774306025401749506","张","276","Female","[""好她"",""好我"",""坏我"",""坏她""]","[""强她"",""强我"",""弱我"",""弱她""]","","","","","","","","","","","","","","","","","","","","","","","","","","","","","","feedback_test","","","","","","","",""
"739","","j","psychophysics","18","191996","0.0-8.0-1.0-1.0-0.0-0.4","3","2","2","3","1","4","3","2","4","4","4","0","-1","-2","-1","-2","1","0","0","5","3","5","4","3","4","4","3","4","4","7","6","8","8","6","6","7","8","7","6","3","5","4","4","3","5","4","3","3","3","3","6","3","2","5","4","2","4","3","3","4","2","3","3","4","5","6","5","6","7","5","7","3","3","6","3","6","3","7","774306025401749506","张","276","Female","[""好她"",""好我"",""坏我"",""坏她""]","[""强她"",""强我"",""弱我"",""弱她""]","","","","","","","","nonmatch","","","","","","","","","","key","j","16.666144230769323","768","428","j","true","nonmatch","img/diamond.png","弱我","强她","prac_ALT2_ability","practice_ability","","","","","","","",""
"null","<span style='color:GreenYellow; font-size: 70px;'>正确! </span>","null","html-keyboard-response","19","192497","0.0-8.0-1.0-1.0-0.0-1.4","3","2","2","3","1","4","3","2","4","4","4","0","-1","-2","-1","-2","1","0","0","5","3","5","4","3","4","4","3","4","4","7","6","8","8","6","6","7","8","7","6","3","5","4","4","3","5","4","3","3","3","3","6","3","2","5","4","2","4","3","3","4","2","3","3","4","5","6","5","6","7","5","7","3","3","6","3","6","3","7","774306025401749506","张","276","Female","[""好她"",""好我"",""坏我"",""坏她""]","[""强她"",""强我"",""弱我"",""弱她""]","","","","","","","","","","","","","","","","","","","","","","","","","","","","","","feedback_test","","","","","","","",""
"778","","j","psychophysics","20","194277","0.0-8.0-1.0-1.0-0.0-0.5","3","2","2","3","1","4","3","2","4","4","4","0","-1","-2","-1","-2","1","0","0","5","3","5","4","3","4","4","3","4","4","7","6","8","8","6","6","7","8","7","6","3","5","4","4","3","5","4","3","3","3","3","6","3","2","5","4","2","4","3","3","4","2","3","3","4","5","6","5","6","7","5","7","3","3","6","3","6","3","7","774306025401749506","张","276","Female","[""好她"",""好我"",""坏我"",""坏她""]","[""强她"",""强我"",""弱我"",""弱她""]","","","","","","","","nonmatch","","","","","","","","","","key","j","16.66697142857149","768","428","j","true","nonmatch","img/diamond.png","强我","强她","prac_ALT2_ability","practice_ability","","","","","","","",""
"null","<span style='color:GreenYellow; font-size: 70px;'>正确! </span>","null","html-keyboard-response","21","194778","0.0-8.0-1.0-1.0-0.0-1.5","3","2","2","3","1","4","3","2","4","4","4","0","-1","-2","-1","-2","1","0","0","5","3","5","4","3","4","4","3","4","4","7","6","8","8","6","6","7","8","7","6","3","5","4","4","3","5","4","3","3","3","3","6","3","2","5","4","2","4","3","3","4","2","3","3","4","5","6","5","6","7","5","7","3","3","6","3","6","3","7","774306025401749506","张","276","Female","[""好她"",""好我"",""坏我"",""坏她""]","[""强她"",""强我"",""弱我"",""弱她""]","","","","","","","","","","","","","","","","","","","","","","","","","","","","","","feedback_test","","","","","","","",""
"901","","j","psychophysics","22","196680","0.0-8.0-1.0-1.0-0.0-0.6","3","2","2","3","1","4","3","2","4","4","4","0","-1","-2","-1","-2","1","0","0","5","3","5","4","3","4","4","3","4","4","7","6","8","8","6","6","7","8","7","6","3","5","4","4","3","5","4","3","3","3","3","6","3","2","5","4","2","4","3","3","4","2","3","3","4","5","6","5","6","7","5","7","3","3","6","3","6","3","7","774306025401749506","张","276","Female","[""好她"",""好我"",""坏我"",""坏她""]","[""强她"",""强我"",""弱我"",""弱她""]","","","","","","","","nonmatch","","","","","","","","","","key","j","16.665902654867285","768","428","j","true","nonmatch","img/hexagon.png","弱我","弱她","prac_ALT2_ability","practice_ability","","","","","","","",""
"null","<span style='color:GreenYellow; font-size: 70px;'>正确! </span>","null","html-keyboard-response","23","197181","0.0-8.0-1.0-1.0-0.0-1.6","3","2","2","3","1","4","3","2","4","4","4","0","-1","-2","-1","-2","1","0","0","5","3","5","4","3","4","4","3","4","4","7","6","8","8","6","6","7","8","7","6","3","5","4","4","3","5","4","3","3","3","3","6","3","2","5","4","2","4","3","3","4","2","3","3","4","5","6","5","6","7","5","7","3","3","6","3","6","3","7","774306025401749506","张","276","Female","[""好她"",""好我"",""坏我"",""坏她""]","[""强她"",""强我"",""弱我"",""弱她""]","","","","","","","","","","","","","","","","","","","","","","","","","","","","","","feedback_test","","","","","","","",""
"null","","null","psychophysics","24","199384","0.0-8.0-1.0-1.0-0.0-0.7","3","2","2","3","1","4","3","2","4","4","4","0","-1","-2","-1","-2","1","0","0","5","3","5","4","3","4","4","3","4","4","7","6","8","8","6","6","7","8","7","6","3","5","4","4","3","5","4","3","3","3","3","6","3","2","5","4","2","4","3","3","4","2","3","3","4","5","6","5","6","7","5","7","3","3","6","3","6","3","7","774306025401749506","张","276","Female","[""好她"",""好我"",""坏我"",""坏她""]","[""强她"",""强我"",""弱我"",""弱她""]","","","","","","","","null","","","","","","","","","","key","null","16.66678625954211","768","428","j","false","nonmatch","img/circle.png","弱她","强我","prac_ALT2_ability","practice_ability","","","","","","","",""
"null","<span class='add_' style='color:yellow; font-size: 70px;'> 太慢! </span>","null","html-keyboard-response","25","199885","0.0-8.0-1.0-1.0-0.0-1.7","3","2","2","3","1","4","3","2","4","4","4","0","-1","-2","-1","-2","1","0","0","5","3","5","4","3","4","4","3","4","4","7","6","8","8","6","6","7","8","7","6","3","5","4","4","3","5","4","3","3","3","3","6","3","2","5","4","2","4","3","3","4","2","3","3","4","5","6","5","6","7","5","7","3","3","6","3","6","3","7","774306025401749506","张","276","Female","[""好她"",""好我"",""坏我"",""坏她""]","[""强她"",""强我"",""弱我"",""弱她""]","","","","","","","","","","","","","","","","","","","","","","","","","","","","","","feedback_test","","","","","","","",""
"792","","j","psychophysics","26","201678","0.0-8.0-1.0-1.0-0.0-0.8","3","2","2","3","1","4","3","2","4","4","4","0","-1","-2","-1","-2","1","0","0","5","3","5","4","3","4","4","3","4","4","7","6","8","8","6","6","7","8","7","6","3","5","4","4","3","5","4","3","3","3","3","6","3","2","5","4","2","4","3","3","4","2","3","3","4","5","6","5","6","7","5","7","3","3","6","3","6","3","7","774306025401749506","张","276","Female","[""好她"",""好我"",""坏我"",""坏她""]","[""强她"",""强我"",""弱我"",""弱她""]","","","","","","","","nonmatch","","","","","","","","","","key","j","16.666235849056733","768","428","j","true","nonmatch","img/hexagon.png","强我","弱她","prac_ALT2_ability","practice_ability","","","","","","","",""
"null","<span style='color:GreenYellow; font-size: 70px;'>正确! </span>","null","html-keyboard-response","27","202178","0.0-8.0-1.0-1.0-0.0-1.8","3","2","2","3","1","4","3","2","4","4","4","0","-1","-2","-1","-2","1","0","0","5","3","5","4","3","4","4","3","4","4","7","6","8","8","6","6","7","8","7","6","3","5","4","4","3","5","4","3","3","3","3","6","3","2","5","4","2","4","3","3","4","2","3","3","4","5","6","5","6","7","5","7","3","3","6","3","6","3","7","774306025401749506","张","276","Female","[""好她"",""好我"",""坏我"",""坏她""]","[""强她"",""强我"",""弱我"",""弱她""]","","","","","","","","","","","","","","","","","","","","","","","","","","","","","","feedback_test","","","","","","","",""
"931","","f","psychophysics","28","204110","0.0-8.0-1.0-1.0-0.0-0.9","3","2","2","3","1","4","3","2","4","4","4","0","-1","-2","-1","-2","1","0","0","5","3","5","4","3","4","4","3","4","4","7","6","8","8","6","6","7","8","7","6","3","5","4","4","3","5","4","3","3","3","3","6","3","2","5","4","2","4","3","3","4","2","3","3","4","5","6","5","6","7","5","7","3","3","6","3","6","3","7","774306025401749506","张","276","Female","[""好她"",""好我"",""坏我"",""坏她""]","[""强她"",""强我"",""弱我"",""弱她""]","","","","","","","","match","","","","","","","","","","key","f","16.66719298245612","768","428","f","true","match","img/trapezoid.png","弱我","弱我","prac_ALT2_ability","practice_ability","","","","","","","",""
"null","<span style='color:GreenYellow; font-size: 70px;'>正确! </span>","null","html-keyboard-response","29","204611","0.0-8.0-1.0-1.0-0.0-1.9","3","2","2","3","1","4","3","2","4","4","4","0","-1","-2","-1","-2","1","0","0","5","3","5","4","3","4","4","3","4","4","7","6","8","8","6","6","7","8","7","6","3","5","4","4","3","5","4","3","3","3","3","6","3","2","5","4","2","4","3","3","4","2","3","3","4","5","6","5","6","7","5","7","3","3","6","3","6","3","7","774306025401749506","张","276","Female","[""好她"",""好我"",""坏我"",""坏她""]","[""强她"",""强我"",""弱我"",""弱她""]","","","","","","","","","","","","","","","","","","","","","","","","","","","","","","feedback_test","","","","","","","",""
"721","","f","psychophysics","30","206333","0.0-8.0-1.0-1.0-0.0-0.10","3","2","2","3","1","4","3","2","4","4","4","0","-1","-2","-1","-2","1","0","0","5","3","5","4","3","4","4","3","4","4","7","6","8","8","6","6","7","8","7","6","3","5","4","4","3","5","4","3","3","3","3","6","3","2","5","4","2","4","3","3","4","2","3","3","4","5","6","5","6","7","5","7","3","3","6","3","6","3","7","774306025401749506","张","276","Female","[""好她"",""好我"",""坏我"",""坏她""]","[""强她"",""强我"",""弱我"",""弱她""]","","","","","","","","match","","","","","","","","","","key","f","16.66765686274505","768","428","f","true","match","img/hexagon.png","弱她","弱她","prac_ALT2_ability","practice_ability","","","","","","","",""
"null","<span style='color:GreenYellow; font-size: 70px;'>正确! </span>","null","html-keyboard-response","31","206834","0.0-8.0-1.0-1.0-0.0-1.10","3","2","2","3","1","4","3","2","4","4","4","0","-1","-2","-1","-2","1","0","0","5","3","5","4","3","4","4","3","4","4","7","6","8","8","6","6","7","8","7","6","3","5","4","4","3","5","4","3","3","3","3","6","3","2","5","4","2","4","3","3","4","2","3","3","4","5","6","5","6","7","5","7","3","3","6","3","6","3","7","774306025401749506","张","276","Female","[""好她"",""好我"",""坏我"",""坏她""]","[""强她"",""强我"",""弱我"",""弱她""]","","","","","","","","","","","","","","","","","","","","","","","","","","","","","","feedback_test","","","","","","","",""
"873","","j","psychophysics","32","208709","0.0-8.0-1.0-1.0-0.0-0.11","3","2","2","3","1","4","3","2","4","4","4","0","-1","-2","-1","-2","1","0","0","5","3","5","4","3","4","4","3","4","4","7","6","8","8","6","6","7","8","7","6","3","5","4","4","3","5","4","3","3","3","3","6","3","2","5","4","2","4","3","3","4","2","3","3","4","5","6","5","6","7","5","7","3","3","6","3","6","3","7","774306025401749506","张","276","Female","[""好她"",""好我"",""坏我"",""坏她""]","[""强她"",""强我"",""弱我"",""弱她""]","","","","","","","","nonmatch","","","","","","","","","","key","j","16.666531531531405","768","428","j","true","nonmatch","img/hexagon.png","强她","弱她","prac_ALT2_ability","practice_ability","","","","","","","",""
"null","<span style='color:GreenYellow; font-size: 70px;'>正确! </span>","null","html-keyboard-response","33","209210","0.0-8.0-1.0-1.0-0.0-1.11","3","2","2","3","1","4","3","2","4","4","4","0","-1","-2","-1","-2","1","0","0","5","3","5","4","3","4","4","3","4","4","7","6","8","8","6","6","7","8","7","6","3","5","4","4","3","5","4","3","3","3","3","6","3","2","5","4","2","4","3","3","4","2","3","3","4","5","6","5","6","7","5","7","3","3","6","3","6","3","7","774306025401749506","张","276","Female","[""好她"",""好我"",""坏我"",""坏她""]","[""强她"",""强我"",""弱我"",""弱她""]","","","","","","","","","","","","","","","","","","","","","","","","","","","","","","feedback_test","","","","","","","",""
"709","","j","psychophysics","34","210920","0.0-8.0-1.0-1.0-0.0-0.12","3","2","2","3","1","4","3","2","4","4","4","0","-1","-2","-1","-2","1","0","0","5","3","5","4","3","4","4","3","4","4","7","6","8","8","6","6","7","8","7","6","3","5","4","4","3","5","4","3","3","3","3","6","3","2","5","4","2","4","3","3","4","2","3","3","4","5","6","5","6","7","5","7","3","3","6","3","6","3","7","774306025401749506","张","276","Female","[""好她"",""好我"",""坏我"",""坏她""]","[""强她"",""强我"",""弱我"",""弱她""]","","","","","","","","nonmatch","","","","","","","","","","key","j","16.666892156862612","768","428","j","true","nonmatch","img/circle.png","强她","强我","prac_ALT2_ability","practice_ability","","","","","","","",""
"null","<span style='color:GreenYellow; font-size: 70px;'>正确! </span>","null","html-keyboard-response","35","211421","0.0-8.0-1.0-1.0-0.0-1.12","3","2","2","3","1","4","3","2","4","4","4","0","-1","-2","-1","-2","1","0","0","5","3","5","4","3","4","4","3","4","4","7","6","8","8","6","6","7","8","7","6","3","5","4","4","3","5","4","3","3","3","3","6","3","2","5","4","2","4","3","3","4","2","3","3","4","5","6","5","6","7","5","7","3","3","6","3","6","3","7","774306025401749506","张","276","Female","[""好她"",""好我"",""坏我"",""坏她""]","[""强她"",""强我"",""弱我"",""弱她""]","","","","","","","","","","","","","","","","","","","","","","","","","","","","","","feedback_test","","","","","","","",""
"883","","j","psychophysics","36","213306","0.0-8.0-1.0-1.0-0.0-0.13","3","2","2","3","1","4","3","2","4","4","4","0","-1","-2","-1","-2","1","0","0","5","3","5","4","3","4","4","3","4","4","7","6","8","8","6","6","7","8","7","6","3","5","4","4","3","5","4","3","3","3","3","6","3","2","5","4","2","4","3","3","4","2","3","3","4","5","6","5","6","7","5","7","3","3","6","3","6","3","7","774306025401749506","张","276","Female","[""好她"",""好我"",""坏我"",""坏她""]","[""强她"",""强我"",""弱我"",""弱她""]","","","","","","","","nonmatch","","","","","","","","","","key","j","16.66557142857138","768","428","j","true","nonmatch","img/trapezoid.png","强她","弱我","prac_ALT2_ability","practice_ability","","","","","","","",""
"null","<span style='color:GreenYellow; font-size: 70px;'>正确! </span>","null","html-keyboard-response","37","213807","0.0-8.0-1.0-1.0-0.0-1.13","3","2","2","3","1","4","3","2","4","4","4","0","-1","-2","-1","-2","1","0","0","5","3","5","4","3","4","4","3","4","4","7","6","8","8","6","6","7","8","7","6","3","5","4","4","3","5","4","3","3","3","3","6","3","2","5","4","2","4","3","3","4","2","3","3","4","5","6","5","6","7","5","7","3","3","6","3","6","3","7","774306025401749506","张","276","Female","[""好她"",""好我"",""坏我"",""坏她""]","[""强她"",""强我"",""弱我"",""弱她""]","","","","","","","","","","","","","","","","","","","","","","","","","","","","","","feedback_test","","","","","","","",""
"760","","f","psychophysics","38","215569","0.0-8.0-1.0-1.0-0.0-0.14","3","2","2","3","1","4","3","2","4","4","4","0","-1","-2","-1","-2","1","0","0","5","3","5","4","3","4","4","3","4","4","7","6","8","8","6","6","7","8","7","6","3","5","4","4","3","5","4","3","3","3","3","6","3","2","5","4","2","4","3","3","4","2","3","3","4","5","6","5","6","7","5","7","3","3","6","3","6","3","7","774306025401749506","张","276","Female","[""好她"",""好我"",""坏我"",""坏她""]","[""强她"",""强我"",""弱我"",""弱她""]","","","","","","","","match","","","","","","","","","","key","f","16.667457142856993","768","428","f","true","match","img/circle.png","强我","强我","prac_ALT2_ability","practice_ability","","","","","","","",""
"null","<span style='color:GreenYellow; font-size: 70px;'>正确! </span>","null","html-keyboard-response","39","216070","0.0-8.0-1.0-1.0-0.0-1.14","3","2","2","3","1","4","3","2","4","4","4","0","-1","-2","-1","-2","1","0","0","5","3","5","4","3","4","4","3","4","4","7","6","8","8","6","6","7","8","7","6","3","5","4","4","3","5","4","3","3","3","3","6","3","2","5","4","2","4","3","3","4","2","3","3","4","5","6","5","6","7","5","7","3","3","6","3","6","3","7","774306025401749506","张","276","Female","[""好她"",""好我"",""坏我"",""坏她""]","[""强她"",""强我"",""弱我"",""弱她""]","","","","","","","","","","","","","","","","","","","","","","","","","","","","","","feedback_test","","","","","","","",""
"686","","f","psychophysics","40","217757","0.0-8.0-1.0-1.0-0.0-0.15","3","2","2","3","1","4","3","2","4","4","4","0","-1","-2","-1","-2","1","0","0","5","3","5","4","3","4","4","3","4","4","7","6","8","8","6","6","7","8","7","6","3","5","4","4","3","5","4","3","3","3","3","6","3","2","5","4","2","4","3","3","4","2","3","3","4","5","6","5","6","7","5","7","3","3","6","3","6","3","7","774306025401749506","张","276","Female","[""好她"",""好我"",""坏我"",""坏她""]","[""强她"",""强我"",""弱我"",""弱她""]","","","","","","","","match","","","","","","","","","","key","f","16.6663400000002","768","428","f","true","match","img/circle.png","强我","强我","prac_ALT2_ability","practice_ability","","","","","","","",""
"null","<span style='color:GreenYellow; font-size: 70px;'>正确! </span>","null","html-keyboard-response","41","218257","0.0-8.0-1.0-1.0-0.0-1.15","3","2","2","3","1","4","3","2","4","4","4","0","-1","-2","-1","-2","1","0","0","5","3","5","4","3","4","4","3","4","4","7","6","8","8","6","6","7","8","7","6","3","5","4","4","3","5","4","3","3","3","3","6","3","2","5","4","2","4","3","3","4","2","3","3","4","5","6","5","6","7","5","7","3","3","6","3","6","3","7","774306025401749506","张","276","Female","[""好她"",""好我"",""坏我"",""坏她""]","[""强她"",""强我"",""弱我"",""弱她""]","","","","","","","","","","","","","","","","","","","","","","","","","","","","","","feedback_test","","","","","","","",""
"855","","f","psychophysics","42","220113","0.0-8.0-1.0-1.0-0.0-0.16","3","2","2","3","1","4","3","2","4","4","4","0","-1","-2","-1","-2","1","0","0","5","3","5","4","3","4","4","3","4","4","7","6","8","8","6","6","7","8","7","6","3","5","4","4","3","5","4","3","3","3","3","6","3","2","5","4","2","4","3","3","4","2","3","3","4","5","6","5","6","7","5","7","3","3","6","3","6","3","7","774306025401749506","张","276","Female","[""好她"",""好我"",""坏我"",""坏她""]","[""强她"",""强我"",""弱我"",""弱她""]","","","","","","","","match","","","","","","","","","","key","f","16.666666666666668","768","428","f","true","match","img/diamond.png","强她","强她","prac_ALT2_ability","practice_ability","","","","","","","",""
"null","<span style='color:GreenYellow; font-size: 70px;'>正确! </span>","null","html-keyboard-response","43","220614","0.0-8.0-1.0-1.0-0.0-1.16","3","2","2","3","1","4","3","2","4","4","4","0","-1","-2","-1","-2","1","0","0","5","3","5","4","3","4","4","3","4","4","7","6","8","8","6","6","7","8","7","6","3","5","4","4","3","5","4","3","3","3","3","6","3","2","5","4","2","4","3","3","4","2","3","3","4","5","6","5","6","7","5","7","3","3","6","3","6","3","7","774306025401749506","张","276","Female","[""好她"",""好我"",""坏我"",""坏她""]","[""强她"",""强我"",""弱我"",""弱她""]","","","","","","","","","","","","","","","","","","","","","","","","","","","","","","feedback_test","","","","","","","",""
"804","","f","psychophysics","44","222420","0.0-8.0-1.0-1.0-0.0-0.17","3","2","2","3","1","4","3","2","4","4","4","0","-1","-2","-1","-2","1","0","0","5","3","5","4","3","4","4","3","4","4","7","6","8","8","6","6","7","8","7","6","3","5","4","4","3","5","4","3","3","3","3","6","3","2","5","4","2","4","3","3","4","2","3","3","4","5","6","5","6","7","5","7","3","3","6","3","6","3","7","774306025401749506","张","276","Female","[""好她"",""好我"",""坏我"",""坏她""]","[""强她"",""强我"",""弱我"",""弱她""]","","","","","","","","match","","","","","","","","","","key","f","16.66642056074767","768","428","f","true","match","img/trapezoid.png","弱我","弱我","prac_ALT2_ability","practice_ability","","","","","","","",""
"null","<span style='color:GreenYellow; font-size: 70px;'>正确! </span>","null","html-keyboard-response","45","222921","0.0-8.0-1.0-1.0-0.0-1.17","3","2","2","3","1","4","3","2","4","4","4","0","-1","-2","-1","-2","1","0","0","5","3","5","4","3","4","4","3","4","4","7","6","8","8","6","6","7","8","7","6","3","5","4","4","3","5","4","3","3","3","3","6","3","2","5","4","2","4","3","3","4","2","3","3","4","5","6","5","6","7","5","7","3","3","6","3","6","3","7","774306025401749506","张","276","Female","[""好她"",""好我"",""坏我"",""坏她""]","[""强她"",""强我"",""弱我"",""弱她""]","","","","","","","","","","","","","","","","","","","","","","","","","","","","","","feedback_test","","","","","","","",""
"924","","j","psychophysics","46","224846","0.0-8.0-1.0-1.0-0.0-0.18","3","2","2","3","1","4","3","2","4","4","4","0","-1","-2","-1","-2","1","0","0","5","3","5","4","3","4","4","3","4","4","7","6","8","8","6","6","7","8","7","6","3","5","4","4","3","5","4","3","3","3","3","6","3","2","5","4","2","4","3","3","4","2","3","3","4","5","6","5","6","7","5","7","3","3","6","3","6","3","7","774306025401749506","张","276","Female","[""好她"",""好我"",""坏我"",""坏她""]","[""强她"",""强我"",""弱我"",""弱她""]","","","","","","","","nonmatch","","","","","","","","","","key","j","16.66639999999999","768","428","j","true","nonmatch","img/diamond.png","弱她","强她","prac_ALT2_ability","practice_ability","","","","","","","",""
"null","<span style='color:GreenYellow; font-size: 70px;'>正确! </span>","null","html-keyboard-response","47","225349","0.0-8.0-1.0-1.0-0.0-1.18","3","2","2","3","1","4","3","2","4","4","4","0","-1","-2","-1","-2","1","0","0","5","3","5","4","3","4","4","3","4","4","7","6","8","8","6","6","7","8","7","6","3","5","4","4","3","5","4","3","3","3","3","6","3","2","5","4","2","4","3","3","4","2","3","3","4","5","6","5","6","7","5","7","3","3","6","3","6","3","7","774306025401749506","张","276","Female","[""好她"",""好我"",""坏我"",""坏她""]","[""强她"",""强我"",""弱我"",""弱她""]","","","","","","","","","","","","","","","","","","","","","","","","","","","","","","feedback_test","","","","","","","",""
"940","","j","psychophysics","48","227291","0.0-8.0-1.0-1.0-0.0-0.19","3","2","2","3","1","4","3","2","4","4","4","0","-1","-2","-1","-2","1","0","0","5","3","5","4","3","4","4","3","4","4","7","6","8","8","6","6","7","8","7","6","3","5","4","4","3","5","4","3","3","3","3","6","3","2","5","4","2","4","3","3","4","2","3","3","4","5","6","5","6","7","5","7","3","3","6","3","6","3","7","774306025401749506","张","276","Female","[""好她"",""好我"",""坏我"",""坏她""]","[""强她"",""强我"",""弱我"",""弱她""]","","","","","","","","nonmatch","","","","","","","","","","key","j","16.666669565217276","768","428","f","false","match","img/hexagon.png","弱她","弱她","prac_ALT2_ability","practice_ability","","","","","","","",""
"null","<span style='color:red; font-size: 70px;'>错误! </span>","null","html-keyboard-response","49","227793","0.0-8.0-1.0-1.0-0.0-1.19","3","2","2","3","1","4","3","2","4","4","4","0","-1","-2","-1","-2","1","0","0","5","3","5","4","3","4","4","3","4","4","7","6","8","8","6","6","7","8","7","6","3","5","4","4","3","5","4","3","3","3","3","6","3","2","5","4","2","4","3","3","4","2","3","3","4","5","6","5","6","7","5","7","3","3","6","3","6","3","7","774306025401749506","张","276","Female","[""好她"",""好我"",""坏我"",""坏她""]","[""强她"",""强我"",""弱我"",""弱她""]","","","","","","","","","","","","","","","","","","","","","","","","","","","","","","feedback_test","","","","","","","",""
"711","","f","psychophysics","50","229505","0.0-8.0-1.0-1.0-0.0-0.20","3","2","2","3","1","4","3","2","4","4","4","0","-1","-2","-1","-2","1","0","0","5","3","5","4","3","4","4","3","4","4","7","6","8","8","6","6","7","8","7","6","3","5","4","4","3","5","4","3","3","3","3","6","3","2","5","4","2","4","3","3","4","2","3","3","4","5","6","5","6","7","5","7","3","3","6","3","6","3","7","774306025401749506","张","276","Female","[""好她"",""好我"",""坏我"",""坏她""]","[""强她"",""强我"",""弱我"",""弱她""]","","","","","","","","match","","","","","","","","","","key","f","16.6669411764705","768","428","j","false","nonmatch","img/trapezoid.png","弱她","弱我","prac_ALT2_ability","practice_ability","","","","","","","",""
"null","<span style='color:red; font-size: 70px;'>错误! </span>","null","html-keyboard-response","51","230006","0.0-8.0-1.0-1.0-0.0-1.20","3","2","2","3","1","4","3","2","4","4","4","0","-1","-2","-1","-2","1","0","0","5","3","5","4","3","4","4","3","4","4","7","6","8","8","6","6","7","8","7","6","3","5","4","4","3","5","4","3","3","3","3","6","3","2","5","4","2","4","3","3","4","2","3","3","4","5","6","5","6","7","5","7","3","3","6","3","6","3","7","774306025401749506","张","276","Female","[""好她"",""好我"",""坏我"",""坏她""]","[""强她"",""强我"",""弱我"",""弱她""]","","","","","","","","","","","","","","","","","","","","","","","","","","","","","","feedback_test","","","","","","","",""
"797","","f","psychophysics","52","231805","0.0-8.0-1.0-1.0-0.0-0.21","3","2","2","3","1","4","3","2","4","4","4","0","-1","-2","-1","-2","1","0","0","5","3","5","4","3","4","4","3","4","4","7","6","8","8","6","6","7","8","7","6","3","5","4","4","3","5","4","3","3","3","3","6","3","2","5","4","2","4","3","3","4","2","3","3","4","5","6","5","6","7","5","7","3","3","6","3","6","3","7","774306025401749506","张","276","Female","[""好她"",""好我"",""坏我"",""坏她""]","[""强她"",""强我"",""弱我"",""弱她""]","","","","","","","","match","","","","","","","","","","key","f","16.66688785046746","768","428","f","true","match","img/diamond.png","强她","强她","prac_ALT2_ability","practice_ability","","","","","","","",""
"null","<span style='color:GreenYellow; font-size: 70px;'>正确! </span>","null","html-keyboard-response","53","232306","0.0-8.0-1.0-1.0-0.0-1.21","3","2","2","3","1","4","3","2","4","4","4","0","-1","-2","-1","-2","1","0","0","5","3","5","4","3","4","4","3","4","4","7","6","8","8","6","6","7","8","7","6","3","5","4","4","3","5","4","3","3","3","3","6","3","2","5","4","2","4","3","3","4","2","3","3","4","5","6","5","6","7","5","7","3","3","6","3","6","3","7","774306025401749506","张","276","Female","[""好她"",""好我"",""坏我"",""坏她""]","[""强她"",""强我"",""弱我"",""弱她""]","","","","","","","","","","","","","","","","","","","","","","","","","","","","","","feedback_test","","","","","","","",""
"680","","f","psychophysics","54","233987","0.0-8.0-1.0-1.0-0.0-0.22","3","2","2","3","1","4","3","2","4","4","4","0","-1","-2","-1","-2","1","0","0","5","3","5","4","3","4","4","3","4","4","7","6","8","8","6","6","7","8","7","6","3","5","4","4","3","5","4","3","3","3","3","6","3","2","5","4","2","4","3","3","4","2","3","3","4","5","6","5","6","7","5","7","3","3","6","3","6","3","7","774306025401749506","张","276","Female","[""好她"",""好我"",""坏我"",""坏她""]","[""强她"",""强我"",""弱我"",""弱她""]","","","","","","","","match","","","","","","","","","","key","f","16.66728999999992","768","428","f","true","match","img/circle.png","强我","强我","prac_ALT2_ability","practice_ability","","","","","","","",""
"null","<span style='color:GreenYellow; font-size: 70px;'>正确! </span>","null","html-keyboard-response","55","234489","0.0-8.0-1.0-1.0-0.0-1.22","3","2","2","3","1","4","3","2","4","4","4","0","-1","-2","-1","-2","1","0","0","5","3","5","4","3","4","4","3","4","4","7","6","8","8","6","6","7","8","7","6","3","5","4","4","3","5","4","3","3","3","3","6","3","2","5","4","2","4","3","3","4","2","3","3","4","5","6","5","6","7","5","7","3","3","6","3","6","3","7","774306025401749506","张","276","Female","[""好她"",""好我"",""坏我"",""坏她""]","[""强她"",""强我"",""弱我"",""弱她""]","","","","","","","","","","","","","","","","","","","","","","","","","","","","","","feedback_test","","","","","","","",""
"871","","j","psychophysics","56","236360","0.0-8.0-1.0-1.0-0.0-0.23","3","2","2","3","1","4","3","2","4","4","4","0","-1","-2","-1","-2","1","0","0","5","3","5","4","3","4","4","3","4","4","7","6","8","8","6","6","7","8","7","6","3","5","4","4","3","5","4","3","3","3","3","6","3","2","5","4","2","4","3","3","4","2","3","3","4","5","6","5","6","7","5","7","3","3","6","3","6","3","7","774306025401749506","张","276","Female","[""好她"",""好我"",""坏我"",""坏她""]","[""强她"",""强我"",""弱我"",""弱她""]","","","","","","","","nonmatch","","","","","","","","","","key","j","16.667360360360533","768","428","f","false","match","img/hexagon.png","弱她","弱她","prac_ALT2_ability","practice_ability","","","","","","","",""
"null","<span style='color:red; font-size: 70px;'>错误! </span>","null","html-keyboard-response","57","236860","0.0-8.0-1.0-1.0-0.0-1.23","3","2","2","3","1","4","3","2","4","4","4","0","-1","-2","-1","-2","1","0","0","5","3","5","4","3","4","4","3","4","4","7","6","8","8","6","6","7","8","7","6","3","5","4","4","3","5","4","3","3","3","3","6","3","2","5","4","2","4","3","3","4","2","3","3","4","5","6","5","6","7","5","7","3","3","6","3","6","3","7","774306025401749506","张","276","Female","[""好她"",""好我"",""坏我"",""坏她""]","[""强她"",""强我"",""弱我"",""弱她""]","","","","","","","","","","","","","","","","","","","","","","","","","","","","","","feedback_test","","","","","","","",""
"644","","f","psychophysics","58","238505","0.0-8.0-1.0-1.0-0.0-0.24","3","2","2","3","1","4","3","2","4","4","4","0","-1","-2","-1","-2","1","0","0","5","3","5","4","3","4","4","3","4","4","7","6","8","8","6","6","7","8","7","6","3","5","4","4","3","5","4","3","3","3","3","6","3","2","5","4","2","4","3","3","4","2","3","3","4","5","6","5","6","7","5","7","3","3","6","3","6","3","7","774306025401749506","张","276","Female","[""好她"",""好我"",""坏我"",""坏她""]","[""强她"",""强我"",""弱我"",""弱她""]","","","","","","","","match","","","","","","","","","","key","f","16.666649484536165","768","428","f","true","match","img/hexagon.png","弱她","弱她","prac_ALT2_ability","practice_ability","","","","","","","",""
"null","<span style='color:GreenYellow; font-size: 70px;'>正确! </span>","null","html-keyboard-response","59","239007","0.0-8.0-1.0-1.0-0.0-1.24","3","2","2","3","1","4","3","2","4","4","4","0","-1","-2","-1","-2","1","0","0","5","3","5","4","3","4","4","3","4","4","7","6","8","8","6","6","7","8","7","6","3","5","4","4","3","5","4","3","3","3","3","6","3","2","5","4","2","4","3","3","4","2","3","3","4","5","6","5","6","7","5","7","3","3","6","3","6","3","7","774306025401749506","张","276","Female","[""好她"",""好我"",""坏我"",""坏她""]","[""强她"",""强我"",""弱我"",""弱她""]","","","","","","","","","","","","","","","","","","","","","","","","","","","","","","feedback_test","","","","","","","",""
"761","","f","psychophysics","60","240768","0.0-8.0-1.0-1.0-0.0-0.25","3","2","2","3","1","4","3","2","4","4","4","0","-1","-2","-1","-2","1","0","0","5","3","5","4","3","4","4","3","4","4","7","6","8","8","6","6","7","8","7","6","3","5","4","4","3","5","4","3","3","3","3","6","3","2","5","4","2","4","3","3","4","2","3","3","4","5","6","5","6","7","5","7","3","3","6","3","6","3","7","774306025401749506","张","276","Female","[""好她"",""好我"",""坏我"",""坏她""]","[""强她"",""强我"",""弱我"",""弱她""]","","","","","","","","match","","","","","","","","","","key","f","16.66748571428581","768","428","j","false","nonmatch","img/diamond.png","弱我","强她","prac_ALT2_ability","practice_ability","","","","","","","",""
"null","<span style='color:red; font-size: 70px;'>错误! </span>","null","html-keyboard-response","61","241269","0.0-8.0-1.0-1.0-0.0-1.25","3","2","2","3","1","4","3","2","4","4","4","0","-1","-2","-1","-2","1","0","0","5","3","5","4","3","4","4","3","4","4","7","6","8","8","6","6","7","8","7","6","3","5","4","4","3","5","4","3","3","3","3","6","3","2","5","4","2","4","3","3","4","2","3","3","4","5","6","5","6","7","5","7","3","3","6","3","6","3","7","774306025401749506","张","276","Female","[""好她"",""好我"",""坏我"",""坏她""]","[""强她"",""强我"",""弱我"",""弱她""]","","","","","","","","","","","","","","","","","","","","","","","","","","","","","","feedback_test","","","","","","","",""
"779","","f","psychophysics","62","243049","0.0-8.0-1.0-1.0-0.0-0.26","3","2","2","3","1","4","3","2","4","4","4","0","-1","-2","-1","-2","1","0","0","5","3","5","4","3","4","4","3","4","4","7","6","8","8","6","6","7","8","7","6","3","5","4","4","3","5","4","3","3","3","3","6","3","2","5","4","2","4","3","3","4","2","3","3","4","5","6","5","6","7","5","7","3","3","6","3","6","3","7","774306025401749506","张","276","Female","[""好她"",""好我"",""坏我"",""坏她""]","[""强她"",""强我"",""弱我"",""弱她""]","","","","","","","","match","","","","","","","","","","key","f","16.66740566037759","768","428","f","true","match","img/hexagon.png","弱她","弱她","prac_ALT2_ability","practice_ability","","","","","","","",""
"null","<span style='color:GreenYellow; font-size: 70px;'>正确! </span>","null","html-keyboard-response","63","243550","0.0-8.0-1.0-1.0-0.0-1.26","3","2","2","3","1","4","3","2","4","4","4","0","-1","-2","-1","-2","1","0","0","5","3","5","4","3","4","4","3","4","4","7","6","8","8","6","6","7","8","7","6","3","5","4","4","3","5","4","3","3","3","3","6","3","2","5","4","2","4","3","3","4","2","3","3","4","5","6","5","6","7","5","7","3","3","6","3","6","3","7","774306025401749506","张","276","Female","[""好她"",""好我"",""坏我"",""坏她""]","[""强她"",""强我"",""弱我"",""弱她""]","","","","","","","","","","","","","","","","","","","","","","","","","","","","","","feedback_test","","","","","","","",""
"852","","f","psychophysics","64","245404","0.0-8.0-1.0-1.0-0.0-0.27","3","2","2","3","1","4","3","2","4","4","4","0","-1","-2","-1","-2","1","0","0","5","3","5","4","3","4","4","3","4","4","7","6","8","8","6","6","7","8","7","6","3","5","4","4","3","5","4","3","3","3","3","6","3","2","5","4","2","4","3","3","4","2","3","3","4","5","6","5","6","7","5","7","3","3","6","3","6","3","7","774306025401749506","张","276","Female","[""好她"",""好我"",""坏我"",""坏她""]","[""强她"",""强我"",""弱我"",""弱她""]","","","","","","","","match","","","","","","","","","","key","f","16.666281818181794","768","428","f","true","match","img/trapezoid.png","弱我","弱我","prac_ALT2_ability","practice_ability","","","","","","","",""
"null","<span style='color:GreenYellow; font-size: 70px;'>正确! </span>","null","html-keyboard-response","65","245905","0.0-8.0-1.0-1.0-0.0-1.27","3","2","2","3","1","4","3","2","4","4","4","0","-1","-2","-1","-2","1","0","0","5","3","5","4","3","4","4","3","4","4","7","6","8","8","6","6","7","8","7","6","3","5","4","4","3","5","4","3","3","3","3","6","3","2","5","4","2","4","3","3","4","2","3","3","4","5","6","5","6","7","5","7","3","3","6","3","6","3","7","774306025401749506","张","276","Female","[""好她"",""好我"",""坏我"",""坏她""]","[""强她"",""强我"",""弱我"",""弱她""]","","","","","","","","","","","","","","","","","","","","","","","","","","","","","","feedback_test","","","","","","","",""
"709","","f","psychophysics","66","247615","0.0-8.0-1.0-1.0-0.0-0.28","3","2","2","3","1","4","3","2","4","4","4","0","-1","-2","-1","-2","1","0","0","5","3","5","4","3","4","4","3","4","4","7","6","8","8","6","6","7","8","7","6","3","5","4","4","3","5","4","3","3","3","3","6","3","2","5","4","2","4","3","3","4","2","3","3","4","5","6","5","6","7","5","7","3","3","6","3","6","3","7","774306025401749506","张","276","Female","[""好她"",""好我"",""坏我"",""坏她""]","[""强她"",""强我"",""弱我"",""弱她""]","","","","","","","","match","","","","","","","","","","key","f","16.66797058823531","768","428","f","true","match","img/trapezoid.png","弱我","弱我","prac_ALT2_ability","practice_ability","","","","","","","",""
"null","<span style='color:GreenYellow; font-size: 70px;'>正确! </span>","null","html-keyboard-response","67","248116","0.0-8.0-1.0-1.0-0.0-1.28","3","2","2","3","1","4","3","2","4","4","4","0","-1","-2","-1","-2","1","0","0","5","3","5","4","3","4","4","3","4","4","7","6","8","8","6","6","7","8","7","6","3","5","4","4","3","5","4","3","3","3","3","6","3","2","5","4","2","4","3","3","4","2","3","3","4","5","6","5","6","7","5","7","3","3","6","3","6","3","7","774306025401749506","张","276","Female","[""好她"",""好我"",""坏我"",""坏她""]","[""强她"",""强我"",""弱我"",""弱她""]","","","","","","","","","","","","","","","","","","","","","","","","","","","","","","feedback_test","","","","","","","",""
"1035","","f","psychophysics","68","250153","0.0-8.0-1.0-1.0-0.0-0.29","3","2","2","3","1","4","3","2","4","4","4","0","-1","-2","-1","-2","1","0","0","5","3","5","4","3","4","4","3","4","4","7","6","8","8","6","6","7","8","7","6","3","5","4","4","3","5","4","3","3","3","3","6","3","2","5","4","2","4","3","3","4","2","3","3","4","5","6","5","6","7","5","7","3","3","6","3","6","3","7","774306025401749506","张","276","Female","[""好她"",""好我"",""坏我"",""坏她""]","[""强她"",""强我"",""弱我"",""弱她""]","","","","","","","","match","","","","","","","","","","key","f","16.666413223140484","768","428","f","true","match","img/circle.png","强我","强我","prac_ALT2_ability","practice_ability","","","","","","","",""
"null","<span style='color:GreenYellow; font-size: 70px;'>正确! </span>","null","html-keyboard-response","69","250654","0.0-8.0-1.0-1.0-0.0-1.29","3","2","2","3","1","4","3","2","4","4","4","0","-1","-2","-1","-2","1","0","0","5","3","5","4","3","4","4","3","4","4","7","6","8","8","6","6","7","8","7","6","3","5","4","4","3","5","4","3","3","3","3","6","3","2","5","4","2","4","3","3","4","2","3","3","4","5","6","5","6","7","5","7","3","3","6","3","6","3","7","774306025401749506","张","276","Female","[""好她"",""好我"",""坏我"",""坏她""]","[""强她"",""强我"",""弱我"",""弱她""]","","","","","","","","","","","","","","","","","","","","","","","","","","","","","","feedback_test","","","","","","","",""
"1063","","j","psychophysics","70","252719","0.0-8.0-1.0-1.0-0.0-0.30","3","2","2","3","1","4","3","2","4","4","4","0","-1","-2","-1","-2","1","0","0","5","3","5","4","3","4","4","3","4","4","7","6","8","8","6","6","7","8","7","6","3","5","4","4","3","5","4","3","3","3","3","6","3","2","5","4","2","4","3","3","4","2","3","3","4","5","6","5","6","7","5","7","3","3","6","3","6","3","7","774306025401749506","张","276","Female","[""好她"",""好我"",""坏我"",""坏她""]","[""强她"",""强我"",""弱我"",""弱她""]","","","","","","","","nonmatch","","","","","","","","","","key","j","16.666829268292833","768","428","j","true","nonmatch","img/trapezoid.png","弱她","弱我","prac_ALT2_ability","practice_ability","","","","","","","",""
"null","<span style='color:GreenYellow; font-size: 70px;'>正确! </span>","null","html-keyboard-response","71","253220","0.0-8.0-1.0-1.0-0.0-1.30","3","2","2","3","1","4","3","2","4","4","4","0","-1","-2","-1","-2","1","0","0","5","3","5","4","3","4","4","3","4","4","7","6","8","8","6","6","7","8","7","6","3","5","4","4","3","5","4","3","3","3","3","6","3","2","5","4","2","4","3","3","4","2","3","3","4","5","6","5","6","7","5","7","3","3","6","3","6","3","7","774306025401749506","张","276","Female","[""好她"",""好我"",""坏我"",""坏她""]","[""强她"",""强我"",""弱我"",""弱她""]","","","","","","","","","","","","","","","","","","","","","","","","","","","","","","feedback_test","","","","","","","",""
"723","","f","psychophysics","72","254944","0.0-8.0-1.0-1.0-0.0-0.31","3","2","2","3","1","4","3","2","4","4","4","0","-1","-2","-1","-2","1","0","0","5","3","5","4","3","4","4","3","4","4","7","6","8","8","6","6","7","8","7","6","3","5","4","4","3","5","4","3","3","3","3","6","3","2","5","4","2","4","3","3","4","2","3","3","4","5","6","5","6","7","5","7","3","3","6","3","6","3","7","774306025401749506","张","276","Female","[""好她"",""好我"",""坏我"",""坏她""]","[""强她"",""强我"",""弱我"",""弱她""]","","","","","","","","match","","","","","","","","","","key","f","16.66782352941193","768","428","f","true","match","img/circle.png","强我","强我","prac_ALT2_ability","practice_ability","","","","","","","",""
"null","<span style='color:GreenYellow; font-size: 70px;'>正确! </span>","null","html-keyboard-response","73","255444","0.0-8.0-1.0-1.0-0.0-1.31","3","2","2","3","1","4","3","2","4","4","4","0","-1","-2","-1","-2","1","0","0","5","3","5","4","3","4","4","3","4","4","7","6","8","8","6","6","7","8","7","6","3","5","4","4","3","5","4","3","3","3","3","6","3","2","5","4","2","4","3","3","4","2","3","3","4","5","6","5","6","7","5","7","3","3","6","3","6","3","7","774306025401749506","张","276","Female","[""好她"",""好我"",""坏我"",""坏她""]","[""强她"",""强我"",""弱我"",""弱她""]","","","","","","","","","","","","","","","","","","","","","","","","","","","","","","feedback_test","","","","","","","",""
"986","","j","psychophysics","74","257430","0.0-8.0-1.0-1.0-0.0-0.32","3","2","2","3","1","4","3","2","4","4","4","0","-1","-2","-1","-2","1","0","0","5","3","5","4","3","4","4","3","4","4","7","6","8","8","6","6","7","8","7","6","3","5","4","4","3","5","4","3","3","3","3","6","3","2","5","4","2","4","3","3","4","2","3","3","4","5","6","5","6","7","5","7","3","3","6","3","6","3","7","774306025401749506","张","276","Female","[""好她"",""好我"",""坏我"",""坏她""]","[""强她"",""强我"",""弱我"",""弱她""]","","","","","","","","nonmatch","","","","","","","","","","key","j","16.666457627118582","768","428","j","true","nonmatch","img/trapezoid.png","强我","弱我","prac_ALT2_ability","practice_ability","","","","","","","",""
"null","<span style='color:GreenYellow; font-size: 70px;'>正确! </span>","null","html-keyboard-response","75","257932","0.0-8.0-1.0-1.0-0.0-1.32","3","2","2","3","1","4","3","2","4","4","4","0","-1","-2","-1","-2","1","0","0","5","3","5","4","3","4","4","3","4","4","7","6","8","8","6","6","7","8","7","6","3","5","4","4","3","5","4","3","3","3","3","6","3","2","5","4","2","4","3","3","4","2","3","3","4","5","6","5","6","7","5","7","3","3","6","3","6","3","7","774306025401749506","张","276","Female","[""好她"",""好我"",""坏我"",""坏她""]","[""强她"",""强我"",""弱我"",""弱她""]","","","","","","","","","","","","","","","","","","","","","","","","","","","","","","feedback_test","","","","","","","",""
"null","","null","psychophysics","76","260134","0.0-8.0-1.0-1.0-0.0-0.33","3","2","2","3","1","4","3","2","4","4","4","0","-1","-2","-1","-2","1","0","0","5","3","5","4","3","4","4","3","4","4","7","6","8","8","6","6","7","8","7","6","3","5","4","4","3","5","4","3","3","3","3","6","3","2","5","4","2","4","3","3","4","2","3","3","4","5","6","5","6","7","5","7","3","3","6","3","6","3","7","774306025401749506","张","276","Female","[""好她"",""好我"",""坏我"",""坏她""]","[""强她"",""强我"",""弱我"",""弱她""]","","","","","","","","null","","","","","","","","","","key","null","16.666641221373947","768","428","f","false","match","img/diamond.png","强她","强她","prac_ALT2_ability","practice_ability","","","","","","","",""
"null","<span class='add_' style='color:yellow; font-size: 70px;'> 太慢! </span>","null","html-keyboard-response","77","260635","0.0-8.0-1.0-1.0-0.0-1.33","3","2","2","3","1","4","3","2","4","4","4","0","-1","-2","-1","-2","1","0","0","5","3","5","4","3","4","4","3","4","4","7","6","8","8","6","6","7","8","7","6","3","5","4","4","3","5","4","3","3","3","3","6","3","2","5","4","2","4","3","3","4","2","3","3","4","5","6","5","6","7","5","7","3","3","6","3","6","3","7","774306025401749506","张","276","Female","[""好她"",""好我"",""坏我"",""坏她""]","[""强她"",""强我"",""弱我"",""弱她""]","","","","","","","","","","","","","","","","","","","","","","","","","","","","","","feedback_test","","","","","","","",""
"703","","f","psychophysics","78","262339","0.0-8.0-1.0-1.0-0.0-0.34","3","2","2","3","1","4","3","2","4","4","4","0","-1","-2","-1","-2","1","0","0","5","3","5","4","3","4","4","3","4","4","7","6","8","8","6","6","7","8","7","6","3","5","4","4","3","5","4","3","3","3","3","6","3","2","5","4","2","4","3","3","4","2","3","3","4","5","6","5","6","7","5","7","3","3","6","3","6","3","7","774306025401749506","张","276","Female","[""好她"",""好我"",""坏我"",""坏她""]","[""强她"",""强我"",""弱我"",""弱她""]","","","","","","","","match","","","","","","","","","","key","f","16.666356435643813","768","428","f","true","match","img/diamond.png","强她","强她","prac_ALT2_ability","practice_ability","","","","","","","",""
"null","<span style='color:GreenYellow; font-size: 70px;'>正确! </span>","null","html-keyboard-response","79","262839","0.0-8.0-1.0-1.0-0.0-1.34","3","2","2","3","1","4","3","2","4","4","4","0","-1","-2","-1","-2","1","0","0","5","3","5","4","3","4","4","3","4","4","7","6","8","8","6","6","7","8","7","6","3","5","4","4","3","5","4","3","3","3","3","6","3","2","5","4","2","4","3","3","4","2","3","3","4","5","6","5","6","7","5","7","3","3","6","3","6","3","7","774306025401749506","张","276","Female","[""好她"",""好我"",""坏我"",""坏她""]","[""强她"",""强我"",""弱我"",""弱她""]","","","","","","","","","","","","","","","","","","","","","","","","","","","","","","feedback_test","","","","","","","",""
"991","","j","psychophysics","80","264831","0.0-8.0-1.0-1.0-0.0-0.35","3","2","2","3","1","4","3","2","4","4","4","0","-1","-2","-1","-2","1","0","0","5","3","5","4","3","4","4","3","4","4","7","6","8","8","6","6","7","8","7","6","3","5","4","4","3","5","4","3","3","3","3","6","3","2","5","4","2","4","3","3","4","2","3","3","4","5","6","5","6","7","5","7","3","3","6","3","6","3","7","774306025401749506","张","276","Female","[""好她"",""好我"",""坏我"",""坏她""]","[""强她"",""强我"",""弱我"",""弱她""]","","","","","","","","nonmatch","","","","","","","","","","key","j","16.666722689075357","768","428","j","true","nonmatch","img/hexagon.png","强我","弱她","prac_ALT2_ability","practice_ability","","","","","","","",""
"null","<span style='color:GreenYellow; font-size: 70px;'>正确! </span>","null","html-keyboard-response","81","265332","0.0-8.0-1.0-1.0-0.0-1.35","3","2","2","3","1","4","3","2","4","4","4","0","-1","-2","-1","-2","1","0","0","5","3","5","4","3","4","4","3","4","4","7","6","8","8","6","6","7","8","7","6","3","5","4","4","3","5","4","3","3","3","3","6","3","2","5","4","2","4","3","3","4","2","3","3","4","5","6","5","6","7","5","7","3","3","6","3","6","3","7","774306025401749506","张","276","Female","[""好她"",""好我"",""坏我"",""坏她""]","[""强她"",""强我"",""弱我"",""弱她""]","","","","","","","","","","","","","","","","","","","","","","","","","","","","","","feedback_test","","","","","","","",""
"null","","null","psychophysics","82","267533","0.0-8.0-1.0-1.0-0.0-0.36","3","2","2","3","1","4","3","2","4","4","4","0","-1","-2","-1","-2","1","0","0","5","3","5","4","3","4","4","3","4","4","7","6","8","8","6","6","7","8","7","6","3","5","4","4","3","5","4","3","3","3","3","6","3","2","5","4","2","4","3","3","4","2","3","3","4","5","6","5","6","7","5","7","3","3","6","3","6","3","7","774306025401749506","张","276","Female","[""好她"",""好我"",""坏我"",""坏她""]","[""强她"",""强我"",""弱我"",""弱她""]","","","","","","","","null","","","","","","","","","","key","null","16.665793893130083","768","428","j","false","nonmatch","img/hexagon.png","强她","弱她","prac_ALT2_ability","practice_ability","","","","","","","",""
"null","<span class='add_' style='color:yellow; font-size: 70px;'> 太慢! </span>","null","html-keyboard-response","83","268034","0.0-8.0-1.0-1.0-0.0-1.36","3","2","2","3","1","4","3","2","4","4","4","0","-1","-2","-1","-2","1","0","0","5","3","5","4","3","4","4","3","4","4","7","6","8","8","6","6","7","8","7","6","3","5","4","4","3","5","4","3","3","3","3","6","3","2","5","4","2","4","3","3","4","2","3","3","4","5","6","5","6","7","5","7","3","3","6","3","6","3","7","774306025401749506","张","276","Female","[""好她"",""好我"",""坏我"",""坏她""]","[""强她"",""强我"",""弱我"",""弱她""]","","","","","","","","","","","","","","","","","","","","","","","","","","","","","","feedback_test","","","","","","","",""
"763","","f","psychophysics","84","269797","0.0-8.0-1.0-1.0-0.0-0.37","3","2","2","3","1","4","3","2","4","4","4","0","-1","-2","-1","-2","1","0","0","5","3","5","4","3","4","4","3","4","4","7","6","8","8","6","6","7","8","7","6","3","5","4","4","3","5","4","3","3","3","3","6","3","2","5","4","2","4","3","3","4","2","3","3","4","5","6","5","6","7","5","7","3","3","6","3","6","3","7","774306025401749506","张","276","Female","[""好她"",""好我"",""坏我"",""坏她""]","[""强她"",""强我"",""弱我"",""弱她""]","","","","","","","","match","","","","","","","","","","key","f","16.66645714285717","768","428","f","true","match","img/circle.png","强我","强我","prac_ALT2_ability","practice_ability","","","","","","","",""
"null","<span style='color:GreenYellow; font-size: 70px;'>正确! </span>","null","html-keyboard-response","85","270299","0.0-8.0-1.0-1.0-0.0-1.37","3","2","2","3","1","4","3","2","4","4","4","0","-1","-2","-1","-2","1","0","0","5","3","5","4","3","4","4","3","4","4","7","6","8","8","6","6","7","8","7","6","3","5","4","4","3","5","4","3","3","3","3","6","3","2","5","4","2","4","3","3","4","2","3","3","4","5","6","5","6","7","5","7","3","3","6","3","6","3","7","774306025401749506","张","276","Female","[""好她"",""好我"",""坏我"",""坏她""]","[""强她"",""强我"",""弱我"",""弱她""]","","","","","","","","","","","","","","","","","","","","","","","","","","","","","","feedback_test","","","","","","","",""
"887","","j","psychophysics","86","272187","0.0-8.0-1.0-1.0-0.0-0.38","3","2","2","3","1","4","3","2","4","4","4","0","-1","-2","-1","-2","1","0","0","5","3","5","4","3","4","4","3","4","4","7","6","8","8","6","6","7","8","7","6","3","5","4","4","3","5","4","3","3","3","3","6","3","2","5","4","2","4","3","3","4","2","3","3","4","5","6","5","6","7","5","7","3","3","6","3","6","3","7","774306025401749506","张","276","Female","[""好她"",""好我"",""坏我"",""坏她""]","[""强她"",""强我"",""弱我"",""弱她""]","","","","","","","","nonmatch","","","","","","","","","","key","j","16.666419642856845","768","428","j","true","nonmatch","img/diamond.png","弱她","强她","prac_ALT2_ability","practice_ability","","","","","","","",""
"null","<span style='color:GreenYellow; font-size: 70px;'>正确! </span>","null","html-keyboard-response","87","272688","0.0-8.0-1.0-1.0-0.0-1.38","3","2","2","3","1","4","3","2","4","4","4","0","-1","-2","-1","-2","1","0","0","5","3","5","4","3","4","4","3","4","4","7","6","8","8","6","6","7","8","7","6","3","5","4","4","3","5","4","3","3","3","3","6","3","2","5","4","2","4","3","3","4","2","3","3","4","5","6","5","6","7","5","7","3","3","6","3","6","3","7","774306025401749506","张","276","Female","[""好她"",""好我"",""坏我"",""坏她""]","[""强她"",""强我"",""弱我"",""弱她""]","","","","","","","","","","","","","","","","","","","","","","","","","","","","","","feedback_test","","","","","","","",""
"704","","f","psychophysics","88","274394","0.0-8.0-1.0-1.0-0.0-0.39","3","2","2","3","1","4","3","2","4","4","4","0","-1","-2","-1","-2","1","0","0","5","3","5","4","3","4","4","3","4","4","7","6","8","8","6","6","7","8","7","6","3","5","4","4","3","5","4","3","3","3","3","6","3","2","5","4","2","4","3","3","4","2","3","3","4","5","6","5","6","7","5","7","3","3","6","3","6","3","7","774306025401749506","张","276","Female","[""好她"",""好我"",""坏我"",""坏她""]","[""强她"",""强我"",""弱我"",""弱她""]","","","","","","","","match","","","","","","","","","","key","f","16.666257425742156","768","428","f","true","match","img/diamond.png","强她","强她","prac_ALT2_ability","practice_ability","","","","","","","",""
"null","<span style='color:GreenYellow; font-size: 70px;'>正确! </span>","null","html-keyboard-response","89","274895","0.0-8.0-1.0-1.0-0.0-1.39","3","2","2","3","1","4","3","2","4","4","4","0","-1","-2","-1","-2","1","0","0","5","3","5","4","3","4","4","3","4","4","7","6","8","8","6","6","7","8","7","6","3","5","4","4","3","5","4","3","3","3","3","6","3","2","5","4","2","4","3","3","4","2","3","3","4","5","6","5","6","7","5","7","3","3","6","3","6","3","7","774306025401749506","张","276","Female","[""好她"",""好我"",""坏我"",""坏她""]","[""强她"",""强我"",""弱我"",""弱她""]","","","","","","","","","","","","","","","","","","","","","","","","","","","","","","feedback_test","","","","","","","",""
"784","","j","psychophysics","90","276681","0.0-8.0-1.0-1.0-0.0-0.40","3","2","2","3","1","4","3","2","4","4","4","0","-1","-2","-1","-2","1","0","0","5","3","5","4","3","4","4","3","4","4","7","6","8","8","6","6","7","8","7","6","3","5","4","4","3","5","4","3","3","3","3","6","3","2","5","4","2","4","3","3","4","2","3","3","4","5","6","5","6","7","5","7","3","3","6","3","6","3","7","774306025401749506","张","276","Female","[""好她"",""好我"",""坏我"",""坏她""]","[""强她"",""强我"",""弱我"",""弱她""]","","","","","","","","nonmatch","","","","","","","","","","key","j","16.665867924528253","768","428","j","true","nonmatch","img/hexagon.png","弱我","弱她","prac_ALT2_ability","practice_ability","","","","","","","",""
"null","<span style='color:GreenYellow; font-size: 70px;'>正确! </span>","null","html-keyboard-response","91","277181","0.0-8.0-1.0-1.0-0.0-1.40","3","2","2","3","1","4","3","2","4","4","4","0","-1","-2","-1","-2","1","0","0","5","3","5","4","3","4","4","3","4","4","7","6","8","8","6","6","7","8","7","6","3","5","4","4","3","5","4","3","3","3","3","6","3","2","5","4","2","4","3","3","4","2","3","3","4","5","6","5","6","7","5","7","3","3","6","3","6","3","7","774306025401749506","张","276","Female","[""好她"",""好我"",""坏我"",""坏她""]","[""强她"",""强我"",""弱我"",""弱她""]","","","","","","","","","","","","","","","","","","","","","","","","","","","","","","feedback_test","","","","","","","",""
"771","","j","psychophysics","92","278953","0.0-8.0-1.0-1.0-0.0-0.41","3","2","2","3","1","4","3","2","4","4","4","0","-1","-2","-1","-2","1","0","0","5","3","5","4","3","4","4","3","4","4","7","6","8","8","6","6","7","8","7","6","3","5","4","4","3","5","4","3","3","3","3","6","3","2","5","4","2","4","3","3","4","2","3","3","4","5","6","5","6","7","5","7","3","3","6","3","6","3","7","774306025401749506","张","276","Female","[""好她"",""好我"",""坏我"",""坏她""]","[""强她"",""强我"",""弱我"",""弱她""]","","","","","","","","nonmatch","","","","","","","","","","key","j","16.66623809523825","768","428","j","true","nonmatch","img/diamond.png","强我","强她","prac_ALT2_ability","practice_ability","","","","","","","",""
"null","<span style='color:GreenYellow; font-size: 70px;'>正确! </span>","null","html-keyboard-response","93","279453","0.0-8.0-1.0-1.0-0.0-1.41","3","2","2","3","1","4","3","2","4","4","4","0","-1","-2","-1","-2","1","0","0","5","3","5","4","3","4","4","3","4","4","7","6","8","8","6","6","7","8","7","6","3","5","4","4","3","5","4","3","3","3","3","6","3","2","5","4","2","4","3","3","4","2","3","3","4","5","6","5","6","7","5","7","3","3","6","3","6","3","7","774306025401749506","张","276","Female","[""好她"",""好我"",""坏我"",""坏她""]","[""强她"",""强我"",""弱我"",""弱她""]","","","","","","","","","","","","","","","","","","","","","","","","","","","","","","feedback_test","","","","","","","",""
"879","","j","psychophysics","94","281333","0.0-8.0-1.0-1.0-0.0-0.42","3","2","2","3","1","4","3","2","4","4","4","0","-1","-2","-1","-2","1","0","0","5","3","5","4","3","4","4","3","4","4","7","6","8","8","6","6","7","8","7","6","3","5","4","4","3","5","4","3","3","3","3","6","3","2","5","4","2","4","3","3","4","2","3","3","4","5","6","5","6","7","5","7","3","3","6","3","6","3","7","774306025401749506","张","276","Female","[""好她"",""好我"",""坏我"",""坏她""]","[""强她"",""强我"",""弱我"",""弱她""]","","","","","","","","nonmatch","","","","","","","","","","key","j","16.665098214285536","768","428","f","false","match","img/hexagon.png","弱她","弱她","prac_ALT2_ability","practice_ability","","","","","","","",""
"null","<span style='color:red; font-size: 70px;'>错误! </span>","null","html-keyboard-response","95","281835","0.0-8.0-1.0-1.0-0.0-1.42","3","2","2","3","1","4","3","2","4","4","4","0","-1","-2","-1","-2","1","0","0","5","3","5","4","3","4","4","3","4","4","7","6","8","8","6","6","7","8","7","6","3","5","4","4","3","5","4","3","3","3","3","6","3","2","5","4","2","4","3","3","4","2","3","3","4","5","6","5","6","7","5","7","3","3","6","3","6","3","7","774306025401749506","张","276","Female","[""好她"",""好我"",""坏我"",""坏她""]","[""强她"",""强我"",""弱我"",""弱她""]","","","","","","","","","","","","","","","","","","","","","","","","","","","","","","feedback_test","","","","","","","",""
"957","","j","psychophysics","96","283793","0.0-8.0-1.0-1.0-0.0-0.43","3","2","2","3","1","4","3","2","4","4","4","0","-1","-2","-1","-2","1","0","0","5","3","5","4","3","4","4","3","4","4","7","6","8","8","6","6","7","8","7","6","3","5","4","4","3","5","4","3","3","3","3","6","3","2","5","4","2","4","3","3","4","2","3","3","4","5","6","5","6","7","5","7","3","3","6","3","6","3","7","774306025401749506","张","276","Female","[""好她"",""好我"",""坏我"",""坏她""]","[""强她"",""强我"",""弱我"",""弱她""]","","","","","","","","nonmatch","","","","","","","","","","key","j","16.665844827586312","768","428","j","true","nonmatch","img/circle.png","弱她","强我","prac_ALT2_ability","practice_ability","","","","","","","",""
"null","<span style='color:GreenYellow; font-size: 70px;'>正确! </span>","null","html-keyboard-response","97","284294","0.0-8.0-1.0-1.0-0.0-1.43","3","2","2","3","1","4","3","2","4","4","4","0","-1","-2","-1","-2","1","0","0","5","3","5","4","3","4","4","3","4","4","7","6","8","8","6","6","7","8","7","6","3","5","4","4","3","5","4","3","3","3","3","6","3","2","5","4","2","4","3","3","4","2","3","3","4","5","6","5","6","7","5","7","3","3","6","3","6","3","7","774306025401749506","张","276","Female","[""好她"",""好我"",""坏我"",""坏她""]","[""强她"",""强我"",""弱我"",""弱她""]","","","","","","","","","","","","","","","","","","","","","","","","","","","","","","feedback_test","","","","","","","",""
"869","","j","psychophysics","98","286164","0.0-8.0-1.0-1.0-0.0-0.44","3","2","2","3","1","4","3","2","4","4","4","0","-1","-2","-1","-2","1","0","0","5","3","5","4","3","4","4","3","4","4","7","6","8","8","6","6","7","8","7","6","3","5","4","4","3","5","4","3","3","3","3","6","3","2","5","4","2","4","3","3","4","2","3","3","4","5","6","5","6","7","5","7","3","3","6","3","6","3","7","774306025401749506","张","276","Female","[""好她"",""好我"",""坏我"",""坏她""]","[""强她"",""强我"",""弱我"",""弱她""]","","","","","","","","nonmatch","","","","","","","","","","key","j","16.666612612612667","768","428","j","true","nonmatch","img/trapezoid.png","强她","弱我","prac_ALT2_ability","practice_ability","","","","","","","",""
"null","<span style='color:GreenYellow; font-size: 70px;'>正确! </span>","null","html-keyboard-response","99","286665","0.0-8.0-1.0-1.0-0.0-1.44","3","2","2","3","1","4","3","2","4","4","4","0","-1","-2","-1","-2","1","0","0","5","3","5","4","3","4","4","3","4","4","7","6","8","8","6","6","7","8","7","6","3","5","4","4","3","5","4","3","3","3","3","6","3","2","5","4","2","4","3","3","4","2","3","3","4","5","6","5","6","7","5","7","3","3","6","3","6","3","7","774306025401749506","张","276","Female","[""好她"",""好我"",""坏我"",""坏她""]","[""强她"",""强我"",""弱我"",""弱她""]","","","","","","","","","","","","","","","","","","","","","","","","","","","","","","feedback_test","","","","","","","",""
"747","","f","psychophysics","100","288413","0.0-8.0-1.0-1.0-0.0-0.45","3","2","2","3","1","4","3","2","4","4","4","0","-1","-2","-1","-2","1","0","0","5","3","5","4","3","4","4","3","4","4","7","6","8","8","6","6","7","8","7","6","3","5","4","4","3","5","4","3","3","3","3","6","3","2","5","4","2","4","3","3","4","2","3","3","4","5","6","5","6","7","5","7","3","3","6","3","6","3","7","774306025401749506","张","276","Female","[""好她"",""好我"",""坏我"",""坏她""]","[""强她"",""强我"",""弱我"",""弱她""]","","","","","","","","match","","","","","","","","","","key","f","16.66592307692302","768","428","f","true","match","img/trapezoid.png","弱我","弱我","prac_ALT2_ability","practice_ability","","","","","","","",""
"null","<span style='color:GreenYellow; font-size: 70px;'>正确! </span>","null","html-keyboard-response","101","288915","0.0-8.0-1.0-1.0-0.0-1.45","3","2","2","3","1","4","3","2","4","4","4","0","-1","-2","-1","-2","1","0","0","5","3","5","4","3","4","4","3","4","4","7","6","8","8","6","6","7","8","7","6","3","5","4","4","3","5","4","3","3","3","3","6","3","2","5","4","2","4","3","3","4","2","3","3","4","5","6","5","6","7","5","7","3","3","6","3","6","3","7","774306025401749506","张","276","Female","[""好她"",""好我"",""坏我"",""坏她""]","[""强她"",""强我"",""弱我"",""弱她""]","","","","","","","","","","","","","","","","","","","","","","","","","","","","","","feedback_test","","","","","","","",""
"757","","j","psychophysics","102","290673","0.0-8.0-1.0-1.0-0.0-0.46","3","2","2","3","1","4","3","2","4","4","4","0","-1","-2","-1","-2","1","0","0","5","3","5","4","3","4","4","3","4","4","7","6","8","8","6","6","7","8","7","6","3","5","4","4","3","5","4","3","3","3","3","6","3","2","5","4","2","4","3","3","4","2","3","3","4","5","6","5","6","7","5","7","3","3","6","3","6","3","7","774306025401749506","张","276","Female","[""好她"",""好我"",""坏我"",""坏她""]","[""强她"",""强我"",""弱我"",""弱她""]","","","","","","","","nonmatch","","","","","","","","","","key","j","16.66563461538429","768","428","j","true","nonmatch","img/circle.png","弱我","强我","prac_ALT2_ability","practice_ability","","","","","","","",""
"null","<span style='color:GreenYellow; font-size: 70px;'>正确! </span>","null","html-keyboard-response","103","291174","0.0-8.0-1.0-1.0-0.0-1.46","3","2","2","3","1","4","3","2","4","4","4","0","-1","-2","-1","-2","1","0","0","5","3","5","4","3","4","4","3","4","4","7","6","8","8","6","6","7","8","7","6","3","5","4","4","3","5","4","3","3","3","3","6","3","2","5","4","2","4","3","3","4","2","3","3","4","5","6","5","6","7","5","7","3","3","6","3","6","3","7","774306025401749506","张","276","Female","[""好她"",""好我"",""坏我"",""坏她""]","[""强她"",""强我"",""弱我"",""弱她""]","","","","","","","","","","","","","","","","","","","","","","","","","","","","","","feedback_test","","","","","","","",""
"860","","j","psychophysics","104","293036","0.0-8.0-1.0-1.0-0.0-0.47","3","2","2","3","1","4","3","2","4","4","4","0","-1","-2","-1","-2","1","0","0","5","3","5","4","3","4","4","3","4","4","7","6","8","8","6","6","7","8","7","6","3","5","4","4","3","5","4","3","3","3","3","6","3","2","5","4","2","4","3","3","4","2","3","3","4","5","6","5","6","7","5","7","3","3","6","3","6","3","7","774306025401749506","张","276","Female","[""好她"",""好我"",""坏我"",""坏她""]","[""强她"",""强我"",""弱我"",""弱她""]","","","","","","","","nonmatch","","","","","","","","","","key","j","16.666828828828667","768","428","j","true","nonmatch","img/circle.png","强她","强我","prac_ALT2_ability","practice_ability","","","","","","","",""
"null","<span style='color:GreenYellow; font-size: 70px;'>正确! </span>","null","html-keyboard-response","105","293537","0.0-8.0-1.0-1.0-0.0-1.47","3","2","2","3","1","4","3","2","4","4","4","0","-1","-2","-1","-2","1","0","0","5","3","5","4","3","4","4","3","4","4","7","6","8","8","6","6","7","8","7","6","3","5","4","4","3","5","4","3","3","3","3","6","3","2","5","4","2","4","3","3","4","2","3","3","4","5","6","5","6","7","5","7","3","3","6","3","6","3","7","774306025401749506","张","276","Female","[""好她"",""好我"",""坏我"",""坏她""]","[""强她"",""强我"",""弱我"",""弱她""]","","","","","","","","","","","","","","","","","","","","","","","","","","","","","","feedback_test","","","","","","","",""
"39388","<style>.context{color:white; font-size: 35px; line-height:40px}</style>                          <div><p class='context'>您正确回答了83% 的试次。</p><p class='context'>您的平均反应时为838毫秒。</p><p class='context'>恭喜您完成练习。按空格键进入正式实验。</p><p class='footer' style='color:white;font-size: 35px; line-height:40px;'>请在进入正式实验实验之前将您的<span style='color: lightgreen;'>食指</span>放在电脑键盘的相应键位上进行按键。</p>"," ","html-keyboard-response","106","332926","0.0-8.0-1.0-2.0","3","2","2","3","1","4","3","2","4","4","4","0","-1","-2","-1","-2","1","0","0","5","3","5","4","3","4","4","3","4","4","7","6","8","8","6","6","7","8","7","6","3","5","4","4","3","5","4","3","3","3","3","6","3","2","5","4","2","4","3","3","4","2","3","3","4","5","6","5","6","7","5","7","3","3","6","3","6","3","7","774306025401749506","张","276","Female","[""好她"",""好我"",""坏我"",""坏她""]","[""强她"",""强我"",""弱我"",""弱她""]","","","","","","","","","","","","","","","","","","","","","","","","","","","","","","","","","","","","","",""
"3500","
  <p style='color: white; font-size: 22px'>请您将手指放在按键上，准备进入正式的匹配任务。</p>
  <p> <div style = ""color: green""><按空格键进入下一阶段的匹配任务></div></p>
  "," ","html-keyboard-response","107","336428","0.0-8.0-1.0-3.0","3","2","2","3","1","4","3","2","4","4","4","0","-1","-2","-1","-2","1","0","0","5","3","5","4","3","4","4","3","4","4","7","6","8","8","6","6","7","8","7","6","3","5","4","4","3","5","4","3","3","3","3","6","3","2","5","4","2","4","3","3","4","2","3","3","4","5","6","5","6","7","5","7","3","3","6","3","6","3","7","774306025401749506","张","276","Female","[""好她"",""好我"",""坏我"",""坏她""]","[""强她"",""强我"",""弱我"",""弱她""]","","","","","","","","","","","","","","","","","","","","","","","","","","","","","","","","","","","","","",""
"634","","f","psychophysics","108","338064","0.0-8.0-1.0-4.0-0.0-0.0","3","2","2","3","1","4","3","2","4","4","4","0","-1","-2","-1","-2","1","0","0","5","3","5","4","3","4","4","3","4","4","7","6","8","8","6","6","7","8","7","6","3","5","4","4","3","5","4","3","3","3","3","6","3","2","5","4","2","4","3","3","4","2","3","3","4","5","6","5","6","7","5","7","3","3","6","3","6","3","7","774306025401749506","张","276","Female","[""好她"",""好我"",""坏我"",""坏她""]","[""强她"",""强我"",""弱我"",""弱她""]","","","","","","","","match","","","","","","","","","","key","f","16.665876288659458","768","428","j","false","nonmatch","img/diamond.png","弱我","强她","ALT2","ability","","","","","","","",""
"null","<span style='color:red; font-size: 70px;'>错误! </span>","null","html-keyboard-response","109","338564","0.0-8.0-1.0-4.0-0.0-1.0","3","2","2","3","1","4","3","2","4","4","4","0","-1","-2","-1","-2","1","0","0","5","3","5","4","3","4","4","3","4","4","7","6","8","8","6","6","7","8","7","6","3","5","4","4","3","5","4","3","3","3","3","6","3","2","5","4","2","4","3","3","4","2","3","3","4","5","6","5","6","7","5","7","3","3","6","3","6","3","7","774306025401749506","张","276","Female","[""好她"",""好我"",""坏我"",""坏她""]","[""强她"",""强我"",""弱我"",""弱她""]","","","","","","","","","","","","","","","","","","","","","","","","","","","","","","feedback_test","","","","","","","",""
"764","","f","psychophysics","110","340329","0.0-8.0-1.0-4.0-0.0-0.1","3","2","2","3","1","4","3","2","4","4","4","0","-1","-2","-1","-2","1","0","0","5","3","5","4","3","4","4","3","4","4","7","6","8","8","6","6","7","8","7","6","3","5","4","4","3","5","4","3","3","3","3","6","3","2","5","4","2","4","3","3","4","2","3","3","4","5","6","5","6","7","5","7","3","3","6","3","6","3","7","774306025401749506","张","276","Female","[""好她"",""好我"",""坏我"",""坏她""]","[""强她"",""强我"",""弱我"",""弱她""]","","","","","","","","match","","","","","","","","","","key","f","16.66727619047576","768","428","f","true","match","img/trapezoid.png","弱我","弱我","ALT2","ability","","","","","","","",""
"null","<span style='color:GreenYellow; font-size: 70px;'>正确! </span>","null","html-keyboard-response","111","340830","0.0-8.0-1.0-4.0-0.0-1.1","3","2","2","3","1","4","3","2","4","4","4","0","-1","-2","-1","-2","1","0","0","5","3","5","4","3","4","4","3","4","4","7","6","8","8","6","6","7","8","7","6","3","5","4","4","3","5","4","3","3","3","3","6","3","2","5","4","2","4","3","3","4","2","3","3","4","5","6","5","6","7","5","7","3","3","6","3","6","3","7","774306025401749506","张","276","Female","[""好她"",""好我"",""坏我"",""坏她""]","[""强她"",""强我"",""弱我"",""弱她""]","","","","","","","","","","","","","","","","","","","","","","","","","","","","","","feedback_test","","","","","","","",""
"627","","j","psychophysics","112","342458","0.0-8.0-1.0-4.0-0.0-0.2","3","2","2","3","1","4","3","2","4","4","4","0","-1","-2","-1","-2","1","0","0","5","3","5","4","3","4","4","3","4","4","7","6","8","8","6","6","7","8","7","6","3","5","4","4","3","5","4","3","3","3","3","6","3","2","5","4","2","4","3","3","4","2","3","3","4","5","6","5","6","7","5","7","3","3","6","3","6","3","7","774306025401749506","张","276","Female","[""好她"",""好我"",""坏我"",""坏她""]","[""强她"",""强我"",""弱我"",""弱她""]","","","","","","","","nonmatch","","","","","","","","","","key","j","16.666510416666522","768","428","j","true","nonmatch","img/trapezoid.png","弱她","弱我","ALT2","ability","","","","","","","",""
"null","<span style='color:GreenYellow; font-size: 70px;'>正确! </span>","null","html-keyboard-response","113","342959","0.0-8.0-1.0-4.0-0.0-1.2","3","2","2","3","1","4","3","2","4","4","4","0","-1","-2","-1","-2","1","0","0","5","3","5","4","3","4","4","3","4","4","7","6","8","8","6","6","7","8","7","6","3","5","4","4","3","5","4","3","3","3","3","6","3","2","5","4","2","4","3","3","4","2","3","3","4","5","6","5","6","7","5","7","3","3","6","3","6","3","7","774306025401749506","张","276","Female","[""好她"",""好我"",""坏我"",""坏她""]","[""强她"",""强我"",""弱我"",""弱她""]","","","","","","","","","","","","","","","","","","","","","","","","","","","","","","feedback_test","","","","","","","",""
"798","","j","psychophysics","114","344758","0.0-8.0-1.0-4.0-0.0-0.3","3","2","2","3","1","4","3","2","4","4","4","0","-1","-2","-1","-2","1","0","0","5","3","5","4","3","4","4","3","4","4","7","6","8","8","6","6","7","8","7","6","3","5","4","4","3","5","4","3","3","3","3","6","3","2","5","4","2","4","3","3","4","2","3","3","4","5","6","5","6","7","5","7","3","3","6","3","6","3","7","774306025401749506","张","276","Female","[""好她"",""好我"",""坏我"",""坏她""]","[""强她"",""强我"",""弱我"",""弱她""]","","","","","","","","nonmatch","","","","","","","","","","key","j","16.665745283019035","768","428","f","false","match","img/diamond.png","强她","强她","ALT2","ability","","","","","","","",""
"null","<span style='color:red; font-size: 70px;'>错误! </span>","null","html-keyboard-response","115","345259","0.0-8.0-1.0-4.0-0.0-1.3","3","2","2","3","1","4","3","2","4","4","4","0","-1","-2","-1","-2","1","0","0","5","3","5","4","3","4","4","3","4","4","7","6","8","8","6","6","7","8","7","6","3","5","4","4","3","5","4","3","3","3","3","6","3","2","5","4","2","4","3","3","4","2","3","3","4","5","6","5","6","7","5","7","3","3","6","3","6","3","7","774306025401749506","张","276","Female","[""好她"",""好我"",""坏我"",""坏她""]","[""强她"",""强我"",""弱我"",""弱她""]","","","","","","","","","","","","","","","","","","","","","","","","","","","","","","feedback_test","","","","","","","",""
"904","","j","psychophysics","116","347164","0.0-8.0-1.0-4.0-0.0-0.4","3","2","2","3","1","4","3","2","4","4","4","0","-1","-2","-1","-2","1","0","0","5","3","5","4","3","4","4","3","4","4","7","6","8","8","6","6","7","8","7","6","3","5","4","4","3","5","4","3","3","3","3","6","3","2","5","4","2","4","3","3","4","2","3","3","4","5","6","5","6","7","5","7","3","3","6","3","6","3","7","774306025401749506","张","276","Female","[""好她"",""好我"",""坏我"",""坏她""]","[""强她"",""强我"",""弱我"",""弱她""]","","","","","","","","nonmatch","","","","","","","","","","key","j","16.66620353982316","768","428","j","true","nonmatch","img/circle.png","弱我","强我","ALT2","ability","","","","","","","",""
"null","<span style='color:GreenYellow; font-size: 70px;'>正确! </span>","null","html-keyboard-response","117","347665","0.0-8.0-1.0-4.0-0.0-1.4","3","2","2","3","1","4","3","2","4","4","4","0","-1","-2","-1","-2","1","0","0","5","3","5","4","3","4","4","3","4","4","7","6","8","8","6","6","7","8","7","6","3","5","4","4","3","5","4","3","3","3","3","6","3","2","5","4","2","4","3","3","4","2","3","3","4","5","6","5","6","7","5","7","3","3","6","3","6","3","7","774306025401749506","张","276","Female","[""好她"",""好我"",""坏我"",""坏她""]","[""强她"",""强我"",""弱我"",""弱她""]","","","","","","","","","","","","","","","","","","","","","","","","","","","","","","feedback_test","","","","","","","",""
"null","","null","psychophysics","118","349868","0.0-8.0-1.0-4.0-0.0-0.5","3","2","2","3","1","4","3","2","4","4","4","0","-1","-2","-1","-2","1","0","0","5","3","5","4","3","4","4","3","4","4","7","6","8","8","6","6","7","8","7","6","3","5","4","4","3","5","4","3","3","3","3","6","3","2","5","4","2","4","3","3","4","2","3","3","4","5","6","5","6","7","5","7","3","3","6","3","6","3","7","774306025401749506","张","276","Female","[""好她"",""好我"",""坏我"",""坏她""]","[""强她"",""强我"",""弱我"",""弱她""]","","","","","","","","null","","","","","","","","","","key","null","16.66701526717569","768","428","j","false","nonmatch","img/trapezoid.png","强她","弱我","ALT2","ability","","","","","","","",""
"null","<span class='add_' style='color:yellow; font-size: 70px;'> 太慢! </span>","null","html-keyboard-response","119","350369","0.0-8.0-1.0-4.0-0.0-1.5","3","2","2","3","1","4","3","2","4","4","4","0","-1","-2","-1","-2","1","0","0","5","3","5","4","3","4","4","3","4","4","7","6","8","8","6","6","7","8","7","6","3","5","4","4","3","5","4","3","3","3","3","6","3","2","5","4","2","4","3","3","4","2","3","3","4","5","6","5","6","7","5","7","3","3","6","3","6","3","7","774306025401749506","张","276","Female","[""好她"",""好我"",""坏我"",""坏她""]","[""强她"",""强我"",""弱我"",""弱她""]","","","","","","","","","","","","","","","","","","","","","","","","","","","","","","feedback_test","","","","","","","",""
"901","","j","psychophysics","120","352272","0.0-8.0-1.0-4.0-0.0-0.6","3","2","2","3","1","4","3","2","4","4","4","0","-1","-2","-1","-2","1","0","0","5","3","5","4","3","4","4","3","4","4","7","6","8","8","6","6","7","8","7","6","3","5","4","4","3","5","4","3","3","3","3","6","3","2","5","4","2","4","3","3","4","2","3","3","4","5","6","5","6","7","5","7","3","3","6","3","6","3","7","774306025401749506","张","276","Female","[""好她"",""好我"",""坏我"",""坏她""]","[""强她"",""强我"",""弱我"",""弱她""]","","","","","","","","nonmatch","","","","","","","","","","key","j","16.666902654867133","768","428","j","true","nonmatch","img/diamond.png","强我","强她","ALT2","ability","","","","","","","",""
"null","<span style='color:GreenYellow; font-size: 70px;'>正确! </span>","null","html-keyboard-response","121","352773","0.0-8.0-1.0-4.0-0.0-1.6","3","2","2","3","1","4","3","2","4","4","4","0","-1","-2","-1","-2","1","0","0","5","3","5","4","3","4","4","3","4","4","7","6","8","8","6","6","7","8","7","6","3","5","4","4","3","5","4","3","3","3","3","6","3","2","5","4","2","4","3","3","4","2","3","3","4","5","6","5","6","7","5","7","3","3","6","3","6","3","7","774306025401749506","张","276","Female","[""好她"",""好我"",""坏我"",""坏她""]","[""强她"",""强我"",""弱我"",""弱她""]","","","","","","","","","","","","","","","","","","","","","","","","","","","","","","feedback_test","","","","","","","",""
"1027","","f","psychophysics","122","354801","0.0-8.0-1.0-4.0-0.0-0.7","3","2","2","3","1","4","3","2","4","4","4","0","-1","-2","-1","-2","1","0","0","5","3","5","4","3","4","4","3","4","4","7","6","8","8","6","6","7","8","7","6","3","5","4","4","3","5","4","3","3","3","3","6","3","2","5","4","2","4","3","3","4","2","3","3","4","5","6","5","6","7","5","7","3","3","6","3","6","3","7","774306025401749506","张","276","Female","[""好她"",""好我"",""坏我"",""坏她""]","[""强她"",""强我"",""弱我"",""弱她""]","","","","","","","","match","","","","","","","","","","key","f","16.666603305785","768","428","j","false","nonmatch","img/diamond.png","弱她","强她","ALT2","ability","","","","","","","",""
"null","<span style='color:red; font-size: 70px;'>错误! </span>","null","html-keyboard-response","123","355302","0.0-8.0-1.0-4.0-0.0-1.7","3","2","2","3","1","4","3","2","4","4","4","0","-1","-2","-1","-2","1","0","0","5","3","5","4","3","4","4","3","4","4","7","6","8","8","6","6","7","8","7","6","3","5","4","4","3","5","4","3","3","3","3","6","3","2","5","4","2","4","3","3","4","2","3","3","4","5","6","5","6","7","5","7","3","3","6","3","6","3","7","774306025401749506","张","276","Female","[""好她"",""好我"",""坏我"",""坏她""]","[""强她"",""强我"",""弱我"",""弱她""]","","","","","","","","","","","","","","","","","","","","","","","","","","","","","","feedback_test","","","","","","","",""
"840","","f","psychophysics","124","357143","0.0-8.0-1.0-4.0-0.0-0.8","3","2","2","3","1","4","3","2","4","4","4","0","-1","-2","-1","-2","1","0","0","5","3","5","4","3","4","4","3","4","4","7","6","8","8","6","6","7","8","7","6","3","5","4","4","3","5","4","3","3","3","3","6","3","2","5","4","2","4","3","3","4","2","3","3","4","5","6","5","6","7","5","7","3","3","6","3","6","3","7","774306025401749506","张","276","Female","[""好她"",""好我"",""坏我"",""坏她""]","[""强她"",""强我"",""弱我"",""弱她""]","","","","","","","","match","","","","","","","","","","key","f","16.665918181818085","768","428","f","true","match","img/trapezoid.png","弱我","弱我","ALT2","ability","","","","","","","",""
"null","<span style='color:GreenYellow; font-size: 70px;'>正确! </span>","null","html-keyboard-response","125","357646","0.0-8.0-1.0-4.0-0.0-1.8","3","2","2","3","1","4","3","2","4","4","4","0","-1","-2","-1","-2","1","0","0","5","3","5","4","3","4","4","3","4","4","7","6","8","8","6","6","7","8","7","6","3","5","4","4","3","5","4","3","3","3","3","6","3","2","5","4","2","4","3","3","4","2","3","3","4","5","6","5","6","7","5","7","3","3","6","3","6","3","7","774306025401749506","张","276","Female","[""好她"",""好我"",""坏我"",""坏她""]","[""强她"",""强我"",""弱我"",""弱她""]","","","","","","","","","","","","","","","","","","","","","","","","","","","","","","feedback_test","","","","","","","",""
"915","","f","psychophysics","126","359563","0.0-8.0-1.0-4.0-0.0-0.9","3","2","2","3","1","4","3","2","4","4","4","0","-1","-2","-1","-2","1","0","0","5","3","5","4","3","4","4","3","4","4","7","6","8","8","6","6","7","8","7","6","3","5","4","4","3","5","4","3","3","3","3","6","3","2","5","4","2","4","3","3","4","2","3","3","4","5","6","5","6","7","5","7","3","3","6","3","6","3","7","774306025401749506","张","276","Female","[""好她"",""好我"",""坏我"",""坏她""]","[""强她"",""强我"",""弱我"",""弱她""]","","","","","","","","match","","","","","","","","","","key","f","16.666500000000255","768","428","f","true","match","img/circle.png","强我","强我","ALT2","ability","","","","","","","",""
"null","<span style='color:GreenYellow; font-size: 70px;'>正确! </span>","null","html-keyboard-response","127","360063","0.0-8.0-1.0-4.0-0.0-1.9","3","2","2","3","1","4","3","2","4","4","4","0","-1","-2","-1","-2","1","0","0","5","3","5","4","3","4","4","3","4","4","7","6","8","8","6","6","7","8","7","6","3","5","4","4","3","5","4","3","3","3","3","6","3","2","5","4","2","4","3","3","4","2","3","3","4","5","6","5","6","7","5","7","3","3","6","3","6","3","7","774306025401749506","张","276","Female","[""好她"",""好我"",""坏我"",""坏她""]","[""强她"",""强我"",""弱我"",""弱她""]","","","","","","","","","","","","","","","","","","","","","","","","","","","","","","feedback_test","","","","","","","",""
"857","","j","psychophysics","128","361921","0.0-8.0-1.0-4.0-0.0-0.10","3","2","2","3","1","4","3","2","4","4","4","0","-1","-2","-1","-2","1","0","0","5","3","5","4","3","4","4","3","4","4","7","6","8","8","6","6","7","8","7","6","3","5","4","4","3","5","4","3","3","3","3","6","3","2","5","4","2","4","3","3","4","2","3","3","4","5","6","5","6","7","5","7","3","3","6","3","6","3","7","774306025401749506","张","276","Female","[""好她"",""好我"",""坏我"",""坏她""]","[""强她"",""强我"",""弱我"",""弱她""]","","","","","","","","nonmatch","","","","","","","","","","key","j","16.666472727272513","768","428","j","true","nonmatch","img/hexagon.png","强我","弱她","ALT2","ability","","","","","","","",""
"null","<span style='color:GreenYellow; font-size: 70px;'>正确! </span>","null","html-keyboard-response","129","362422","0.0-8.0-1.0-4.0-0.0-1.10","3","2","2","3","1","4","3","2","4","4","4","0","-1","-2","-1","-2","1","0","0","5","3","5","4","3","4","4","3","4","4","7","6","8","8","6","6","7","8","7","6","3","5","4","4","3","5","4","3","3","3","3","6","3","2","5","4","2","4","3","3","4","2","3","3","4","5","6","5","6","7","5","7","3","3","6","3","6","3","7","774306025401749506","张","276","Female","[""好她"",""好我"",""坏我"",""坏她""]","[""强她"",""强我"",""弱我"",""弱她""]","","","","","","","","","","","","","","","","","","","","","","","","","","","","","","feedback_test","","","","","","","",""
"842","","j","psychophysics","130","364266","0.0-8.0-1.0-4.0-0.0-0.11","3","2","2","3","1","4","3","2","4","4","4","0","-1","-2","-1","-2","1","0","0","5","3","5","4","3","4","4","3","4","4","7","6","8","8","6","6","7","8","7","6","3","5","4","4","3","5","4","3","3","3","3","6","3","2","5","4","2","4","3","3","4","2","3","3","4","5","6","5","6","7","5","7","3","3","6","3","6","3","7","774306025401749506","张","276","Female","[""好她"",""好我"",""坏我"",""坏她""]","[""强她"",""强我"",""弱我"",""弱她""]","","","","","","","","nonmatch","","","","","","","","","","key","j","16.666918181818488","768","428","j","true","nonmatch","img/trapezoid.png","强我","弱我","ALT2","ability","","","","","","","",""
"null","<span style='color:GreenYellow; font-size: 70px;'>正确! </span>","null","html-keyboard-response","131","364767","0.0-8.0-1.0-4.0-0.0-1.11","3","2","2","3","1","4","3","2","4","4","4","0","-1","-2","-1","-2","1","0","0","5","3","5","4","3","4","4","3","4","4","7","6","8","8","6","6","7","8","7","6","3","5","4","4","3","5","4","3","3","3","3","6","3","2","5","4","2","4","3","3","4","2","3","3","4","5","6","5","6","7","5","7","3","3","6","3","6","3","7","774306025401749506","张","276","Female","[""好她"",""好我"",""坏我"",""坏她""]","[""强她"",""强我"",""弱我"",""弱她""]","","","","","","","","","","","","","","","","","","","","","","","","","","","","","","feedback_test","","","","","","","",""
"831","","j","psychophysics","132","366599","0.0-8.0-1.0-4.0-0.0-0.12","3","2","2","3","1","4","3","2","4","4","4","0","-1","-2","-1","-2","1","0","0","5","3","5","4","3","4","4","3","4","4","7","6","8","8","6","6","7","8","7","6","3","5","4","4","3","5","4","3","3","3","3","6","3","2","5","4","2","4","3","3","4","2","3","3","4","5","6","5","6","7","5","7","3","3","6","3","6","3","7","774306025401749506","张","276","Female","[""好她"",""好我"",""坏我"",""坏她""]","[""强她"",""强我"",""弱我"",""弱她""]","","","","","","","","nonmatch","","","","","","","","","","key","j","16.666899082569167","768","428","j","true","nonmatch","img/circle.png","弱她","强我","ALT2","ability","","","","","","","",""
"null","<span style='color:GreenYellow; font-size: 70px;'>正确! </span>","null","html-keyboard-response","133","367100","0.0-8.0-1.0-4.0-0.0-1.12","3","2","2","3","1","4","3","2","4","4","4","0","-1","-2","-1","-2","1","0","0","5","3","5","4","3","4","4","3","4","4","7","6","8","8","6","6","7","8","7","6","3","5","4","4","3","5","4","3","3","3","3","6","3","2","5","4","2","4","3","3","4","2","3","3","4","5","6","5","6","7","5","7","3","3","6","3","6","3","7","774306025401749506","张","276","Female","[""好她"",""好我"",""坏我"",""坏她""]","[""强她"",""强我"",""弱我"",""弱她""]","","","","","","","","","","","","","","","","","","","","","","","","","","","","","","feedback_test","","","","","","","",""
"760","","f","psychophysics","134","368861","0.0-8.0-1.0-4.0-0.0-0.13","3","2","2","3","1","4","3","2","4","4","4","0","-1","-2","-1","-2","1","0","0","5","3","5","4","3","4","4","3","4","4","7","6","8","8","6","6","7","8","7","6","3","5","4","4","3","5","4","3","3","3","3","6","3","2","5","4","2","4","3","3","4","2","3","3","4","5","6","5","6","7","5","7","3","3","6","3","6","3","7","774306025401749506","张","276","Female","[""好她"",""好我"",""坏我"",""坏她""]","[""强她"",""强我"",""弱我"",""弱她""]","","","","","","","","match","","","","","","","","","","key","f","16.66662857142898","768","428","f","true","match","img/hexagon.png","弱她","弱她","ALT2","ability","","","","","","","",""
"null","<span style='color:GreenYellow; font-size: 70px;'>正确! </span>","null","html-keyboard-response","135","369361","0.0-8.0-1.0-4.0-0.0-1.13","3","2","2","3","1","4","3","2","4","4","4","0","-1","-2","-1","-2","1","0","0","5","3","5","4","3","4","4","3","4","4","7","6","8","8","6","6","7","8","7","6","3","5","4","4","3","5","4","3","3","3","3","6","3","2","5","4","2","4","3","3","4","2","3","3","4","5","6","5","6","7","5","7","3","3","6","3","6","3","7","774306025401749506","张","276","Female","[""好她"",""好我"",""坏我"",""坏她""]","[""强她"",""强我"",""弱我"",""弱她""]","","","","","","","","","","","","","","","","","","","","","","","","","","","","","","feedback_test","","","","","","","",""
"710","","j","psychophysics","136","371073","0.0-8.0-1.0-4.0-0.0-0.14","3","2","2","3","1","4","3","2","4","4","4","0","-1","-2","-1","-2","1","0","0","5","3","5","4","3","4","4","3","4","4","7","6","8","8","6","6","7","8","7","6","3","5","4","4","3","5","4","3","3","3","3","6","3","2","5","4","2","4","3","3","4","2","3","3","4","5","6","5","6","7","5","7","3","3","6","3","6","3","7","774306025401749506","张","276","Female","[""好她"",""好我"",""坏我"",""坏她""]","[""强她"",""强我"",""弱我"",""弱她""]","","","","","","","","nonmatch","","","","","","","","","","key","j","16.66632673267326","768","428","j","true","nonmatch","img/circle.png","强她","强我","ALT2","ability","","","","","","","",""
"null","<span style='color:GreenYellow; font-size: 70px;'>正确! </span>","null","html-keyboard-response","137","371575","0.0-8.0-1.0-4.0-0.0-1.14","3","2","2","3","1","4","3","2","4","4","4","0","-1","-2","-1","-2","1","0","0","5","3","5","4","3","4","4","3","4","4","7","6","8","8","6","6","7","8","7","6","3","5","4","4","3","5","4","3","3","3","3","6","3","2","5","4","2","4","3","3","4","2","3","3","4","5","6","5","6","7","5","7","3","3","6","3","6","3","7","774306025401749506","张","276","Female","[""好她"",""好我"",""坏我"",""坏她""]","[""强她"",""强我"",""弱我"",""弱她""]","","","","","","","","","","","","","","","","","","","","","","","","","","","","","","feedback_test","","","","","","","",""
"767","","j","psychophysics","138","373343","0.0-8.0-1.0-4.0-0.0-0.15","3","2","2","3","1","4","3","2","4","4","4","0","-1","-2","-1","-2","1","0","0","5","3","5","4","3","4","4","3","4","4","7","6","8","8","6","6","7","8","7","6","3","5","4","4","3","5","4","3","3","3","3","6","3","2","5","4","2","4","3","3","4","2","3","3","4","5","6","5","6","7","5","7","3","3","6","3","6","3","7","774306025401749506","张","276","Female","[""好她"",""好我"",""坏我"",""坏她""]","[""强她"",""强我"",""弱我"",""弱她""]","","","","","","","","nonmatch","","","","","","","","","","key","j","16.665038095237797","768","428","f","false","match","img/circle.png","强我","强我","ALT2","ability","","","","","","","",""
