"rt","stimulus","response","trial_type","trial_index","time_elapsed","internal_node_id","ses_1","ses_2","ses_3","ses_4","ses_5","ses_6","ses_7","ses_8","ses_9","ses_10","coreself_1","coreself_2","coreself_3","coreself_4","coreself_5","coreself_6","coreself_7","coreself_8","coreself_9","coreself_10","SGPS_1","SGPS_2","SGPS_3","SGPS_4","SGPS_5","SGPS_6","SGPS_7","SGPS_8","SGPS_9","NPI1","NPI2","NPI3","NPI4","NPI5","NPI6","NPI7","NPI8","NPI9","NPI10","NPI11","NPI12","NPI13","NPI14","NPI15","hsns_1","hsns_2","hsns_3","hsns_4","hsns_5","trap1","hsns_6","hsns_7","hsns_8","hsns_9","hsns_10","subj_idx","friend_name","ParticipantID","value","success","user_agent","responses","item_order","radio_event_ids","radio_event_times","key_event_times","mouse_event_times","straightlining","zigzagging","honeypot","timeout","failed_images","failed_audio","failed_video","version_attrib2","version_target2","correct","IAT","screen_id","task_id","RT","condition","word","varname","summary","version_attrib","version_target","time_stamp","view_history","response_type","key_press","avg_frame_time","center_x","center_y","correct_response","identity","Image","question_order","correct_answer","trap1_item"
"1086","
   <p><div style = ""color: white;font-size:25px;"">您好，欢迎参加本次实验。</div> </p>
   <p><div style = ""color: white;font-size:25px;"">为充分保障您的权利，请确保您已经知晓并同意《参与实验同意书》以及《数据公开知情同意书》。</div></p>
   <p><div style = ""color: white;font-size:25px;"">如果您未见过上述内容，请咨询实验员。</div></p>
   <p><div style = ""color: white;font-size:25px;"">如果您选择继续实验，则表示您已经清楚两份知情同意书的内容并同意。</div></p>
   <p><div style = ""color: pink;font-size:30px;"">请确保您记得day0的实验编号，您将在本次实验输入该编号，若您忘记，请咨询实验员后作答。</div></p>
   <p><div style = ""color: lightblue;font-size:25px;"">请您尽可能认真地作答，我们将依据您在各问卷和按键任务中的作答质量发放报酬。</div></p>
   <p> <div style = ""color: green;font-size:25px;""><按空格键至下页></div> </p>
   "," ","html-keyboard-response","0","1088","0.0-0.0","4","4","4","4","4","4","4","4","4","4","5","5","5","4","5","5","5","5","5","5","1","1","1","1","1","1","1","1","1","0","0","1","1","0","0","0","1","0","1","1","0","1","0","1","5","1","1","2","1","1","2","1","2","5","2","602303969804419072","刘","658","","","","","","","","","","","","","","","","","","","","","","","","","","","","","","","","","","","","","","","","","",""
"","","","call-function","1","1089","0.0-1.0-0.0","4","4","4","4","4","4","4","4","4","4","5","5","5","4","5","5","5","5","5","5","1","1","1","1","1","1","1","1","1","0","0","1","1","0","0","0","1","0","1","1","0","1","0","1","5","1","1","2","1","1","2","1","2","5","2","602303969804419072","刘","658","","","","","","","","","","","","","","","","","","","","","","","","","","","","","","","","","","","","","","","","","",""
"12958","","{""friend_name"":""刘"",""ParticipantID"":""658""}","survey-html-form","2","14048","0.0-1.0-1.0","4","4","4","4","4","4","4","4","4","4","5","5","5","4","5","5","5","5","5","5","1","1","1","1","1","1","1","1","1","0","0","1","1","0","0","0","1","0","1","1","0","1","0","1","5","1","1","2","1","1","2","1","2","5","2","602303969804419072","刘","658","","","","","","","","","","","","","","","","","","","","","","","","","","","","","","","","","","","","","","","","","",""
"","","","fullscreen","3","15187","0.0-2.0","4","4","4","4","4","4","4","4","4","4","5","5","5","4","5","5","5","5","5","5","1","1","1","1","1","1","1","1","1","0","0","1","1","0","0","0","1","0","1","1","0","1","0","1","5","1","1","2","1","1","2","1","2","5","2","602303969804419072","刘","658","","true","{}","","","","","","","","","","","","","","","","","","","","","","","","","","","","","","","","","","","","","","",""
"19372.5","","{""Q01"":""4"",""Q02"":""4"",""Q03"":""4"",""Q04"":""4"",""Q05"":""4"",""Q06"":""4"",""Q07"":""4"",""Q08"":""4"",""Q09"":""4"",""Q10"":""4""}","survey-template","4","34562","0.0-3.0","4","4","4","4","4","4","4","4","4","4","5","5","5","4","5","5","5","5","5","5","1","1","1","1","1","1","1","1","1","0","0","1","1","0","0","0","1","0","1","1","0","1","0","1","5","1","1","2","1","1","2","1","2","5","2","602303969804419072","刘","658","","","","{""Q01"":""4"",""Q02"":""4"",""Q03"":""4"",""Q04"":""4"",""Q05"":""4"",""Q06"":""4"",""Q07"":""4"",""Q08"":""4"",""Q09"":""4"",""Q10"":""4""}","[0,1,2,3,4,5,6,7,8,9]","[""Q01"",""Q02"",""Q03"",""Q04"",""Q05"",""Q06"",""Q07"",""Q08"",""Q09"",""Q10""]","[1683.2999999523163,2459.199999809265,4243.199999809265,5299.299999952316,6923.099999904633,8019.199999809265,9027.099999904633,10355.5,10917,11491.099999904633]","[]","[1683.2999999523163,2459.199999809265,3531.199999809265,4243.199999809265,5299.299999952316,6579,6923.099999904633,8019.199999809265,9027.099999904633,10355.5,10917,11491.099999904633,19371.099999904633]","0.5","0.5555555555555556","0","","","","","","","","","","","","","","","","","","","","","","","","","","","","","",""
"14075.799999952316","","{""Q01"":""5"",""Q02"":""5"",""Q03"":""5"",""Q04"":""4"",""Q05"":""5"",""Q06"":""5"",""Q07"":""5"",""Q08"":""5"",""Q09"":""5"",""Q10"":""5""}","survey-template","5","48642","0.0-4.0","4","4","4","4","4","4","4","4","4","4","5","5","5","4","5","5","5","5","5","5","1","1","1","1","1","1","1","1","1","0","0","1","1","0","0","0","1","0","1","1","0","1","0","1","5","1","1","2","1","1","2","1","2","5","2","602303969804419072","刘","658","","","","{""Q01"":""5"",""Q02"":""5"",""Q03"":""5"",""Q04"":""4"",""Q05"":""5"",""Q06"":""5"",""Q07"":""5"",""Q08"":""5"",""Q09"":""5"",""Q10"":""5""}","[0,1,2,3,4,5,6,7,8,9]","[""Q01"",""Q02"",""Q03"",""Q04"",""Q05"",""Q06"",""Q07"",""Q08"",""Q09"",""Q10""]","[2226.2000000476837,3218.4000000953674,3922.2999999523163,5690.400000095367,6818.200000047684,7922.200000047684,9834.600000143051,10266.200000047684,11986.400000095367,12858.400000095367]","[]","[2226.2000000476837,3218.4000000953674,3922.2999999523163,5690.400000095367,6818.200000047684,7922.200000047684,8722.200000047684,9834.600000143051,10266.200000047684,11986.400000095367,12858.400000095367,14074.400000095367]","0.6","0.5555555555555556","0","","","","","","","","","","","","","","","","","","","","","","","","","","","","","",""
"","","","preload","6","48722","0.0-5.0","4","4","4","4","4","4","4","4","4","4","5","5","5","4","5","5","5","5","5","5","1","1","1","1","1","1","1","1","1","0","0","1","1","0","0","0","1","0","1","1","0","1","0","1","5","1","1","2","1","1","2","1","2","5","2","602303969804419072","刘","658","","true","","","","","","","","","","","false","[]","[]","[]","","","","","","","","","","","","","","","","","","","","","","","","","",""
"22061","
    <h3>词语分类任务</h3>
    <p>在接下来的任务中，你需要对一系列词语进行分类。<p/>
    请先熟悉这些词语，这有利于你完成接下来的任务。</p>
    <table align=""center"" border=1 cellpadding=3 cellspacing=0>
    <tr> <th>类别</th> <th>词语</th> </tr>
    <tr> <td>&emsp;积极&emsp;</td> <td>&emsp;高尚、诚信、善良、君子、廉正、正直&emsp;</td> </tr>
    <tr> <td>&emsp;消极&emsp;</td> <td>&emsp;缺德、卑鄙、不孝、不仁、小人、黑心&emsp;</td> </tr>
    <tr> <td>&emsp;自我&emsp;</td> <td>&emsp;我、我的、自己、自己的、本人、本人的&emsp;</td> </tr>
    <tr> <td>&emsp;他人&emsp;</td> <td>&emsp;他、他的、别人、别人的、他人、他人的&emsp;</td> </tr>
    </table><br/>","0","html-button-response","7","70785","0.0-6.0-1.0-0.0","4","4","4","4","4","4","4","4","4","4","5","5","5","4","5","5","5","5","5","5","1","1","1","1","1","1","1","1","1","0","0","1","1","0","0","0","1","0","1","1","0","1","0","1","5","1","1","2","1","1","2","1","2","5","2","602303969804419072","刘","658","","","","","","","","","","","","","","","","","2","2","","","","","","","","","","","","","","","","","","","","","","","",""
"18365","
    <div class=""tag-bottom""><p>
    —— 任务1：对“他人”词和“自我”词分类 ——<p/>
    不同词语会出现在屏幕中央，类别标签将始终显示在屏幕上方<p/>   
    <span style=""color:#FFD866""><b>请根据上方标签的提示，尽可能正确并且快速地做出按键反应</b></span><p/>
    当按键错误时屏幕中会出现<span style=""color:red""> X </span>，需要按另一个键纠正才能继续<br/><p/>
    请把双手食指分别放在键盘的“E”键和“I”键上<p/>
    按<空格键>开始
    </p></div>"," ","html-keyboard-response","8","89153","0.0-6.0-1.0-1.0","4","4","4","4","4","4","4","4","4","4","5","5","5","4","5","5","5","5","5","5","1","1","1","1","1","1","1","1","1","0","0","1","1","0","0","0","1","0","1","1","0","1","0","1","5","1","1","2","1","1","2","1","2","5","2","602303969804419072","刘","658","","","","","","","","","","","","","","","","","","","","","","","","","","","","","","","","","","","","","","","","","",""
"null","","null","html-keyboard-response","9","89404","0.0-6.0-1.0-2.0-0.0","4","4","4","4","4","4","4","4","4","4","5","5","5","4","5","5","5","5","5","5","1","1","1","1","1","1","1","1","1","0","0","1","1","0","0","0","1","0","1","1","0","1","0","1","5","1","1","2","1","1","2","1","2","5","2","602303969804419072","刘","658","","","","","","","","","","","","","","","","","","","","","","","","","","","","","","","","","","","","","","","","","",""
"651","<p style=""color:rgb(150, 250, 100); font-size: 35px;"">我的</p>","i","categorize-html","10","90058","0.0-6.0-1.0-2.0-1.0","4","4","4","4","4","4","4","4","4","4","5","5","5","4","5","5","5","5","5","5","1","1","1","1","1","1","1","1","1","0","0","1","1","0","0","0","1","0","1","1","0","1","0","1","5","1","1","2","1","1","2","1","2","5","2","602303969804419072","刘","658","","","","","","","","","","","","","","","","","","","true","11","1","moral","651","self","我的","","","","","","","","","","","","","","","","",""
"null","","null","html-keyboard-response","11","90310","0.0-6.0-1.0-2.0-0.1","4","4","4","4","4","4","4","4","4","4","5","5","5","4","5","5","5","5","5","5","1","1","1","1","1","1","1","1","1","0","0","1","1","0","0","0","1","0","1","1","0","1","0","1","5","1","1","2","1","1","2","1","2","5","2","602303969804419072","刘","658","","","","","","","","","","","","","","","","","","","","","","","","","","","","","","","","","","","","","","","","","",""
"466","<p style=""color:rgb(150, 250, 100); font-size: 35px;"">他</p>","e","categorize-html","12","90778","0.0-6.0-1.0-2.0-1.1","4","4","4","4","4","4","4","4","4","4","5","5","5","4","5","5","5","5","5","5","1","1","1","1","1","1","1","1","1","0","0","1","1","0","0","0","1","0","1","1","0","1","0","1","5","1","1","2","1","1","2","1","2","5","2","602303969804419072","刘","658","","","","","","","","","","","","","","","","","","","true","11","1","moral","466","other","他","","","","","","","","","","","","","","","","",""
"null","","null","html-keyboard-response","13","91029","0.0-6.0-1.0-2.0-0.2","4","4","4","4","4","4","4","4","4","4","5","5","5","4","5","5","5","5","5","5","1","1","1","1","1","1","1","1","1","0","0","1","1","0","0","0","1","0","1","1","0","1","0","1","5","1","1","2","1","1","2","1","2","5","2","602303969804419072","刘","658","","","","","","","","","","","","","","","","","","","","","","","","","","","","","","","","","","","","","","","","","",""
"435","<p style=""color:rgb(150, 250, 100); font-size: 35px;"">他人的</p>","e","categorize-html","14","91465","0.0-6.0-1.0-2.0-1.2","4","4","4","4","4","4","4","4","4","4","5","5","5","4","5","5","5","5","5","5","1","1","1","1","1","1","1","1","1","0","0","1","1","0","0","0","1","0","1","1","0","1","0","1","5","1","1","2","1","1","2","1","2","5","2","602303969804419072","刘","658","","","","","","","","","","","","","","","","","","","true","11","1","moral","435","other","他人的","","","","","","","","","","","","","","","","",""
"null","","null","html-keyboard-response","15","91716","0.0-6.0-1.0-2.0-0.3","4","4","4","4","4","4","4","4","4","4","5","5","5","4","5","5","5","5","5","5","1","1","1","1","1","1","1","1","1","0","0","1","1","0","0","0","1","0","1","1","0","1","0","1","5","1","1","2","1","1","2","1","2","5","2","602303969804419072","刘","658","","","","","","","","","","","","","","","","","","","","","","","","","","","","","","","","","","","","","","","","","",""
"476","<p style=""color:rgb(150, 250, 100); font-size: 35px;"">自己的</p>","i","categorize-html","16","92194","0.0-6.0-1.0-2.0-1.3","4","4","4","4","4","4","4","4","4","4","5","5","5","4","5","5","5","5","5","5","1","1","1","1","1","1","1","1","1","0","0","1","1","0","0","0","1","0","1","1","0","1","0","1","5","1","1","2","1","1","2","1","2","5","2","602303969804419072","刘","658","","","","","","","","","","","","","","","","","","","true","11","1","moral","476","self","自己的","","","","","","","","","","","","","","","","",""
"null","","null","html-keyboard-response","17","92446","0.0-6.0-1.0-2.0-0.4","4","4","4","4","4","4","4","4","4","4","5","5","5","4","5","5","5","5","5","5","1","1","1","1","1","1","1","1","1","0","0","1","1","0","0","0","1","0","1","1","0","1","0","1","5","1","1","2","1","1","2","1","2","5","2","602303969804419072","刘","658","","","","","","","","","","","","","","","","","","","","","","","","","","","","","","","","","","","","","","","","","",""
"482","<p style=""color:rgb(150, 250, 100); font-size: 35px;"">别人的</p>","e","categorize-html","18","92930","0.0-6.0-1.0-2.0-1.4","4","4","4","4","4","4","4","4","4","4","5","5","5","4","5","5","5","5","5","5","1","1","1","1","1","1","1","1","1","0","0","1","1","0","0","0","1","0","1","1","0","1","0","1","5","1","1","2","1","1","2","1","2","5","2","602303969804419072","刘","658","","","","","","","","","","","","","","","","","","","true","11","1","moral","482","other","别人的","","","","","","","","","","","","","","","","",""
"null","","null","html-keyboard-response","19","93182","0.0-6.0-1.0-2.0-0.5","4","4","4","4","4","4","4","4","4","4","5","5","5","4","5","5","5","5","5","5","1","1","1","1","1","1","1","1","1","0","0","1","1","0","0","0","1","0","1","1","0","1","0","1","5","1","1","2","1","1","2","1","2","5","2","602303969804419072","刘","658","","","","","","","","","","","","","","","","","","","","","","","","","","","","","","","","","","","","","","","","","",""
"514","<p style=""color:rgb(150, 250, 100); font-size: 35px;"">他人</p>","e","categorize-html","20","93697","0.0-6.0-1.0-2.0-1.5","4","4","4","4","4","4","4","4","4","4","5","5","5","4","5","5","5","5","5","5","1","1","1","1","1","1","1","1","1","0","0","1","1","0","0","0","1","0","1","1","0","1","0","1","5","1","1","2","1","1","2","1","2","5","2","602303969804419072","刘","658","","","","","","","","","","","","","","","","","","","true","11","1","moral","514","other","他人","","","","","","","","","","","","","","","","",""
"null","","null","html-keyboard-response","21","93948","0.0-6.0-1.0-2.0-0.6","4","4","4","4","4","4","4","4","4","4","5","5","5","4","5","5","5","5","5","5","1","1","1","1","1","1","1","1","1","0","0","1","1","0","0","0","1","0","1","1","0","1","0","1","5","1","1","2","1","1","2","1","2","5","2","602303969804419072","刘","658","","","","","","","","","","","","","","","","","","","","","","","","","","","","","","","","","","","","","","","","","",""
"436","<p style=""color:rgb(150, 250, 100); font-size: 35px;"">自己</p>","i","categorize-html","22","94385","0.0-6.0-1.0-2.0-1.6","4","4","4","4","4","4","4","4","4","4","5","5","5","4","5","5","5","5","5","5","1","1","1","1","1","1","1","1","1","0","0","1","1","0","0","0","1","0","1","1","0","1","0","1","5","1","1","2","1","1","2","1","2","5","2","602303969804419072","刘","658","","","","","","","","","","","","","","","","","","","true","11","1","moral","436","self","自己","","","","","","","","","","","","","","","","",""
"null","","null","html-keyboard-response","23","94636","0.0-6.0-1.0-2.0-0.7","4","4","4","4","4","4","4","4","4","4","5","5","5","4","5","5","5","5","5","5","1","1","1","1","1","1","1","1","1","0","0","1","1","0","0","0","1","0","1","1","0","1","0","1","5","1","1","2","1","1","2","1","2","5","2","602303969804419072","刘","658","","","","","","","","","","","","","","","","","","","","","","","","","","","","","","","","","","","","","","","","","",""
"493","<p style=""color:rgb(150, 250, 100); font-size: 35px;"">别人</p>","e","categorize-html","24","95130","0.0-6.0-1.0-2.0-1.7","4","4","4","4","4","4","4","4","4","4","5","5","5","4","5","5","5","5","5","5","1","1","1","1","1","1","1","1","1","0","0","1","1","0","0","0","1","0","1","1","0","1","0","1","5","1","1","2","1","1","2","1","2","5","2","602303969804419072","刘","658","","","","","","","","","","","","","","","","","","","true","11","1","moral","493","other","别人","","","","","","","","","","","","","","","","",""
"null","","null","html-keyboard-response","25","95381","0.0-6.0-1.0-2.0-0.8","4","4","4","4","4","4","4","4","4","4","5","5","5","4","5","5","5","5","5","5","1","1","1","1","1","1","1","1","1","0","0","1","1","0","0","0","1","0","1","1","0","1","0","1","5","1","1","2","1","1","2","1","2","5","2","602303969804419072","刘","658","","","","","","","","","","","","","","","","","","","","","","","","","","","","","","","","","","","","","","","","","",""
"467","<p style=""color:rgb(150, 250, 100); font-size: 35px;"">我</p>","i","categorize-html","26","95850","0.0-6.0-1.0-2.0-1.8","4","4","4","4","4","4","4","4","4","4","5","5","5","4","5","5","5","5","5","5","1","1","1","1","1","1","1","1","1","0","0","1","1","0","0","0","1","0","1","1","0","1","0","1","5","1","1","2","1","1","2","1","2","5","2","602303969804419072","刘","658","","","","","","","","","","","","","","","","","","","true","11","1","moral","467","self","我","","","","","","","","","","","","","","","","",""
"null","","null","html-keyboard-response","27","96101","0.0-6.0-1.0-2.0-0.9","4","4","4","4","4","4","4","4","4","4","5","5","5","4","5","5","5","5","5","5","1","1","1","1","1","1","1","1","1","0","0","1","1","0","0","0","1","0","1","1","0","1","0","1","5","1","1","2","1","1","2","1","2","5","2","602303969804419072","刘","658","","","","","","","","","","","","","","","","","","","","","","","","","","","","","","","","","","","","","","","","","",""
"435","<p style=""color:rgb(150, 250, 100); font-size: 35px;"">他的</p>","e","categorize-html","28","96538","0.0-6.0-1.0-2.0-1.9","4","4","4","4","4","4","4","4","4","4","5","5","5","4","5","5","5","5","5","5","1","1","1","1","1","1","1","1","1","0","0","1","1","0","0","0","1","0","1","1","0","1","0","1","5","1","1","2","1","1","2","1","2","5","2","602303969804419072","刘","658","","","","","","","","","","","","","","","","","","","true","11","1","moral","435","other","他的","","","","","","","","","","","","","","","","",""
"null","","null","html-keyboard-response","29","96790","0.0-6.0-1.0-2.0-0.10","4","4","4","4","4","4","4","4","4","4","5","5","5","4","5","5","5","5","5","5","1","1","1","1","1","1","1","1","1","0","0","1","1","0","0","0","1","0","1","1","0","1","0","1","5","1","1","2","1","1","2","1","2","5","2","602303969804419072","刘","658","","","","","","","","","","","","","","","","","","","","","","","","","","","","","","","","","","","","","","","","","",""
"482","<p style=""color:rgb(150, 250, 100); font-size: 35px;"">本人</p>","i","categorize-html","30","97274","0.0-6.0-1.0-2.0-1.10","4","4","4","4","4","4","4","4","4","4","5","5","5","4","5","5","5","5","5","5","1","1","1","1","1","1","1","1","1","0","0","1","1","0","0","0","1","0","1","1","0","1","0","1","5","1","1","2","1","1","2","1","2","5","2","602303969804419072","刘","658","","","","","","","","","","","","","","","","","","","true","11","1","moral","482","self","本人","","","","","","","","","","","","","","","","",""
"null","","null","html-keyboard-response","31","97524","0.0-6.0-1.0-2.0-0.11","4","4","4","4","4","4","4","4","4","4","5","5","5","4","5","5","5","5","5","5","1","1","1","1","1","1","1","1","1","0","0","1","1","0","0","0","1","0","1","1","0","1","0","1","5","1","1","2","1","1","2","1","2","5","2","602303969804419072","刘","658","","","","","","","","","","","","","","","","","","","","","","","","","","","","","","","","","","","","","","","","","",""
"483","<p style=""color:rgb(150, 250, 100); font-size: 35px;"">本人的</p>","i","categorize-html","32","98009","0.0-6.0-1.0-2.0-1.11","4","4","4","4","4","4","4","4","4","4","5","5","5","4","5","5","5","5","5","5","1","1","1","1","1","1","1","1","1","0","0","1","1","0","0","0","1","0","1","1","0","1","0","1","5","1","1","2","1","1","2","1","2","5","2","602303969804419072","刘","658","","","","","","","","","","","","","","","","","","","true","11","1","moral","483","self","本人的","","","","","","","","","","","","","","","","",""
"647","
    <div class=""tag-bottom""><p>
    —— 任务2：对“消极”词和“积极”词分类 ——<p/>   
    <span style=""color:#78DCE8""><b>注意上方，类别标签和需要分类的词语都已经改变</b></span><p/>
    <span style=""color:#FFD866""><b>请根据上方标签的提示，尽可能正确并且快速地做出按键反应</b></span><p/>
    当按键错误时屏幕中会出现<span style=""color:red""> X </span>，需要按另一个键纠正才能继续<br/><p/>
    请把双手食指分别放在键盘的“E”键和“I”键上<p/>
    按<空格键>开始
    </p></div>"," ","html-keyboard-response","33","98657","0.0-6.0-1.0-3.0","4","4","4","4","4","4","4","4","4","4","5","5","5","4","5","5","5","5","5","5","1","1","1","1","1","1","1","1","1","0","0","1","1","0","0","0","1","0","1","1","0","1","0","1","5","1","1","2","1","1","2","1","2","5","2","602303969804419072","刘","658","","","","","","","","","","","","","","","","","","","","","","","","","","","","","","","","","","","","","","","","","",""
"null","","null","html-keyboard-response","34","98908","0.0-6.0-1.0-4.0-0.0","4","4","4","4","4","4","4","4","4","4","5","5","5","4","5","5","5","5","5","5","1","1","1","1","1","1","1","1","1","0","0","1","1","0","0","0","1","0","1","1","0","1","0","1","5","1","1","2","1","1","2","1","2","5","2","602303969804419072","刘","658","","","","","","","","","","","","","","","","","","","","","","","","","","","","","","","","","","","","","","","","","",""
"597","<p style=""color:white; font-size: 35px;"">廉正</p>","i","categorize-html","35","99506","0.0-6.0-1.0-4.0-1.0","4","4","4","4","4","4","4","4","4","4","5","5","5","4","5","5","5","5","5","5","1","1","1","1","1","1","1","1","1","0","0","1","1","0","0","0","1","0","1","1","0","1","0","1","5","1","1","2","1","1","2","1","2","5","2","602303969804419072","刘","658","","","","","","","","","","","","","","","","","","","true","12","2","moral","597","positive","廉正","","","","","","","","","","","","","","","","",""
"null","","null","html-keyboard-response","36","99756","0.0-6.0-1.0-4.0-0.1","4","4","4","4","4","4","4","4","4","4","5","5","5","4","5","5","5","5","5","5","1","1","1","1","1","1","1","1","1","0","0","1","1","0","0","0","1","0","1","1","0","1","0","1","5","1","1","2","1","1","2","1","2","5","2","602303969804419072","刘","658","","","","","","","","","","","","","","","","","","","","","","","","","","","","","","","","","","","","","","","","","",""
"451","<p style=""color:white; font-size: 35px;"">缺德</p>","e","categorize-html","37","100209","0.0-6.0-1.0-4.0-1.1","4","4","4","4","4","4","4","4","4","4","5","5","5","4","5","5","5","5","5","5","1","1","1","1","1","1","1","1","1","0","0","1","1","0","0","0","1","0","1","1","0","1","0","1","5","1","1","2","1","1","2","1","2","5","2","602303969804419072","刘","658","","","","","","","","","","","","","","","","","","","true","12","2","moral","451","negative","缺德","","","","","","","","","","","","","","","","",""
"null","","null","html-keyboard-response","38","100461","0.0-6.0-1.0-4.0-0.2","4","4","4","4","4","4","4","4","4","4","5","5","5","4","5","5","5","5","5","5","1","1","1","1","1","1","1","1","1","0","0","1","1","0","0","0","1","0","1","1","0","1","0","1","5","1","1","2","1","1","2","1","2","5","2","602303969804419072","刘","658","","","","","","","","","","","","","","","","","","","","","","","","","","","","","","","","","","","","","","","","","",""
"572","<p style=""color:white; font-size: 35px;"">君子</p>","i","categorize-html","39","101034","0.0-6.0-1.0-4.0-1.2","4","4","4","4","4","4","4","4","4","4","5","5","5","4","5","5","5","5","5","5","1","1","1","1","1","1","1","1","1","0","0","1","1","0","0","0","1","0","1","1","0","1","0","1","5","1","1","2","1","1","2","1","2","5","2","602303969804419072","刘","658","","","","","","","","","","","","","","","","","","","true","12","2","moral","572","positive","君子","","","","","","","","","","","","","","","","",""
"null","","null","html-keyboard-response","40","101285","0.0-6.0-1.0-4.0-0.3","4","4","4","4","4","4","4","4","4","4","5","5","5","4","5","5","5","5","5","5","1","1","1","1","1","1","1","1","1","0","0","1","1","0","0","0","1","0","1","1","0","1","0","1","5","1","1","2","1","1","2","1","2","5","2","602303969804419072","刘","658","","","","","","","","","","","","","","","","","","","","","","","","","","","","","","","","","","","","","","","","","",""
"483","<p style=""color:white; font-size: 35px;"">诚信</p>","i","categorize-html","41","101769","0.0-6.0-1.0-4.0-1.3","4","4","4","4","4","4","4","4","4","4","5","5","5","4","5","5","5","5","5","5","1","1","1","1","1","1","1","1","1","0","0","1","1","0","0","0","1","0","1","1","0","1","0","1","5","1","1","2","1","1","2","1","2","5","2","602303969804419072","刘","658","","","","","","","","","","","","","","","","","","","true","12","2","moral","483","positive","诚信","","","","","","","","","","","","","","","","",""
"null","","null","html-keyboard-response","42","102020","0.0-6.0-1.0-4.0-0.4","4","4","4","4","4","4","4","4","4","4","5","5","5","4","5","5","5","5","5","5","1","1","1","1","1","1","1","1","1","0","0","1","1","0","0","0","1","0","1","1","0","1","0","1","5","1","1","2","1","1","2","1","2","5","2","602303969804419072","刘","658","","","","","","","","","","","","","","","","","","","","","","","","","","","","","","","","","","","","","","","","","",""
"444","<p style=""color:white; font-size: 35px;"">正直</p>","i","categorize-html","43","102465","0.0-6.0-1.0-4.0-1.4","4","4","4","4","4","4","4","4","4","4","5","5","5","4","5","5","5","5","5","5","1","1","1","1","1","1","1","1","1","0","0","1","1","0","0","0","1","0","1","1","0","1","0","1","5","1","1","2","1","1","2","1","2","5","2","602303969804419072","刘","658","","","","","","","","","","","","","","","","","","","true","12","2","moral","444","positive","正直","","","","","","","","","","","","","","","","",""
"null","","null","html-keyboard-response","44","102717","0.0-6.0-1.0-4.0-0.5","4","4","4","4","4","4","4","4","4","4","5","5","5","4","5","5","5","5","5","5","1","1","1","1","1","1","1","1","1","0","0","1","1","0","0","0","1","0","1","1","0","1","0","1","5","1","1","2","1","1","2","1","2","5","2","602303969804419072","刘","658","","","","","","","","","","","","","","","","","","","","","","","","","","","","","","","","","","","","","","","","","",""
"467","<p style=""color:white; font-size: 35px;"">卑鄙</p>","e","categorize-html","45","103185","0.0-6.0-1.0-4.0-1.5","4","4","4","4","4","4","4","4","4","4","5","5","5","4","5","5","5","5","5","5","1","1","1","1","1","1","1","1","1","0","0","1","1","0","0","0","1","0","1","1","0","1","0","1","5","1","1","2","1","1","2","1","2","5","2","602303969804419072","刘","658","","","","","","","","","","","","","","","","","","","true","12","2","moral","467","negative","卑鄙","","","","","","","","","","","","","","","","",""
"null","","null","html-keyboard-response","46","103437","0.0-6.0-1.0-4.0-0.6","4","4","4","4","4","4","4","4","4","4","5","5","5","4","5","5","5","5","5","5","1","1","1","1","1","1","1","1","1","0","0","1","1","0","0","0","1","0","1","1","0","1","0","1","5","1","1","2","1","1","2","1","2","5","2","602303969804419072","刘","658","","","","","","","","","","","","","","","","","","","","","","","","","","","","","","","","","","","","","","","","","",""
"459","<p style=""color:white; font-size: 35px;"">不仁</p>","e","categorize-html","47","103897","0.0-6.0-1.0-4.0-1.6","4","4","4","4","4","4","4","4","4","4","5","5","5","4","5","5","5","5","5","5","1","1","1","1","1","1","1","1","1","0","0","1","1","0","0","0","1","0","1","1","0","1","0","1","5","1","1","2","1","1","2","1","2","5","2","602303969804419072","刘","658","","","","","","","","","","","","","","","","","","","true","12","2","moral","459","negative","不仁","","","","","","","","","","","","","","","","",""
"null","","null","html-keyboard-response","48","104149","0.0-6.0-1.0-4.0-0.7","4","4","4","4","4","4","4","4","4","4","5","5","5","4","5","5","5","5","5","5","1","1","1","1","1","1","1","1","1","0","0","1","1","0","0","0","1","0","1","1","0","1","0","1","5","1","1","2","1","1","2","1","2","5","2","602303969804419072","刘","658","","","","","","","","","","","","","","","","","","","","","","","","","","","","","","","","","","","","","","","","","",""
"404","<p style=""color:white; font-size: 35px;"">黑心</p>","e","categorize-html","49","104553","0.0-6.0-1.0-4.0-1.7","4","4","4","4","4","4","4","4","4","4","5","5","5","4","5","5","5","5","5","5","1","1","1","1","1","1","1","1","1","0","0","1","1","0","0","0","1","0","1","1","0","1","0","1","5","1","1","2","1","1","2","1","2","5","2","602303969804419072","刘","658","","","","","","","","","","","","","","","","","","","true","12","2","moral","404","negative","黑心","","","","","","","","","","","","","","","","",""
"null","","null","html-keyboard-response","50","104804","0.0-6.0-1.0-4.0-0.8","4","4","4","4","4","4","4","4","4","4","5","5","5","4","5","5","5","5","5","5","1","1","1","1","1","1","1","1","1","0","0","1","1","0","0","0","1","0","1","1","0","1","0","1","5","1","1","2","1","1","2","1","2","5","2","602303969804419072","刘","658","","","","","","","","","","","","","","","","","","","","","","","","","","","","","","","","","","","","","","","","","",""
"412","<p style=""color:white; font-size: 35px;"">小人</p>","i","categorize-html","51","105656","0.0-6.0-1.0-4.0-1.8","4","4","4","4","4","4","4","4","4","4","5","5","5","4","5","5","5","5","5","5","1","1","1","1","1","1","1","1","1","0","0","1","1","0","0","0","1","0","1","1","0","1","0","1","5","1","1","2","1","1","2","1","2","5","2","602303969804419072","刘","658","","","","","","","","","","","","","","","","","","","false","12","2","moral","412","negative","小人","","","","","","","","","","","","","","","","",""
"null","","null","html-keyboard-response","52","105907","0.0-6.0-1.0-4.0-0.9","4","4","4","4","4","4","4","4","4","4","5","5","5","4","5","5","5","5","5","5","1","1","1","1","1","1","1","1","1","0","0","1","1","0","0","0","1","0","1","1","0","1","0","1","5","1","1","2","1","1","2","1","2","5","2","602303969804419072","刘","658","","","","","","","","","","","","","","","","","","","","","","","","","","","","","","","","","","","","","","","","","",""
"549","<p style=""color:white; font-size: 35px;"">高尚</p>","i","categorize-html","53","106458","0.0-6.0-1.0-4.0-1.9","4","4","4","4","4","4","4","4","4","4","5","5","5","4","5","5","5","5","5","5","1","1","1","1","1","1","1","1","1","0","0","1","1","0","0","0","1","0","1","1","0","1","0","1","5","1","1","2","1","1","2","1","2","5","2","602303969804419072","刘","658","","","","","","","","","","","","","","","","","","","true","12","2","moral","549","positive","高尚","","","","","","","","","","","","","","","","",""
"null","","null","html-keyboard-response","54","106709","0.0-6.0-1.0-4.0-0.10","4","4","4","4","4","4","4","4","4","4","5","5","5","4","5","5","5","5","5","5","1","1","1","1","1","1","1","1","1","0","0","1","1","0","0","0","1","0","1","1","0","1","0","1","5","1","1","2","1","1","2","1","2","5","2","602303969804419072","刘","658","","","","","","","","","","","","","","","","","","","","","","","","","","","","","","","","","","","","","","","","","",""
"571","<p style=""color:white; font-size: 35px;"">不孝</p>","e","categorize-html","55","107281","0.0-6.0-1.0-4.0-1.10","4","4","4","4","4","4","4","4","4","4","5","5","5","4","5","5","5","5","5","5","1","1","1","1","1","1","1","1","1","0","0","1","1","0","0","0","1","0","1","1","0","1","0","1","5","1","1","2","1","1","2","1","2","5","2","602303969804419072","刘","658","","","","","","","","","","","","","","","","","","","true","12","2","moral","571","negative","不孝","","","","","","","","","","","","","","","","",""
"null","","null","html-keyboard-response","56","107533","0.0-6.0-1.0-4.0-0.11","4","4","4","4","4","4","4","4","4","4","5","5","5","4","5","5","5","5","5","5","1","1","1","1","1","1","1","1","1","0","0","1","1","0","0","0","1","0","1","1","0","1","0","1","5","1","1","2","1","1","2","1","2","5","2","602303969804419072","刘","658","","","","","","","","","","","","","","","","","","","","","","","","","","","","","","","","","","","","","","","","","",""
"748","<p style=""color:white; font-size: 35px;"">善良</p>","i","categorize-html","57","108282","0.0-6.0-1.0-4.0-1.11","4","4","4","4","4","4","4","4","4","4","5","5","5","4","5","5","5","5","5","5","1","1","1","1","1","1","1","1","1","0","0","1","1","0","0","0","1","0","1","1","0","1","0","1","5","1","1","2","1","1","2","1","2","5","2","602303969804419072","刘","658","","","","","","","","","","","","","","","","","","","true","12","2","moral","748","positive","善良","","","","","","","","","","","","","","","","",""
"550","
    <div class=""tag-bottom""><p>
    —— 任务3：对“他人/消极”词和“自我/积极”词分类 ——<p/>
    <span style=""color:#78DCE8""><b>注意上方，之前的四类词语将混合在一起交替呈现</b></span><p/>
    <span style=""color:#FFD866""><b>请根据上方标签的提示，尽可能正确并且快速地做出按键反应</b></span><p/>
    当按键错误时屏幕中会出现<span style=""color:red""> X </span>，需要按另一个键纠正才能继续<br/><p/>
    请把双手食指分别放在键盘的“E”键和“I”键上<p/>
    按<空格键>开始
    </p></div>"," ","html-keyboard-response","58","108832","0.0-6.0-1.0-5.0","4","4","4","4","4","4","4","4","4","4","5","5","5","4","5","5","5","5","5","5","1","1","1","1","1","1","1","1","1","0","0","1","1","0","0","0","1","0","1","1","0","1","0","1","5","1","1","2","1","1","2","1","2","5","2","602303969804419072","刘","658","","","","","","","","","","","","","","","","","","","","","","","","","","","","","","","","","","","","","","","","","",""
"null","","null","html-keyboard-response","59","109084","0.0-6.0-1.0-6.0-0.0","4","4","4","4","4","4","4","4","4","4","5","5","5","4","5","5","5","5","5","5","1","1","1","1","1","1","1","1","1","0","0","1","1","0","0","0","1","0","1","1","0","1","0","1","5","1","1","2","1","1","2","1","2","5","2","602303969804419072","刘","658","","","","","","","","","","","","","","","","","","","","","","","","","","","","","","","","","","","","","","","","","",""
"428","<p style=""color:rgb(150, 250, 100); font-size: 35px;"">自己的</p>","i","categorize-html","60","109513","0.0-6.0-1.0-6.0-1.0","4","4","4","4","4","4","4","4","4","4","5","5","5","4","5","5","5","5","5","5","1","1","1","1","1","1","1","1","1","0","0","1","1","0","0","0","1","0","1","1","0","1","0","1","5","1","1","2","1","1","2","1","2","5","2","602303969804419072","刘","658","","","","","","","","","","","","","","","","","","","true","13","3","moral","428","self","自己的","","","","","","","","","","","","","","","","",""
"null","","null","html-keyboard-response","61","109765","0.0-6.0-1.0-6.0-0.1","4","4","4","4","4","4","4","4","4","4","5","5","5","4","5","5","5","5","5","5","1","1","1","1","1","1","1","1","1","0","0","1","1","0","0","0","1","0","1","1","0","1","0","1","5","1","1","2","1","1","2","1","2","5","2","602303969804419072","刘","658","","","","","","","","","","","","","","","","","","","","","","","","","","","","","","","","","","","","","","","","","",""
"451","<p style=""color:white; font-size: 35px;"">卑鄙</p>","e","categorize-html","62","110217","0.0-6.0-1.0-6.0-1.1","4","4","4","4","4","4","4","4","4","4","5","5","5","4","5","5","5","5","5","5","1","1","1","1","1","1","1","1","1","0","0","1","1","0","0","0","1","0","1","1","0","1","0","1","5","1","1","2","1","1","2","1","2","5","2","602303969804419072","刘","658","","","","","","","","","","","","","","","","","","","true","13","3","moral","451","negative","卑鄙","","","","","","","","","","","","","","","","",""
"null","","null","html-keyboard-response","63","110469","0.0-6.0-1.0-6.0-0.2","4","4","4","4","4","4","4","4","4","4","5","5","5","4","5","5","5","5","5","5","1","1","1","1","1","1","1","1","1","0","0","1","1","0","0","0","1","0","1","1","0","1","0","1","5","1","1","2","1","1","2","1","2","5","2","602303969804419072","刘","658","","","","","","","","","","","","","","","","","","","","","","","","","","","","","","","","","","","","","","","","","",""
"460","<p style=""color:rgb(150, 250, 100); font-size: 35px;"">别人的</p>","e","categorize-html","64","110930","0.0-6.0-1.0-6.0-1.2","4","4","4","4","4","4","4","4","4","4","5","5","5","4","5","5","5","5","5","5","1","1","1","1","1","1","1","1","1","0","0","1","1","0","0","0","1","0","1","1","0","1","0","1","5","1","1","2","1","1","2","1","2","5","2","602303969804419072","刘","658","","","","","","","","","","","","","","","","","","","true","13","3","moral","460","other","别人的","","","","","","","","","","","","","","","","",""
"null","","null","html-keyboard-response","65","111190","0.0-6.0-1.0-6.0-0.3","4","4","4","4","4","4","4","4","4","4","5","5","5","4","5","5","5","5","5","5","1","1","1","1","1","1","1","1","1","0","0","1","1","0","0","0","1","0","1","1","0","1","0","1","5","1","1","2","1","1","2","1","2","5","2","602303969804419072","刘","658","","","","","","","","","","","","","","","","","","","","","","","","","","","","","","","","","","","","","","","","","",""
"554","<p style=""color:white; font-size: 35px;"">君子</p>","i","categorize-html","66","111746","0.0-6.0-1.0-6.0-1.3","4","4","4","4","4","4","4","4","4","4","5","5","5","4","5","5","5","5","5","5","1","1","1","1","1","1","1","1","1","0","0","1","1","0","0","0","1","0","1","1","0","1","0","1","5","1","1","2","1","1","2","1","2","5","2","602303969804419072","刘","658","","","","","","","","","","","","","","","","","","","true","13","3","moral","554","positive","君子","","","","","","","","","","","","","","","","",""
"null","","null","html-keyboard-response","67","111998","0.0-6.0-1.0-6.0-0.4","4","4","4","4","4","4","4","4","4","4","5","5","5","4","5","5","5","5","5","5","1","1","1","1","1","1","1","1","1","0","0","1","1","0","0","0","1","0","1","1","0","1","0","1","5","1","1","2","1","1","2","1","2","5","2","602303969804419072","刘","658","","","","","","","","","","","","","","","","","","","","","","","","","","","","","","","","","","","","","","","","","",""
"530","<p style=""color:rgb(150, 250, 100); font-size: 35px;"">我的</p>","i","categorize-html","68","112529","0.0-6.0-1.0-6.0-1.4","4","4","4","4","4","4","4","4","4","4","5","5","5","4","5","5","5","5","5","5","1","1","1","1","1","1","1","1","1","0","0","1","1","0","0","0","1","0","1","1","0","1","0","1","5","1","1","2","1","1","2","1","2","5","2","602303969804419072","刘","658","","","","","","","","","","","","","","","","","","","true","13","3","moral","530","self","我的","","","","","","","","","","","","","","","","",""
"null","","null","html-keyboard-response","69","112780","0.0-6.0-1.0-6.0-0.5","4","4","4","4","4","4","4","4","4","4","5","5","5","4","5","5","5","5","5","5","1","1","1","1","1","1","1","1","1","0","0","1","1","0","0","0","1","0","1","1","0","1","0","1","5","1","1","2","1","1","2","1","2","5","2","602303969804419072","刘","658","","","","","","","","","","","","","","","","","","","","","","","","","","","","","","","","","","","","","","","","","",""
"436","<p style=""color:white; font-size: 35px;"">不仁</p>","e","categorize-html","70","113217","0.0-6.0-1.0-6.0-1.5","4","4","4","4","4","4","4","4","4","4","5","5","5","4","5","5","5","5","5","5","1","1","1","1","1","1","1","1","1","0","0","1","1","0","0","0","1","0","1","1","0","1","0","1","5","1","1","2","1","1","2","1","2","5","2","602303969804419072","刘","658","","","","","","","","","","","","","","","","","","","true","13","3","moral","436","negative","不仁","","","","","","","","","","","","","","","","",""
"null","","null","html-keyboard-response","71","113468","0.0-6.0-1.0-6.0-0.6","4","4","4","4","4","4","4","4","4","4","5","5","5","4","5","5","5","5","5","5","1","1","1","1","1","1","1","1","1","0","0","1","1","0","0","0","1","0","1","1","0","1","0","1","5","1","1","2","1","1","2","1","2","5","2","602303969804419072","刘","658","","","","","","","","","","","","","","","","","","","","","","","","","","","","","","","","","","","","","","","","","",""
"548","<p style=""color:rgb(150, 250, 100); font-size: 35px;"">他人的</p>","e","categorize-html","72","114018","0.0-6.0-1.0-6.0-1.6","4","4","4","4","4","4","4","4","4","4","5","5","5","4","5","5","5","5","5","5","1","1","1","1","1","1","1","1","1","0","0","1","1","0","0","0","1","0","1","1","0","1","0","1","5","1","1","2","1","1","2","1","2","5","2","602303969804419072","刘","658","","","","","","","","","","","","","","","","","","","true","13","3","moral","548","other","他人的","","","","","","","","","","","","","","","","",""
"null","","null","html-keyboard-response","73","114270","0.0-6.0-1.0-6.0-0.7","4","4","4","4","4","4","4","4","4","4","5","5","5","4","5","5","5","5","5","5","1","1","1","1","1","1","1","1","1","0","0","1","1","0","0","0","1","0","1","1","0","1","0","1","5","1","1","2","1","1","2","1","2","5","2","602303969804419072","刘","658","","","","","","","","","","","","","","","","","","","","","","","","","","","","","","","","","","","","","","","","","",""
"562","<p style=""color:white; font-size: 35px;"">高尚</p>","i","categorize-html","74","114834","0.0-6.0-1.0-6.0-1.7","4","4","4","4","4","4","4","4","4","4","5","5","5","4","5","5","5","5","5","5","1","1","1","1","1","1","1","1","1","0","0","1","1","0","0","0","1","0","1","1","0","1","0","1","5","1","1","2","1","1","2","1","2","5","2","602303969804419072","刘","658","","","","","","","","","","","","","","","","","","","true","13","3","moral","562","positive","高尚","","","","","","","","","","","","","","","","",""
"null","","null","html-keyboard-response","75","115085","0.0-6.0-1.0-6.0-0.8","4","4","4","4","4","4","4","4","4","4","5","5","5","4","5","5","5","5","5","5","1","1","1","1","1","1","1","1","1","0","0","1","1","0","0","0","1","0","1","1","0","1","0","1","5","1","1","2","1","1","2","1","2","5","2","602303969804419072","刘","658","","","","","","","","","","","","","","","","","","","","","","","","","","","","","","","","","","","","","","","","","",""
"428","<p style=""color:rgb(150, 250, 100); font-size: 35px;"">本人</p>","i","categorize-html","76","115514","0.0-6.0-1.0-6.0-1.8","4","4","4","4","4","4","4","4","4","4","5","5","5","4","5","5","5","5","5","5","1","1","1","1","1","1","1","1","1","0","0","1","1","0","0","0","1","0","1","1","0","1","0","1","5","1","1","2","1","1","2","1","2","5","2","602303969804419072","刘","658","","","","","","","","","","","","","","","","","","","true","13","3","moral","428","self","本人","","","","","","","","","","","","","","","","",""
"null","","null","html-keyboard-response","77","115765","0.0-6.0-1.0-6.0-0.9","4","4","4","4","4","4","4","4","4","4","5","5","5","4","5","5","5","5","5","5","1","1","1","1","1","1","1","1","1","0","0","1","1","0","0","0","1","0","1","1","0","1","0","1","5","1","1","2","1","1","2","1","2","5","2","602303969804419072","刘","658","","","","","","","","","","","","","","","","","","","","","","","","","","","","","","","","","","","","","","","","","",""
"475","<p style=""color:white; font-size: 35px;"">不孝</p>","e","categorize-html","78","116241","0.0-6.0-1.0-6.0-1.9","4","4","4","4","4","4","4","4","4","4","5","5","5","4","5","5","5","5","5","5","1","1","1","1","1","1","1","1","1","0","0","1","1","0","0","0","1","0","1","1","0","1","0","1","5","1","1","2","1","1","2","1","2","5","2","602303969804419072","刘","658","","","","","","","","","","","","","","","","","","","true","13","3","moral","475","negative","不孝","","","","","","","","","","","","","","","","",""
"null","","null","html-keyboard-response","79","116492","0.0-6.0-1.0-6.0-0.10","4","4","4","4","4","4","4","4","4","4","5","5","5","4","5","5","5","5","5","5","1","1","1","1","1","1","1","1","1","0","0","1","1","0","0","0","1","0","1","1","0","1","0","1","5","1","1","2","1","1","2","1","2","5","2","602303969804419072","刘","658","","","","","","","","","","","","","","","","","","","","","","","","","","","","","","","","","","","","","","","","","",""
"548","<p style=""color:rgb(150, 250, 100); font-size: 35px;"">他的</p>","e","categorize-html","80","117041","0.0-6.0-1.0-6.0-1.10","4","4","4","4","4","4","4","4","4","4","5","5","5","4","5","5","5","5","5","5","1","1","1","1","1","1","1","1","1","0","0","1","1","0","0","0","1","0","1","1","0","1","0","1","5","1","1","2","1","1","2","1","2","5","2","602303969804419072","刘","658","","","","","","","","","","","","","","","","","","","true","13","3","moral","548","other","他的","","","","","","","","","","","","","","","","",""
"null","","null","html-keyboard-response","81","117293","0.0-6.0-1.0-6.0-0.11","4","4","4","4","4","4","4","4","4","4","5","5","5","4","5","5","5","5","5","5","1","1","1","1","1","1","1","1","1","0","0","1","1","0","0","0","1","0","1","1","0","1","0","1","5","1","1","2","1","1","2","1","2","5","2","602303969804419072","刘","658","","","","","","","","","","","","","","","","","","","","","","","","","","","","","","","","","","","","","","","","","",""
"515","<p style=""color:white; font-size: 35px;"">廉正</p>","i","categorize-html","82","117809","0.0-6.0-1.0-6.0-1.11","4","4","4","4","4","4","4","4","4","4","5","5","5","4","5","5","5","5","5","5","1","1","1","1","1","1","1","1","1","0","0","1","1","0","0","0","1","0","1","1","0","1","0","1","5","1","1","2","1","1","2","1","2","5","2","602303969804419072","刘","658","","","","","","","","","","","","","","","","","","","true","13","3","moral","515","positive","廉正","","","","","","","","","","","","","","","","",""
"null","","null","html-keyboard-response","83","118060","0.0-6.0-1.0-6.0-0.12","4","4","4","4","4","4","4","4","4","4","5","5","5","4","5","5","5","5","5","5","1","1","1","1","1","1","1","1","1","0","0","1","1","0","0","0","1","0","1","1","0","1","0","1","5","1","1","2","1","1","2","1","2","5","2","602303969804419072","刘","658","","","","","","","","","","","","","","","","","","","","","","","","","","","","","","","","","","","","","","","","","",""
"852","<p style=""color:rgb(150, 250, 100); font-size: 35px;"">他</p>","e","categorize-html","84","118914","0.0-6.0-1.0-6.0-1.12","4","4","4","4","4","4","4","4","4","4","5","5","5","4","5","5","5","5","5","5","1","1","1","1","1","1","1","1","1","0","0","1","1","0","0","0","1","0","1","1","0","1","0","1","5","1","1","2","1","1","2","1","2","5","2","602303969804419072","刘","658","","","","","","","","","","","","","","","","","","","true","13","3","moral","852","other","他","","","","","","","","","","","","","","","","",""
"null","","null","html-keyboard-response","85","119165","0.0-6.0-1.0-6.0-0.13","4","4","4","4","4","4","4","4","4","4","5","5","5","4","5","5","5","5","5","5","1","1","1","1","1","1","1","1","1","0","0","1","1","0","0","0","1","0","1","1","0","1","0","1","5","1","1","2","1","1","2","1","2","5","2","602303969804419072","刘","658","","","","","","","","","","","","","","","","","","","","","","","","","","","","","","","","","","","","","","","","","",""
"507","<p style=""color:white; font-size: 35px;"">正直</p>","i","categorize-html","86","119674","0.0-6.0-1.0-6.0-1.13","4","4","4","4","4","4","4","4","4","4","5","5","5","4","5","5","5","5","5","5","1","1","1","1","1","1","1","1","1","0","0","1","1","0","0","0","1","0","1","1","0","1","0","1","5","1","1","2","1","1","2","1","2","5","2","602303969804419072","刘","658","","","","","","","","","","","","","","","","","","","true","13","3","moral","507","positive","正直","","","","","","","","","","","","","","","","",""
"null","","null","html-keyboard-response","87","119924","0.0-6.0-1.0-6.0-0.14","4","4","4","4","4","4","4","4","4","4","5","5","5","4","5","5","5","5","5","5","1","1","1","1","1","1","1","1","1","0","0","1","1","0","0","0","1","0","1","1","0","1","0","1","5","1","1","2","1","1","2","1","2","5","2","602303969804419072","刘","658","","","","","","","","","","","","","","","","","","","","","","","","","","","","","","","","","","","","","","","","","",""
"492","<p style=""color:rgb(150, 250, 100); font-size: 35px;"">我</p>","i","categorize-html","88","120417","0.0-6.0-1.0-6.0-1.14","4","4","4","4","4","4","4","4","4","4","5","5","5","4","5","5","5","5","5","5","1","1","1","1","1","1","1","1","1","0","0","1","1","0","0","0","1","0","1","1","0","1","0","1","5","1","1","2","1","1","2","1","2","5","2","602303969804419072","刘","658","","","","","","","","","","","","","","","","","","","true","13","3","moral","492","self","我","","","","","","","","","","","","","","","","",""
"null","","null","html-keyboard-response","89","120668","0.0-6.0-1.0-6.0-0.15","4","4","4","4","4","4","4","4","4","4","5","5","5","4","5","5","5","5","5","5","1","1","1","1","1","1","1","1","1","0","0","1","1","0","0","0","1","0","1","1","0","1","0","1","5","1","1","2","1","1","2","1","2","5","2","602303969804419072","刘","658","","","","","","","","","","","","","","","","","","","","","","","","","","","","","","","","","","","","","","","","","",""
"468","<p style=""color:white; font-size: 35px;"">黑心</p>","e","categorize-html","90","121137","0.0-6.0-1.0-6.0-1.15","4","4","4","4","4","4","4","4","4","4","5","5","5","4","5","5","5","5","5","5","1","1","1","1","1","1","1","1","1","0","0","1","1","0","0","0","1","0","1","1","0","1","0","1","5","1","1","2","1","1","2","1","2","5","2","602303969804419072","刘","658","","","","","","","","","","","","","","","","","","","true","13","3","moral","468","negative","黑心","","","","","","","","","","","","","","","","",""
"null","","null","html-keyboard-response","91","121388","0.0-6.0-1.0-6.0-0.16","4","4","4","4","4","4","4","4","4","4","5","5","5","4","5","5","5","5","5","5","1","1","1","1","1","1","1","1","1","0","0","1","1","0","0","0","1","0","1","1","0","1","0","1","5","1","1","2","1","1","2","1","2","5","2","602303969804419072","刘","658","","","","","","","","","","","","","","","","","","","","","","","","","","","","","","","","","","","","","","","","","",""
"524","<p style=""color:rgb(150, 250, 100); font-size: 35px;"">别人</p>","e","categorize-html","92","121913","0.0-6.0-1.0-6.0-1.16","4","4","4","4","4","4","4","4","4","4","5","5","5","4","5","5","5","5","5","5","1","1","1","1","1","1","1","1","1","0","0","1","1","0","0","0","1","0","1","1","0","1","0","1","5","1","1","2","1","1","2","1","2","5","2","602303969804419072","刘","658","","","","","","","","","","","","","","","","","","","true","13","3","moral","524","other","别人","","","","","","","","","","","","","","","","",""
"null","","null","html-keyboard-response","93","122165","0.0-6.0-1.0-6.0-0.17","4","4","4","4","4","4","4","4","4","4","5","5","5","4","5","5","5","5","5","5","1","1","1","1","1","1","1","1","1","0","0","1","1","0","0","0","1","0","1","1","0","1","0","1","5","1","1","2","1","1","2","1","2","5","2","602303969804419072","刘","658","","","","","","","","","","","","","","","","","","","","","","","","","","","","","","","","","","","","","","","","","",""
"523","<p style=""color:white; font-size: 35px;"">缺德</p>","e","categorize-html","94","122690","0.0-6.0-1.0-6.0-1.17","4","4","4","4","4","4","4","4","4","4","5","5","5","4","5","5","5","5","5","5","1","1","1","1","1","1","1","1","1","0","0","1","1","0","0","0","1","0","1","1","0","1","0","1","5","1","1","2","1","1","2","1","2","5","2","602303969804419072","刘","658","","","","","","","","","","","","","","","","","","","true","13","3","moral","523","negative","缺德","","","","","","","","","","","","","","","","",""
"null","","null","html-keyboard-response","95","122941","0.0-6.0-1.0-6.0-0.18","4","4","4","4","4","4","4","4","4","4","5","5","5","4","5","5","5","5","5","5","1","1","1","1","1","1","1","1","1","0","0","1","1","0","0","0","1","0","1","1","0","1","0","1","5","1","1","2","1","1","2","1","2","5","2","602303969804419072","刘","658","","","","","","","","","","","","","","","","","","","","","","","","","","","","","","","","","","","","","","","","","",""
"475","<p style=""color:rgb(150, 250, 100); font-size: 35px;"">本人的</p>","i","categorize-html","96","123418","0.0-6.0-1.0-6.0-1.18","4","4","4","4","4","4","4","4","4","4","5","5","5","4","5","5","5","5","5","5","1","1","1","1","1","1","1","1","1","0","0","1","1","0","0","0","1","0","1","1","0","1","0","1","5","1","1","2","1","1","2","1","2","5","2","602303969804419072","刘","658","","","","","","","","","","","","","","","","","","","true","13","3","moral","475","self","本人的","","","","","","","","","","","","","","","","",""
"null","","null","html-keyboard-response","97","123669","0.0-6.0-1.0-6.0-0.19","4","4","4","4","4","4","4","4","4","4","5","5","5","4","5","5","5","5","5","5","1","1","1","1","1","1","1","1","1","0","0","1","1","0","0","0","1","0","1","1","0","1","0","1","5","1","1","2","1","1","2","1","2","5","2","602303969804419072","刘","658","","","","","","","","","","","","","","","","","","","","","","","","","","","","","","","","","","","","","","","","","",""
"491","<p style=""color:white; font-size: 35px;"">诚信</p>","i","categorize-html","98","124162","0.0-6.0-1.0-6.0-1.19","4","4","4","4","4","4","4","4","4","4","5","5","5","4","5","5","5","5","5","5","1","1","1","1","1","1","1","1","1","0","0","1","1","0","0","0","1","0","1","1","0","1","0","1","5","1","1","2","1","1","2","1","2","5","2","602303969804419072","刘","658","","","","","","","","","","","","","","","","","","","true","13","3","moral","491","positive","诚信","","","","","","","","","","","","","","","","",""
"null","","null","html-keyboard-response","99","124412","0.0-6.0-1.0-6.0-0.20","4","4","4","4","4","4","4","4","4","4","5","5","5","4","5","5","5","5","5","5","1","1","1","1","1","1","1","1","1","0","0","1","1","0","0","0","1","0","1","1","0","1","0","1","5","1","1","2","1","1","2","1","2","5","2","602303969804419072","刘","658","","","","","","","","","","","","","","","","","","","","","","","","","","","","","","","","","","","","","","","","","",""
"404","<p style=""color:rgb(150, 250, 100); font-size: 35px;"">自己</p>","i","categorize-html","100","124818","0.0-6.0-1.0-6.0-1.20","4","4","4","4","4","4","4","4","4","4","5","5","5","4","5","5","5","5","5","5","1","1","1","1","1","1","1","1","1","0","0","1","1","0","0","0","1","0","1","1","0","1","0","1","5","1","1","2","1","1","2","1","2","5","2","602303969804419072","刘","658","","","","","","","","","","","","","","","","","","","true","13","3","moral","404","self","自己","","","","","","","","","","","","","","","","",""
"null","","null","html-keyboard-response","101","125070","0.0-6.0-1.0-6.0-0.21","4","4","4","4","4","4","4","4","4","4","5","5","5","4","5","5","5","5","5","5","1","1","1","1","1","1","1","1","1","0","0","1","1","0","0","0","1","0","1","1","0","1","0","1","5","1","1","2","1","1","2","1","2","5","2","602303969804419072","刘","658","","","","","","","","","","","","","","","","","","","","","","","","","","","","","","","","","","","","","","","","","",""
"474","<p style=""color:white; font-size: 35px;"">善良</p>","i","categorize-html","102","125546","0.0-6.0-1.0-6.0-1.21","4","4","4","4","4","4","4","4","4","4","5","5","5","4","5","5","5","5","5","5","1","1","1","1","1","1","1","1","1","0","0","1","1","0","0","0","1","0","1","1","0","1","0","1","5","1","1","2","1","1","2","1","2","5","2","602303969804419072","刘","658","","","","","","","","","","","","","","","","","","","true","13","3","moral","474","positive","善良","","","","","","","","","","","","","","","","",""
"null","","null","html-keyboard-response","103","125797","0.0-6.0-1.0-6.0-0.22","4","4","4","4","4","4","4","4","4","4","5","5","5","4","5","5","5","5","5","5","1","1","1","1","1","1","1","1","1","0","0","1","1","0","0","0","1","0","1","1","0","1","0","1","5","1","1","2","1","1","2","1","2","5","2","602303969804419072","刘","658","","","","","","","","","","","","","","","","","","","","","","","","","","","","","","","","","","","","","","","","","",""
"507","<p style=""color:rgb(150, 250, 100); font-size: 35px;"">他人</p>","e","categorize-html","104","126306","0.0-6.0-1.0-6.0-1.22","4","4","4","4","4","4","4","4","4","4","5","5","5","4","5","5","5","5","5","5","1","1","1","1","1","1","1","1","1","0","0","1","1","0","0","0","1","0","1","1","0","1","0","1","5","1","1","2","1","1","2","1","2","5","2","602303969804419072","刘","658","","","","","","","","","","","","","","","","","","","true","13","3","moral","507","other","他人","","","","","","","","","","","","","","","","",""
"null","","null","html-keyboard-response","105","126557","0.0-6.0-1.0-6.0-0.23","4","4","4","4","4","4","4","4","4","4","5","5","5","4","5","5","5","5","5","5","1","1","1","1","1","1","1","1","1","0","0","1","1","0","0","0","1","0","1","1","0","1","0","1","5","1","1","2","1","1","2","1","2","5","2","602303969804419072","刘","658","","","","","","","","","","","","","","","","","","","","","","","","","","","","","","","","","","","","","","","","","",""
"404","<p style=""color:white; font-size: 35px;"">小人</p>","e","categorize-html","106","126962","0.0-6.0-1.0-6.0-1.23","4","4","4","4","4","4","4","4","4","4","5","5","5","4","5","5","5","5","5","5","1","1","1","1","1","1","1","1","1","0","0","1","1","0","0","0","1","0","1","1","0","1","0","1","5","1","1","2","1","1","2","1","2","5","2","602303969804419072","刘","658","","","","","","","","","","","","","","","","","","","true","13","3","moral","404","negative","小人","","","","","","","","","","","","","","","","",""
"782","
    <div class=""tag-bottom""><p>
    —— 任务4：对“他人/消极”词和“自我/积极”词分类 ——<p/>
    <span style=""color:#78DCE8""><b>与刚才的任务完全相同，请再次对这四类词语分类</b></span><p/>
    <span style=""color:#FFD866""><b>请根据上方标签的提示，尽可能正确并且快速地做出按键反应</b></span><p/>
    当按键错误时屏幕中会出现<span style=""color:red""> X </span>，需要按另一个键纠正才能继续<br/><p/>
    请把双手食指分别放在键盘的“E”键和“I”键上<p/>
    按<空格键>开始
    </p></div>"," ","html-keyboard-response","107","127744","0.0-6.0-1.0-7.0","4","4","4","4","4","4","4","4","4","4","5","5","5","4","5","5","5","5","5","5","1","1","1","1","1","1","1","1","1","0","0","1","1","0","0","0","1","0","1","1","0","1","0","1","5","1","1","2","1","1","2","1","2","5","2","602303969804419072","刘","658","","","","","","","","","","","","","","","","","","","","","","","","","","","","","","","","","","","","","","","","","",""
"null","","null","html-keyboard-response","108","127999","0.0-6.0-1.0-8.0-0.0","4","4","4","4","4","4","4","4","4","4","5","5","5","4","5","5","5","5","5","5","1","1","1","1","1","1","1","1","1","0","0","1","1","0","0","0","1","0","1","1","0","1","0","1","5","1","1","2","1","1","2","1","2","5","2","602303969804419072","刘","658","","","","","","","","","","","","","","","","","","","","","","","","","","","","","","","","","","","","","","","","","",""
"449","<p style=""color:rgb(150, 250, 100); font-size: 35px;"">别人</p>","i","categorize-html","109","128792","0.0-6.0-1.0-8.0-1.0","4","4","4","4","4","4","4","4","4","4","5","5","5","4","5","5","5","5","5","5","1","1","1","1","1","1","1","1","1","0","0","1","1","0","0","0","1","0","1","1","0","1","0","1","5","1","1","2","1","1","2","1","2","5","2","602303969804419072","刘","658","","","","","","","","","","","","","","","","","","","false","14","4","moral","1137.9545454545455","other","别人","","","","","","","","","","","","","","","","",""
"null","","null","html-keyboard-response","110","129043","0.0-6.0-1.0-8.0-0.1","4","4","4","4","4","4","4","4","4","4","5","5","5","4","5","5","5","5","5","5","1","1","1","1","1","1","1","1","1","0","0","1","1","0","0","0","1","0","1","1","0","1","0","1","5","1","1","2","1","1","2","1","2","5","2","602303969804419072","刘","658","","","","","","","","","","","","","","","","","","","","","","","","","","","","","","","","","","","","","","","","","",""
"598","<p style=""color:white; font-size: 35px;"">廉正</p>","i","categorize-html","111","129642","0.0-6.0-1.0-8.0-1.1","4","4","4","4","4","4","4","4","4","4","5","5","5","4","5","5","5","5","5","5","1","1","1","1","1","1","1","1","1","0","0","1","1","0","0","0","1","0","1","1","0","1","0","1","5","1","1","2","1","1","2","1","2","5","2","602303969804419072","刘","658","","","","","","","","","","","","","","","","","","","true","14","4","moral","598","positive","廉正","","","","","","","","","","","","","","","","",""
"null","","null","html-keyboard-response","112","129893","0.0-6.0-1.0-8.0-0.2","4","4","4","4","4","4","4","4","4","4","5","5","5","4","5","5","5","5","5","5","1","1","1","1","1","1","1","1","1","0","0","1","1","0","0","0","1","0","1","1","0","1","0","1","5","1","1","2","1","1","2","1","2","5","2","602303969804419072","刘","658","","","","","","","","","","","","","","","","","","","","","","","","","","","","","","","","","","","","","","","","","",""
"436","<p style=""color:rgb(150, 250, 100); font-size: 35px;"">我</p>","i","categorize-html","113","130330","0.0-6.0-1.0-8.0-1.2","4","4","4","4","4","4","4","4","4","4","5","5","5","4","5","5","5","5","5","5","1","1","1","1","1","1","1","1","1","0","0","1","1","0","0","0","1","0","1","1","0","1","0","1","5","1","1","2","1","1","2","1","2","5","2","602303969804419072","刘","658","","","","","","","","","","","","","","","","","","","true","14","4","moral","436","self","我","","","","","","","","","","","","","","","","",""
"null","","null","html-keyboard-response","114","130581","0.0-6.0-1.0-8.0-0.3","4","4","4","4","4","4","4","4","4","4","5","5","5","4","5","5","5","5","5","5","1","1","1","1","1","1","1","1","1","0","0","1","1","0","0","0","1","0","1","1","0","1","0","1","5","1","1","2","1","1","2","1","2","5","2","602303969804419072","刘","658","","","","","","","","","","","","","","","","","","","","","","","","","","","","","","","","","","","","","","","","","",""
"555","<p style=""color:white; font-size: 35px;"">缺德</p>","e","categorize-html","115","131137","0.0-6.0-1.0-8.0-1.3","4","4","4","4","4","4","4","4","4","4","5","5","5","4","5","5","5","5","5","5","1","1","1","1","1","1","1","1","1","0","0","1","1","0","0","0","1","0","1","1","0","1","0","1","5","1","1","2","1","1","2","1","2","5","2","602303969804419072","刘","658","","","","","","","","","","","","","","","","","","","true","14","4","moral","555","negative","缺德","","","","","","","","","","","","","","","","",""
"null","","null","html-keyboard-response","116","131389","0.0-6.0-1.0-8.0-0.4","4","4","4","4","4","4","4","4","4","4","5","5","5","4","5","5","5","5","5","5","1","1","1","1","1","1","1","1","1","0","0","1","1","0","0","0","1","0","1","1","0","1","0","1","5","1","1","2","1","1","2","1","2","5","2","602303969804419072","刘","658","","","","","","","","","","","","","","","","","","","","","","","","","","","","","","","","","","","","","","","","","",""
"543","<p style=""color:rgb(150, 250, 100); font-size: 35px;"">自己的</p>","i","categorize-html","117","131934","0.0-6.0-1.0-8.0-1.4","4","4","4","4","4","4","4","4","4","4","5","5","5","4","5","5","5","5","5","5","1","1","1","1","1","1","1","1","1","0","0","1","1","0","0","0","1","0","1","1","0","1","0","1","5","1","1","2","1","1","2","1","2","5","2","602303969804419072","刘","658","","","","","","","","","","","","","","","","","","","true","14","4","moral","543","self","自己的","","","","","","","","","","","","","","","","",""
"null","","null","html-keyboard-response","118","132186","0.0-6.0-1.0-8.0-0.5","4","4","4","4","4","4","4","4","4","4","5","5","5","4","5","5","5","5","5","5","1","1","1","1","1","1","1","1","1","0","0","1","1","0","0","0","1","0","1","1","0","1","0","1","5","1","1","2","1","1","2","1","2","5","2","602303969804419072","刘","658","","","","","","","","","","","","","","","","","","","","","","","","","","","","","","","","","","","","","","","","","",""
"494","<p style=""color:white; font-size: 35px;"">君子</p>","i","categorize-html","119","132681","0.0-6.0-1.0-8.0-1.5","4","4","4","4","4","4","4","4","4","4","5","5","5","4","5","5","5","5","5","5","1","1","1","1","1","1","1","1","1","0","0","1","1","0","0","0","1","0","1","1","0","1","0","1","5","1","1","2","1","1","2","1","2","5","2","602303969804419072","刘","658","","","","","","","","","","","","","","","","","","","true","14","4","moral","494","positive","君子","","","","","","","","","","","","","","","","",""
"null","","null","html-keyboard-response","120","132933","0.0-6.0-1.0-8.0-0.6","4","4","4","4","4","4","4","4","4","4","5","5","5","4","5","5","5","5","5","5","1","1","1","1","1","1","1","1","1","0","0","1","1","0","0","0","1","0","1","1","0","1","0","1","5","1","1","2","1","1","2","1","2","5","2","602303969804419072","刘","658","","","","","","","","","","","","","","","","","","","","","","","","","","","","","","","","","","","","","","","","","",""
"508","<p style=""color:rgb(150, 250, 100); font-size: 35px;"">他人的</p>","e","categorize-html","121","133442","0.0-6.0-1.0-8.0-1.6","4","4","4","4","4","4","4","4","4","4","5","5","5","4","5","5","5","5","5","5","1","1","1","1","1","1","1","1","1","0","0","1","1","0","0","0","1","0","1","1","0","1","0","1","5","1","1","2","1","1","2","1","2","5","2","602303969804419072","刘","658","","","","","","","","","","","","","","","","","","","true","14","4","moral","508","other","他人的","","","","","","","","","","","","","","","","",""
"null","","null","html-keyboard-response","122","133693","0.0-6.0-1.0-8.0-0.7","4","4","4","4","4","4","4","4","4","4","5","5","5","4","5","5","5","5","5","5","1","1","1","1","1","1","1","1","1","0","0","1","1","0","0","0","1","0","1","1","0","1","0","1","5","1","1","2","1","1","2","1","2","5","2","602303969804419072","刘","658","","","","","","","","","","","","","","","","","","","","","","","","","","","","","","","","","","","","","","","","","",""
"468","<p style=""color:white; font-size: 35px;"">小人</p>","e","categorize-html","123","134162","0.0-6.0-1.0-8.0-1.7","4","4","4","4","4","4","4","4","4","4","5","5","5","4","5","5","5","5","5","5","1","1","1","1","1","1","1","1","1","0","0","1","1","0","0","0","1","0","1","1","0","1","0","1","5","1","1","2","1","1","2","1","2","5","2","602303969804419072","刘","658","","","","","","","","","","","","","","","","","","","true","14","4","moral","468","negative","小人","","","","","","","","","","","","","","","","",""
"null","","null","html-keyboard-response","124","134413","0.0-6.0-1.0-8.0-0.8","4","4","4","4","4","4","4","4","4","4","5","5","5","4","5","5","5","5","5","5","1","1","1","1","1","1","1","1","1","0","0","1","1","0","0","0","1","0","1","1","0","1","0","1","5","1","1","2","1","1","2","1","2","5","2","602303969804419072","刘","658","","","","","","","","","","","","","","","","","","","","","","","","","","","","","","","","","","","","","","","","","",""
"651","<p style=""color:rgb(150, 250, 100); font-size: 35px;"">本人的</p>","i","categorize-html","125","135065","0.0-6.0-1.0-8.0-1.8","4","4","4","4","4","4","4","4","4","4","5","5","5","4","5","5","5","5","5","5","1","1","1","1","1","1","1","1","1","0","0","1","1","0","0","0","1","0","1","1","0","1","0","1","5","1","1","2","1","1","2","1","2","5","2","602303969804419072","刘","658","","","","","","","","","","","","","","","","","","","true","14","4","moral","651","self","本人的","","","","","","","","","","","","","","","","",""
"null","","null","html-keyboard-response","126","135317","0.0-6.0-1.0-8.0-0.9","4","4","4","4","4","4","4","4","4","4","5","5","5","4","5","5","5","5","5","5","1","1","1","1","1","1","1","1","1","0","0","1","1","0","0","0","1","0","1","1","0","1","0","1","5","1","1","2","1","1","2","1","2","5","2","602303969804419072","刘","658","","","","","","","","","","","","","","","","","","","","","","","","","","","","","","","","","","","","","","","","","",""
"515","<p style=""color:white; font-size: 35px;"">卑鄙</p>","e","categorize-html","127","135834","0.0-6.0-1.0-8.0-1.9","4","4","4","4","4","4","4","4","4","4","5","5","5","4","5","5","5","5","5","5","1","1","1","1","1","1","1","1","1","0","0","1","1","0","0","0","1","0","1","1","0","1","0","1","5","1","1","2","1","1","2","1","2","5","2","602303969804419072","刘","658","","","","","","","","","","","","","","","","","","","true","14","4","moral","515","negative","卑鄙","","","","","","","","","","","","","","","","",""
"null","","null","html-keyboard-response","128","136085","0.0-6.0-1.0-8.0-0.10","4","4","4","4","4","4","4","4","4","4","5","5","5","4","5","5","5","5","5","5","1","1","1","1","1","1","1","1","1","0","0","1","1","0","0","0","1","0","1","1","0","1","0","1","5","1","1","2","1","1","2","1","2","5","2","602303969804419072","刘","658","","","","","","","","","","","","","","","","","","","","","","","","","","","","","","","","","","","","","","","","","",""
"467","<p style=""color:rgb(150, 250, 100); font-size: 35px;"">他的</p>","e","categorize-html","129","136553","0.0-6.0-1.0-8.0-1.10","4","4","4","4","4","4","4","4","4","4","5","5","5","4","5","5","5","5","5","5","1","1","1","1","1","1","1","1","1","0","0","1","1","0","0","0","1","0","1","1","0","1","0","1","5","1","1","2","1","1","2","1","2","5","2","602303969804419072","刘","658","","","","","","","","","","","","","","","","","","","true","14","4","moral","467","other","他的","","","","","","","","","","","","","","","","",""
"null","","null","html-keyboard-response","130","136804","0.0-6.0-1.0-8.0-0.11","4","4","4","4","4","4","4","4","4","4","5","5","5","4","5","5","5","5","5","5","1","1","1","1","1","1","1","1","1","0","0","1","1","0","0","0","1","0","1","1","0","1","0","1","5","1","1","2","1","1","2","1","2","5","2","602303969804419072","刘","658","","","","","","","","","","","","","","","","","","","","","","","","","","","","","","","","","","","","","","","","","",""
"500","<p style=""color:white; font-size: 35px;"">高尚</p>","e","categorize-html","131","137657","0.0-6.0-1.0-8.0-1.11","4","4","4","4","4","4","4","4","4","4","5","5","5","4","5","5","5","5","5","5","1","1","1","1","1","1","1","1","1","0","0","1","1","0","0","0","1","0","1","1","0","1","0","1","5","1","1","2","1","1","2","1","2","5","2","602303969804419072","刘","658","","","","","","","","","","","","","","","","","","","false","14","4","moral","1137.9545454545455","positive","高尚","","","","","","","","","","","","","","","","",""
"null","","null","html-keyboard-response","132","137908","0.0-6.0-1.0-8.0-0.12","4","4","4","4","4","4","4","4","4","4","5","5","5","4","5","5","5","5","5","5","1","1","1","1","1","1","1","1","1","0","0","1","1","0","0","0","1","0","1","1","0","1","0","1","5","1","1","2","1","1","2","1","2","5","2","602303969804419072","刘","658","","","","","","","","","","","","","","","","","","","","","","","","","","","","","","","","","","","","","","","","","",""
"547","<p style=""color:rgb(150, 250, 100); font-size: 35px;"">他</p>","e","categorize-html","133","138458","0.0-6.0-1.0-8.0-1.12","4","4","4","4","4","4","4","4","4","4","5","5","5","4","5","5","5","5","5","5","1","1","1","1","1","1","1","1","1","0","0","1","1","0","0","0","1","0","1","1","0","1","0","1","5","1","1","2","1","1","2","1","2","5","2","602303969804419072","刘","658","","","","","","","","","","","","","","","","","","","true","14","4","moral","547","other","他","","","","","","","","","","","","","","","","",""
"null","","null","html-keyboard-response","134","138709","0.0-6.0-1.0-8.0-0.13","4","4","4","4","4","4","4","4","4","4","5","5","5","4","5","5","5","5","5","5","1","1","1","1","1","1","1","1","1","0","0","1","1","0","0","0","1","0","1","1","0","1","0","1","5","1","1","2","1","1","2","1","2","5","2","602303969804419072","刘","658","","","","","","","","","","","","","","","","","","","","","","","","","","","","","","","","","","","","","","","","","",""
"435","<p style=""color:white; font-size: 35px;"">不仁</p>","e","categorize-html","135","139146","0.0-6.0-1.0-8.0-1.13","4","4","4","4","4","4","4","4","4","4","5","5","5","4","5","5","5","5","5","5","1","1","1","1","1","1","1","1","1","0","0","1","1","0","0","0","1","0","1","1","0","1","0","1","5","1","1","2","1","1","2","1","2","5","2","602303969804419072","刘","658","","","","","","","","","","","","","","","","","","","true","14","4","moral","435","negative","不仁","","","","","","","","","","","","","","","","",""
"null","","null","html-keyboard-response","136","139397","0.0-6.0-1.0-8.0-0.14","4","4","4","4","4","4","4","4","4","4","5","5","5","4","5","5","5","5","5","5","1","1","1","1","1","1","1","1","1","0","0","1","1","0","0","0","1","0","1","1","0","1","0","1","5","1","1","2","1","1","2","1","2","5","2","602303969804419072","刘","658","","","","","","","","","","","","","","","","","","","","","","","","","","","","","","","","","","","","","","","","","",""
"899","<p style=""color:rgb(150, 250, 100); font-size: 35px;"">我的</p>","i","categorize-html","137","140297","0.0-6.0-1.0-8.0-1.14","4","4","4","4","4","4","4","4","4","4","5","5","5","4","5","5","5","5","5","5","1","1","1","1","1","1","1","1","1","0","0","1","1","0","0","0","1","0","1","1","0","1","0","1","5","1","1","2","1","1","2","1","2","5","2","602303969804419072","刘","658","","","","","","","","","","","","","","","","","","","true","14","4","moral","899","self","我的","","","","","","","","","","","","","","","","",""
"null","","null","html-keyboard-response","138","140548","0.0-6.0-1.0-8.0-0.15","4","4","4","4","4","4","4","4","4","4","5","5","5","4","5","5","5","5","5","5","1","1","1","1","1","1","1","1","1","0","0","1","1","0","0","0","1","0","1","1","0","1","0","1","5","1","1","2","1","1","2","1","2","5","2","602303969804419072","刘","658","","","","","","","","","","","","","","","","","","","","","","","","","","","","","","","","","","","","","","","","","",""
"580","<p style=""color:white; font-size: 35px;"">诚信</p>","i","categorize-html","139","141130","0.0-6.0-1.0-8.0-1.15","4","4","4","4","4","4","4","4","4","4","5","5","5","4","5","5","5","5","5","5","1","1","1","1","1","1","1","1","1","0","0","1","1","0","0","0","1","0","1","1","0","1","0","1","5","1","1","2","1","1","2","1","2","5","2","602303969804419072","刘","658","","","","","","","","","","","","","","","","","","","true","14","4","moral","580","positive","诚信","","","","","","","","","","","","","","","","",""
"null","","null","html-keyboard-response","140","141381","0.0-6.0-1.0-8.0-0.16","4","4","4","4","4","4","4","4","4","4","5","5","5","4","5","5","5","5","5","5","1","1","1","1","1","1","1","1","1","0","0","1","1","0","0","0","1","0","1","1","0","1","0","1","5","1","1","2","1","1","2","1","2","5","2","602303969804419072","刘","658","","","","","","","","","","","","","","","","","","","","","","","","","","","","","","","","","","","","","","","","","",""
"716","<p style=""color:rgb(150, 250, 100); font-size: 35px;"">自己</p>","i","categorize-html","141","142099","0.0-6.0-1.0-8.0-1.16","4","4","4","4","4","4","4","4","4","4","5","5","5","4","5","5","5","5","5","5","1","1","1","1","1","1","1","1","1","0","0","1","1","0","0","0","1","0","1","1","0","1","0","1","5","1","1","2","1","1","2","1","2","5","2","602303969804419072","刘","658","","","","","","","","","","","","","","","","","","","true","14","4","moral","716","self","自己","","","","","","","","","","","","","","","","",""
"null","","null","html-keyboard-response","142","142350","0.0-6.0-1.0-8.0-0.17","4","4","4","4","4","4","4","4","4","4","5","5","5","4","5","5","5","5","5","5","1","1","1","1","1","1","1","1","1","0","0","1","1","0","0","0","1","0","1","1","0","1","0","1","5","1","1","2","1","1","2","1","2","5","2","602303969804419072","刘","658","","","","","","","","","","","","","","","","","","","","","","","","","","","","","","","","","","","","","","","","","",""
"626","<p style=""color:white; font-size: 35px;"">君子</p>","i","categorize-html","143","142978","0.0-6.0-1.0-8.0-1.17","4","4","4","4","4","4","4","4","4","4","5","5","5","4","5","5","5","5","5","5","1","1","1","1","1","1","1","1","1","0","0","1","1","0","0","0","1","0","1","1","0","1","0","1","5","1","1","2","1","1","2","1","2","5","2","602303969804419072","刘","658","","","","","","","","","","","","","","","","","","","true","14","4","moral","626","positive","君子","","","","","","","","","","","","","","","","",""
"null","","null","html-keyboard-response","144","143229","0.0-6.0-1.0-8.0-0.18","4","4","4","4","4","4","4","4","4","4","5","5","5","4","5","5","5","5","5","5","1","1","1","1","1","1","1","1","1","0","0","1","1","0","0","0","1","0","1","1","0","1","0","1","5","1","1","2","1","1","2","1","2","5","2","602303969804419072","刘","658","","","","","","","","","","","","","","","","","","","","","","","","","","","","","","","","","","","","","","","","","",""
"595","<p style=""color:rgb(150, 250, 100); font-size: 35px;"">别人</p>","e","categorize-html","145","143825","0.0-6.0-1.0-8.0-1.18","4","4","4","4","4","4","4","4","4","4","5","5","5","4","5","5","5","5","5","5","1","1","1","1","1","1","1","1","1","0","0","1","1","0","0","0","1","0","1","1","0","1","0","1","5","1","1","2","1","1","2","1","2","5","2","602303969804419072","刘","658","","","","","","","","","","","","","","","","","","","true","14","4","moral","595","other","别人","","","","","","","","","","","","","","","","",""
"null","","null","html-keyboard-response","146","144076","0.0-6.0-1.0-8.0-0.19","4","4","4","4","4","4","4","4","4","4","5","5","5","4","5","5","5","5","5","5","1","1","1","1","1","1","1","1","1","0","0","1","1","0","0","0","1","0","1","1","0","1","0","1","5","1","1","2","1","1","2","1","2","5","2","602303969804419072","刘","658","","","","","","","","","","","","","","","","","","","","","","","","","","","","","","","","","","","","","","","","","",""
"636","<p style=""color:white; font-size: 35px;"">卑鄙</p>","e","categorize-html","147","144713","0.0-6.0-1.0-8.0-1.19","4","4","4","4","4","4","4","4","4","4","5","5","5","4","5","5","5","5","5","5","1","1","1","1","1","1","1","1","1","0","0","1","1","0","0","0","1","0","1","1","0","1","0","1","5","1","1","2","1","1","2","1","2","5","2","602303969804419072","刘","658","","","","","","","","","","","","","","","","","","","true","14","4","moral","636","negative","卑鄙","","","","","","","","","","","","","","","","",""
"null","","null","html-keyboard-response","148","144964","0.0-6.0-1.0-8.0-0.20","4","4","4","4","4","4","4","4","4","4","5","5","5","4","5","5","5","5","5","5","1","1","1","1","1","1","1","1","1","0","0","1","1","0","0","0","1","0","1","1","0","1","0","1","5","1","1","2","1","1","2","1","2","5","2","602303969804419072","刘","658","","","","","","","","","","","","","","","","","","","","","","","","","","","","","","","","","","","","","","","","","",""
"644","<p style=""color:rgb(150, 250, 100); font-size: 35px;"">本人的</p>","i","categorize-html","149","145610","0.0-6.0-1.0-8.0-1.20","4","4","4","4","4","4","4","4","4","4","5","5","5","4","5","5","5","5","5","5","1","1","1","1","1","1","1","1","1","0","0","1","1","0","0","0","1","0","1","1","0","1","0","1","5","1","1","2","1","1","2","1","2","5","2","602303969804419072","刘","658","","","","","","","","","","","","","","","","","","","true","14","4","moral","644","self","本人的","","","","","","","","","","","","","","","","",""
"null","","null","html-keyboard-response","150","145861","0.0-6.0-1.0-8.0-0.21","4","4","4","4","4","4","4","4","4","4","5","5","5","4","5","5","5","5","5","5","1","1","1","1","1","1","1","1","1","0","0","1","1","0","0","0","1","0","1","1","0","1","0","1","5","1","1","2","1","1","2","1","2","5","2","602303969804419072","刘","658","","","","","","","","","","","","","","","","","","","","","","","","","","","","","","","","","","","","","","","","","",""
"500","<p style=""color:white; font-size: 35px;"">正直</p>","i","categorize-html","151","146362","0.0-6.0-1.0-8.0-1.21","4","4","4","4","4","4","4","4","4","4","5","5","5","4","5","5","5","5","5","5","1","1","1","1","1","1","1","1","1","0","0","1","1","0","0","0","1","0","1","1","0","1","0","1","5","1","1","2","1","1","2","1","2","5","2","602303969804419072","刘","658","","","","","","","","","","","","","","","","","","","true","14","4","moral","500","positive","正直","","","","","","","","","","","","","","","","",""
"null","","null","html-keyboard-response","152","146613","0.0-6.0-1.0-8.0-0.22","4","4","4","4","4","4","4","4","4","4","5","5","5","4","5","5","5","5","5","5","1","1","1","1","1","1","1","1","1","0","0","1","1","0","0","0","1","0","1","1","0","1","0","1","5","1","1","2","1","1","2","1","2","5","2","602303969804419072","刘","658","","","","","","","","","","","","","","","","","","","","","","","","","","","","","","","","","","","","","","","","","",""
"524","<p style=""color:rgb(150, 250, 100); font-size: 35px;"">他人</p>","e","categorize-html","153","147138","0.0-6.0-1.0-8.0-1.22","4","4","4","4","4","4","4","4","4","4","5","5","5","4","5","5","5","5","5","5","1","1","1","1","1","1","1","1","1","0","0","1","1","0","0","0","1","0","1","1","0","1","0","1","5","1","1","2","1","1","2","1","2","5","2","602303969804419072","刘","658","","","","","","","","","","","","","","","","","","","true","14","4","moral","524","other","他人","","","","","","","","","","","","","","","","",""
"null","","null","html-keyboard-response","154","147389","0.0-6.0-1.0-8.0-0.23","4","4","4","4","4","4","4","4","4","4","5","5","5","4","5","5","5","5","5","5","1","1","1","1","1","1","1","1","1","0","0","1","1","0","0","0","1","0","1","1","0","1","0","1","5","1","1","2","1","1","2","1","2","5","2","602303969804419072","刘","658","","","","","","","","","","","","","","","","","","","","","","","","","","","","","","","","","","","","","","","","","",""
"492","<p style=""color:white; font-size: 35px;"">不孝</p>","e","categorize-html","155","147882","0.0-6.0-1.0-8.0-1.23","4","4","4","4","4","4","4","4","4","4","5","5","5","4","5","5","5","5","5","5","1","1","1","1","1","1","1","1","1","0","0","1","1","0","0","0","1","0","1","1","0","1","0","1","5","1","1","2","1","1","2","1","2","5","2","602303969804419072","刘","658","","","","","","","","","","","","","","","","","","","true","14","4","moral","492","negative","不孝","","","","","","","","","","","","","","","","",""
"null","","null","html-keyboard-response","156","148134","0.0-6.0-1.0-8.0-0.24","4","4","4","4","4","4","4","4","4","4","5","5","5","4","5","5","5","5","5","5","1","1","1","1","1","1","1","1","1","0","0","1","1","0","0","0","1","0","1","1","0","1","0","1","5","1","1","2","1","1","2","1","2","5","2","602303969804419072","刘","658","","","","","","","","","","","","","","","","","","","","","","","","","","","","","","","","","","","","","","","","","",""
"482","<p style=""color:rgb(150, 250, 100); font-size: 35px;"">别人的</p>","i","categorize-html","157","149034","0.0-6.0-1.0-8.0-1.24","4","4","4","4","4","4","4","4","4","4","5","5","5","4","5","5","5","5","5","5","1","1","1","1","1","1","1","1","1","0","0","1","1","0","0","0","1","0","1","1","0","1","0","1","5","1","1","2","1","1","2","1","2","5","2","602303969804419072","刘","658","","","","","","","","","","","","","","","","","","","false","14","4","moral","1137.9545454545455","other","别人的","","","","","","","","","","","","","","","","",""
"null","","null","html-keyboard-response","158","149285","0.0-6.0-1.0-8.0-0.25","4","4","4","4","4","4","4","4","4","4","5","5","5","4","5","5","5","5","5","5","1","1","1","1","1","1","1","1","1","0","0","1","1","0","0","0","1","0","1","1","0","1","0","1","5","1","1","2","1","1","2","1","2","5","2","602303969804419072","刘","658","","","","","","","","","","","","","","","","","","","","","","","","","","","","","","","","","","","","","","","","","",""
"539","<p style=""color:white; font-size: 35px;"">黑心</p>","e","categorize-html","159","149826","0.0-6.0-1.0-8.0-1.25","4","4","4","4","4","4","4","4","4","4","5","5","5","4","5","5","5","5","5","5","1","1","1","1","1","1","1","1","1","0","0","1","1","0","0","0","1","0","1","1","0","1","0","1","5","1","1","2","1","1","2","1","2","5","2","602303969804419072","刘","658","","","","","","","","","","","","","","","","","","","true","14","4","moral","539","negative","黑心","","","","","","","","","","","","","","","","",""
"null","","null","html-keyboard-response","160","150077","0.0-6.0-1.0-8.0-0.26","4","4","4","4","4","4","4","4","4","4","5","5","5","4","5","5","5","5","5","5","1","1","1","1","1","1","1","1","1","0","0","1","1","0","0","0","1","0","1","1","0","1","0","1","5","1","1","2","1","1","2","1","2","5","2","602303969804419072","刘","658","","","","","","","","","","","","","","","","","","","","","","","","","","","","","","","","","","","","","","","","","",""
"535","<p style=""color:rgb(150, 250, 100); font-size: 35px;"">本人</p>","i","categorize-html","161","150613","0.0-6.0-1.0-8.0-1.26","4","4","4","4","4","4","4","4","4","4","5","5","5","4","5","5","5","5","5","5","1","1","1","1","1","1","1","1","1","0","0","1","1","0","0","0","1","0","1","1","0","1","0","1","5","1","1","2","1","1","2","1","2","5","2","602303969804419072","刘","658","","","","","","","","","","","","","","","","","","","true","14","4","moral","535","self","本人","","","","","","","","","","","","","","","","",""
"null","","null","html-keyboard-response","162","150865","0.0-6.0-1.0-8.0-0.27","4","4","4","4","4","4","4","4","4","4","5","5","5","4","5","5","5","5","5","5","1","1","1","1","1","1","1","1","1","0","0","1","1","0","0","0","1","0","1","1","0","1","0","1","5","1","1","2","1","1","2","1","2","5","2","602303969804419072","刘","658","","","","","","","","","","","","","","","","","","","","","","","","","","","","","","","","","","","","","","","","","",""
"463","<p style=""color:white; font-size: 35px;"">诚信</p>","i","categorize-html","163","151329","0.0-6.0-1.0-8.0-1.27","4","4","4","4","4","4","4","4","4","4","5","5","5","4","5","5","5","5","5","5","1","1","1","1","1","1","1","1","1","0","0","1","1","0","0","0","1","0","1","1","0","1","0","1","5","1","1","2","1","1","2","1","2","5","2","602303969804419072","刘","658","","","","","","","","","","","","","","","","","","","true","14","4","moral","463","positive","诚信","","","","","","","","","","","","","","","","",""
"null","","null","html-keyboard-response","164","151581","0.0-6.0-1.0-8.0-0.28","4","4","4","4","4","4","4","4","4","4","5","5","5","4","5","5","5","5","5","5","1","1","1","1","1","1","1","1","1","0","0","1","1","0","0","0","1","0","1","1","0","1","0","1","5","1","1","2","1","1","2","1","2","5","2","602303969804419072","刘","658","","","","","","","","","","","","","","","","","","","","","","","","","","","","","","","","","","","","","","","","","",""
"548","<p style=""color:rgb(150, 250, 100); font-size: 35px;"">他人的</p>","e","categorize-html","165","152130","0.0-6.0-1.0-8.0-1.28","4","4","4","4","4","4","4","4","4","4","5","5","5","4","5","5","5","5","5","5","1","1","1","1","1","1","1","1","1","0","0","1","1","0","0","0","1","0","1","1","0","1","0","1","5","1","1","2","1","1","2","1","2","5","2","602303969804419072","刘","658","","","","","","","","","","","","","","","","","","","true","14","4","moral","548","other","他人的","","","","","","","","","","","","","","","","",""
"null","","null","html-keyboard-response","166","152382","0.0-6.0-1.0-8.0-0.29","4","4","4","4","4","4","4","4","4","4","5","5","5","4","5","5","5","5","5","5","1","1","1","1","1","1","1","1","1","0","0","1","1","0","0","0","1","0","1","1","0","1","0","1","5","1","1","2","1","1","2","1","2","5","2","602303969804419072","刘","658","","","","","","","","","","","","","","","","","","","","","","","","","","","","","","","","","","","","","","","","","",""
"571","<p style=""color:white; font-size: 35px;"">廉正</p>","i","categorize-html","167","152954","0.0-6.0-1.0-8.0-1.29","4","4","4","4","4","4","4","4","4","4","5","5","5","4","5","5","5","5","5","5","1","1","1","1","1","1","1","1","1","0","0","1","1","0","0","0","1","0","1","1","0","1","0","1","5","1","1","2","1","1","2","1","2","5","2","602303969804419072","刘","658","","","","","","","","","","","","","","","","","","","true","14","4","moral","571","positive","廉正","","","","","","","","","","","","","","","","",""
"null","","null","html-keyboard-response","168","153204","0.0-6.0-1.0-8.0-0.30","4","4","4","4","4","4","4","4","4","4","5","5","5","4","5","5","5","5","5","5","1","1","1","1","1","1","1","1","1","0","0","1","1","0","0","0","1","0","1","1","0","1","0","1","5","1","1","2","1","1","2","1","2","5","2","602303969804419072","刘","658","","","","","","","","","","","","","","","","","","","","","","","","","","","","","","","","","","","","","","","","","",""
"476","<p style=""color:rgb(150, 250, 100); font-size: 35px;"">我</p>","i","categorize-html","169","153681","0.0-6.0-1.0-8.0-1.30","4","4","4","4","4","4","4","4","4","4","5","5","5","4","5","5","5","5","5","5","1","1","1","1","1","1","1","1","1","0","0","1","1","0","0","0","1","0","1","1","0","1","0","1","5","1","1","2","1","1","2","1","2","5","2","602303969804419072","刘","658","","","","","","","","","","","","","","","","","","","true","14","4","moral","476","self","我","","","","","","","","","","","","","","","","",""
"null","","null","html-keyboard-response","170","153932","0.0-6.0-1.0-8.0-0.31","4","4","4","4","4","4","4","4","4","4","5","5","5","4","5","5","5","5","5","5","1","1","1","1","1","1","1","1","1","0","0","1","1","0","0","0","1","0","1","1","0","1","0","1","5","1","1","2","1","1","2","1","2","5","2","602303969804419072","刘","658","","","","","","","","","","","","","","","","","","","","","","","","","","","","","","","","","","","","","","","","","",""
"484","<p style=""color:white; font-size: 35px;"">小人</p>","e","categorize-html","171","154417","0.0-6.0-1.0-8.0-1.31","4","4","4","4","4","4","4","4","4","4","5","5","5","4","5","5","5","5","5","5","1","1","1","1","1","1","1","1","1","0","0","1","1","0","0","0","1","0","1","1","0","1","0","1","5","1","1","2","1","1","2","1","2","5","2","602303969804419072","刘","658","","","","","","","","","","","","","","","","","","","true","14","4","moral","484","negative","小人","","","","","","","","","","","","","","","","",""
"null","","null","html-keyboard-response","172","154669","0.0-6.0-1.0-8.0-0.32","4","4","4","4","4","4","4","4","4","4","5","5","5","4","5","5","5","5","5","5","1","1","1","1","1","1","1","1","1","0","0","1","1","0","0","0","1","0","1","1","0","1","0","1","5","1","1","2","1","1","2","1","2","5","2","602303969804419072","刘","658","","","","","","","","","","","","","","","","","","","","","","","","","","","","","","","","","","","","","","","","","",""
"460","<p style=""color:rgb(150, 250, 100); font-size: 35px;"">自己</p>","e","categorize-html","173","155441","0.0-6.0-1.0-8.0-1.32","4","4","4","4","4","4","4","4","4","4","5","5","5","4","5","5","5","5","5","5","1","1","1","1","1","1","1","1","1","0","0","1","1","0","0","0","1","0","1","1","0","1","0","1","5","1","1","2","1","1","2","1","2","5","2","602303969804419072","刘","658","","","","","","","","","","","","","","","","","","","false","14","4","moral","1137.9545454545455","self","自己","","","","","","","","","","","","","","","","",""
"null","","null","html-keyboard-response","174","155692","0.0-6.0-1.0-8.0-0.33","4","4","4","4","4","4","4","4","4","4","5","5","5","4","5","5","5","5","5","5","1","1","1","1","1","1","1","1","1","0","0","1","1","0","0","0","1","0","1","1","0","1","0","1","5","1","1","2","1","1","2","1","2","5","2","602303969804419072","刘","658","","","","","","","","","","","","","","","","","","","","","","","","","","","","","","","","","","","","","","","","","",""
"572","<p style=""color:white; font-size: 35px;"">正直</p>","i","categorize-html","175","156265","0.0-6.0-1.0-8.0-1.33","4","4","4","4","4","4","4","4","4","4","5","5","5","4","5","5","5","5","5","5","1","1","1","1","1","1","1","1","1","0","0","1","1","0","0","0","1","0","1","1","0","1","0","1","5","1","1","2","1","1","2","1","2","5","2","602303969804419072","刘","658","","","","","","","","","","","","","","","","","","","true","14","4","moral","572","positive","正直","","","","","","","","","","","","","","","","",""
"null","","null","html-keyboard-response","176","156517","0.0-6.0-1.0-8.0-0.34","4","4","4","4","4","4","4","4","4","4","5","5","5","4","5","5","5","5","5","5","1","1","1","1","1","1","1","1","1","0","0","1","1","0","0","0","1","0","1","1","0","1","0","1","5","1","1","2","1","1","2","1","2","5","2","602303969804419072","刘","658","","","","","","","","","","","","","","","","","","","","","","","","","","","","","","","","","","","","","","","","","",""
"603","<p style=""color:rgb(150, 250, 100); font-size: 35px;"">别人的</p>","e","categorize-html","177","157121","0.0-6.0-1.0-8.0-1.34","4","4","4","4","4","4","4","4","4","4","5","5","5","4","5","5","5","5","5","5","1","1","1","1","1","1","1","1","1","0","0","1","1","0","0","0","1","0","1","1","0","1","0","1","5","1","1","2","1","1","2","1","2","5","2","602303969804419072","刘","658","","","","","","","","","","","","","","","","","","","true","14","4","moral","603","other","别人的","","","","","","","","","","","","","","","","",""
"null","","null","html-keyboard-response","178","157373","0.0-6.0-1.0-8.0-0.35","4","4","4","4","4","4","4","4","4","4","5","5","5","4","5","5","5","5","5","5","1","1","1","1","1","1","1","1","1","0","0","1","1","0","0","0","1","0","1","1","0","1","0","1","5","1","1","2","1","1","2","1","2","5","2","602303969804419072","刘","658","","","","","","","","","","","","","","","","","","","","","","","","","","","","","","","","","","","","","","","","","",""
"523","<p style=""color:white; font-size: 35px;"">不仁</p>","e","categorize-html","179","157898","0.0-6.0-1.0-8.0-1.35","4","4","4","4","4","4","4","4","4","4","5","5","5","4","5","5","5","5","5","5","1","1","1","1","1","1","1","1","1","0","0","1","1","0","0","0","1","0","1","1","0","1","0","1","5","1","1","2","1","1","2","1","2","5","2","602303969804419072","刘","658","","","","","","","","","","","","","","","","","","","true","14","4","moral","523","negative","不仁","","","","","","","","","","","","","","","","",""
"null","","null","html-keyboard-response","180","158150","0.0-6.0-1.0-8.0-0.36","4","4","4","4","4","4","4","4","4","4","5","5","5","4","5","5","5","5","5","5","1","1","1","1","1","1","1","1","1","0","0","1","1","0","0","0","1","0","1","1","0","1","0","1","5","1","1","2","1","1","2","1","2","5","2","602303969804419072","刘","658","","","","","","","","","","","","","","","","","","","","","","","","","","","","","","","","","","","","","","","","","",""
"587","<p style=""color:rgb(150, 250, 100); font-size: 35px;"">自己的</p>","i","categorize-html","181","158738","0.0-6.0-1.0-8.0-1.36","4","4","4","4","4","4","4","4","4","4","5","5","5","4","5","5","5","5","5","5","1","1","1","1","1","1","1","1","1","0","0","1","1","0","0","0","1","0","1","1","0","1","0","1","5","1","1","2","1","1","2","1","2","5","2","602303969804419072","刘","658","","","","","","","","","","","","","","","","","","","true","14","4","moral","587","self","自己的","","","","","","","","","","","","","","","","",""
"null","","null","html-keyboard-response","182","158989","0.0-6.0-1.0-8.0-0.37","4","4","4","4","4","4","4","4","4","4","5","5","5","4","5","5","5","5","5","5","1","1","1","1","1","1","1","1","1","0","0","1","1","0","0","0","1","0","1","1","0","1","0","1","5","1","1","2","1","1","2","1","2","5","2","602303969804419072","刘","658","","","","","","","","","","","","","","","","","","","","","","","","","","","","","","","","","","","","","","","","","",""
"411","<p style=""color:white; font-size: 35px;"">善良</p>","i","categorize-html","183","159402","0.0-6.0-1.0-8.0-1.37","4","4","4","4","4","4","4","4","4","4","5","5","5","4","5","5","5","5","5","5","1","1","1","1","1","1","1","1","1","0","0","1","1","0","0","0","1","0","1","1","0","1","0","1","5","1","1","2","1","1","2","1","2","5","2","602303969804419072","刘","658","","","","","","","","","","","","","","","","","","","true","14","4","moral","411","positive","善良","","","","","","","","","","","","","","","","",""
"null","","null","html-keyboard-response","184","159653","0.0-6.0-1.0-8.0-0.38","4","4","4","4","4","4","4","4","4","4","5","5","5","4","5","5","5","5","5","5","1","1","1","1","1","1","1","1","1","0","0","1","1","0","0","0","1","0","1","1","0","1","0","1","5","1","1","2","1","1","2","1","2","5","2","602303969804419072","刘","658","","","","","","","","","","","","","","","","","","","","","","","","","","","","","","","","","","","","","","","","","",""
"436","<p style=""color:rgb(150, 250, 100); font-size: 35px;"">他的</p>","e","categorize-html","185","160089","0.0-6.0-1.0-8.0-1.38","4","4","4","4","4","4","4","4","4","4","5","5","5","4","5","5","5","5","5","5","1","1","1","1","1","1","1","1","1","0","0","1","1","0","0","0","1","0","1","1","0","1","0","1","5","1","1","2","1","1","2","1","2","5","2","602303969804419072","刘","658","","","","","","","","","","","","","","","","","","","true","14","4","moral","436","other","他的","","","","","","","","","","","","","","","","",""
"null","","null","html-keyboard-response","186","160341","0.0-6.0-1.0-8.0-0.39","4","4","4","4","4","4","4","4","4","4","5","5","5","4","5","5","5","5","5","5","1","1","1","1","1","1","1","1","1","0","0","1","1","0","0","0","1","0","1","1","0","1","0","1","5","1","1","2","1","1","2","1","2","5","2","602303969804419072","刘","658","","","","","","","","","","","","","","","","","","","","","","","","","","","","","","","","","","","","","","","","","",""
"403","<p style=""color:white; font-size: 35px;"">不孝</p>","e","categorize-html","187","160745","0.0-6.0-1.0-8.0-1.39","4","4","4","4","4","4","4","4","4","4","5","5","5","4","5","5","5","5","5","5","1","1","1","1","1","1","1","1","1","0","0","1","1","0","0","0","1","0","1","1","0","1","0","1","5","1","1","2","1","1","2","1","2","5","2","602303969804419072","刘","658","","","","","","","","","","","","","","","","","","","true","14","4","moral","403","negative","不孝","","","","","","","","","","","","","","","","",""
"null","","null","html-keyboard-response","188","160996","0.0-6.0-1.0-8.0-0.40","4","4","4","4","4","4","4","4","4","4","5","5","5","4","5","5","5","5","5","5","1","1","1","1","1","1","1","1","1","0","0","1","1","0","0","0","1","0","1","1","0","1","0","1","5","1","1","2","1","1","2","1","2","5","2","602303969804419072","刘","658","","","","","","","","","","","","","","","","","","","","","","","","","","","","","","","","","","","","","","","","","",""
"484","<p style=""color:rgb(150, 250, 100); font-size: 35px;"">本人</p>","i","categorize-html","189","161482","0.0-6.0-1.0-8.0-1.40","4","4","4","4","4","4","4","4","4","4","5","5","5","4","5","5","5","5","5","5","1","1","1","1","1","1","1","1","1","0","0","1","1","0","0","0","1","0","1","1","0","1","0","1","5","1","1","2","1","1","2","1","2","5","2","602303969804419072","刘","658","","","","","","","","","","","","","","","","","","","true","14","4","moral","484","self","本人","","","","","","","","","","","","","","","","",""
"null","","null","html-keyboard-response","190","161733","0.0-6.0-1.0-8.0-0.41","4","4","4","4","4","4","4","4","4","4","5","5","5","4","5","5","5","5","5","5","1","1","1","1","1","1","1","1","1","0","0","1","1","0","0","0","1","0","1","1","0","1","0","1","5","1","1","2","1","1","2","1","2","5","2","602303969804419072","刘","658","","","","","","","","","","","","","","","","","","","","","","","","","","","","","","","","","","","","","","","","","",""
"547","<p style=""color:white; font-size: 35px;"">黑心</p>","e","categorize-html","191","162282","0.0-6.0-1.0-8.0-1.41","4","4","4","4","4","4","4","4","4","4","5","5","5","4","5","5","5","5","5","5","1","1","1","1","1","1","1","1","1","0","0","1","1","0","0","0","1","0","1","1","0","1","0","1","5","1","1","2","1","1","2","1","2","5","2","602303969804419072","刘","658","","","","","","","","","","","","","","","","","","","true","14","4","moral","547","negative","黑心","","","","","","","","","","","","","","","","",""
"null","","null","html-keyboard-response","192","162534","0.0-6.0-1.0-8.0-0.42","4","4","4","4","4","4","4","4","4","4","5","5","5","4","5","5","5","5","5","5","1","1","1","1","1","1","1","1","1","0","0","1","1","0","0","0","1","0","1","1","0","1","0","1","5","1","1","2","1","1","2","1","2","5","2","602303969804419072","刘","658","","","","","","","","","","","","","","","","","","","","","","","","","","","","","","","","","","","","","","","","","",""
"674","<p style=""color:rgb(150, 250, 100); font-size: 35px;"">他人</p>","e","categorize-html","193","163210","0.0-6.0-1.0-8.0-1.42","4","4","4","4","4","4","4","4","4","4","5","5","5","4","5","5","5","5","5","5","1","1","1","1","1","1","1","1","1","0","0","1","1","0","0","0","1","0","1","1","0","1","0","1","5","1","1","2","1","1","2","1","2","5","2","602303969804419072","刘","658","","","","","","","","","","","","","","","","","","","true","14","4","moral","674","other","他人","","","","","","","","","","","","","","","","",""
