"rt","stimulus","response","trial_type","trial_index","time_elapsed","internal_node_id","ses_1","ses_2","ses_3","ses_4","ses_5","ses_6","ses_7","ses_8","ses_9","ses_10","coreself_1","coreself_2","coreself_3","coreself_4","coreself_5","coreself_6","coreself_7","coreself_8","coreself_9","coreself_10","SGPS_1","SGPS_2","SGPS_3","SGPS_4","SGPS_5","SGPS_6","SGPS_7","SGPS_8","SGPS_9","NPI1","NPI2","NPI3","NPI4","NPI5","NPI6","NPI7","NPI8","NPI9","NPI10","NPI11","NPI12","NPI13","NPI14","NPI15","hsns_1","hsns_2","hsns_3","hsns_4","hsns_5","trap1","hsns_6","hsns_7","hsns_8","hsns_9","hsns_10","subj_idx","friend_name","ParticipantID","value","success","user_agent","responses","item_order","radio_event_ids","radio_event_times","key_event_times","mouse_event_times","straightlining","zigzagging","honeypot","timeout","failed_images","failed_audio","failed_video","view_history","response_type","key_press","avg_frame_time","center_x","center_y","correct_response","correct","identity","Image","word","condition","task_id","screen_id","time_stamp","version_attrib2","version_target2","IAT","RT","varname","summary","version_attrib","version_target","question_order","correct_answer","trap1_item"
"22266","
   <p><div style = ""color: white;font-size:25px;"">您好，欢迎参加本次实验。</div> </p>
   <p><div style = ""color: white;font-size:25px;"">为充分保障您的权利，请确保您已经知晓并同意《参与实验同意书》以及《数据公开知情同意书》。</div></p>
   <p><div style = ""color: white;font-size:25px;"">如果您未见过上述内容，请咨询实验员。</div></p>
   <p><div style = ""color: white;font-size:25px;"">如果您选择继续实验，则表示您已经清楚两份知情同意书的内容并同意。</div></p>
   <p><div style = ""color: pink;font-size:30px;"">请确保您记得day0的实验编号，您将在本次实验输入该编号，若您忘记，请咨询实验员后作答。</div></p>
   <p><div style = ""color: lightblue;font-size:25px;"">请您尽可能认真地作答，我们将依据您在各问卷和按键任务中的作答质量发放报酬。</div></p>
   <p> <div style = ""color: green;font-size:25px;""><按空格键至下页></div> </p>
   "," ","html-keyboard-response","0","22269","0.0-0.0","3","3","3","3","2","3","3","3","2","2","4","3","2","4","2","4","3","2","4","4","4","4","3","3","3","3","4","2","5","1","1","1","0","0","0","1","1","0","1","1","1","1","0","1","2","2","3","2","4","3","4","4","2","2","2","773203800659070978","张","504","","","","","","","","","","","","","","","","","","","","","","","","","","","","","","","","","","","","","","","","","",""
"","","","call-function","1","22271","0.0-1.0-0.0","3","3","3","3","2","3","3","3","2","2","4","3","2","4","2","4","3","2","4","4","4","4","3","3","3","3","4","2","5","1","1","1","0","0","0","1","1","0","1","1","1","1","0","1","2","2","3","2","4","3","4","4","2","2","2","773203800659070978","张","504","","","","","","","","","","","","","","","","","","","","","","","","","","","","","","","","","","","","","","","","","",""
"31561","","{""friend_name"":""张"",""ParticipantID"":""504""}","survey-html-form","2","53834","0.0-1.0-1.0","3","3","3","3","2","3","3","3","2","2","4","3","2","4","2","4","3","2","4","4","4","4","3","3","3","3","4","2","5","1","1","1","0","0","0","1","1","0","1","1","1","1","0","1","2","2","3","2","4","3","4","4","2","2","2","773203800659070978","张","504","","","","","","","","","","","","","","","","","","","","","","","","","","","","","","","","","","","","","","","","","",""
"","","","fullscreen","3","62172","0.0-2.0","3","3","3","3","2","3","3","3","2","2","4","3","2","4","2","4","3","2","4","4","4","4","3","3","3","3","4","2","5","1","1","1","0","0","0","1","1","0","1","1","1","1","0","1","2","2","3","2","4","3","4","4","2","2","2","773203800659070978","张","504","","true","{}","","","","","","","","","","","","","","","","","","","","","","","","","","","","","","","","","","","","","","",""
"60096.699999928474","","{""Q01"":""3"",""Q02"":""3"",""Q03"":""3"",""Q04"":""3"",""Q05"":""2"",""Q06"":""3"",""Q07"":""3"",""Q08"":""3"",""Q09"":""2"",""Q10"":""2""}","survey-template","4","122273","0.0-3.0","3","3","3","3","2","3","3","3","2","2","4","3","2","4","2","4","3","2","4","4","4","4","3","3","3","3","4","2","5","1","1","1","0","0","0","1","1","0","1","1","1","1","0","1","2","2","3","2","4","3","4","4","2","2","2","773203800659070978","张","504","","","","{""Q01"":""3"",""Q02"":""3"",""Q03"":""3"",""Q04"":""3"",""Q05"":""2"",""Q06"":""3"",""Q07"":""3"",""Q08"":""3"",""Q09"":""2"",""Q10"":""2""}","[0,1,2,3,4,5,6,7,8,9]","[""Q01"",""Q02"",""Q03"",""Q04"",""Q05"",""Q06"",""Q07"",""Q07"",""Q08"",""Q09"",""Q10"",""Q09""]","[7387.299999952316,15338.799999952316,17358.599999904633,20242.799999952316,21410.599999904633,22906.599999904633,29466.799999952316,31779,38626.89999997616,42866.39999997616,49330.799999952316,55263.09999990463]","[]","[7387.299999952316,15338.799999952316,17358.599999904633,20242.799999952316,21410.599999904633,22906.599999904633,24483.099999904633,29466.799999952316,31779,38626.89999997616,42866.39999997616,49330.799999952316,55263.09999990463,60095.09999990463]","0.8","0.4444444444444444","0","","","","","","","","","","","","","","","","","","","","","","","","","","","","","",""
"46404.40000009537","","{""Q01"":""4"",""Q02"":""3"",""Q03"":""2"",""Q04"":""4"",""Q05"":""2"",""Q06"":""4"",""Q07"":""3"",""Q08"":""2"",""Q09"":""4"",""Q10"":""4""}","survey-template","5","168685","0.0-4.0","3","3","3","3","2","3","3","3","2","2","4","3","2","4","2","4","3","2","4","4","4","4","3","3","3","3","4","2","5","1","1","1","0","0","0","1","1","0","1","1","1","1","0","1","2","2","3","2","4","3","4","4","2","2","2","773203800659070978","张","504","","","","{""Q01"":""4"",""Q02"":""3"",""Q03"":""2"",""Q04"":""4"",""Q05"":""2"",""Q06"":""4"",""Q07"":""3"",""Q08"":""2"",""Q09"":""4"",""Q10"":""4""}","[0,1,2,3,4,5,6,7,8,9]","[""Q01"",""Q02"",""Q03"",""Q04"",""Q05"",""Q06"",""Q07"",""Q08"",""Q09"",""Q10""]","[14354,19794.100000023842,21780.900000095367,26022.200000047684,27250.400000095367,28181.600000023842,33902.10000002384,35222,41331.10000002384,42562]","[]","[14354,18758.600000023842,19794.100000023842,21780.900000095367,26022.200000047684,27250.400000095367,28181.600000023842,29819.5,32146.400000095367,33451.700000047684,33902.10000002384,35222,38038,40354.5,40970.300000071526,41331.10000002384,42562,46402.700000047684]","0.7","0.4444444444444444","0","","","","","","","","","","","","","","","","","","","","","","","","","","","","","",""
"","","","preload","6","169593","0.0-5.0","3","3","3","3","2","3","3","3","2","2","4","3","2","4","2","4","3","2","4","4","4","4","3","3","3","3","4","2","5","1","1","1","0","0","0","1","1","0","1","1","1","1","0","1","2","2","3","2","4","3","4","4","2","2","2","773203800659070978","张","504","","true","","","","","","","","","","","false","[]","[]","[]","","","","","","","","","","","","","","","","","","","","","","","","","",""
"20965","","","instructions","7","190559","0.0-6.0","3","3","3","3","2","3","3","3","2","2","4","3","2","4","2","4","3","2","4","4","4","4","3","3","3","3","4","2","5","1","1","1","0","0","0","1","1","0","1","1","1","1","0","1","2","2","3","2","4","3","4","4","2","2","2","773203800659070978","张","504","","","","","","","","","","","","","","","","","[{""page_index"":0,""viewing_time"":20965}]","","","","","","","","","","","","","","","","","","","","","","","","",""
"53662","","","instructions","8","244224","0.0-7.0-0.0-0.0","3","3","3","3","2","3","3","3","2","2","4","3","2","4","2","4","3","2","4","4","4","4","3","3","3","3","4","2","5","1","1","1","0","0","0","1","1","0","1","1","1","1","0","1","2","2","3","2","4","3","4","4","2","2","2","773203800659070978","张","504","","","","","","","","","","","","","","","","","[{""page_index"":0,""viewing_time"":24785},{""page_index"":1,""viewing_time"":22064},{""page_index"":2,""viewing_time"":6813}]","","","","","","","","","","","","","","","","","","","","","","","","",""
"null","","null","psychophysics","9","246430","0.0-7.0-0.0-1.0-0.0-0.0","3","3","3","3","2","3","3","3","2","2","4","3","2","4","2","4","3","2","4","4","4","4","3","3","3","3","4","2","5","1","1","1","0","0","0","1","1","0","1","1","1","1","0","1","2","2","3","2","4","3","4","4","2","2","2","773203800659070978","张","504","","","","null","","","","","","","","","","","","","","key","null","16.802307692307828","683","380","j","false","nonmatch","img/trapezoid.png","圆形","梯形","ALT1_1","prac_ALT1_1","","","","","","","","","","","",""
"null","<span class='add_' style='color:yellow; font-size: 70px;'> 太慢! </span>","null","html-keyboard-response","10","246932","0.0-7.0-0.0-1.0-0.0-1.0","3","3","3","3","2","3","3","3","2","2","4","3","2","4","2","4","3","2","4","4","4","4","3","3","3","3","4","2","5","1","1","1","0","0","0","1","1","0","1","1","1","1","0","1","2","2","3","2","4","3","4","4","2","2","2","773203800659070978","张","504","","","","","","","","","","","","","","","","","","","","","","","","","","","","","","feedback_test","","","","","","","","","","","",""
"893","","f","psychophysics","11","248828","0.0-7.0-0.0-1.0-0.0-0.1","3","3","3","3","2","3","3","3","2","2","4","3","2","4","2","4","3","2","4","4","4","4","3","3","3","3","4","2","5","1","1","1","0","0","0","1","1","0","1","1","1","1","0","1","2","2","3","2","4","3","4","4","2","2","2","773203800659070978","张","504","","","","match","","","","","","","","","","","","","","key","f","16.670796460176888","683","380","f","true","match","img/diamond.png","菱形","菱形","ALT1_1","prac_ALT1_1","","","","","","","","","","","",""
"null","<span style='color:GreenYellow; font-size: 70px;'>正确! </span>","null","html-keyboard-response","12","249330","0.0-7.0-0.0-1.0-0.0-1.1","3","3","3","3","2","3","3","3","2","2","4","3","2","4","2","4","3","2","4","4","4","4","3","3","3","3","4","2","5","1","1","1","0","0","0","1","1","0","1","1","1","1","0","1","2","2","3","2","4","3","4","4","2","2","2","773203800659070978","张","504","","","","","","","","","","","","","","","","","","","","","","","","","","","","","","feedback_test","","","","","","","","","","","",""
"1111","","j","psychophysics","13","251444","0.0-7.0-0.0-1.0-0.0-0.2","3","3","3","3","2","3","3","3","2","2","4","3","2","4","2","4","3","2","4","4","4","4","3","3","3","3","4","2","5","1","1","1","0","0","0","1","1","0","1","1","1","1","0","1","2","2","3","2","4","3","4","4","2","2","2","773203800659070978","张","504","","","","nonmatch","","","","","","","","","","","","","","key","j","16.67380952380971","683","380","j","true","nonmatch","img/diamond.png","梯形","菱形","ALT1_1","prac_ALT1_1","","","","","","","","","","","",""
"null","<span style='color:GreenYellow; font-size: 70px;'>正确! </span>","null","html-keyboard-response","14","251945","0.0-7.0-0.0-1.0-0.0-1.2","3","3","3","3","2","3","3","3","2","2","4","3","2","4","2","4","3","2","4","4","4","4","3","3","3","3","4","2","5","1","1","1","0","0","0","1","1","0","1","1","1","1","0","1","2","2","3","2","4","3","4","4","2","2","2","773203800659070978","张","504","","","","","","","","","","","","","","","","","","","","","","","","","","","","","","feedback_test","","","","","","","","","","","",""
"1098","","f","psychophysics","15","254045","0.0-7.0-0.0-1.0-0.0-0.3","3","3","3","3","2","3","3","3","2","2","4","3","2","4","2","4","3","2","4","4","4","4","3","3","3","3","4","2","5","1","1","1","0","0","0","1","1","0","1","1","1","1","0","1","2","2","3","2","4","3","4","4","2","2","2","773203800659070978","张","504","","","","match","","","","","","","","","","","","","","key","f","16.674399999999906","683","380","j","false","nonmatch","img/hexagon.png","圆形","六边","ALT1_1","prac_ALT1_1","","","","","","","","","","","",""
"null","<span style='color:red; font-size: 70px;'>错误! </span>","null","html-keyboard-response","16","254546","0.0-7.0-0.0-1.0-0.0-1.3","3","3","3","3","2","3","3","3","2","2","4","3","2","4","2","4","3","2","4","4","4","4","3","3","3","3","4","2","5","1","1","1","0","0","0","1","1","0","1","1","1","1","0","1","2","2","3","2","4","3","4","4","2","2","2","773203800659070978","张","504","","","","","","","","","","","","","","","","","","","","","","","","","","","","","","feedback_test","","","","","","","","","","","",""
"null","","null","psychophysics","17","256748","0.0-7.0-0.0-1.0-0.0-0.4","3","3","3","3","2","3","3","3","2","2","4","3","2","4","2","4","3","2","4","4","4","4","3","3","3","3","4","2","5","1","1","1","0","0","0","1","1","0","1","1","1","1","0","1","2","2","3","2","4","3","4","4","2","2","2","773203800659070978","张","504","","","","null","","","","","","","","","","","","","","key","null","16.67557251908397","683","380","f","false","match","img/trapezoid.png","梯形","梯形","ALT1_1","prac_ALT1_1","","","","","","","","","","","",""
"null","<span class='add_' style='color:yellow; font-size: 70px;'> 太慢! </span>","null","html-keyboard-response","18","257249","0.0-7.0-0.0-1.0-0.0-1.4","3","3","3","3","2","3","3","3","2","2","4","3","2","4","2","4","3","2","4","4","4","4","3","3","3","3","4","2","5","1","1","1","0","0","0","1","1","0","1","1","1","1","0","1","2","2","3","2","4","3","4","4","2","2","2","773203800659070978","张","504","","","","","","","","","","","","","","","","","","","","","","","","","","","","","","feedback_test","","","","","","","","","","","",""
"788","","f","psychophysics","19","259040","0.0-7.0-0.0-1.0-0.0-0.5","3","3","3","3","2","3","3","3","2","2","4","3","2","4","2","4","3","2","4","4","4","4","3","3","3","3","4","2","5","1","1","1","0","0","0","1","1","0","1","1","1","1","0","1","2","2","3","2","4","3","4","4","2","2","2","773203800659070978","张","504","","","","match","","","","","","","","","","","","","","key","f","16.672641509433852","683","380","f","true","match","img/hexagon.png","六边","六边","ALT1_1","prac_ALT1_1","","","","","","","","","","","",""
"null","<span style='color:GreenYellow; font-size: 70px;'>正确! </span>","null","html-keyboard-response","20","259541","0.0-7.0-0.0-1.0-0.0-1.5","3","3","3","3","2","3","3","3","2","2","4","3","2","4","2","4","3","2","4","4","4","4","3","3","3","3","4","2","5","1","1","1","0","0","0","1","1","0","1","1","1","1","0","1","2","2","3","2","4","3","4","4","2","2","2","773203800659070978","张","504","","","","","","","","","","","","","","","","","","","","","","","","","","","","","","feedback_test","","","","","","","","","","","",""
"831","","j","psychophysics","21","261374","0.0-7.0-0.0-1.0-0.0-0.6","3","3","3","3","2","3","3","3","2","2","4","3","2","4","2","4","3","2","4","4","4","4","3","3","3","3","4","2","5","1","1","1","0","0","0","1","1","0","1","1","1","1","0","1","2","2","3","2","4","3","4","4","2","2","2","773203800659070978","张","504","","","","nonmatch","","","","","","","","","","","","","","key","j","16.673394495412523","683","380","j","true","nonmatch","img/diamond.png","六边","菱形","ALT1_1","prac_ALT1_1","","","","","","","","","","","",""
"null","<span style='color:GreenYellow; font-size: 70px;'>正确! </span>","null","html-keyboard-response","22","261875","0.0-7.0-0.0-1.0-0.0-1.6","3","3","3","3","2","3","3","3","2","2","4","3","2","4","2","4","3","2","4","4","4","4","3","3","3","3","4","2","5","1","1","1","0","0","0","1","1","0","1","1","1","1","0","1","2","2","3","2","4","3","4","4","2","2","2","773203800659070978","张","504","","","","","","","","","","","","","","","","","","","","","","","","","","","","","","feedback_test","","","","","","","","","","","",""
"640","","f","psychophysics","23","263518","0.0-7.0-0.0-1.0-0.0-0.7","3","3","3","3","2","3","3","3","2","2","4","3","2","4","2","4","3","2","4","4","4","4","3","3","3","3","4","2","5","1","1","1","0","0","0","1","1","0","1","1","1","1","0","1","2","2","3","2","4","3","4","4","2","2","2","773203800659070978","张","504","","","","match","","","","","","","","","","","","","","key","f","16.66597938144306","683","380","f","true","match","img/hexagon.png","六边","六边","ALT1_1","prac_ALT1_1","","","","","","","","","","","",""
"null","<span style='color:GreenYellow; font-size: 70px;'>正确! </span>","null","html-keyboard-response","24","264019","0.0-7.0-0.0-1.0-0.0-1.7","3","3","3","3","2","3","3","3","2","2","4","3","2","4","2","4","3","2","4","4","4","4","3","3","3","3","4","2","5","1","1","1","0","0","0","1","1","0","1","1","1","1","0","1","2","2","3","2","4","3","4","4","2","2","2","773203800659070978","张","504","","","","","","","","","","","","","","","","","","","","","","","","","","","","","","feedback_test","","","","","","","","","","","",""
"713","","j","psychophysics","25","265734","0.0-7.0-0.0-1.0-0.0-0.8","3","3","3","3","2","3","3","3","2","2","4","3","2","4","2","4","3","2","4","4","4","4","3","3","3","3","4","2","5","1","1","1","0","0","0","1","1","0","1","1","1","1","0","1","2","2","3","2","4","3","4","4","2","2","2","773203800659070978","张","504","","","","nonmatch","","","","","","","","","","","","","","key","j","16.674509803921456","683","380","j","true","nonmatch","img/trapezoid.png","六边","梯形","ALT1_1","prac_ALT1_1","","","","","","","","","","","",""
"null","<span style='color:GreenYellow; font-size: 70px;'>正确! </span>","null","html-keyboard-response","26","266235","0.0-7.0-0.0-1.0-0.0-1.8","3","3","3","3","2","3","3","3","2","2","4","3","2","4","2","4","3","2","4","4","4","4","3","3","3","3","4","2","5","1","1","1","0","0","0","1","1","0","1","1","1","1","0","1","2","2","3","2","4","3","4","4","2","2","2","773203800659070978","张","504","","","","","","","","","","","","","","","","","","","","","","","","","","","","","","feedback_test","","","","","","","","","","","",""
"1004","","j","psychophysics","27","268242","0.0-7.0-0.0-1.0-0.0-0.9","3","3","3","3","2","3","3","3","2","2","4","3","2","4","2","4","3","2","4","4","4","4","3","3","3","3","4","2","5","1","1","1","0","0","0","1","1","0","1","1","1","1","0","1","2","2","3","2","4","3","4","4","2","2","2","773203800659070978","张","504","","","","nonmatch","","","","","","","","","","","","","","key","j","16.673109243697773","683","380","j","true","nonmatch","img/trapezoid.png","菱形","梯形","ALT1_1","prac_ALT1_1","","","","","","","","","","","",""
"null","<span style='color:GreenYellow; font-size: 70px;'>正确! </span>","null","html-keyboard-response","28","268744","0.0-7.0-0.0-1.0-0.0-1.9","3","3","3","3","2","3","3","3","2","2","4","3","2","4","2","4","3","2","4","4","4","4","3","3","3","3","4","2","5","1","1","1","0","0","0","1","1","0","1","1","1","1","0","1","2","2","3","2","4","3","4","4","2","2","2","773203800659070978","张","504","","","","","","","","","","","","","","","","","","","","","","","","","","","","","","feedback_test","","","","","","","","","","","",""
"831","","j","psychophysics","29","270576","0.0-7.0-0.0-1.0-0.0-0.10","3","3","3","3","2","3","3","3","2","2","4","3","2","4","2","4","3","2","4","4","4","4","3","3","3","3","4","2","5","1","1","1","0","0","0","1","1","0","1","1","1","1","0","1","2","2","3","2","4","3","4","4","2","2","2","773203800659070978","张","504","","","","nonmatch","","","","","","","","","","","","","","key","j","16.673394495413056","683","380","j","true","nonmatch","img/circle.png","梯形","圆形","ALT1_1","prac_ALT1_1","","","","","","","","","","","",""
"null","<span style='color:GreenYellow; font-size: 70px;'>正确! </span>","null","html-keyboard-response","30","271077","0.0-7.0-0.0-1.0-0.0-1.10","3","3","3","3","2","3","3","3","2","2","4","3","2","4","2","4","3","2","4","4","4","4","3","3","3","3","4","2","5","1","1","1","0","0","0","1","1","0","1","1","1","1","0","1","2","2","3","2","4","3","4","4","2","2","2","773203800659070978","张","504","","","","","","","","","","","","","","","","","","","","","","","","","","","","","","feedback_test","","","","","","","","","","","",""
"930","","f","psychophysics","31","273009","0.0-7.0-0.0-1.0-0.0-0.11","3","3","3","3","2","3","3","3","2","2","4","3","2","4","2","4","3","2","4","4","4","4","3","3","3","3","4","2","5","1","1","1","0","0","0","1","1","0","1","1","1","1","0","1","2","2","3","2","4","3","4","4","2","2","2","773203800659070978","张","504","","","","match","","","","","","","","","","","","","","key","f","16.67565217391264","683","380","f","true","match","img/trapezoid.png","梯形","梯形","ALT1_1","prac_ALT1_1","","","","","","","","","","","",""
"null","<span style='color:GreenYellow; font-size: 70px;'>正确! </span>","null","html-keyboard-response","32","273509","0.0-7.0-0.0-1.0-0.0-1.11","3","3","3","3","2","3","3","3","2","2","4","3","2","4","2","4","3","2","4","4","4","4","3","3","3","3","4","2","5","1","1","1","0","0","0","1","1","0","1","1","1","1","0","1","2","2","3","2","4","3","4","4","2","2","2","773203800659070978","张","504","","","","","","","","","","","","","","","","","","","","","","","","","","","","","","feedback_test","","","","","","","","","","","",""
"763","","f","psychophysics","33","275274","0.0-7.0-0.0-1.0-0.0-0.12","3","3","3","3","2","3","3","3","2","2","4","3","2","4","2","4","3","2","4","4","4","4","3","3","3","3","4","2","5","1","1","1","0","0","0","1","1","0","1","1","1","1","0","1","2","2","3","2","4","3","4","4","2","2","2","773203800659070978","张","504","","","","match","","","","","","","","","","","","","","key","f","16.674285714285602","683","380","f","true","match","img/trapezoid.png","梯形","梯形","ALT1_1","prac_ALT1_1","","","","","","","","","","","",""
"null","<span style='color:GreenYellow; font-size: 70px;'>正确! </span>","null","html-keyboard-response","34","275776","0.0-7.0-0.0-1.0-0.0-1.12","3","3","3","3","2","3","3","3","2","2","4","3","2","4","2","4","3","2","4","4","4","4","3","3","3","3","4","2","5","1","1","1","0","0","0","1","1","0","1","1","1","1","0","1","2","2","3","2","4","3","4","4","2","2","2","773203800659070978","张","504","","","","","","","","","","","","","","","","","","","","","","","","","","","","","","feedback_test","","","","","","","","","","","",""
"677","","f","psychophysics","35","277455","0.0-7.0-0.0-1.0-0.0-0.13","3","3","3","3","2","3","3","3","2","2","4","3","2","4","2","4","3","2","4","4","4","4","3","3","3","3","4","2","5","1","1","1","0","0","0","1","1","0","1","1","1","1","0","1","2","2","3","2","4","3","4","4","2","2","2","773203800659070978","张","504","","","","match","","","","","","","","","","","","","","key","f","16.675999999999767","683","380","f","true","match","img/circle.png","圆形","圆形","ALT1_1","prac_ALT1_1","","","","","","","","","","","",""
"null","<span style='color:GreenYellow; font-size: 70px;'>正确! </span>","null","html-keyboard-response","36","277956","0.0-7.0-0.0-1.0-0.0-1.13","3","3","3","3","2","3","3","3","2","2","4","3","2","4","2","4","3","2","4","4","4","4","3","3","3","3","4","2","5","1","1","1","0","0","0","1","1","0","1","1","1","1","0","1","2","2","3","2","4","3","4","4","2","2","2","773203800659070978","张","504","","","","","","","","","","","","","","","","","","","","","","","","","","","","","","feedback_test","","","","","","","","","","","",""
"800","","j","psychophysics","37","279758","0.0-7.0-0.0-1.0-0.0-0.14","3","3","3","3","2","3","3","3","2","2","4","3","2","4","2","4","3","2","4","4","4","4","3","3","3","3","4","2","5","1","1","1","0","0","0","1","1","0","1","1","1","1","0","1","2","2","3","2","4","3","4","4","2","2","2","773203800659070978","张","504","","","","nonmatch","","","","","","","","","","","","","","key","j","16.676635514018365","683","380","j","true","nonmatch","img/circle.png","六边","圆形","ALT1_1","prac_ALT1_1","","","","","","","","","","","",""
"null","<span style='color:GreenYellow; font-size: 70px;'>正确! </span>","null","html-keyboard-response","38","280263","0.0-7.0-0.0-1.0-0.0-1.14","3","3","3","3","2","3","3","3","2","2","4","3","2","4","2","4","3","2","4","4","4","4","3","3","3","3","4","2","5","1","1","1","0","0","0","1","1","0","1","1","1","1","0","1","2","2","3","2","4","3","4","4","2","2","2","773203800659070978","张","504","","","","","","","","","","","","","","","","","","","","","","","","","","","","","","feedback_test","","","","","","","","","","","",""
"835","","f","psychophysics","39","282100","0.0-7.0-0.0-1.0-0.0-0.15","3","3","3","3","2","3","3","3","2","2","4","3","2","4","2","4","3","2","4","4","4","4","3","3","3","3","4","2","5","1","1","1","0","0","0","1","1","0","1","1","1","1","0","1","2","2","3","2","4","3","4","4","2","2","2","773203800659070978","张","504","","","","match","","","","","","","","","","","","","","key","f","16.673394495413056","683","380","f","true","match","img/circle.png","圆形","圆形","ALT1_1","prac_ALT1_1","","","","","","","","","","","",""
"null","<span style='color:GreenYellow; font-size: 70px;'>正确! </span>","null","html-keyboard-response","40","282600","0.0-7.0-0.0-1.0-0.0-1.15","3","3","3","3","2","3","3","3","2","2","4","3","2","4","2","4","3","2","4","4","4","4","3","3","3","3","4","2","5","1","1","1","0","0","0","1","1","0","1","1","1","1","0","1","2","2","3","2","4","3","4","4","2","2","2","773203800659070978","张","504","","","","","","","","","","","","","","","","","","","","","","","","","","","","","","feedback_test","","","","","","","","","","","",""
"689","","f","psychophysics","41","284290","0.0-7.0-0.0-1.0-0.0-0.16","3","3","3","3","2","3","3","3","2","2","4","3","2","4","2","4","3","2","4","4","4","4","3","3","3","3","4","2","5","1","1","1","0","0","0","1","1","0","1","1","1","1","0","1","2","2","3","2","4","3","4","4","2","2","2","773203800659070978","张","504","","","","match","","","","","","","","","","","","","","key","f","16.673267326732674","683","380","f","true","match","img/hexagon.png","六边","六边","ALT1_1","prac_ALT1_1","","","","","","","","","","","",""
"null","<span style='color:GreenYellow; font-size: 70px;'>正确! </span>","null","html-keyboard-response","42","284792","0.0-7.0-0.0-1.0-0.0-1.16","3","3","3","3","2","3","3","3","2","2","4","3","2","4","2","4","3","2","4","4","4","4","3","3","3","3","4","2","5","1","1","1","0","0","0","1","1","0","1","1","1","1","0","1","2","2","3","2","4","3","4","4","2","2","2","773203800659070978","张","504","","","","","","","","","","","","","","","","","","","","","","","","","","","","","","feedback_test","","","","","","","","","","","",""
"724","","f","psychophysics","43","286519","0.0-7.0-0.0-1.0-0.0-0.17","3","3","3","3","2","3","3","3","2","2","4","3","2","4","2","4","3","2","4","4","4","4","3","3","3","3","4","2","5","1","1","1","0","0","0","1","1","0","1","1","1","1","0","1","2","2","3","2","4","3","4","4","2","2","2","773203800659070978","张","504","","","","match","","","","","","","","","","","","","","key","f","16.67549019607809","683","380","f","true","match","img/diamond.png","菱形","菱形","ALT1_1","prac_ALT1_1","","","","","","","","","","","",""
"null","<span style='color:GreenYellow; font-size: 70px;'>正确! </span>","null","html-keyboard-response","44","287021","0.0-7.0-0.0-1.0-0.0-1.17","3","3","3","3","2","3","3","3","2","2","4","3","2","4","2","4","3","2","4","4","4","4","3","3","3","3","4","2","5","1","1","1","0","0","0","1","1","0","1","1","1","1","0","1","2","2","3","2","4","3","4","4","2","2","2","773203800659070978","张","504","","","","","","","","","","","","","","","","","","","","","","","","","","","","","","feedback_test","","","","","","","","","","","",""
"766","","j","psychophysics","45","288788","0.0-7.0-0.0-1.0-0.0-0.18","3","3","3","3","2","3","3","3","2","2","4","3","2","4","2","4","3","2","4","4","4","4","3","3","3","3","4","2","5","1","1","1","0","0","0","1","1","0","1","1","1","1","0","1","2","2","3","2","4","3","4","4","2","2","2","773203800659070978","张","504","","","","nonmatch","","","","","","","","","","","","","","key","j","16.67500000000011","683","380","j","true","nonmatch","img/diamond.png","圆形","菱形","ALT1_1","prac_ALT1_1","","","","","","","","","","","",""
"null","<span style='color:GreenYellow; font-size: 70px;'>正确! </span>","null","html-keyboard-response","46","289289","0.0-7.0-0.0-1.0-0.0-1.18","3","3","3","3","2","3","3","3","2","2","4","3","2","4","2","4","3","2","4","4","4","4","3","3","3","3","4","2","5","1","1","1","0","0","0","1","1","0","1","1","1","1","0","1","2","2","3","2","4","3","4","4","2","2","2","773203800659070978","张","504","","","","","","","","","","","","","","","","","","","","","","","","","","","","","","feedback_test","","","","","","","","","","","",""
"495","","f","psychophysics","47","290785","0.0-7.0-0.0-1.0-0.0-0.19","3","3","3","3","2","3","3","3","2","2","4","3","2","4","2","4","3","2","4","4","4","4","3","3","3","3","4","2","5","1","1","1","0","0","0","1","1","0","1","1","1","1","0","1","2","2","3","2","4","3","4","4","2","2","2","773203800659070978","张","504","","","","match","","","","","","","","","","","","","","key","f","16.672727272727403","683","380","f","true","match","img/circle.png","圆形","圆形","ALT1_1","prac_ALT1_1","","","","","","","","","","","",""
"null","<span style='color:GreenYellow; font-size: 70px;'>正确! </span>","null","html-keyboard-response","48","291286","0.0-7.0-0.0-1.0-0.0-1.19","3","3","3","3","2","3","3","3","2","2","4","3","2","4","2","4","3","2","4","4","4","4","3","3","3","3","4","2","5","1","1","1","0","0","0","1","1","0","1","1","1","1","0","1","2","2","3","2","4","3","4","4","2","2","2","773203800659070978","张","504","","","","","","","","","","","","","","","","","","","","","","","","","","","","","","feedback_test","","","","","","","","","","","",""
"666","","f","psychophysics","49","292954","0.0-7.0-0.0-1.0-0.0-0.20","3","3","3","3","2","3","3","3","2","2","4","3","2","4","2","4","3","2","4","4","4","4","3","3","3","3","4","2","5","1","1","1","0","0","0","1","1","0","1","1","1","1","0","1","2","2","3","2","4","3","4","4","2","2","2","773203800659070978","张","504","","","","match","","","","","","","","","","","","","","key","f","16.674747474747356","683","380","f","true","match","img/diamond.png","菱形","菱形","ALT1_1","prac_ALT1_1","","","","","","","","","","","",""
"null","<span style='color:GreenYellow; font-size: 70px;'>正确! </span>","null","html-keyboard-response","50","293455","0.0-7.0-0.0-1.0-0.0-1.20","3","3","3","3","2","3","3","3","2","2","4","3","2","4","2","4","3","2","4","4","4","4","3","3","3","3","4","2","5","1","1","1","0","0","0","1","1","0","1","1","1","1","0","1","2","2","3","2","4","3","4","4","2","2","2","773203800659070978","张","504","","","","","","","","","","","","","","","","","","","","","","","","","","","","","","feedback_test","","","","","","","","","","","",""
"575","","f","psychophysics","51","295033","0.0-7.0-0.0-1.0-0.0-0.21","3","3","3","3","2","3","3","3","2","2","4","3","2","4","2","4","3","2","4","4","4","4","3","3","3","3","4","2","5","1","1","1","0","0","0","1","1","0","1","1","1","1","0","1","2","2","3","2","4","3","4","4","2","2","2","773203800659070978","张","504","","","","match","","","","","","","","","","","","","","key","f","16.673404255319024","683","380","j","false","nonmatch","img/hexagon.png","菱形","六边","ALT1_1","prac_ALT1_1","","","","","","","","","","","",""
"null","<span style='color:red; font-size: 70px;'>错误! </span>","null","html-keyboard-response","52","295533","0.0-7.0-0.0-1.0-0.0-1.21","3","3","3","3","2","3","3","3","2","2","4","3","2","4","2","4","3","2","4","4","4","4","3","3","3","3","4","2","5","1","1","1","0","0","0","1","1","0","1","1","1","1","0","1","2","2","3","2","4","3","4","4","2","2","2","773203800659070978","张","504","","","","","","","","","","","","","","","","","","","","","","","","","","","","","","feedback_test","","","","","","","","","","","",""
"492","","f","psychophysics","53","297028","0.0-7.0-0.0-1.0-0.0-0.22","3","3","3","3","2","3","3","3","2","2","4","3","2","4","2","4","3","2","4","4","4","4","3","3","3","3","4","2","5","1","1","1","0","0","0","1","1","0","1","1","1","1","0","1","2","2","3","2","4","3","4","4","2","2","2","773203800659070978","张","504","","","","match","","","","","","","","","","","","","","key","f","16.675280898876796","683","380","j","false","nonmatch","img/circle.png","菱形","圆形","ALT1_1","prac_ALT1_1","","","","","","","","","","","",""
"null","<span style='color:red; font-size: 70px;'>错误! </span>","null","html-keyboard-response","54","297529","0.0-7.0-0.0-1.0-0.0-1.22","3","3","3","3","2","3","3","3","2","2","4","3","2","4","2","4","3","2","4","4","4","4","3","3","3","3","4","2","5","1","1","1","0","0","0","1","1","0","1","1","1","1","0","1","2","2","3","2","4","3","4","4","2","2","2","773203800659070978","张","504","","","","","","","","","","","","","","","","","","","","","","","","","","","","","","feedback_test","","","","","","","","","","","",""
"577","","f","psychophysics","55","299107","0.0-7.0-0.0-1.0-0.0-0.23","3","3","3","3","2","3","3","3","2","2","4","3","2","4","2","4","3","2","4","4","4","4","3","3","3","3","4","2","5","1","1","1","0","0","0","1","1","0","1","1","1","1","0","1","2","2","3","2","4","3","4","4","2","2","2","773203800659070978","张","504","","","","match","","","","","","","","","","","","","","key","f","16.675268817204802","683","380","j","false","nonmatch","img/hexagon.png","梯形","六边","ALT1_1","prac_ALT1_1","","","","","","","","","","","",""
"null","<span style='color:red; font-size: 70px;'>错误! </span>","null","html-keyboard-response","56","299608","0.0-7.0-0.0-1.0-0.0-1.23","3","3","3","3","2","3","3","3","2","2","4","3","2","4","2","4","3","2","4","4","4","4","3","3","3","3","4","2","5","1","1","1","0","0","0","1","1","0","1","1","1","1","0","1","2","2","3","2","4","3","4","4","2","2","2","773203800659070978","张","504","","","","","","","","","","","","","","","","","","","","","","","","","","","","","","feedback_test","","","","","","","","","","","",""
"512","","f","psychophysics","57","301123","0.0-7.0-0.0-1.0-0.0-0.24","3","3","3","3","2","3","3","3","2","2","4","3","2","4","2","4","3","2","4","4","4","4","3","3","3","3","4","2","5","1","1","1","0","0","0","1","1","0","1","1","1","1","0","1","2","2","3","2","4","3","4","4","2","2","2","773203800659070978","张","504","","","","match","","","","","","","","","","","","","","key","f","16.668539325842698","683","380","f","true","match","img/circle.png","圆形","圆形","ALT1_1","prac_ALT1_1","","","","","","","","","","","",""
"null","<span style='color:GreenYellow; font-size: 70px;'>正确! </span>","null","html-keyboard-response","58","301625","0.0-7.0-0.0-1.0-0.0-1.24","3","3","3","3","2","3","3","3","2","2","4","3","2","4","2","4","3","2","4","4","4","4","3","3","3","3","4","2","5","1","1","1","0","0","0","1","1","0","1","1","1","1","0","1","2","2","3","2","4","3","4","4","2","2","2","773203800659070978","张","504","","","","","","","","","","","","","","","","","","","","","","","","","","","","","","feedback_test","","","","","","","","","","","",""
"827","","f","psychophysics","59","303453","0.0-7.0-0.0-1.0-0.0-0.25","3","3","3","3","2","3","3","3","2","2","4","3","2","4","2","4","3","2","4","4","4","4","3","3","3","3","4","2","5","1","1","1","0","0","0","1","1","0","1","1","1","1","0","1","2","2","3","2","4","3","4","4","2","2","2","773203800659070978","张","504","","","","match","","","","","","","","","","","","","","key","f","16.666666666666668","683","380","f","true","match","img/trapezoid.png","梯形","梯形","ALT1_1","prac_ALT1_1","","","","","","","","","","","",""
"null","<span style='color:GreenYellow; font-size: 70px;'>正确! </span>","null","html-keyboard-response","60","303954","0.0-7.0-0.0-1.0-0.0-1.25","3","3","3","3","2","3","3","3","2","2","4","3","2","4","2","4","3","2","4","4","4","4","3","3","3","3","4","2","5","1","1","1","0","0","0","1","1","0","1","1","1","1","0","1","2","2","3","2","4","3","4","4","2","2","2","773203800659070978","张","504","","","","","","","","","","","","","","","","","","","","","","","","","","","","","","feedback_test","","","","","","","","","","","",""
"610","","f","psychophysics","61","305566","0.0-7.0-0.0-1.0-0.0-0.26","3","3","3","3","2","3","3","3","2","2","4","3","2","4","2","4","3","2","4","4","4","4","3","3","3","3","4","2","5","1","1","1","0","0","0","1","1","0","1","1","1","1","0","1","2","2","3","2","4","3","4","4","2","2","2","773203800659070978","张","504","","","","match","","","","","","","","","","","","","","key","f","16.672916666666424","683","380","f","true","match","img/diamond.png","菱形","菱形","ALT1_1","prac_ALT1_1","","","","","","","","","","","",""
"null","<span style='color:GreenYellow; font-size: 70px;'>正确! </span>","null","html-keyboard-response","62","306068","0.0-7.0-0.0-1.0-0.0-1.26","3","3","3","3","2","3","3","3","2","2","4","3","2","4","2","4","3","2","4","4","4","4","3","3","3","3","4","2","5","1","1","1","0","0","0","1","1","0","1","1","1","1","0","1","2","2","3","2","4","3","4","4","2","2","2","773203800659070978","张","504","","","","","","","","","","","","","","","","","","","","","","","","","","","","","","feedback_test","","","","","","","","","","","",""
"483","","f","psychophysics","63","307552","0.0-7.0-0.0-1.0-0.0-0.27","3","3","3","3","2","3","3","3","2","2","4","3","2","4","2","4","3","2","4","4","4","4","3","3","3","3","4","2","5","1","1","1","0","0","0","1","1","0","1","1","1","1","0","1","2","2","3","2","4","3","4","4","2","2","2","773203800659070978","张","504","","","","match","","","","","","","","","","","","","","key","f","16.674999999999603","683","380","f","true","match","img/hexagon.png","六边","六边","ALT1_1","prac_ALT1_1","","","","","","","","","","","",""
"null","<span style='color:GreenYellow; font-size: 70px;'>正确! </span>","null","html-keyboard-response","64","308053","0.0-7.0-0.0-1.0-0.0-1.27","3","3","3","3","2","3","3","3","2","2","4","3","2","4","2","4","3","2","4","4","4","4","3","3","3","3","4","2","5","1","1","1","0","0","0","1","1","0","1","1","1","1","0","1","2","2","3","2","4","3","4","4","2","2","2","773203800659070978","张","504","","","","","","","","","","","","","","","","","","","","","","","","","","","","","","feedback_test","","","","","","","","","","","",""
"712","","f","psychophysics","65","309767","0.0-7.0-0.0-1.0-0.0-0.28","3","3","3","3","2","3","3","3","2","2","4","3","2","4","2","4","3","2","4","4","4","4","3","3","3","3","4","2","5","1","1","1","0","0","0","1","1","0","1","1","1","1","0","1","2","2","3","2","4","3","4","4","2","2","2","773203800659070978","张","504","","","","match","","","","","","","","","","","","","","key","f","16.67352941176482","683","380","j","false","nonmatch","img/trapezoid.png","圆形","梯形","ALT1_1","prac_ALT1_1","","","","","","","","","","","",""
"null","<span style='color:red; font-size: 70px;'>错误! </span>","null","html-keyboard-response","66","310268","0.0-7.0-0.0-1.0-0.0-1.28","3","3","3","3","2","3","3","3","2","2","4","3","2","4","2","4","3","2","4","4","4","4","3","3","3","3","4","2","5","1","1","1","0","0","0","1","1","0","1","1","1","1","0","1","2","2","3","2","4","3","4","4","2","2","2","773203800659070978","张","504","","","","","","","","","","","","","","","","","","","","","","","","","","","","","","feedback_test","","","","","","","","","","","",""
"833","","j","psychophysics","67","312102","0.0-7.0-0.0-1.0-0.0-0.29","3","3","3","3","2","3","3","3","2","2","4","3","2","4","2","4","3","2","4","4","4","4","3","3","3","3","4","2","5","1","1","1","0","0","0","1","1","0","1","1","1","1","0","1","2","2","3","2","4","3","4","4","2","2","2","773203800659070978","张","504","","","","nonmatch","","","","","","","","","","","","","","key","j","16.673394495413056","683","380","j","true","nonmatch","img/trapezoid.png","六边","梯形","ALT1_1","prac_ALT1_1","","","","","","","","","","","",""
"null","<span style='color:GreenYellow; font-size: 70px;'>正确! </span>","null","html-keyboard-response","68","312603","0.0-7.0-0.0-1.0-0.0-1.29","3","3","3","3","2","3","3","3","2","2","4","3","2","4","2","4","3","2","4","4","4","4","3","3","3","3","4","2","5","1","1","1","0","0","0","1","1","0","1","1","1","1","0","1","2","2","3","2","4","3","4","4","2","2","2","773203800659070978","张","504","","","","","","","","","","","","","","","","","","","","","","","","","","","","","","feedback_test","","","","","","","","","","","",""
"739","","j","psychophysics","69","314343","0.0-7.0-0.0-1.0-0.0-0.30","3","3","3","3","2","3","3","3","2","2","4","3","2","4","2","4","3","2","4","4","4","4","3","3","3","3","4","2","5","1","1","1","0","0","0","1","1","0","1","1","1","1","0","1","2","2","3","2","4","3","4","4","2","2","2","773203800659070978","张","504","","","","nonmatch","","","","","","","","","","","","","","key","j","16.674757281553397","683","380","j","true","nonmatch","img/diamond.png","六边","菱形","ALT1_1","prac_ALT1_1","","","","","","","","","","","",""
"null","<span style='color:GreenYellow; font-size: 70px;'>正确! </span>","null","html-keyboard-response","70","314845","0.0-7.0-0.0-1.0-0.0-1.30","3","3","3","3","2","3","3","3","2","2","4","3","2","4","2","4","3","2","4","4","4","4","3","3","3","3","4","2","5","1","1","1","0","0","0","1","1","0","1","1","1","1","0","1","2","2","3","2","4","3","4","4","2","2","2","773203800659070978","张","504","","","","","","","","","","","","","","","","","","","","","","","","","","","","","","feedback_test","","","","","","","","","","","",""
"823","","j","psychophysics","71","316669","0.0-7.0-0.0-1.0-0.0-0.31","3","3","3","3","2","3","3","3","2","2","4","3","2","4","2","4","3","2","4","4","4","4","3","3","3","3","4","2","5","1","1","1","0","0","0","1","1","0","1","1","1","1","0","1","2","2","3","2","4","3","4","4","2","2","2","773203800659070978","张","504","","","","nonmatch","","","","","","","","","","","","","","key","j","16.675229357797953","683","380","j","true","nonmatch","img/hexagon.png","梯形","六边","ALT1_1","prac_ALT1_1","","","","","","","","","","","",""
"null","<span style='color:GreenYellow; font-size: 70px;'>正确! </span>","null","html-keyboard-response","72","317170","0.0-7.0-0.0-1.0-0.0-1.31","3","3","3","3","2","3","3","3","2","2","4","3","2","4","2","4","3","2","4","4","4","4","3","3","3","3","4","2","5","1","1","1","0","0","0","1","1","0","1","1","1","1","0","1","2","2","3","2","4","3","4","4","2","2","2","773203800659070978","张","504","","","","","","","","","","","","","","","","","","","","","","","","","","","","","","feedback_test","","","","","","","","","","","",""
"838","","f","psychophysics","73","319009","0.0-7.0-0.0-1.0-0.0-0.32","3","3","3","3","2","3","3","3","2","2","4","3","2","4","2","4","3","2","4","4","4","4","3","3","3","3","4","2","5","1","1","1","0","0","0","1","1","0","1","1","1","1","0","1","2","2","3","2","4","3","4","4","2","2","2","773203800659070978","张","504","","","","match","","","","","","","","","","","","","","key","f","16.674311926605505","683","380","f","true","match","img/trapezoid.png","梯形","梯形","ALT1_1","prac_ALT1_1","","","","","","","","","","","",""
"null","<span style='color:GreenYellow; font-size: 70px;'>正确! </span>","null","html-keyboard-response","74","319510","0.0-7.0-0.0-1.0-0.0-1.32","3","3","3","3","2","3","3","3","2","2","4","3","2","4","2","4","3","2","4","4","4","4","3","3","3","3","4","2","5","1","1","1","0","0","0","1","1","0","1","1","1","1","0","1","2","2","3","2","4","3","4","4","2","2","2","773203800659070978","张","504","","","","","","","","","","","","","","","","","","","","","","","","","","","","","","feedback_test","","","","","","","","","","","",""
"921","","f","psychophysics","75","321433","0.0-7.0-0.0-1.0-0.0-0.33","3","3","3","3","2","3","3","3","2","2","4","3","2","4","2","4","3","2","4","4","4","4","3","3","3","3","4","2","5","1","1","1","0","0","0","1","1","0","1","1","1","1","0","1","2","2","3","2","4","3","4","4","2","2","2","773203800659070978","张","504","","","","match","","","","","","","","","","","","","","key","f","16.673684210526215","683","380","f","true","match","img/trapezoid.png","梯形","梯形","ALT1_1","prac_ALT1_1","","","","","","","","","","","",""
"null","<span style='color:GreenYellow; font-size: 70px;'>正确! </span>","null","html-keyboard-response","76","321934","0.0-7.0-0.0-1.0-0.0-1.33","3","3","3","3","2","3","3","3","2","2","4","3","2","4","2","4","3","2","4","4","4","4","3","3","3","3","4","2","5","1","1","1","0","0","0","1","1","0","1","1","1","1","0","1","2","2","3","2","4","3","4","4","2","2","2","773203800659070978","张","504","","","","","","","","","","","","","","","","","","","","","","","","","","","","","","feedback_test","","","","","","","","","","","",""
"906","","j","psychophysics","77","323842","0.0-7.0-0.0-1.0-0.0-0.34","3","3","3","3","2","3","3","3","2","2","4","3","2","4","2","4","3","2","4","4","4","4","3","3","3","3","4","2","5","1","1","1","0","0","0","1","1","0","1","1","1","1","0","1","2","2","3","2","4","3","4","4","2","2","2","773203800659070978","张","504","","","","nonmatch","","","","","","","","","","","","","","key","j","16.672566371681416","683","380","j","true","nonmatch","img/diamond.png","梯形","菱形","ALT1_1","prac_ALT1_1","","","","","","","","","","","",""
"null","<span style='color:GreenYellow; font-size: 70px;'>正确! </span>","null","html-keyboard-response","78","324343","0.0-7.0-0.0-1.0-0.0-1.34","3","3","3","3","2","3","3","3","2","2","4","3","2","4","2","4","3","2","4","4","4","4","3","3","3","3","4","2","5","1","1","1","0","0","0","1","1","0","1","1","1","1","0","1","2","2","3","2","4","3","4","4","2","2","2","773203800659070978","张","504","","","","","","","","","","","","","","","","","","","","","","","","","","","","","","feedback_test","","","","","","","","","","","",""
"768","","j","psychophysics","79","326113","0.0-7.0-0.0-1.0-0.0-0.35","3","3","3","3","2","3","3","3","2","2","4","3","2","4","2","4","3","2","4","4","4","4","3","3","3","3","4","2","5","1","1","1","0","0","0","1","1","0","1","1","1","1","0","1","2","2","3","2","4","3","4","4","2","2","2","773203800659070978","张","504","","","","nonmatch","","","","","","","","","","","","","","key","j","16.674285714285602","683","380","j","true","nonmatch","img/diamond.png","圆形","菱形","ALT1_1","prac_ALT1_1","","","","","","","","","","","",""
"null","<span style='color:GreenYellow; font-size: 70px;'>正确! </span>","null","html-keyboard-response","80","326614","0.0-7.0-0.0-1.0-0.0-1.35","3","3","3","3","2","3","3","3","2","2","4","3","2","4","2","4","3","2","4","4","4","4","3","3","3","3","4","2","5","1","1","1","0","0","0","1","1","0","1","1","1","1","0","1","2","2","3","2","4","3","4","4","2","2","2","773203800659070978","张","504","","","","","","","","","","","","","","","","","","","","","","","","","","","","","","feedback_test","","","","","","","","","","","",""
"762","","j","psychophysics","81","328377","0.0-7.0-0.0-1.0-0.0-0.36","3","3","3","3","2","3","3","3","2","2","4","3","2","4","2","4","3","2","4","4","4","4","3","3","3","3","4","2","5","1","1","1","0","0","0","1","1","0","1","1","1","1","0","1","2","2","3","2","4","3","4","4","2","2","2","773203800659070978","张","504","","","","nonmatch","","","","","","","","","","","","","","key","j","16.674285714285602","683","380","j","true","nonmatch","img/hexagon.png","圆形","六边","ALT1_1","prac_ALT1_1","","","","","","","","","","","",""
"null","<span style='color:GreenYellow; font-size: 70px;'>正确! </span>","null","html-keyboard-response","82","328879","0.0-7.0-0.0-1.0-0.0-1.36","3","3","3","3","2","3","3","3","2","2","4","3","2","4","2","4","3","2","4","4","4","4","3","3","3","3","4","2","5","1","1","1","0","0","0","1","1","0","1","1","1","1","0","1","2","2","3","2","4","3","4","4","2","2","2","773203800659070978","张","504","","","","","","","","","","","","","","","","","","","","","","","","","","","","","","feedback_test","","","","","","","","","","","",""
"626","","f","psychophysics","83","330507","0.0-7.0-0.0-1.0-0.0-0.37","3","3","3","3","2","3","3","3","2","2","4","3","2","4","2","4","3","2","4","4","4","4","3","3","3","3","4","2","5","1","1","1","0","0","0","1","1","0","1","1","1","1","0","1","2","2","3","2","4","3","4","4","2","2","2","773203800659070978","张","504","","","","match","","","","","","","","","","","","","","key","f","16.67319587628854","683","380","j","false","nonmatch","img/circle.png","梯形","圆形","ALT1_1","prac_ALT1_1","","","","","","","","","","","",""
"null","<span style='color:red; font-size: 70px;'>错误! </span>","null","html-keyboard-response","84","331009","0.0-7.0-0.0-1.0-0.0-1.37","3","3","3","3","2","3","3","3","2","2","4","3","2","4","2","4","3","2","4","4","4","4","3","3","3","3","4","2","5","1","1","1","0","0","0","1","1","0","1","1","1","1","0","1","2","2","3","2","4","3","4","4","2","2","2","773203800659070978","张","504","","","","","","","","","","","","","","","","","","","","","","","","","","","","","","feedback_test","","","","","","","","","","","",""
"748","","f","psychophysics","85","332760","0.0-7.0-0.0-1.0-0.0-0.38","3","3","3","3","2","3","3","3","2","2","4","3","2","4","2","4","3","2","4","4","4","4","3","3","3","3","4","2","5","1","1","1","0","0","0","1","1","0","1","1","1","1","0","1","2","2","3","2","4","3","4","4","2","2","2","773203800659070978","张","504","","","","match","","","","","","","","","","","","","","key","f","16.674038461538796","683","380","f","true","match","img/diamond.png","菱形","菱形","ALT1_1","prac_ALT1_1","","","","","","","","","","","",""
"null","<span style='color:GreenYellow; font-size: 70px;'>正确! </span>","null","html-keyboard-response","86","333260","0.0-7.0-0.0-1.0-0.0-1.38","3","3","3","3","2","3","3","3","2","2","4","3","2","4","2","4","3","2","4","4","4","4","3","3","3","3","4","2","5","1","1","1","0","0","0","1","1","0","1","1","1","1","0","1","2","2","3","2","4","3","4","4","2","2","2","773203800659070978","张","504","","","","","","","","","","","","","","","","","","","","","","","","","","","","","","feedback_test","","","","","","","","","","","",""
"855","","f","psychophysics","87","335117","0.0-7.0-0.0-1.0-0.0-0.39","3","3","3","3","2","3","3","3","2","2","4","3","2","4","2","4","3","2","4","4","4","4","3","3","3","3","4","2","5","1","1","1","0","0","0","1","1","0","1","1","1","1","0","1","2","2","3","2","4","3","4","4","2","2","2","773203800659070978","张","504","","","","match","","","","","","","","","","","","","","key","f","16.673636363636152","683","380","f","true","match","img/diamond.png","菱形","菱形","ALT1_1","prac_ALT1_1","","","","","","","","","","","",""
"null","<span style='color:GreenYellow; font-size: 70px;'>正确! </span>","null","html-keyboard-response","88","335618","0.0-7.0-0.0-1.0-0.0-1.39","3","3","3","3","2","3","3","3","2","2","4","3","2","4","2","4","3","2","4","4","4","4","3","3","3","3","4","2","5","1","1","1","0","0","0","1","1","0","1","1","1","1","0","1","2","2","3","2","4","3","4","4","2","2","2","773203800659070978","张","504","","","","","","","","","","","","","","","","","","","","","","","","","","","","","","feedback_test","","","","","","","","","","","",""
"603","","f","psychophysics","89","337223","0.0-7.0-0.0-1.0-0.0-0.40","3","3","3","3","2","3","3","3","2","2","4","3","2","4","2","4","3","2","4","4","4","4","3","3","3","3","4","2","5","1","1","1","0","0","0","1","1","0","1","1","1","1","0","1","2","2","3","2","4","3","4","4","2","2","2","773203800659070978","张","504","","","","match","","","","","","","","","","","","","","key","f","16.673684210526314","683","380","f","true","match","img/circle.png","圆形","圆形","ALT1_1","prac_ALT1_1","","","","","","","","","","","",""
"null","<span style='color:GreenYellow; font-size: 70px;'>正确! </span>","null","html-keyboard-response","90","337724","0.0-7.0-0.0-1.0-0.0-1.40","3","3","3","3","2","3","3","3","2","2","4","3","2","4","2","4","3","2","4","4","4","4","3","3","3","3","4","2","5","1","1","1","0","0","0","1","1","0","1","1","1","1","0","1","2","2","3","2","4","3","4","4","2","2","2","773203800659070978","张","504","","","","","","","","","","","","","","","","","","","","","","","","","","","","","","feedback_test","","","","","","","","","","","",""
"1112","","j","psychophysics","91","339837","0.0-7.0-0.0-1.0-0.0-0.41","3","3","3","3","2","3","3","3","2","2","4","3","2","4","2","4","3","2","4","4","4","4","3","3","3","3","4","2","5","1","1","1","0","0","0","1","1","0","1","1","1","1","0","1","2","2","3","2","4","3","4","4","2","2","2","773203800659070978","张","504","","","","nonmatch","","","","","","","","","","","","","","key","j","16.674399999999906","683","380","j","true","nonmatch","img/hexagon.png","菱形","六边","ALT1_1","prac_ALT1_1","","","","","","","","","","","",""
"null","<span style='color:GreenYellow; font-size: 70px;'>正确! </span>","null","html-keyboard-response","92","340338","0.0-7.0-0.0-1.0-0.0-1.41","3","3","3","3","2","3","3","3","2","2","4","3","2","4","2","4","3","2","4","4","4","4","3","3","3","3","4","2","5","1","1","1","0","0","0","1","1","0","1","1","1","1","0","1","2","2","3","2","4","3","4","4","2","2","2","773203800659070978","张","504","","","","","","","","","","","","","","","","","","","","","","","","","","","","","","feedback_test","","","","","","","","","","","",""
"722","","j","psychophysics","93","342062","0.0-7.0-0.0-1.0-0.0-0.42","3","3","3","3","2","3","3","3","2","2","4","3","2","4","2","4","3","2","4","4","4","4","3","3","3","3","4","2","5","1","1","1","0","0","0","1","1","0","1","1","1","1","0","1","2","2","3","2","4","3","4","4","2","2","2","773203800659070978","张","504","","","","nonmatch","","","","","","","","","","","","","","key","j","16.673786407767217","683","380","j","true","nonmatch","img/circle.png","菱形","圆形","ALT1_1","prac_ALT1_1","","","","","","","","","","","",""
"null","<span style='color:GreenYellow; font-size: 70px;'>正确! </span>","null","html-keyboard-response","94","342564","0.0-7.0-0.0-1.0-0.0-1.42","3","3","3","3","2","3","3","3","2","2","4","3","2","4","2","4","3","2","4","4","4","4","3","3","3","3","4","2","5","1","1","1","0","0","0","1","1","0","1","1","1","1","0","1","2","2","3","2","4","3","4","4","2","2","2","773203800659070978","张","504","","","","","","","","","","","","","","","","","","","","","","","","","","","","","","feedback_test","","","","","","","","","","","",""
"663","","f","psychophysics","95","344229","0.0-7.0-0.0-1.0-0.0-0.43","3","3","3","3","2","3","3","3","2","2","4","3","2","4","2","4","3","2","4","4","4","4","3","3","3","3","4","2","5","1","1","1","0","0","0","1","1","0","1","1","1","1","0","1","2","2","3","2","4","3","4","4","2","2","2","773203800659070978","张","504","","","","match","","","","","","","","","","","","","","key","f","16.675757575757224","683","380","f","true","match","img/hexagon.png","六边","六边","ALT1_1","prac_ALT1_1","","","","","","","","","","","",""
"null","<span style='color:GreenYellow; font-size: 70px;'>正确! </span>","null","html-keyboard-response","96","344732","0.0-7.0-0.0-1.0-0.0-1.43","3","3","3","3","2","3","3","3","2","2","4","3","2","4","2","4","3","2","4","4","4","4","3","3","3","3","4","2","5","1","1","1","0","0","0","1","1","0","1","1","1","1","0","1","2","2","3","2","4","3","4","4","2","2","2","773203800659070978","张","504","","","","","","","","","","","","","","","","","","","","","","","","","","","","","","feedback_test","","","","","","","","","","","",""
"881","","f","psychophysics","97","346614","0.0-7.0-0.0-1.0-0.0-0.44","3","3","3","3","2","3","3","3","2","2","4","3","2","4","2","4","3","2","4","4","4","4","3","3","3","3","4","2","5","1","1","1","0","0","0","1","1","0","1","1","1","1","0","1","2","2","3","2","4","3","4","4","2","2","2","773203800659070978","张","504","","","","match","","","","","","","","","","","","","","key","f","16.67499999999979","683","380","j","false","nonmatch","img/trapezoid.png","菱形","梯形","ALT1_1","prac_ALT1_1","","","","","","","","","","","",""
"null","<span style='color:red; font-size: 70px;'>错误! </span>","null","html-keyboard-response","98","347115","0.0-7.0-0.0-1.0-0.0-1.44","3","3","3","3","2","3","3","3","2","2","4","3","2","4","2","4","3","2","4","4","4","4","3","3","3","3","4","2","5","1","1","1","0","0","0","1","1","0","1","1","1","1","0","1","2","2","3","2","4","3","4","4","2","2","2","773203800659070978","张","504","","","","","","","","","","","","","","","","","","","","","","","","","","","","","","feedback_test","","","","","","","","","","","",""
"737","","f","psychophysics","99","348853","0.0-7.0-0.0-1.0-0.0-0.45","3","3","3","3","2","3","3","3","2","2","4","3","2","4","2","4","3","2","4","4","4","4","3","3","3","3","4","2","5","1","1","1","0","0","0","1","1","0","1","1","1","1","0","1","2","2","3","2","4","3","4","4","2","2","2","773203800659070978","张","504","","","","match","","","","","","","","","","","","","","key","f","16.67281553398047","683","380","f","true","match","img/hexagon.png","六边","六边","ALT1_1","prac_ALT1_1","","","","","","","","","","","",""
"null","<span style='color:GreenYellow; font-size: 70px;'>正确! </span>","null","html-keyboard-response","100","349354","0.0-7.0-0.0-1.0-0.0-1.45","3","3","3","3","2","3","3","3","2","2","4","3","2","4","2","4","3","2","4","4","4","4","3","3","3","3","4","2","5","1","1","1","0","0","0","1","1","0","1","1","1","1","0","1","2","2","3","2","4","3","4","4","2","2","2","773203800659070978","张","504","","","","","","","","","","","","","","","","","","","","","","","","","","","","","","feedback_test","","","","","","","","","","","",""
"815","","j","psychophysics","101","351170","0.0-7.0-0.0-1.0-0.0-0.46","3","3","3","3","2","3","3","3","2","2","4","3","2","4","2","4","3","2","4","4","4","4","3","3","3","3","4","2","5","1","1","1","0","0","0","1","1","0","1","1","1","1","0","1","2","2","3","2","4","3","4","4","2","2","2","773203800659070978","张","504","","","","nonmatch","","","","","","","","","","","","","","key","j","16.673148148148258","683","380","j","true","nonmatch","img/circle.png","六边","圆形","ALT1_1","prac_ALT1_1","","","","","","","","","","","",""
"null","<span style='color:GreenYellow; font-size: 70px;'>正确! </span>","null","html-keyboard-response","102","351671","0.0-7.0-0.0-1.0-0.0-1.46","3","3","3","3","2","3","3","3","2","2","4","3","2","4","2","4","3","2","4","4","4","4","3","3","3","3","4","2","5","1","1","1","0","0","0","1","1","0","1","1","1","1","0","1","2","2","3","2","4","3","4","4","2","2","2","773203800659070978","张","504","","","","","","","","","","","","","","","","","","","","","","","","","","","","","","feedback_test","","","","","","","","","","","",""
"632","","f","psychophysics","103","353305","0.0-7.0-0.0-1.0-0.0-0.47","3","3","3","3","2","3","3","3","2","2","4","3","2","4","2","4","3","2","4","4","4","4","3","3","3","3","4","2","5","1","1","1","0","0","0","1","1","0","1","1","1","1","0","1","2","2","3","2","4","3","4","4","2","2","2","773203800659070978","张","504","","","","match","","","","","","","","","","","","","","key","f","16.67422680412335","683","380","f","true","match","img/circle.png","圆形","圆形","ALT1_1","prac_ALT1_1","","","","","","","","","","","",""
"null","<span style='color:GreenYellow; font-size: 70px;'>正确! </span>","null","html-keyboard-response","104","353806","0.0-7.0-0.0-1.0-0.0-1.47","3","3","3","3","2","3","3","3","2","2","4","3","2","4","2","4","3","2","4","4","4","4","3","3","3","3","4","2","5","1","1","1","0","0","0","1","1","0","1","1","1","1","0","1","2","2","3","2","4","3","4","4","2","2","2","773203800659070978","张","504","","","","","","","","","","","","","","","","","","","","","","","","","","","","","","feedback_test","","","","","","","","","","","",""
"6792","<style>.context{color:white; font-size: 35px; line-height:40px}</style>                            <div><p class='context'>您正确回答了81% 的试次。</p><p class='context'>您的平均反应时为771毫秒。</p><p class='context'>恭喜您完成练习。按空格键进入正式实验。</p><p class='footer' style='font-size: 35px; line-height:40px;'>请在进入正式实验之前将您的<span style='color: lightgreen;'>食指</span>放在电脑键盘的相应键位上进行按键。</p>"," ","html-keyboard-response","105","360601","0.0-7.0-0.0-2.0","3","3","3","3","2","3","3","3","2","2","4","3","2","4","2","4","3","2","4","4","4","4","3","3","3","3","4","2","5","1","1","1","0","0","0","1","1","0","1","1","1","1","0","1","2","2","3","2","4","3","4","4","2","2","2","773203800659070978","张","504","","","","","","","","","","","","","","","","","","","","","","","","","","","","","","","","","","","","","","","","","",""
"3897","
    <p style='color: white; font-size: 22px'>请您将手指放在按键上，准备进入正式的匹配任务。</p>
    <p> <div style = ""color: green""><按空格键进入下一阶段的匹配任务></div></p>
    "," ","html-keyboard-response","106","364500","0.0-7.0-0.0-3.0","3","3","3","3","2","3","3","3","2","2","4","3","2","4","2","4","3","2","4","4","4","4","3","3","3","3","4","2","5","1","1","1","0","0","0","1","1","0","1","1","1","1","0","1","2","2","3","2","4","3","4","4","2","2","2","773203800659070978","张","504","","","","","","","","","","","","","","","","","","","","","","","","","","","","","","","","","","","","","","","","","",""
"728","","j","psychophysics","107","366230","0.0-7.0-0.0-4.0-0.0-0.0","3","3","3","3","2","3","3","3","2","2","4","3","2","4","2","4","3","2","4","4","4","4","3","3","3","3","4","2","5","1","1","1","0","0","0","1","1","0","1","1","1","1","0","1","2","2","3","2","4","3","4","4","2","2","2","773203800659070978","张","504","","","","nonmatch","","","","","","","","","","","","","","key","j","16.67156862745098","683","380","j","true","nonmatch","img/circle.png","菱形","圆形","ALT1","formal_ALT1_1","","","","","","","","","","","",""
"null","<span style='color:GreenYellow; font-size: 70px;'>正确! </span>","null","html-keyboard-response","108","366731","0.0-7.0-0.0-4.0-0.0-1.0","3","3","3","3","2","3","3","3","2","2","4","3","2","4","2","4","3","2","4","4","4","4","3","3","3","3","4","2","5","1","1","1","0","0","0","1","1","0","1","1","1","1","0","1","2","2","3","2","4","3","4","4","2","2","2","773203800659070978","张","504","","","","","","","","","","","","","","","","","","","","","","","","","","","","","","feedback_test","","","","","","","","","","","",""
"818","","j","psychophysics","109","368550","0.0-7.0-0.0-4.0-0.0-0.1","3","3","3","3","2","3","3","3","2","2","4","3","2","4","2","4","3","2","4","4","4","4","3","3","3","3","4","2","5","1","1","1","0","0","0","1","1","0","1","1","1","1","0","1","2","2","3","2","4","3","4","4","2","2","2","773203800659070978","张","504","","","","nonmatch","","","","","","","","","","","","","","key","j","16.674999999999677","683","380","j","true","nonmatch","img/hexagon.png","梯形","六边","ALT1","formal_ALT1_1","","","","","","","","","","","",""
"null","<span style='color:GreenYellow; font-size: 70px;'>正确! </span>","null","html-keyboard-response","110","369051","0.0-7.0-0.0-4.0-0.0-1.1","3","3","3","3","2","3","3","3","2","2","4","3","2","4","2","4","3","2","4","4","4","4","3","3","3","3","4","2","5","1","1","1","0","0","0","1","1","0","1","1","1","1","0","1","2","2","3","2","4","3","4","4","2","2","2","773203800659070978","张","504","","","","","","","","","","","","","","","","","","","","","","","","","","","","","","feedback_test","","","","","","","","","","","",""
"792","","f","psychophysics","111","370847","0.0-7.0-0.0-4.0-0.0-0.2","3","3","3","3","2","3","3","3","2","2","4","3","2","4","2","4","3","2","4","4","4","4","3","3","3","3","4","2","5","1","1","1","0","0","0","1","1","0","1","1","1","1","0","1","2","2","3","2","4","3","4","4","2","2","2","773203800659070978","张","504","","","","match","","","","","","","","","","","","","","key","f","16.673584905660597","683","380","f","true","match","img/diamond.png","菱形","菱形","ALT1","formal_ALT1_1","","","","","","","","","","","",""
"null","<span style='color:GreenYellow; font-size: 70px;'>正确! </span>","null","html-keyboard-response","112","371347","0.0-7.0-0.0-4.0-0.0-1.2","3","3","3","3","2","3","3","3","2","2","4","3","2","4","2","4","3","2","4","4","4","4","3","3","3","3","4","2","5","1","1","1","0","0","0","1","1","0","1","1","1","1","0","1","2","2","3","2","4","3","4","4","2","2","2","773203800659070978","张","504","","","","","","","","","","","","","","","","","","","","","","","","","","","","","","feedback_test","","","","","","","","","","","",""
"550","","f","psychophysics","113","372899","0.0-7.0-0.0-4.0-0.0-0.3","3","3","3","3","2","3","3","3","2","2","4","3","2","4","2","4","3","2","4","4","4","4","3","3","3","3","4","2","5","1","1","1","0","0","0","1","1","0","1","1","1","1","0","1","2","2","3","2","4","3","4","4","2","2","2","773203800659070978","张","504","","","","match","","","","","","","","","","","","","","key","f","16.67500000000038","683","380","f","true","match","img/circle.png","圆形","圆形","ALT1","formal_ALT1_1","","","","","","","","","","","",""
"null","<span style='color:GreenYellow; font-size: 70px;'>正确! </span>","null","html-keyboard-response","114","373400","0.0-7.0-0.0-4.0-0.0-1.3","3","3","3","3","2","3","3","3","2","2","4","3","2","4","2","4","3","2","4","4","4","4","3","3","3","3","4","2","5","1","1","1","0","0","0","1","1","0","1","1","1","1","0","1","2","2","3","2","4","3","4","4","2","2","2","773203800659070978","张","504","","","","","","","","","","","","","","","","","","","","","","","","","","","","","","feedback_test","","","","","","","","","","","",""
"939","","j","psychophysics","115","375341","0.0-7.0-0.0-4.0-0.0-0.4","3","3","3","3","2","3","3","3","2","2","4","3","2","4","2","4","3","2","4","4","4","4","3","3","3","3","4","2","5","1","1","1","0","0","0","1","1","0","1","1","1","1","0","1","2","2","3","2","4","3","4","4","2","2","2","773203800659070978","张","504","","","","nonmatch","","","","","","","","","","","","","","key","j","16.674137931034082","683","380","j","true","nonmatch","img/diamond.png","圆形","菱形","ALT1","formal_ALT1_1","","","","","","","","","","","",""
"null","<span style='color:GreenYellow; font-size: 70px;'>正确! </span>","null","html-keyboard-response","116","375842","0.0-7.0-0.0-4.0-0.0-1.4","3","3","3","3","2","3","3","3","2","2","4","3","2","4","2","4","3","2","4","4","4","4","3","3","3","3","4","2","5","1","1","1","0","0","0","1","1","0","1","1","1","1","0","1","2","2","3","2","4","3","4","4","2","2","2","773203800659070978","张","504","","","","","","","","","","","","","","","","","","","","","","","","","","","","","","feedback_test","","","","","","","","","","","",""
"636","","j","psychophysics","117","377479","0.0-7.0-0.0-4.0-0.0-0.5","3","3","3","3","2","3","3","3","2","2","4","3","2","4","2","4","3","2","4","4","4","4","3","3","3","3","4","2","5","1","1","1","0","0","0","1","1","0","1","1","1","1","0","1","2","2","3","2","4","3","4","4","2","2","2","773203800659070978","张","504","","","","nonmatch","","","","","","","","","","","","","","key","j","16.67422680412335","683","380","j","true","nonmatch","img/circle.png","梯形","圆形","ALT1","formal_ALT1_1","","","","","","","","","","","",""
"null","<span style='color:GreenYellow; font-size: 70px;'>正确! </span>","null","html-keyboard-response","118","377979","0.0-7.0-0.0-4.0-0.0-1.5","3","3","3","3","2","3","3","3","2","2","4","3","2","4","2","4","3","2","4","4","4","4","3","3","3","3","4","2","5","1","1","1","0","0","0","1","1","0","1","1","1","1","0","1","2","2","3","2","4","3","4","4","2","2","2","773203800659070978","张","504","","","","","","","","","","","","","","","","","","","","","","","","","","","","","","feedback_test","","","","","","","","","","","",""
"730","","f","psychophysics","119","379711","0.0-7.0-0.0-4.0-0.0-0.6","3","3","3","3","2","3","3","3","2","2","4","3","2","4","2","4","3","2","4","4","4","4","3","3","3","3","4","2","5","1","1","1","0","0","0","1","1","0","1","1","1","1","0","1","2","2","3","2","4","3","4","4","2","2","2","773203800659070978","张","504","","","","match","","","","","","","","","","","","","","key","f","16.673786407767217","683","380","f","true","match","img/trapezoid.png","梯形","梯形","ALT1","formal_ALT1_1","","","","","","","","","","","",""
"null","<span style='color:GreenYellow; font-size: 70px;'>正确! </span>","null","html-keyboard-response","120","380212","0.0-7.0-0.0-4.0-0.0-1.6","3","3","3","3","2","3","3","3","2","2","4","3","2","4","2","4","3","2","4","4","4","4","3","3","3","3","4","2","5","1","1","1","0","0","0","1","1","0","1","1","1","1","0","1","2","2","3","2","4","3","4","4","2","2","2","773203800659070978","张","504","","","","","","","","","","","","","","","","","","","","","","","","","","","","","","feedback_test","","","","","","","","","","","",""
"798","","f","psychophysics","121","382011","0.0-7.0-0.0-4.0-0.0-0.7","3","3","3","3","2","3","3","3","2","2","4","3","2","4","2","4","3","2","4","4","4","4","3","3","3","3","4","2","5","1","1","1","0","0","0","1","1","0","1","1","1","1","0","1","2","2","3","2","4","3","4","4","2","2","2","773203800659070978","张","504","","","","match","","","","","","","","","","","","","","key","f","16.673831775700716","683","380","f","true","match","img/diamond.png","菱形","菱形","ALT1","formal_ALT1_1","","","","","","","","","","","",""
"null","<span style='color:GreenYellow; font-size: 70px;'>正确! </span>","null","html-keyboard-response","122","382520","0.0-7.0-0.0-4.0-0.0-1.7","3","3","3","3","2","3","3","3","2","2","4","3","2","4","2","4","3","2","4","4","4","4","3","3","3","3","4","2","5","1","1","1","0","0","0","1","1","0","1","1","1","1","0","1","2","2","3","2","4","3","4","4","2","2","2","773203800659070978","张","504","","","","","","","","","","","","","","","","","","","","","","","","","","","","","","feedback_test","","","","","","","","","","","",""
"628","","f","psychophysics","123","384151","0.0-7.0-0.0-4.0-0.0-0.8","3","3","3","3","2","3","3","3","2","2","4","3","2","4","2","4","3","2","4","4","4","4","3","3","3","3","4","2","5","1","1","1","0","0","0","1","1","0","1","1","1","1","0","1","2","2","3","2","4","3","4","4","2","2","2","773203800659070978","张","504","","","","match","","","","","","","","","","","","","","key","f","16.67422680412395","683","380","f","true","match","img/trapezoid.png","梯形","梯形","ALT1","formal_ALT1_1","","","","","","","","","","","",""
"null","<span style='color:GreenYellow; font-size: 70px;'>正确! </span>","null","html-keyboard-response","124","384652","0.0-7.0-0.0-4.0-0.0-1.8","3","3","3","3","2","3","3","3","2","2","4","3","2","4","2","4","3","2","4","4","4","4","3","3","3","3","4","2","5","1","1","1","0","0","0","1","1","0","1","1","1","1","0","1","2","2","3","2","4","3","4","4","2","2","2","773203800659070978","张","504","","","","","","","","","","","","","","","","","","","","","","","","","","","","","","feedback_test","","","","","","","","","","","",""
"591","","f","psychophysics","125","386245","0.0-7.0-0.0-4.0-0.0-0.9","3","3","3","3","2","3","3","3","2","2","4","3","2","4","2","4","3","2","4","4","4","4","3","3","3","3","4","2","5","1","1","1","0","0","0","1","1","0","1","1","1","1","0","1","2","2","3","2","4","3","4","4","2","2","2","773203800659070978","张","504","","","","match","","","","","","","","","","","","","","key","f","16.672631578947","683","380","j","false","nonmatch","img/diamond.png","梯形","菱形","ALT1","formal_ALT1_1","","","","","","","","","","","",""
"null","<span style='color:red; font-size: 70px;'>错误! </span>","null","html-keyboard-response","126","386746","0.0-7.0-0.0-4.0-0.0-1.9","3","3","3","3","2","3","3","3","2","2","4","3","2","4","2","4","3","2","4","4","4","4","3","3","3","3","4","2","5","1","1","1","0","0","0","1","1","0","1","1","1","1","0","1","2","2","3","2","4","3","4","4","2","2","2","773203800659070978","张","504","","","","","","","","","","","","","","","","","","","","","","","","","","","","","","feedback_test","","","","","","","","","","","",""
"751","","j","psychophysics","127","388499","0.0-7.0-0.0-4.0-0.0-0.10","3","3","3","3","2","3","3","3","2","2","4","3","2","4","2","4","3","2","4","4","4","4","3","3","3","3","4","2","5","1","1","1","0","0","0","1","1","0","1","1","1","1","0","1","2","2","3","2","4","3","4","4","2","2","2","773203800659070978","张","504","","","","nonmatch","","","","","","","","","","","","","","key","j","16.674038461538238","683","380","j","true","nonmatch","img/trapezoid.png","菱形","梯形","ALT1","formal_ALT1_1","","","","","","","","","","","",""
"null","<span style='color:GreenYellow; font-size: 70px;'>正确! </span>","null","html-keyboard-response","128","389000","0.0-7.0-0.0-4.0-0.0-1.10","3","3","3","3","2","3","3","3","2","2","4","3","2","4","2","4","3","2","4","4","4","4","3","3","3","3","4","2","5","1","1","1","0","0","0","1","1","0","1","1","1","1","0","1","2","2","3","2","4","3","4","4","2","2","2","773203800659070978","张","504","","","","","","","","","","","","","","","","","","","","","","","","","","","","","","feedback_test","","","","","","","","","","","",""
"491","","f","psychophysics","129","390492","0.0-7.0-0.0-4.0-0.0-0.11","3","3","3","3","2","3","3","3","2","2","4","3","2","4","2","4","3","2","4","4","4","4","3","3","3","3","4","2","5","1","1","1","0","0","0","1","1","0","1","1","1","1","0","1","2","2","3","2","4","3","4","4","2","2","2","773203800659070978","张","504","","","","match","","","","","","","","","","","","","","key","f","16.676136363636363","683","380","f","true","match","img/circle.png","圆形","圆形","ALT1","formal_ALT1_1","","","","","","","","","","","",""
"null","<span style='color:GreenYellow; font-size: 70px;'>正确! </span>","null","html-keyboard-response","130","390993","0.0-7.0-0.0-4.0-0.0-1.11","3","3","3","3","2","3","3","3","2","2","4","3","2","4","2","4","3","2","4","4","4","4","3","3","3","3","4","2","5","1","1","1","0","0","0","1","1","0","1","1","1","1","0","1","2","2","3","2","4","3","4","4","2","2","2","773203800659070978","张","504","","","","","","","","","","","","","","","","","","","","","","","","","","","","","","feedback_test","","","","","","","","","","","",""
"743","","f","psychophysics","131","392737","0.0-7.0-0.0-4.0-0.0-0.12","3","3","3","3","2","3","3","3","2","2","4","3","2","4","2","4","3","2","4","4","4","4","3","3","3","3","4","2","5","1","1","1","0","0","0","1","1","0","1","1","1","1","0","1","2","2","3","2","4","3","4","4","2","2","2","773203800659070978","张","504","","","","match","","","","","","","","","","","","","","key","f","16.673786407767217","683","380","j","false","nonmatch","img/hexagon.png","菱形","六边","ALT1","formal_ALT1_1","","","","","","","","","","","",""
"null","<span style='color:red; font-size: 70px;'>错误! </span>","null","html-keyboard-response","132","393238","0.0-7.0-0.0-4.0-0.0-1.12","3","3","3","3","2","3","3","3","2","2","4","3","2","4","2","4","3","2","4","4","4","4","3","3","3","3","4","2","5","1","1","1","0","0","0","1","1","0","1","1","1","1","0","1","2","2","3","2","4","3","4","4","2","2","2","773203800659070978","张","504","","","","","","","","","","","","","","","","","","","","","","","","","","","","","","feedback_test","","","","","","","","","","","",""
"808","","j","psychophysics","133","395048","0.0-7.0-0.0-4.0-0.0-0.13","3","3","3","3","2","3","3","3","2","2","4","3","2","4","2","4","3","2","4","4","4","4","3","3","3","3","4","2","5","1","1","1","0","0","0","1","1","0","1","1","1","1","0","1","2","2","3","2","4","3","4","4","2","2","2","773203800659070978","张","504","","","","nonmatch","","","","","","","","","","","","","","key","j","16.674074074073967","683","380","j","true","nonmatch","img/trapezoid.png","六边","梯形","ALT1","formal_ALT1_1","","","","","","","","","","","",""
"null","<span style='color:GreenYellow; font-size: 70px;'>正确! </span>","null","html-keyboard-response","134","395551","0.0-7.0-0.0-4.0-0.0-1.13","3","3","3","3","2","3","3","3","2","2","4","3","2","4","2","4","3","2","4","4","4","4","3","3","3","3","4","2","5","1","1","1","0","0","0","1","1","0","1","1","1","1","0","1","2","2","3","2","4","3","4","4","2","2","2","773203800659070978","张","504","","","","","","","","","","","","","","","","","","","","","","","","","","","","","","feedback_test","","","","","","","","","","","",""
"548","","f","psychophysics","135","397100","0.0-7.0-0.0-4.0-0.0-0.14","3","3","3","3","2","3","3","3","2","2","4","3","2","4","2","4","3","2","4","4","4","4","3","3","3","3","4","2","5","1","1","1","0","0","0","1","1","0","1","1","1","1","0","1","2","2","3","2","4","3","4","4","2","2","2","773203800659070978","张","504","","","","match","","","","","","","","","","","","","","key","f","16.672826086956142","683","380","f","true","match","img/circle.png","圆形","圆形","ALT1","formal_ALT1_1","","","","","","","","","","","",""
"null","<span style='color:GreenYellow; font-size: 70px;'>正确! </span>","null","html-keyboard-response","136","397601","0.0-7.0-0.0-4.0-0.0-1.14","3","3","3","3","2","3","3","3","2","2","4","3","2","4","2","4","3","2","4","4","4","4","3","3","3","3","4","2","5","1","1","1","0","0","0","1","1","0","1","1","1","1","0","1","2","2","3","2","4","3","4","4","2","2","2","773203800659070978","张","504","","","","","","","","","","","","","","","","","","","","","","","","","","","","","","feedback_test","","","","","","","","","","","",""
"536","","f","psychophysics","137","399139","0.0-7.0-0.0-4.0-0.0-0.15","3","3","3","3","2","3","3","3","2","2","4","3","2","4","2","4","3","2","4","4","4","4","3","3","3","3","4","2","5","1","1","1","0","0","0","1","1","0","1","1","1","1","0","1","2","2","3","2","4","3","4","4","2","2","2","773203800659070978","张","504","","","","match","","","","","","","","","","","","","","key","f","16.675824175824175","683","380","f","true","match","img/hexagon.png","六边","六边","ALT1","formal_ALT1_1","","","","","","","","","","","",""
"null","<span style='color:GreenYellow; font-size: 70px;'>正确! </span>","null","html-keyboard-response","138","399641","0.0-7.0-0.0-4.0-0.0-1.15","3","3","3","3","2","3","3","3","2","2","4","3","2","4","2","4","3","2","4","4","4","4","3","3","3","3","4","2","5","1","1","1","0","0","0","1","1","0","1","1","1","1","0","1","2","2","3","2","4","3","4","4","2","2","2","773203800659070978","张","504","","","","","","","","","","","","","","","","","","","","","","","","","","","","","","feedback_test","","","","","","","","","","","",""
"596","","f","psychophysics","139","401238","0.0-7.0-0.0-4.0-0.0-0.16","3","3","3","3","2","3","3","3","2","2","4","3","2","4","2","4","3","2","4","4","4","4","3","3","3","3","4","2","5","1","1","1","0","0","0","1","1","0","1","1","1","1","0","1","2","2","3","2","4","3","4","4","2","2","2","773203800659070978","张","504","","","","match","","","","","","","","","","","","","","key","f","16.673684210526314","683","380","f","true","match","img/hexagon.png","六边","六边","ALT1","formal_ALT1_1","","","","","","","","","","","",""
"null","<span style='color:GreenYellow; font-size: 70px;'>正确! </span>","null","html-keyboard-response","140","401739","0.0-7.0-0.0-4.0-0.0-1.16","3","3","3","3","2","3","3","3","2","2","4","3","2","4","2","4","3","2","4","4","4","4","3","3","3","3","4","2","5","1","1","1","0","0","0","1","1","0","1","1","1","1","0","1","2","2","3","2","4","3","4","4","2","2","2","773203800659070978","张","504","","","","","","","","","","","","","","","","","","","","","","","","","","","","","","feedback_test","","","","","","","","","","","",""
"612","","j","psychophysics","141","403354","0.0-7.0-0.0-4.0-0.0-0.17","3","3","3","3","2","3","3","3","2","2","4","3","2","4","2","4","3","2","4","4","4","4","3","3","3","3","4","2","5","1","1","1","0","0","0","1","1","0","1","1","1","1","0","1","2","2","3","2","4","3","4","4","2","2","2","773203800659070978","张","504","","","","nonmatch","","","","","","","","","","","","","","key","j","16.67083333333297","683","380","j","true","nonmatch","img/trapezoid.png","圆形","梯形","ALT1","formal_ALT1_1","","","","","","","","","","","",""
"null","<span style='color:GreenYellow; font-size: 70px;'>正确! </span>","null","html-keyboard-response","142","403856","0.0-7.0-0.0-4.0-0.0-1.17","3","3","3","3","2","3","3","3","2","2","4","3","2","4","2","4","3","2","4","4","4","4","3","3","3","3","4","2","5","1","1","1","0","0","0","1","1","0","1","1","1","1","0","1","2","2","3","2","4","3","4","4","2","2","2","773203800659070978","张","504","","","","","","","","","","","","","","","","","","","","","","","","","","","","","","feedback_test","","","","","","","","","","","",""
"768","","f","psychophysics","143","405626","0.0-7.0-0.0-4.0-0.0-0.18","3","3","3","3","2","3","3","3","2","2","4","3","2","4","2","4","3","2","4","4","4","4","3","3","3","3","4","2","5","1","1","1","0","0","0","1","1","0","1","1","1","1","0","1","2","2","3","2","4","3","4","4","2","2","2","773203800659070978","张","504","","","","match","","","","","","","","","","","","","","key","f","16.673333333333446","683","380","f","true","match","img/trapezoid.png","梯形","梯形","ALT1","formal_ALT1_1","","","","","","","","","","","",""
"null","<span style='color:GreenYellow; font-size: 70px;'>正确! </span>","null","html-keyboard-response","144","406128","0.0-7.0-0.0-4.0-0.0-1.18","3","3","3","3","2","3","3","3","2","2","4","3","2","4","2","4","3","2","4","4","4","4","3","3","3","3","4","2","5","1","1","1","0","0","0","1","1","0","1","1","1","1","0","1","2","2","3","2","4","3","4","4","2","2","2","773203800659070978","张","504","","","","","","","","","","","","","","","","","","","","","","","","","","","","","","feedback_test","","","","","","","","","","","",""
"544","","f","psychophysics","145","407675","0.0-7.0-0.0-4.0-0.0-0.19","3","3","3","3","2","3","3","3","2","2","4","3","2","4","2","4","3","2","4","4","4","4","3","3","3","3","4","2","5","1","1","1","0","0","0","1","1","0","1","1","1","1","0","1","2","2","3","2","4","3","4","4","2","2","2","773203800659070978","张","504","","","","match","","","","","","","","","","","","","","key","f","16.67500000000038","683","380","f","true","match","img/hexagon.png","六边","六边","ALT1","formal_ALT1_1","","","","","","","","","","","",""
"null","<span style='color:GreenYellow; font-size: 70px;'>正确! </span>","null","html-keyboard-response","146","408176","0.0-7.0-0.0-4.0-0.0-1.19","3","3","3","3","2","3","3","3","2","2","4","3","2","4","2","4","3","2","4","4","4","4","3","3","3","3","4","2","5","1","1","1","0","0","0","1","1","0","1","1","1","1","0","1","2","2","3","2","4","3","4","4","2","2","2","773203800659070978","张","504","","","","","","","","","","","","","","","","","","","","","","","","","","","","","","feedback_test","","","","","","","","","","","",""
"615","","j","psychophysics","147","409792","0.0-7.0-0.0-4.0-0.0-0.20","3","3","3","3","2","3","3","3","2","2","4","3","2","4","2","4","3","2","4","4","4","4","3","3","3","3","4","2","5","1","1","1","0","0","0","1","1","0","1","1","1","1","0","1","2","2","3","2","4","3","4","4","2","2","2","773203800659070978","张","504","","","","nonmatch","","","","","","","","","","","","","","key","j","16.67395833333285","683","380","j","true","nonmatch","img/hexagon.png","圆形","六边","ALT1","formal_ALT1_1","","","","","","","","","","","",""
"null","<span style='color:GreenYellow; font-size: 70px;'>正确! </span>","null","html-keyboard-response","148","410293","0.0-7.0-0.0-4.0-0.0-1.20","3","3","3","3","2","3","3","3","2","2","4","3","2","4","2","4","3","2","4","4","4","4","3","3","3","3","4","2","5","1","1","1","0","0","0","1","1","0","1","1","1","1","0","1","2","2","3","2","4","3","4","4","2","2","2","773203800659070978","张","504","","","","","","","","","","","","","","","","","","","","","","","","","","","","","","feedback_test","","","","","","","","","","","",""
"863","","j","psychophysics","149","412157","0.0-7.0-0.0-4.0-0.0-0.21","3","3","3","3","2","3","3","3","2","2","4","3","2","4","2","4","3","2","4","4","4","4","3","3","3","3","4","2","5","1","1","1","0","0","0","1","1","0","1","1","1","1","0","1","2","2","3","2","4","3","4","4","2","2","2","773203800659070978","张","504","","","","nonmatch","","","","","","","","","","","","","","key","j","16.67387387387377","683","380","j","true","nonmatch","img/diamond.png","六边","菱形","ALT1","formal_ALT1_1","","","","","","","","","","","",""
"null","<span style='color:GreenYellow; font-size: 70px;'>正确! </span>","null","html-keyboard-response","150","412659","0.0-7.0-0.0-4.0-0.0-1.21","3","3","3","3","2","3","3","3","2","2","4","3","2","4","2","4","3","2","4","4","4","4","3","3","3","3","4","2","5","1","1","1","0","0","0","1","1","0","1","1","1","1","0","1","2","2","3","2","4","3","4","4","2","2","2","773203800659070978","张","504","","","","","","","","","","","","","","","","","","","","","","","","","","","","","","feedback_test","","","","","","","","","","","",""
"751","","f","psychophysics","151","414411","0.0-7.0-0.0-4.0-0.0-0.22","3","3","3","3","2","3","3","3","2","2","4","3","2","4","2","4","3","2","4","4","4","4","3","3","3","3","4","2","5","1","1","1","0","0","0","1","1","0","1","1","1","1","0","1","2","2","3","2","4","3","4","4","2","2","2","773203800659070978","张","504","","","","match","","","","","","","","","","","","","","key","f","16.673076923076923","683","380","f","true","match","img/diamond.png","菱形","菱形","ALT1","formal_ALT1_1","","","","","","","","","","","",""
"null","<span style='color:GreenYellow; font-size: 70px;'>正确! </span>","null","html-keyboard-response","152","414913","0.0-7.0-0.0-4.0-0.0-1.22","3","3","3","3","2","3","3","3","2","2","4","3","2","4","2","4","3","2","4","4","4","4","3","3","3","3","4","2","5","1","1","1","0","0","0","1","1","0","1","1","1","1","0","1","2","2","3","2","4","3","4","4","2","2","2","773203800659070978","张","504","","","","","","","","","","","","","","","","","","","","","","","","","","","","","","feedback_test","","","","","","","","","","","",""
"742","","j","psychophysics","153","416656","0.0-7.0-0.0-4.0-0.0-0.23","3","3","3","3","2","3","3","3","2","2","4","3","2","4","2","4","3","2","4","4","4","4","3","3","3","3","4","2","5","1","1","1","0","0","0","1","1","0","1","1","1","1","0","1","2","2","3","2","4","3","4","4","2","2","2","773203800659070978","张","504","","","","nonmatch","","","","","","","","","","","","","","key","j","16.67211538461561","683","380","j","true","nonmatch","img/circle.png","六边","圆形","ALT1","formal_ALT1_1","","","","","","","","","","","",""
"null","<span style='color:GreenYellow; font-size: 70px;'>正确! </span>","null","html-keyboard-response","154","417159","0.0-7.0-0.0-4.0-0.0-1.23","3","3","3","3","2","3","3","3","2","2","4","3","2","4","2","4","3","2","4","4","4","4","3","3","3","3","4","2","5","1","1","1","0","0","0","1","1","0","1","1","1","1","0","1","2","2","3","2","4","3","4","4","2","2","2","773203800659070978","张","504","","","","","","","","","","","","","","","","","","","","","","","","","","","","","","feedback_test","","","","","","","","","","","",""
"865","","j","psychophysics","155","419025","0.0-7.0-0.0-4.0-0.0-0.24","3","3","3","3","2","3","3","3","2","2","4","3","2","4","2","4","3","2","4","4","4","4","3","3","3","3","4","2","5","1","1","1","0","0","0","1","1","0","1","1","1","1","0","1","2","2","3","2","4","3","4","4","2","2","2","773203800659070978","张","504","","","","nonmatch","","","","","","","","","","","","","","key","j","16.674774774774985","683","380","j","true","nonmatch","img/trapezoid.png","菱形","梯形","ALT1","formal_ALT1_1","","","","","","","","","","","",""
"null","<span style='color:GreenYellow; font-size: 70px;'>正确! </span>","null","html-keyboard-response","156","419527","0.0-7.0-0.0-4.0-0.0-1.24","3","3","3","3","2","3","3","3","2","2","4","3","2","4","2","4","3","2","4","4","4","4","3","3","3","3","4","2","5","1","1","1","0","0","0","1","1","0","1","1","1","1","0","1","2","2","3","2","4","3","4","4","2","2","2","773203800659070978","张","504","","","","","","","","","","","","","","","","","","","","","","","","","","","","","","feedback_test","","","","","","","","","","","",""
"602","","f","psychophysics","157","421130","0.0-7.0-0.0-4.0-0.0-0.25","3","3","3","3","2","3","3","3","2","2","4","3","2","4","2","4","3","2","4","4","4","4","3","3","3","3","4","2","5","1","1","1","0","0","0","1","1","0","1","1","1","1","0","1","2","2","3","2","4","3","4","4","2","2","2","773203800659070978","张","504","","","","match","","","","","","","","","","","","","","key","f","16.67473684210502","683","380","f","true","match","img/trapezoid.png","梯形","梯形","ALT1","formal_ALT1_1","","","","","","","","","","","",""
"null","<span style='color:GreenYellow; font-size: 70px;'>正确! </span>","null","html-keyboard-response","158","421647","0.0-7.0-0.0-4.0-0.0-1.25","3","3","3","3","2","3","3","3","2","2","4","3","2","4","2","4","3","2","4","4","4","4","3","3","3","3","4","2","5","1","1","1","0","0","0","1","1","0","1","1","1","1","0","1","2","2","3","2","4","3","4","4","2","2","2","773203800659070978","张","504","","","","","","","","","","","","","","","","","","","","","","","","","","","","","","feedback_test","","","","","","","","","","","",""
"817","","j","psychophysics","159","423473","0.0-7.0-0.0-4.0-0.0-0.26","3","3","3","3","2","3","3","3","2","2","4","3","2","4","2","4","3","2","4","4","4","4","3","3","3","3","4","2","5","1","1","1","0","0","0","1","1","0","1","1","1","1","0","1","2","2","3","2","4","3","4","4","2","2","2","773203800659070978","张","504","","","","nonmatch","","","","","","","","","","","","","","key","j","16.675925925925927","683","380","j","true","nonmatch","img/hexagon.png","梯形","六边","ALT1","formal_ALT1_1","","","","","","","","","","","",""
"null","<span style='color:GreenYellow; font-size: 70px;'>正确! </span>","null","html-keyboard-response","160","423975","0.0-7.0-0.0-4.0-0.0-1.26","3","3","3","3","2","3","3","3","2","2","4","3","2","4","2","4","3","2","4","4","4","4","3","3","3","3","4","2","5","1","1","1","0","0","0","1","1","0","1","1","1","1","0","1","2","2","3","2","4","3","4","4","2","2","2","773203800659070978","张","504","","","","","","","","","","","","","","","","","","","","","","","","","","","","","","feedback_test","","","","","","","","","","","",""
"778","","f","psychophysics","161","425755","0.0-7.0-0.0-4.0-0.0-0.27","3","3","3","3","2","3","3","3","2","2","4","3","2","4","2","4","3","2","4","4","4","4","3","3","3","3","4","2","5","1","1","1","0","0","0","1","1","0","1","1","1","1","0","1","2","2","3","2","4","3","4","4","2","2","2","773203800659070978","张","504","","","","match","","","","","","","","","","","","","","key","f","16.675238095238317","683","380","f","true","match","img/circle.png","圆形","圆形","ALT1","formal_ALT1_1","","","","","","","","","","","",""
"null","<span style='color:GreenYellow; font-size: 70px;'>正确! </span>","null","html-keyboard-response","162","426256","0.0-7.0-0.0-4.0-0.0-1.27","3","3","3","3","2","3","3","3","2","2","4","3","2","4","2","4","3","2","4","4","4","4","3","3","3","3","4","2","5","1","1","1","0","0","0","1","1","0","1","1","1","1","0","1","2","2","3","2","4","3","4","4","2","2","2","773203800659070978","张","504","","","","","","","","","","","","","","","","","","","","","","","","","","","","","","feedback_test","","","","","","","","","","","",""
"840","","f","psychophysics","163","428097","0.0-7.0-0.0-4.0-0.0-0.28","3","3","3","3","2","3","3","3","2","2","4","3","2","4","2","4","3","2","4","4","4","4","3","3","3","3","4","2","5","1","1","1","0","0","0","1","1","0","1","1","1","1","0","1","2","2","3","2","4","3","4","4","2","2","2","773203800659070978","张","504","","","","match","","","","","","","","","","","","","","key","f","16.67064220183465","683","380","j","false","nonmatch","img/diamond.png","梯形","菱形","ALT1","formal_ALT1_1","","","","","","","","","","","",""
"null","<span style='color:red; font-size: 70px;'>错误! </span>","null","html-keyboard-response","164","428598","0.0-7.0-0.0-4.0-0.0-1.28","3","3","3","3","2","3","3","3","2","2","4","3","2","4","2","4","3","2","4","4","4","4","3","3","3","3","4","2","5","1","1","1","0","0","0","1","1","0","1","1","1","1","0","1","2","2","3","2","4","3","4","4","2","2","2","773203800659070978","张","504","","","","","","","","","","","","","","","","","","","","","","","","","","","","","","feedback_test","","","","","","","","","","","",""
"630","","f","psychophysics","165","430230","0.0-7.0-0.0-4.0-0.0-0.29","3","3","3","3","2","3","3","3","2","2","4","3","2","4","2","4","3","2","4","4","4","4","3","3","3","3","4","2","5","1","1","1","0","0","0","1","1","0","1","1","1","1","0","1","2","2","3","2","4","3","4","4","2","2","2","773203800659070978","张","504","","","","match","","","","","","","","","","","","","","key","f","16.67319587628854","683","380","f","true","match","img/circle.png","圆形","圆形","ALT1","formal_ALT1_1","","","","","","","","","","","",""
"null","<span style='color:GreenYellow; font-size: 70px;'>正确! </span>","null","html-keyboard-response","166","430731","0.0-7.0-0.0-4.0-0.0-1.29","3","3","3","3","2","3","3","3","2","2","4","3","2","4","2","4","3","2","4","4","4","4","3","3","3","3","4","2","5","1","1","1","0","0","0","1","1","0","1","1","1","1","0","1","2","2","3","2","4","3","4","4","2","2","2","773203800659070978","张","504","","","","","","","","","","","","","","","","","","","","","","","","","","","","","","feedback_test","","","","","","","","","","","",""
"884","","j","psychophysics","167","432616","0.0-7.0-0.0-4.0-0.0-0.30","3","3","3","3","2","3","3","3","2","2","4","3","2","4","2","4","3","2","4","4","4","4","3","3","3","3","4","2","5","1","1","1","0","0","0","1","1","0","1","1","1","1","0","1","2","2","3","2","4","3","4","4","2","2","2","773203800659070978","张","504","","","","nonmatch","","","","","","","","","","","","","","key","j","16.675000000000313","683","380","j","true","nonmatch","img/hexagon.png","菱形","六边","ALT1","formal_ALT1_1","","","","","","","","","","","",""
"null","<span style='color:GreenYellow; font-size: 70px;'>正确! </span>","null","html-keyboard-response","168","433117","0.0-7.0-0.0-4.0-0.0-1.30","3","3","3","3","2","3","3","3","2","2","4","3","2","4","2","4","3","2","4","4","4","4","3","3","3","3","4","2","5","1","1","1","0","0","0","1","1","0","1","1","1","1","0","1","2","2","3","2","4","3","4","4","2","2","2","773203800659070978","张","504","","","","","","","","","","","","","","","","","","","","","","","","","","","","","","feedback_test","","","","","","","","","","","",""
"850","","j","psychophysics","169","434968","0.0-7.0-0.0-4.0-0.0-0.31","3","3","3","3","2","3","3","3","2","2","4","3","2","4","2","4","3","2","4","4","4","4","3","3","3","3","4","2","5","1","1","1","0","0","0","1","1","0","1","1","1","1","0","1","2","2","3","2","4","3","4","4","2","2","2","773203800659070978","张","504","","","","nonmatch","","","","","","","","","","","","","","key","j","16.67454545454556","683","380","j","true","nonmatch","img/hexagon.png","圆形","六边","ALT1","formal_ALT1_1","","","","","","","","","","","",""
"null","<span style='color:GreenYellow; font-size: 70px;'>正确! </span>","null","html-keyboard-response","170","435470","0.0-7.0-0.0-4.0-0.0-1.31","3","3","3","3","2","3","3","3","2","2","4","3","2","4","2","4","3","2","4","4","4","4","3","3","3","3","4","2","5","1","1","1","0","0","0","1","1","0","1","1","1","1","0","1","2","2","3","2","4","3","4","4","2","2","2","773203800659070978","张","504","","","","","","","","","","","","","","","","","","","","","","","","","","","","","","feedback_test","","","","","","","","","","","",""
"680","","f","psychophysics","171","437153","0.0-7.0-0.0-4.0-0.0-0.32","3","3","3","3","2","3","3","3","2","2","4","3","2","4","2","4","3","2","4","4","4","4","3","3","3","3","4","2","5","1","1","1","0","0","0","1","1","0","1","1","1","1","0","1","2","2","3","2","4","3","4","4","2","2","2","773203800659070978","张","504","","","","match","","","","","","","","","","","","","","key","f","16.675","683","380","f","true","match","img/hexagon.png","六边","六边","ALT1","formal_ALT1_1","","","","","","","","","","","",""
"null","<span style='color:GreenYellow; font-size: 70px;'>正确! </span>","null","html-keyboard-response","172","437654","0.0-7.0-0.0-4.0-0.0-1.32","3","3","3","3","2","3","3","3","2","2","4","3","2","4","2","4","3","2","4","4","4","4","3","3","3","3","4","2","5","1","1","1","0","0","0","1","1","0","1","1","1","1","0","1","2","2","3","2","4","3","4","4","2","2","2","773203800659070978","张","504","","","","","","","","","","","","","","","","","","","","","","","","","","","","","","feedback_test","","","","","","","","","","","",""
"745","","j","psychophysics","173","439402","0.0-7.0-0.0-4.0-0.0-0.33","3","3","3","3","2","3","3","3","2","2","4","3","2","4","2","4","3","2","4","4","4","4","3","3","3","3","4","2","5","1","1","1","0","0","0","1","1","0","1","1","1","1","0","1","2","2","3","2","4","3","4","4","2","2","2","773203800659070978","张","504","","","","nonmatch","","","","","","","","","","","","","","key","j","16.67500000000011","683","380","j","true","nonmatch","img/trapezoid.png","圆形","梯形","ALT1","formal_ALT1_1","","","","","","","","","","","",""
"null","<span style='color:GreenYellow; font-size: 70px;'>正确! </span>","null","html-keyboard-response","174","439903","0.0-7.0-0.0-4.0-0.0-1.33","3","3","3","3","2","3","3","3","2","2","4","3","2","4","2","4","3","2","4","4","4","4","3","3","3","3","4","2","5","1","1","1","0","0","0","1","1","0","1","1","1","1","0","1","2","2","3","2","4","3","4","4","2","2","2","773203800659070978","张","504","","","","","","","","","","","","","","","","","","","","","","","","","","","","","","feedback_test","","","","","","","","","","","",""
"663","","j","psychophysics","175","441567","0.0-7.0-0.0-4.0-0.0-0.34","3","3","3","3","2","3","3","3","2","2","4","3","2","4","2","4","3","2","4","4","4","4","3","3","3","3","4","2","5","1","1","1","0","0","0","1","1","0","1","1","1","1","0","1","2","2","3","2","4","3","4","4","2","2","2","773203800659070978","张","504","","","","nonmatch","","","","","","","","","","","","","","key","j","16.674747474747356","683","380","j","true","nonmatch","img/trapezoid.png","六边","梯形","ALT1","formal_ALT1_1","","","","","","","","","","","",""
"null","<span style='color:GreenYellow; font-size: 70px;'>正确! </span>","null","html-keyboard-response","176","442069","0.0-7.0-0.0-4.0-0.0-1.34","3","3","3","3","2","3","3","3","2","2","4","3","2","4","2","4","3","2","4","4","4","4","3","3","3","3","4","2","5","1","1","1","0","0","0","1","1","0","1","1","1","1","0","1","2","2","3","2","4","3","4","4","2","2","2","773203800659070978","张","504","","","","","","","","","","","","","","","","","","","","","","","","","","","","","","feedback_test","","","","","","","","","","","",""
"940","","f","psychophysics","177","444010","0.0-7.0-0.0-4.0-0.0-0.35","3","3","3","3","2","3","3","3","2","2","4","3","2","4","2","4","3","2","4","4","4","4","3","3","3","3","4","2","5","1","1","1","0","0","0","1","1","0","1","1","1","1","0","1","2","2","3","2","4","3","4","4","2","2","2","773203800659070978","张","504","","","","match","","","","","","","","","","","","","","key","f","16.672173913043377","683","380","f","true","match","img/diamond.png","菱形","菱形","ALT1","formal_ALT1_1","","","","","","","","","","","",""
"null","<span style='color:GreenYellow; font-size: 70px;'>正确! </span>","null","html-keyboard-response","178","444511","0.0-7.0-0.0-4.0-0.0-1.35","3","3","3","3","2","3","3","3","2","2","4","3","2","4","2","4","3","2","4","4","4","4","3","3","3","3","4","2","5","1","1","1","0","0","0","1","1","0","1","1","1","1","0","1","2","2","3","2","4","3","4","4","2","2","2","773203800659070978","张","504","","","","","","","","","","","","","","","","","","","","","","","","","","","","","","feedback_test","","","","","","","","","","","",""
"632","","f","psychophysics","179","446144","0.0-7.0-0.0-4.0-0.0-0.36","3","3","3","3","2","3","3","3","2","2","4","3","2","4","2","4","3","2","4","4","4","4","3","3","3","3","4","2","5","1","1","1","0","0","0","1","1","0","1","1","1","1","0","1","2","2","3","2","4","3","4","4","2","2","2","773203800659070978","张","504","","","","match","","","","","","","","","","","","","","key","f","16.676288659793574","683","380","f","true","match","img/hexagon.png","六边","六边","ALT1","formal_ALT1_1","","","","","","","","","","","",""
"null","<span style='color:GreenYellow; font-size: 70px;'>正确! </span>","null","html-keyboard-response","180","446646","0.0-7.0-0.0-4.0-0.0-1.36","3","3","3","3","2","3","3","3","2","2","4","3","2","4","2","4","3","2","4","4","4","4","3","3","3","3","4","2","5","1","1","1","0","0","0","1","1","0","1","1","1","1","0","1","2","2","3","2","4","3","4","4","2","2","2","773203800659070978","张","504","","","","","","","","","","","","","","","","","","","","","","","","","","","","","","feedback_test","","","","","","","","","","","",""
"806","","j","psychophysics","181","448453","0.0-7.0-0.0-4.0-0.0-0.37","3","3","3","3","2","3","3","3","2","2","4","3","2","4","2","4","3","2","4","4","4","4","3","3","3","3","4","2","5","1","1","1","0","0","0","1","1","0","1","1","1","1","0","1","2","2","3","2","4","3","4","4","2","2","2","773203800659070978","张","504","","","","nonmatch","","","","","","","","","","","","","","key","j","16.674074074074504","683","380","j","true","nonmatch","img/diamond.png","圆形","菱形","ALT1","formal_ALT1_1","","","","","","","","","","","",""
