"rt","stimulus","response","trial_type","trial_index","time_elapsed","internal_node_id","ses_1","ses_2","ses_3","ses_4","ses_5","ses_6","ses_7","ses_8","ses_9","ses_10","coreself_1","coreself_2","coreself_3","coreself_4","coreself_5","coreself_6","coreself_7","coreself_8","coreself_9","coreself_10","SGPS_1","SGPS_2","SGPS_3","SGPS_4","SGPS_5","SGPS_6","SGPS_7","SGPS_8","SGPS_9","NPI1","NPI2","NPI3","NPI4","NPI5","NPI6","NPI7","NPI8","NPI9","NPI10","NPI11","NPI12","NPI13","NPI14","NPI15","hsns_1","hsns_2","hsns_3","hsns_4","hsns_5","trap1","hsns_6","hsns_7","hsns_8","hsns_9","hsns_10","subj_idx","friend_name","ParticipantID","value","success","user_agent","responses","item_order","radio_event_ids","radio_event_times","key_event_times","mouse_event_times","straightlining","zigzagging","honeypot","timeout","failed_images","failed_audio","failed_video","view_history","response_type","key_press","avg_frame_time","center_x","center_y","correct_response","correct","identity","Image","word","condition","task_id","screen_id","time_stamp","version_attrib","version_target","IAT","RT","varname","summary","version_attrib2","version_target2","question_order","correct_answer","trap1_item"
"17629","
   <p><div style = ""color: white;font-size:25px;"">您好，欢迎参加本次实验。</div> </p>
   <p><div style = ""color: white;font-size:25px;"">为充分保障您的权利，请确保您已经知晓并同意《参与实验同意书》以及《数据公开知情同意书》。</div></p>
   <p><div style = ""color: white;font-size:25px;"">如果您未见过上述内容，请咨询实验员。</div></p>
   <p><div style = ""color: white;font-size:25px;"">如果您选择继续实验，则表示您已经清楚两份知情同意书的内容并同意。</div></p>
   <p><div style = ""color: pink;font-size:30px;"">请确保您记得day0的实验编号，您将在本次实验输入该编号，若您忘记，请咨询实验员后作答。</div></p>
   <p><div style = ""color: lightblue;font-size:25px;"">请您尽可能认真地作答，我们将依据您在各问卷和按键任务中的作答质量发放报酬。</div></p>
   <p> <div style = ""color: green;font-size:25px;""><按空格键至下页></div> </p>
   "," ","html-keyboard-response","0","17631","0.0-0.0","4","4","4","4","4","4","4","3","4","4","5","5","5","5","5","5","5","5","5","5","1","1","1","1","1","1","1","1","1","0","0","1","1","0","0","0","1","0","1","1","0","1","0","1","5","1","1","2","2","","1","2","1","4","1","621383779721674752","周","466","","","","","","","","","","","","","","","","","","","","","","","","","","","","","","","","","","","","","","","","","",""
"","","","call-function","1","17631","0.0-1.0-0.0","4","4","4","4","4","4","4","3","4","4","5","5","5","5","5","5","5","5","5","5","1","1","1","1","1","1","1","1","1","0","0","1","1","0","0","0","1","0","1","1","0","1","0","1","5","1","1","2","2","","1","2","1","4","1","621383779721674752","周","466","","","","","","","","","","","","","","","","","","","","","","","","","","","","","","","","","","","","","","","","","",""
"20607","","{""friend_name"":""周"",""ParticipantID"":""466""}","survey-html-form","2","38239","0.0-1.0-1.0","4","4","4","4","4","4","4","3","4","4","5","5","5","5","5","5","5","5","5","5","1","1","1","1","1","1","1","1","1","0","0","1","1","0","0","0","1","0","1","1","0","1","0","1","5","1","1","2","2","","1","2","1","4","1","621383779721674752","周","466","","","","","","","","","","","","","","","","","","","","","","","","","","","","","","","","","","","","","","","","","",""
"","","","fullscreen","3","39340","0.0-2.0","4","4","4","4","4","4","4","3","4","4","5","5","5","5","5","5","5","5","5","5","1","1","1","1","1","1","1","1","1","0","0","1","1","0","0","0","1","0","1","1","0","1","0","1","5","1","1","2","2","","1","2","1","4","1","621383779721674752","周","466","","true","{}","","","","","","","","","","","","","","","","","","","","","","","","","","","","","","","","","","","","","","",""
"21658.19999885559","","{""Q01"":""4"",""Q02"":""4"",""Q03"":""4"",""Q04"":""4"",""Q05"":""4"",""Q06"":""4"",""Q07"":""4"",""Q08"":""3"",""Q09"":""4"",""Q10"":""4""}","survey-template","4","60999","0.0-3.0","4","4","4","4","4","4","4","3","4","4","5","5","5","5","5","5","5","5","5","5","1","1","1","1","1","1","1","1","1","0","0","1","1","0","0","0","1","0","1","1","0","1","0","1","5","1","1","2","2","","1","2","1","4","1","621383779721674752","周","466","","","","{""Q01"":""4"",""Q02"":""4"",""Q03"":""4"",""Q04"":""4"",""Q05"":""4"",""Q06"":""4"",""Q07"":""4"",""Q08"":""3"",""Q09"":""4"",""Q10"":""4""}","[0,1,2,3,4,5,6,7,8,9]","[""Q01"",""Q02"",""Q03"",""Q04"",""Q05"",""Q06"",""Q06"",""Q07"",""Q07"",""Q08"",""Q09"",""Q10""]","[9905.69999885559,11409.39999961853,12249.5,13441.5,14657.79999923706,16049.39999961853,16257.5,16785.60000038147,16969.60000038147,18593.5,19345.5,19937.29999923706]","[]","[9905.69999885559,11409.39999961853,12249.5,13441.5,14657.79999923706,16049.39999961853,16257.5,16785.60000038147,16969.60000038147,18593.5,19345.5,19658.5,19937.29999923706,21657.5]","0.5","0.5555555555555556","0","","","","","","","","","","","","","","","","","","","","","","","","","","","","","",""
"13484.39999961853","","{""Q01"":""5"",""Q02"":""5"",""Q03"":""5"",""Q04"":""5"",""Q05"":""5"",""Q06"":""5"",""Q07"":""5"",""Q08"":""5"",""Q09"":""5"",""Q10"":""5""}","survey-template","5","74487","0.0-4.0","4","4","4","4","4","4","4","3","4","4","5","5","5","5","5","5","5","5","5","5","1","1","1","1","1","1","1","1","1","0","0","1","1","0","0","0","1","0","1","1","0","1","0","1","5","1","1","2","2","","1","2","1","4","1","621383779721674752","周","466","","","","{""Q01"":""5"",""Q02"":""5"",""Q03"":""5"",""Q04"":""5"",""Q05"":""5"",""Q06"":""5"",""Q07"":""5"",""Q08"":""5"",""Q09"":""5"",""Q10"":""5""}","[0,1,2,3,4,5,6,7,8,9]","[""Q01"",""Q02"",""Q03"",""Q04"",""Q05"",""Q06"",""Q07"",""Q08"",""Q09"",""Q10""]","[1548.1000003814697,2635.6000003814697,3237.8999996185303,4052.8999996185303,5059.299999237061,6267.39999961853,7643.39999961853,8371.5,9395.69999885559,11804.19999885559]","[]","[1548.1000003814697,2635.6000003814697,3237.8999996185303,4052.8999996185303,5059.299999237061,6267.39999961853,7387.60000038147,7643.39999961853,7972.199998855591,8371.5,9395.69999885559,10667.5,11804.19999885559,13483.60000038147]","0.6","0.7777777777777778","0","","","","","","","","","","","","","","","","","","","","","","","","","","","","","",""
"","","","preload","6","74741","0.0-5.0","4","4","4","4","4","4","4","3","4","4","5","5","5","5","5","5","5","5","5","5","1","1","1","1","1","1","1","1","1","0","0","1","1","0","0","0","1","0","1","1","0","1","0","1","5","1","1","2","2","","1","2","1","4","1","621383779721674752","周","466","","true","","","","","","","","","","","false","[]","[]","[]","","","","","","","","","","","","","","","","","","","","","","","","","",""
"1705","","","instructions","7","76447","0.0-6.0","4","4","4","4","4","4","4","3","4","4","5","5","5","5","5","5","5","5","5","5","1","1","1","1","1","1","1","1","1","0","0","1","1","0","0","0","1","0","1","1","0","1","0","1","5","1","1","2","2","","1","2","1","4","1","621383779721674752","周","466","","","","","","","","","","","","","","","","","[{""page_index"":0,""viewing_time"":1705}]","","","","","","","","","","","","","","","","","","","","","","","","",""
"117224","","","instructions","8","193671","0.0-7.0-1.0-0.0","4","4","4","4","4","4","4","3","4","4","5","5","5","5","5","5","5","5","5","5","1","1","1","1","1","1","1","1","1","0","0","1","1","0","0","0","1","0","1","1","0","1","0","1","5","1","1","2","2","","1","2","1","4","1","621383779721674752","周","466","","","","","","","","","","","","","","","","","[{""page_index"":0,""viewing_time"":115303},{""page_index"":1,""viewing_time"":1377},{""page_index"":2,""viewing_time"":544}]","","","","","","","","","","","","","","","","","","","","","","","","",""
"797","","f","psychophysics","9","195471","0.0-7.0-1.0-1.0-0.0-0.0","4","4","4","4","4","4","4","3","4","4","5","5","5","5","5","5","5","5","5","5","1","1","1","1","1","1","1","1","1","0","0","1","1","0","0","0","1","0","1","1","0","1","0","1","5","1","1","2","2","","1","2","1","4","1","621383779721674752","周","466","","","","match","","","","","","","","","","","","","","key","f","16.651886792452885","768","428","f","true","match","img/hexagon.png","六边","六边","ALT1_2","prac_ALT1_2","","","","","","","","","","","",""
"null","<span style='color:GreenYellow; font-size: 70px;'>正确! </span>","null","html-keyboard-response","10","195972","0.0-7.0-1.0-1.0-0.0-1.0","4","4","4","4","4","4","4","3","4","4","5","5","5","5","5","5","5","5","5","5","1","1","1","1","1","1","1","1","1","0","0","1","1","0","0","0","1","0","1","1","0","1","0","1","5","1","1","2","2","","1","2","1","4","1","621383779721674752","周","466","","","","","","","","","","","","","","","","","","","","","","","","","","","","","","feedback_test","","","","","","","","","","","",""
"585","","j","psychophysics","11","197559","0.0-7.0-1.0-1.0-0.0-0.1","4","4","4","4","4","4","4","3","4","4","5","5","5","5","5","5","5","5","5","5","1","1","1","1","1","1","1","1","1","0","0","1","1","0","0","0","1","0","1","1","0","1","0","1","5","1","1","2","2","","1","2","1","4","1","621383779721674752","周","466","","","","nonmatch","","","","","","","","","","","","","","key","j","16.644210526315913","768","428","j","true","nonmatch","img/ellipse.png","方形","椭圆","ALT1_2","prac_ALT1_2","","","","","","","","","","","",""
"null","<span style='color:GreenYellow; font-size: 70px;'>正确! </span>","null","html-keyboard-response","12","198061","0.0-7.0-1.0-1.0-0.0-1.1","4","4","4","4","4","4","4","3","4","4","5","5","5","5","5","5","5","5","5","5","1","1","1","1","1","1","1","1","1","0","0","1","1","0","0","0","1","0","1","1","0","1","0","1","5","1","1","2","2","","1","2","1","4","1","621383779721674752","周","466","","","","","","","","","","","","","","","","","","","","","","","","","","","","","","feedback_test","","","","","","","","","","","",""
"584","","f","psychophysics","13","199646","0.0-7.0-1.0-1.0-0.0-0.2","4","4","4","4","4","4","4","3","4","4","5","5","5","5","5","5","5","5","5","5","1","1","1","1","1","1","1","1","1","0","0","1","1","0","0","0","1","0","1","1","0","1","0","1","5","1","1","2","2","","1","2","1","4","1","621383779721674752","周","466","","","","match","","","","","","","","","","","","","","key","f","16.65319148936195","768","428","f","true","match","img/ellipse.png","椭圆","椭圆","ALT1_2","prac_ALT1_2","","","","","","","","","","","",""
"null","<span style='color:GreenYellow; font-size: 70px;'>正确! </span>","null","html-keyboard-response","14","200148","0.0-7.0-1.0-1.0-0.0-1.2","4","4","4","4","4","4","4","3","4","4","5","5","5","5","5","5","5","5","5","5","1","1","1","1","1","1","1","1","1","0","0","1","1","0","0","0","1","0","1","1","0","1","0","1","5","1","1","2","2","","1","2","1","4","1","621383779721674752","周","466","","","","","","","","","","","","","","","","","","","","","","","","","","","","","","feedback_test","","","","","","","","","","","",""
"553","","f","psychophysics","15","201702","0.0-7.0-1.0-1.0-0.0-0.3","4","4","4","4","4","4","4","3","4","4","5","5","5","5","5","5","5","5","5","5","1","1","1","1","1","1","1","1","1","0","0","1","1","0","0","0","1","0","1","1","0","1","0","1","5","1","1","2","2","","1","2","1","4","1","621383779721674752","周","466","","","","match","","","","","","","","","","","","","","key","f","16.651612903225555","768","428","f","true","match","img/ellipse.png","椭圆","椭圆","ALT1_2","prac_ALT1_2","","","","","","","","","","","",""
"null","<span style='color:GreenYellow; font-size: 70px;'>正确! </span>","null","html-keyboard-response","16","202204","0.0-7.0-1.0-1.0-0.0-1.3","4","4","4","4","4","4","4","3","4","4","5","5","5","5","5","5","5","5","5","5","1","1","1","1","1","1","1","1","1","0","0","1","1","0","0","0","1","0","1","1","0","1","0","1","5","1","1","2","2","","1","2","1","4","1","621383779721674752","周","466","","","","","","","","","","","","","","","","","","","","","","","","","","","","","","feedback_test","","","","","","","","","","","",""
"577","","j","psychophysics","17","203782","0.0-7.0-1.0-1.0-0.0-0.4","4","4","4","4","4","4","4","3","4","4","5","5","5","5","5","5","5","5","5","5","1","1","1","1","1","1","1","1","1","0","0","1","1","0","0","0","1","0","1","1","0","1","0","1","5","1","1","2","2","","1","2","1","4","1","621383779721674752","周","466","","","","nonmatch","","","","","","","","","","","","","","key","j","16.648936170212767","768","428","j","true","nonmatch","img/square.png","菱形","方形","ALT1_2","prac_ALT1_2","","","","","","","","","","","",""
"null","<span style='color:GreenYellow; font-size: 70px;'>正确! </span>","null","html-keyboard-response","18","204284","0.0-7.0-1.0-1.0-0.0-1.4","4","4","4","4","4","4","4","3","4","4","5","5","5","5","5","5","5","5","5","5","1","1","1","1","1","1","1","1","1","0","0","1","1","0","0","0","1","0","1","1","0","1","0","1","5","1","1","2","2","","1","2","1","4","1","621383779721674752","周","466","","","","","","","","","","","","","","","","","","","","","","","","","","","","","","feedback_test","","","","","","","","","","","",""
"528","","j","psychophysics","19","205814","0.0-7.0-1.0-1.0-0.0-0.5","4","4","4","4","4","4","4","3","4","4","5","5","5","5","5","5","5","5","5","5","1","1","1","1","1","1","1","1","1","0","0","1","1","0","0","0","1","0","1","1","0","1","0","1","5","1","1","2","2","","1","2","1","4","1","621383779721674752","周","466","","","","nonmatch","","","","","","","","","","","","","","key","j","16.651648351648543","768","428","j","true","nonmatch","img/ellipse.png","六边","椭圆","ALT1_2","prac_ALT1_2","","","","","","","","","","","",""
"null","<span style='color:GreenYellow; font-size: 70px;'>正确! </span>","null","html-keyboard-response","20","206315","0.0-7.0-1.0-1.0-0.0-1.5","4","4","4","4","4","4","4","3","4","4","5","5","5","5","5","5","5","5","5","5","1","1","1","1","1","1","1","1","1","0","0","1","1","0","0","0","1","0","1","1","0","1","0","1","5","1","1","2","2","","1","2","1","4","1","621383779721674752","周","466","","","","","","","","","","","","","","","","","","","","","","","","","","","","","","feedback_test","","","","","","","","","","","",""
"601","","j","psychophysics","21","207918","0.0-7.0-1.0-1.0-0.0-0.6","4","4","4","4","4","4","4","3","4","4","5","5","5","5","5","5","5","5","5","5","1","1","1","1","1","1","1","1","1","0","0","1","1","0","0","0","1","0","1","1","0","1","0","1","5","1","1","2","2","","1","2","1","4","1","621383779721674752","周","466","","","","nonmatch","","","","","","","","","","","","","","key","j","16.65052631578966","768","428","j","true","nonmatch","img/square.png","六边","方形","ALT1_2","prac_ALT1_2","","","","","","","","","","","",""
"null","<span style='color:GreenYellow; font-size: 70px;'>正确! </span>","null","html-keyboard-response","22","208419","0.0-7.0-1.0-1.0-0.0-1.6","4","4","4","4","4","4","4","3","4","4","5","5","5","5","5","5","5","5","5","5","1","1","1","1","1","1","1","1","1","0","0","1","1","0","0","0","1","0","1","1","0","1","0","1","5","1","1","2","2","","1","2","1","4","1","621383779721674752","周","466","","","","","","","","","","","","","","","","","","","","","","","","","","","","","","feedback_test","","","","","","","","","","","",""
"586","","j","psychophysics","23","210007","0.0-7.0-1.0-1.0-0.0-0.7","4","4","4","4","4","4","4","3","4","4","5","5","5","5","5","5","5","5","5","5","1","1","1","1","1","1","1","1","1","0","0","1","1","0","0","0","1","0","1","1","0","1","0","1","5","1","1","2","2","","1","2","1","4","1","621383779721674752","周","466","","","","nonmatch","","","","","","","","","","","","","","key","j","16.651063829787358","768","428","j","true","nonmatch","img/hexagon.png","椭圆","六边","ALT1_2","prac_ALT1_2","","","","","","","","","","","",""
"null","<span style='color:GreenYellow; font-size: 70px;'>正确! </span>","null","html-keyboard-response","24","210507","0.0-7.0-1.0-1.0-0.0-1.7","4","4","4","4","4","4","4","3","4","4","5","5","5","5","5","5","5","5","5","5","1","1","1","1","1","1","1","1","1","0","0","1","1","0","0","0","1","0","1","1","0","1","0","1","5","1","1","2","2","","1","2","1","4","1","621383779721674752","周","466","","","","","","","","","","","","","","","","","","","","","","","","","","","","","","feedback_test","","","","","","","","","","","",""
"651","","j","psychophysics","25","212159","0.0-7.0-1.0-1.0-0.0-0.8","4","4","4","4","4","4","4","3","4","4","5","5","5","5","5","5","5","5","5","5","1","1","1","1","1","1","1","1","1","0","0","1","1","0","0","0","1","0","1","1","0","1","0","1","5","1","1","2","2","","1","2","1","4","1","621383779721674752","周","466","","","","nonmatch","","","","","","","","","","","","","","key","j","16.643877551020466","768","428","f","false","match","img/diamond.png","菱形","菱形","ALT1_2","prac_ALT1_2","","","","","","","","","","","",""
"null","<span style='color:red; font-size: 70px;'>错误! </span>","null","html-keyboard-response","26","212660","0.0-7.0-1.0-1.0-0.0-1.8","4","4","4","4","4","4","4","3","4","4","5","5","5","5","5","5","5","5","5","5","1","1","1","1","1","1","1","1","1","0","0","1","1","0","0","0","1","0","1","1","0","1","0","1","5","1","1","2","2","","1","2","1","4","1","621383779721674752","周","466","","","","","","","","","","","","","","","","","","","","","","","","","","","","","","feedback_test","","","","","","","","","","","",""
"673","","j","psychophysics","27","214334","0.0-7.0-1.0-1.0-0.0-0.9","4","4","4","4","4","4","4","3","4","4","5","5","5","5","5","5","5","5","5","5","1","1","1","1","1","1","1","1","1","0","0","1","1","0","0","0","1","0","1","1","0","1","0","1","5","1","1","2","2","","1","2","1","4","1","621383779721674752","周","466","","","","nonmatch","","","","","","","","","","","","","","key","j","16.645454545454488","768","428","j","true","nonmatch","img/diamond.png","椭圆","菱形","ALT1_2","prac_ALT1_2","","","","","","","","","","","",""
"null","<span style='color:GreenYellow; font-size: 70px;'>正确! </span>","null","html-keyboard-response","28","214836","0.0-7.0-1.0-1.0-0.0-1.9","4","4","4","4","4","4","4","3","4","4","5","5","5","5","5","5","5","5","5","5","1","1","1","1","1","1","1","1","1","0","0","1","1","0","0","0","1","0","1","1","0","1","0","1","5","1","1","2","2","","1","2","1","4","1","621383779721674752","周","466","","","","","","","","","","","","","","","","","","","","","","","","","","","","","","feedback_test","","","","","","","","","","","",""
"601","","f","psychophysics","29","216438","0.0-7.0-1.0-1.0-0.0-0.10","4","4","4","4","4","4","4","3","4","4","5","5","5","5","5","5","5","5","5","5","1","1","1","1","1","1","1","1","1","0","0","1","1","0","0","0","1","0","1","1","0","1","0","1","5","1","1","2","2","","1","2","1","4","1","621383779721674752","周","466","","","","match","","","","","","","","","","","","","","key","f","16.652083333333394","768","428","f","true","match","img/square.png","方形","方形","ALT1_2","prac_ALT1_2","","","","","","","","","","","",""
"null","<span style='color:GreenYellow; font-size: 70px;'>正确! </span>","null","html-keyboard-response","30","216939","0.0-7.0-1.0-1.0-0.0-1.10","4","4","4","4","4","4","4","3","4","4","5","5","5","5","5","5","5","5","5","5","1","1","1","1","1","1","1","1","1","0","0","1","1","0","0","0","1","0","1","1","0","1","0","1","5","1","1","2","2","","1","2","1","4","1","621383779721674752","周","466","","","","","","","","","","","","","","","","","","","","","","","","","","","","","","feedback_test","","","","","","","","","","","",""
"834","","j","psychophysics","31","218774","0.0-7.0-1.0-1.0-0.0-0.11","4","4","4","4","4","4","4","3","4","4","5","5","5","5","5","5","5","5","5","5","1","1","1","1","1","1","1","1","1","0","0","1","1","0","0","0","1","0","1","1","0","1","0","1","5","1","1","2","2","","1","2","1","4","1","621383779721674752","周","466","","","","nonmatch","","","","","","","","","","","","","","key","j","16.650458715596542","768","428","j","true","nonmatch","img/ellipse.png","菱形","椭圆","ALT1_2","prac_ALT1_2","","","","","","","","","","","",""
"null","<span style='color:GreenYellow; font-size: 70px;'>正确! </span>","null","html-keyboard-response","32","219276","0.0-7.0-1.0-1.0-0.0-1.11","4","4","4","4","4","4","4","3","4","4","5","5","5","5","5","5","5","5","5","5","1","1","1","1","1","1","1","1","1","0","0","1","1","0","0","0","1","0","1","1","0","1","0","1","5","1","1","2","2","","1","2","1","4","1","621383779721674752","周","466","","","","","","","","","","","","","","","","","","","","","","","","","","","","","","feedback_test","","","","","","","","","","","",""
"882","","j","psychophysics","33","221159","0.0-7.0-1.0-1.0-0.0-0.12","4","4","4","4","4","4","4","3","4","4","5","5","5","5","5","5","5","5","5","5","1","1","1","1","1","1","1","1","1","0","0","1","1","0","0","0","1","0","1","1","0","1","0","1","5","1","1","2","2","","1","2","1","4","1","621383779721674752","周","466","","","","nonmatch","","","","","","","","","","","","","","key","j","16.651785714285715","768","428","j","true","nonmatch","img/hexagon.png","方形","六边","ALT1_2","prac_ALT1_2","","","","","","","","","","","",""
"null","<span style='color:GreenYellow; font-size: 70px;'>正确! </span>","null","html-keyboard-response","34","221660","0.0-7.0-1.0-1.0-0.0-1.12","4","4","4","4","4","4","4","3","4","4","5","5","5","5","5","5","5","5","5","5","1","1","1","1","1","1","1","1","1","0","0","1","1","0","0","0","1","0","1","1","0","1","0","1","5","1","1","2","2","","1","2","1","4","1","621383779721674752","周","466","","","","","","","","","","","","","","","","","","","","","","","","","","","","","","feedback_test","","","","","","","","","","","",""
"762","","j","psychophysics","35","223423","0.0-7.0-1.0-1.0-0.0-0.13","4","4","4","4","4","4","4","3","4","4","5","5","5","5","5","5","5","5","5","5","1","1","1","1","1","1","1","1","1","0","0","1","1","0","0","0","1","0","1","1","0","1","0","1","5","1","1","2","2","","1","2","1","4","1","621383779721674752","周","466","","","","nonmatch","","","","","","","","","","","","","","key","j","16.65619047619042","768","428","j","true","nonmatch","img/square.png","椭圆","方形","ALT1_2","prac_ALT1_2","","","","","","","","","","","",""
"null","<span style='color:GreenYellow; font-size: 70px;'>正确! </span>","null","html-keyboard-response","36","223924","0.0-7.0-1.0-1.0-0.0-1.13","4","4","4","4","4","4","4","3","4","4","5","5","5","5","5","5","5","5","5","5","1","1","1","1","1","1","1","1","1","0","0","1","1","0","0","0","1","0","1","1","0","1","0","1","5","1","1","2","2","","1","2","1","4","1","621383779721674752","周","466","","","","","","","","","","","","","","","","","","","","","","","","","","","","","","feedback_test","","","","","","","","","","","",""
"801","","j","psychophysics","37","225727","0.0-7.0-1.0-1.0-0.0-0.14","4","4","4","4","4","4","4","3","4","4","5","5","5","5","5","5","5","5","5","5","1","1","1","1","1","1","1","1","1","0","0","1","1","0","0","0","1","0","1","1","0","1","0","1","5","1","1","2","2","","1","2","1","4","1","621383779721674752","周","466","","","","nonmatch","","","","","","","","","","","","","","key","j","16.65140186915899","768","428","j","true","nonmatch","img/hexagon.png","菱形","六边","ALT1_2","prac_ALT1_2","","","","","","","","","","","",""
"null","<span style='color:GreenYellow; font-size: 70px;'>正确! </span>","null","html-keyboard-response","38","226228","0.0-7.0-1.0-1.0-0.0-1.14","4","4","4","4","4","4","4","3","4","4","5","5","5","5","5","5","5","5","5","5","1","1","1","1","1","1","1","1","1","0","0","1","1","0","0","0","1","0","1","1","0","1","0","1","5","1","1","2","2","","1","2","1","4","1","621383779721674752","周","466","","","","","","","","","","","","","","","","","","","","","","","","","","","","","","feedback_test","","","","","","","","","","","",""
"672","","f","psychophysics","39","227902","0.0-7.0-1.0-1.0-0.0-0.15","4","4","4","4","4","4","4","3","4","4","5","5","5","5","5","5","5","5","5","5","1","1","1","1","1","1","1","1","1","0","0","1","1","0","0","0","1","0","1","1","0","1","0","1","5","1","1","2","2","","1","2","1","4","1","621383779721674752","周","466","","","","match","","","","","","","","","","","","","","key","f","16.649494949494834","768","428","f","true","match","img/diamond.png","菱形","菱形","ALT1_2","prac_ALT1_2","","","","","","","","","","","",""
"null","<span style='color:GreenYellow; font-size: 70px;'>正确! </span>","null","html-keyboard-response","40","228404","0.0-7.0-1.0-1.0-0.0-1.15","4","4","4","4","4","4","4","3","4","4","5","5","5","5","5","5","5","5","5","5","1","1","1","1","1","1","1","1","1","0","0","1","1","0","0","0","1","0","1","1","0","1","0","1","5","1","1","2","2","","1","2","1","4","1","621383779721674752","周","466","","","","","","","","","","","","","","","","","","","","","","","","","","","","","","feedback_test","","","","","","","","","","","",""
"561","","f","psychophysics","41","229966","0.0-7.0-1.0-1.0-0.0-0.16","4","4","4","4","4","4","4","3","4","4","5","5","5","5","5","5","5","5","5","5","1","1","1","1","1","1","1","1","1","0","0","1","1","0","0","0","1","0","1","1","0","1","0","1","5","1","1","2","2","","1","2","1","4","1","621383779721674752","周","466","","","","match","","","","","","","","","","","","","","key","f","16.650537634408604","768","428","f","true","match","img/square.png","方形","方形","ALT1_2","prac_ALT1_2","","","","","","","","","","","",""
"null","<span style='color:GreenYellow; font-size: 70px;'>正确! </span>","null","html-keyboard-response","42","230468","0.0-7.0-1.0-1.0-0.0-1.16","4","4","4","4","4","4","4","3","4","4","5","5","5","5","5","5","5","5","5","5","1","1","1","1","1","1","1","1","1","0","0","1","1","0","0","0","1","0","1","1","0","1","0","1","5","1","1","2","2","","1","2","1","4","1","621383779721674752","周","466","","","","","","","","","","","","","","","","","","","","","","","","","","","","","","feedback_test","","","","","","","","","","","",""
"562","","j","psychophysics","43","232031","0.0-7.0-1.0-1.0-0.0-0.17","4","4","4","4","4","4","4","3","4","4","5","5","5","5","5","5","5","5","5","5","1","1","1","1","1","1","1","1","1","0","0","1","1","0","0","0","1","0","1","1","0","1","0","1","5","1","1","2","2","","1","2","1","4","1","621383779721674752","周","466","","","","nonmatch","","","","","","","","","","","","","","key","j","16.652688172042822","768","428","f","false","match","img/diamond.png","菱形","菱形","ALT1_2","prac_ALT1_2","","","","","","","","","","","",""
"null","<span style='color:red; font-size: 70px;'>错误! </span>","null","html-keyboard-response","44","232531","0.0-7.0-1.0-1.0-0.0-1.17","4","4","4","4","4","4","4","3","4","4","5","5","5","5","5","5","5","5","5","5","1","1","1","1","1","1","1","1","1","0","0","1","1","0","0","0","1","0","1","1","0","1","0","1","5","1","1","2","2","","1","2","1","4","1","621383779721674752","周","466","","","","","","","","","","","","","","","","","","","","","","","","","","","","","","feedback_test","","","","","","","","","","","",""
"601","","f","psychophysics","45","234134","0.0-7.0-1.0-1.0-0.0-0.18","4","4","4","4","4","4","4","3","4","4","5","5","5","5","5","5","5","5","5","5","1","1","1","1","1","1","1","1","1","0","0","1","1","0","0","0","1","0","1","1","0","1","0","1","5","1","1","2","2","","1","2","1","4","1","621383779721674752","周","466","","","","match","","","","","","","","","","","","","","key","f","16.65157894736836","768","428","f","true","match","img/hexagon.png","六边","六边","ALT1_2","prac_ALT1_2","","","","","","","","","","","",""
"null","<span style='color:GreenYellow; font-size: 70px;'>正确! </span>","null","html-keyboard-response","46","234635","0.0-7.0-1.0-1.0-0.0-1.18","4","4","4","4","4","4","4","3","4","4","5","5","5","5","5","5","5","5","5","5","1","1","1","1","1","1","1","1","1","0","0","1","1","0","0","0","1","0","1","1","0","1","0","1","5","1","1","2","2","","1","2","1","4","1","621383779721674752","周","466","","","","","","","","","","","","","","","","","","","","","","","","","","","","","","feedback_test","","","","","","","","","","","",""
"651","","f","psychophysics","47","236286","0.0-7.0-1.0-1.0-0.0-0.19","4","4","4","4","4","4","4","3","4","4","5","5","5","5","5","5","5","5","5","5","1","1","1","1","1","1","1","1","1","0","0","1","1","0","0","0","1","0","1","1","0","1","0","1","5","1","1","2","2","","1","2","1","4","1","621383779721674752","周","466","","","","match","","","","","","","","","","","","","","key","f","16.643877551020466","768","428","f","true","match","img/square.png","方形","方形","ALT1_2","prac_ALT1_2","","","","","","","","","","","",""
"null","<span style='color:GreenYellow; font-size: 70px;'>正确! </span>","null","html-keyboard-response","48","236788","0.0-7.0-1.0-1.0-0.0-1.19","4","4","4","4","4","4","4","3","4","4","5","5","5","5","5","5","5","5","5","5","1","1","1","1","1","1","1","1","1","0","0","1","1","0","0","0","1","0","1","1","0","1","0","1","5","1","1","2","2","","1","2","1","4","1","621383779721674752","周","466","","","","","","","","","","","","","","","","","","","","","","","","","","","","","","feedback_test","","","","","","","","","","","",""
"761","","f","psychophysics","49","238551","0.0-7.0-1.0-1.0-0.0-0.20","4","4","4","4","4","4","4","3","4","4","5","5","5","5","5","5","5","5","5","5","1","1","1","1","1","1","1","1","1","0","0","1","1","0","0","0","1","0","1","1","0","1","0","1","5","1","1","2","2","","1","2","1","4","1","621383779721674752","周","466","","","","match","","","","","","","","","","","","","","key","f","16.652380952380952","768","428","f","true","match","img/ellipse.png","椭圆","椭圆","ALT1_2","prac_ALT1_2","","","","","","","","","","","",""
"null","<span style='color:GreenYellow; font-size: 70px;'>正确! </span>","null","html-keyboard-response","50","239052","0.0-7.0-1.0-1.0-0.0-1.20","4","4","4","4","4","4","4","3","4","4","5","5","5","5","5","5","5","5","5","5","1","1","1","1","1","1","1","1","1","0","0","1","1","0","0","0","1","0","1","1","0","1","0","1","5","1","1","2","2","","1","2","1","4","1","621383779721674752","周","466","","","","","","","","","","","","","","","","","","","","","","","","","","","","","","feedback_test","","","","","","","","","","","",""
"632","","j","psychophysics","51","240687","0.0-7.0-1.0-1.0-0.0-0.21","4","4","4","4","4","4","4","3","4","4","5","5","5","5","5","5","5","5","5","5","1","1","1","1","1","1","1","1","1","0","0","1","1","0","0","0","1","0","1","1","0","1","0","1","5","1","1","2","2","","1","2","1","4","1","621383779721674752","周","466","","","","nonmatch","","","","","","","","","","","","","","key","j","16.651546391752696","768","428","j","true","nonmatch","img/diamond.png","六边","菱形","ALT1_2","prac_ALT1_2","","","","","","","","","","","",""
"null","<span style='color:GreenYellow; font-size: 70px;'>正确! </span>","null","html-keyboard-response","52","241189","0.0-7.0-1.0-1.0-0.0-1.21","4","4","4","4","4","4","4","3","4","4","5","5","5","5","5","5","5","5","5","5","1","1","1","1","1","1","1","1","1","0","0","1","1","0","0","0","1","0","1","1","0","1","0","1","5","1","1","2","2","","1","2","1","4","1","621383779721674752","周","466","","","","","","","","","","","","","","","","","","","","","","","","","","","","","","feedback_test","","","","","","","","","","","",""
"727","","j","psychophysics","53","242918","0.0-7.0-1.0-1.0-0.0-0.22","4","4","4","4","4","4","4","3","4","4","5","5","5","5","5","5","5","5","5","5","1","1","1","1","1","1","1","1","1","0","0","1","1","0","0","0","1","0","1","1","0","1","0","1","5","1","1","2","2","","1","2","1","4","1","621383779721674752","周","466","","","","nonmatch","","","","","","","","","","","","","","key","j","16.65242718446613","768","428","j","true","nonmatch","img/diamond.png","方形","菱形","ALT1_2","prac_ALT1_2","","","","","","","","","","","",""
"null","<span style='color:GreenYellow; font-size: 70px;'>正确! </span>","null","html-keyboard-response","54","243419","0.0-7.0-1.0-1.0-0.0-1.22","4","4","4","4","4","4","4","3","4","4","5","5","5","5","5","5","5","5","5","5","1","1","1","1","1","1","1","1","1","0","0","1","1","0","0","0","1","0","1","1","0","1","0","1","5","1","1","2","2","","1","2","1","4","1","621383779721674752","周","466","","","","","","","","","","","","","","","","","","","","","","","","","","","","","","feedback_test","","","","","","","","","","","",""
"588","","f","psychophysics","55","245008","0.0-7.0-1.0-1.0-0.0-0.23","4","4","4","4","4","4","4","3","4","4","5","5","5","5","5","5","5","5","5","5","1","1","1","1","1","1","1","1","1","0","0","1","1","0","0","0","1","0","1","1","0","1","0","1","5","1","1","2","2","","1","2","1","4","1","621383779721674752","周","466","","","","match","","","","","","","","","","","","","","key","f","16.65106382978705","768","428","f","true","match","img/hexagon.png","六边","六边","ALT1_2","prac_ALT1_2","","","","","","","","","","","",""
"null","<span style='color:GreenYellow; font-size: 70px;'>正确! </span>","null","html-keyboard-response","56","245510","0.0-7.0-1.0-1.0-0.0-1.23","4","4","4","4","4","4","4","3","4","4","5","5","5","5","5","5","5","5","5","5","1","1","1","1","1","1","1","1","1","0","0","1","1","0","0","0","1","0","1","1","0","1","0","1","5","1","1","2","2","","1","2","1","4","1","621383779721674752","周","466","","","","","","","","","","","","","","","","","","","","","","","","","","","","","","feedback_test","","","","","","","","","","","",""
"559","","j","psychophysics","57","247070","0.0-7.0-1.0-1.0-0.0-0.24","4","4","4","4","4","4","4","3","4","4","5","5","5","5","5","5","5","5","5","5","1","1","1","1","1","1","1","1","1","0","0","1","1","0","0","0","1","0","1","1","0","1","0","1","5","1","1","2","2","","1","2","1","4","1","621383779721674752","周","466","","","","nonmatch","","","","","","","","","","","","","","key","j","16.649999999999874","768","428","j","true","nonmatch","img/ellipse.png","方形","椭圆","ALT1_2","prac_ALT1_2","","","","","","","","","","","",""
"null","<span style='color:GreenYellow; font-size: 70px;'>正确! </span>","null","html-keyboard-response","58","247572","0.0-7.0-1.0-1.0-0.0-1.24","4","4","4","4","4","4","4","3","4","4","5","5","5","5","5","5","5","5","5","5","1","1","1","1","1","1","1","1","1","0","0","1","1","0","0","0","1","0","1","1","0","1","0","1","5","1","1","2","2","","1","2","1","4","1","621383779721674752","周","466","","","","","","","","","","","","","","","","","","","","","","","","","","","","","","feedback_test","","","","","","","","","","","",""
"730","","j","psychophysics","59","249303","0.0-7.0-1.0-1.0-0.0-0.25","4","4","4","4","4","4","4","3","4","4","5","5","5","5","5","5","5","5","5","5","1","1","1","1","1","1","1","1","1","0","0","1","1","0","0","0","1","0","1","1","0","1","0","1","5","1","1","2","2","","1","2","1","4","1","621383779721674752","周","466","","","","nonmatch","","","","","","","","","","","","","","key","j","16.651456310679386","768","428","j","true","nonmatch","img/square.png","菱形","方形","ALT1_2","prac_ALT1_2","","","","","","","","","","","",""
"null","<span style='color:GreenYellow; font-size: 70px;'>正确! </span>","null","html-keyboard-response","60","249805","0.0-7.0-1.0-1.0-0.0-1.25","4","4","4","4","4","4","4","3","4","4","5","5","5","5","5","5","5","5","5","5","1","1","1","1","1","1","1","1","1","0","0","1","1","0","0","0","1","0","1","1","0","1","0","1","5","1","1","2","2","","1","2","1","4","1","621383779721674752","周","466","","","","","","","","","","","","","","","","","","","","","","","","","","","","","","feedback_test","","","","","","","","","","","",""
"576","","j","psychophysics","61","251382","0.0-7.0-1.0-1.0-0.0-0.26","4","4","4","4","4","4","4","3","4","4","5","5","5","5","5","5","5","5","5","5","1","1","1","1","1","1","1","1","1","0","0","1","1","0","0","0","1","0","1","1","0","1","0","1","5","1","1","2","2","","1","2","1","4","1","621383779721674752","周","466","","","","nonmatch","","","","","","","","","","","","","","key","j","16.643010752688046","768","428","j","true","nonmatch","img/hexagon.png","椭圆","六边","ALT1_2","prac_ALT1_2","","","","","","","","","","","",""
"null","<span style='color:GreenYellow; font-size: 70px;'>正确! </span>","null","html-keyboard-response","62","251883","0.0-7.0-1.0-1.0-0.0-1.26","4","4","4","4","4","4","4","3","4","4","5","5","5","5","5","5","5","5","5","5","1","1","1","1","1","1","1","1","1","0","0","1","1","0","0","0","1","0","1","1","0","1","0","1","5","1","1","2","2","","1","2","1","4","1","621383779721674752","周","466","","","","","","","","","","","","","","","","","","","","","","","","","","","","","","feedback_test","","","","","","","","","","","",""
"666","","f","psychophysics","63","253550","0.0-7.0-1.0-1.0-0.0-0.27","4","4","4","4","4","4","4","3","4","4","5","5","5","5","5","5","5","5","5","5","1","1","1","1","1","1","1","1","1","0","0","1","1","0","0","0","1","0","1","1","0","1","0","1","5","1","1","2","2","","1","2","1","4","1","621383779721674752","周","466","","","","match","","","","","","","","","","","","","","key","f","16.65252525252531","768","428","f","true","match","img/ellipse.png","椭圆","椭圆","ALT1_2","prac_ALT1_2","","","","","","","","","","","",""
"null","<span style='color:GreenYellow; font-size: 70px;'>正确! </span>","null","html-keyboard-response","64","254051","0.0-7.0-1.0-1.0-0.0-1.27","4","4","4","4","4","4","4","3","4","4","5","5","5","5","5","5","5","5","5","5","1","1","1","1","1","1","1","1","1","0","0","1","1","0","0","0","1","0","1","1","0","1","0","1","5","1","1","2","2","","1","2","1","4","1","621383779721674752","周","466","","","","","","","","","","","","","","","","","","","","","","","","","","","","","","feedback_test","","","","","","","","","","","",""
"732","","f","psychophysics","65","255783","0.0-7.0-1.0-1.0-0.0-0.28","4","4","4","4","4","4","4","3","4","4","5","5","5","5","5","5","5","5","5","5","1","1","1","1","1","1","1","1","1","0","0","1","1","0","0","0","1","0","1","1","0","1","0","1","5","1","1","2","2","","1","2","1","4","1","621383779721674752","周","466","","","","match","","","","","","","","","","","","","","key","f","16.639215686274625","768","428","f","true","match","img/square.png","方形","方形","ALT1_2","prac_ALT1_2","","","","","","","","","","","",""
"null","<span style='color:GreenYellow; font-size: 70px;'>正确! </span>","null","html-keyboard-response","66","256285","0.0-7.0-1.0-1.0-0.0-1.28","4","4","4","4","4","4","4","3","4","4","5","5","5","5","5","5","5","5","5","5","1","1","1","1","1","1","1","1","1","0","0","1","1","0","0","0","1","0","1","1","0","1","0","1","5","1","1","2","2","","1","2","1","4","1","621383779721674752","周","466","","","","","","","","","","","","","","","","","","","","","","","","","","","","","","feedback_test","","","","","","","","","","","",""
"688","","f","psychophysics","67","257974","0.0-7.0-1.0-1.0-0.0-0.29","4","4","4","4","4","4","4","3","4","4","5","5","5","5","5","5","5","5","5","5","1","1","1","1","1","1","1","1","1","0","0","1","1","0","0","0","1","0","1","1","0","1","0","1","5","1","1","2","2","","1","2","1","4","1","621383779721674752","周","466","","","","match","","","","","","","","","","","","","","key","f","16.646000000000058","768","428","f","true","match","img/hexagon.png","六边","六边","ALT1_2","prac_ALT1_2","","","","","","","","","","","",""
"null","<span style='color:GreenYellow; font-size: 70px;'>正确! </span>","null","html-keyboard-response","68","258476","0.0-7.0-1.0-1.0-0.0-1.29","4","4","4","4","4","4","4","3","4","4","5","5","5","5","5","5","5","5","5","5","1","1","1","1","1","1","1","1","1","0","0","1","1","0","0","0","1","0","1","1","0","1","0","1","5","1","1","2","2","","1","2","1","4","1","621383779721674752","周","466","","","","","","","","","","","","","","","","","","","","","","","","","","","","","","feedback_test","","","","","","","","","","","",""
"689","","j","psychophysics","69","260167","0.0-7.0-1.0-1.0-0.0-0.30","4","4","4","4","4","4","4","3","4","4","5","5","5","5","5","5","5","5","5","5","1","1","1","1","1","1","1","1","1","0","0","1","1","0","0","0","1","0","1","1","0","1","0","1","5","1","1","2","2","","1","2","1","4","1","621383779721674752","周","466","","","","nonmatch","","","","","","","","","","","","","","key","j","16.650495049505064","768","428","j","true","nonmatch","img/diamond.png","方形","菱形","ALT1_2","prac_ALT1_2","","","","","","","","","","","",""
"null","<span style='color:GreenYellow; font-size: 70px;'>正确! </span>","null","html-keyboard-response","70","260669","0.0-7.0-1.0-1.0-0.0-1.30","4","4","4","4","4","4","4","3","4","4","5","5","5","5","5","5","5","5","5","5","1","1","1","1","1","1","1","1","1","0","0","1","1","0","0","0","1","0","1","1","0","1","0","1","5","1","1","2","2","","1","2","1","4","1","621383779721674752","周","466","","","","","","","","","","","","","","","","","","","","","","","","","","","","","","feedback_test","","","","","","","","","","","",""
"624","","f","psychophysics","71","262295","0.0-7.0-1.0-1.0-0.0-0.31","4","4","4","4","4","4","4","3","4","4","5","5","5","5","5","5","5","5","5","5","1","1","1","1","1","1","1","1","1","0","0","1","1","0","0","0","1","0","1","1","0","1","0","1","5","1","1","2","2","","1","2","1","4","1","621383779721674752","周","466","","","","match","","","","","","","","","","","","","","key","f","16.65463917525773","768","428","f","true","match","img/diamond.png","菱形","菱形","ALT1_2","prac_ALT1_2","","","","","","","","","","","",""
"null","<span style='color:GreenYellow; font-size: 70px;'>正确! </span>","null","html-keyboard-response","72","262797","0.0-7.0-1.0-1.0-0.0-1.31","4","4","4","4","4","4","4","3","4","4","5","5","5","5","5","5","5","5","5","5","1","1","1","1","1","1","1","1","1","0","0","1","1","0","0","0","1","0","1","1","0","1","0","1","5","1","1","2","2","","1","2","1","4","1","621383779721674752","周","466","","","","","","","","","","","","","","","","","","","","","","","","","","","","","","feedback_test","","","","","","","","","","","",""
"673","","j","psychophysics","73","264471","0.0-7.0-1.0-1.0-0.0-0.32","4","4","4","4","4","4","4","3","4","4","5","5","5","5","5","5","5","5","5","5","1","1","1","1","1","1","1","1","1","0","0","1","1","0","0","0","1","0","1","1","0","1","0","1","5","1","1","2","2","","1","2","1","4","1","621383779721674752","周","466","","","","nonmatch","","","","","","","","","","","","","","key","j","16.652525252525606","768","428","j","true","nonmatch","img/square.png","椭圆","方形","ALT1_2","prac_ALT1_2","","","","","","","","","","","",""
"null","<span style='color:GreenYellow; font-size: 70px;'>正确! </span>","null","html-keyboard-response","74","264971","0.0-7.0-1.0-1.0-0.0-1.32","4","4","4","4","4","4","4","3","4","4","5","5","5","5","5","5","5","5","5","5","1","1","1","1","1","1","1","1","1","0","0","1","1","0","0","0","1","0","1","1","0","1","0","1","5","1","1","2","2","","1","2","1","4","1","621383779721674752","周","466","","","","","","","","","","","","","","","","","","","","","","","","","","","","","","feedback_test","","","","","","","","","","","",""
"618","","j","psychophysics","75","266591","0.0-7.0-1.0-1.0-0.0-0.33","4","4","4","4","4","4","4","3","4","4","5","5","5","5","5","5","5","5","5","5","1","1","1","1","1","1","1","1","1","0","0","1","1","0","0","0","1","0","1","1","0","1","0","1","5","1","1","2","2","","1","2","1","4","1","621383779721674752","周","466","","","","nonmatch","","","","","","","","","","","","","","key","j","16.650515463917287","768","428","j","true","nonmatch","img/hexagon.png","方形","六边","ALT1_2","prac_ALT1_2","","","","","","","","","","","",""
"null","<span style='color:GreenYellow; font-size: 70px;'>正确! </span>","null","html-keyboard-response","76","267092","0.0-7.0-1.0-1.0-0.0-1.33","4","4","4","4","4","4","4","3","4","4","5","5","5","5","5","5","5","5","5","5","1","1","1","1","1","1","1","1","1","0","0","1","1","0","0","0","1","0","1","1","0","1","0","1","5","1","1","2","2","","1","2","1","4","1","621383779721674752","周","466","","","","","","","","","","","","","","","","","","","","","","","","","","","","","","feedback_test","","","","","","","","","","","",""
"666","","j","psychophysics","77","268759","0.0-7.0-1.0-1.0-0.0-0.34","4","4","4","4","4","4","4","3","4","4","5","5","5","5","5","5","5","5","5","5","1","1","1","1","1","1","1","1","1","0","0","1","1","0","0","0","1","0","1","1","0","1","0","1","5","1","1","2","2","","1","2","1","4","1","621383779721674752","周","466","","","","nonmatch","","","","","","","","","","","","","","key","j","16.649494949494834","768","428","j","true","nonmatch","img/ellipse.png","六边","椭圆","ALT1_2","prac_ALT1_2","","","","","","","","","","","",""
"null","<span style='color:GreenYellow; font-size: 70px;'>正确! </span>","null","html-keyboard-response","78","269260","0.0-7.0-1.0-1.0-0.0-1.34","4","4","4","4","4","4","4","3","4","4","5","5","5","5","5","5","5","5","5","5","1","1","1","1","1","1","1","1","1","0","0","1","1","0","0","0","1","0","1","1","0","1","0","1","5","1","1","2","2","","1","2","1","4","1","621383779721674752","周","466","","","","","","","","","","","","","","","","","","","","","","","","","","","","","","feedback_test","","","","","","","","","","","",""
"625","","j","psychophysics","79","270887","0.0-7.0-1.0-1.0-0.0-0.35","4","4","4","4","4","4","4","3","4","4","5","5","5","5","5","5","5","5","5","5","1","1","1","1","1","1","1","1","1","0","0","1","1","0","0","0","1","0","1","1","0","1","0","1","5","1","1","2","2","","1","2","1","4","1","621383779721674752","周","466","","","","nonmatch","","","","","","","","","","","","","","key","j","16.650515463917884","768","428","j","true","nonmatch","img/diamond.png","椭圆","菱形","ALT1_2","prac_ALT1_2","","","","","","","","","","","",""
"null","<span style='color:GreenYellow; font-size: 70px;'>正确! </span>","null","html-keyboard-response","80","271389","0.0-7.0-1.0-1.0-0.0-1.35","4","4","4","4","4","4","4","3","4","4","5","5","5","5","5","5","5","5","5","5","1","1","1","1","1","1","1","1","1","0","0","1","1","0","0","0","1","0","1","1","0","1","0","1","5","1","1","2","2","","1","2","1","4","1","621383779721674752","周","466","","","","","","","","","","","","","","","","","","","","","","","","","","","","","","feedback_test","","","","","","","","","","","",""
"719","","j","psychophysics","81","273110","0.0-7.0-1.0-1.0-0.0-0.36","4","4","4","4","4","4","4","3","4","4","5","5","5","5","5","5","5","5","5","5","1","1","1","1","1","1","1","1","1","0","0","1","1","0","0","0","1","0","1","1","0","1","0","1","5","1","1","2","2","","1","2","1","4","1","621383779721674752","周","466","","","","nonmatch","","","","","","","","","","","","","","key","j","16.65490196078477","768","428","j","true","nonmatch","img/square.png","六边","方形","ALT1_2","prac_ALT1_2","","","","","","","","","","","",""
"null","<span style='color:GreenYellow; font-size: 70px;'>正确! </span>","null","html-keyboard-response","82","273611","0.0-7.0-1.0-1.0-0.0-1.36","4","4","4","4","4","4","4","3","4","4","5","5","5","5","5","5","5","5","5","5","1","1","1","1","1","1","1","1","1","0","0","1","1","0","0","0","1","0","1","1","0","1","0","1","5","1","1","2","2","","1","2","1","4","1","621383779721674752","周","466","","","","","","","","","","","","","","","","","","","","","","","","","","","","","","feedback_test","","","","","","","","","","","",""
"889","","j","psychophysics","83","275503","0.0-7.0-1.0-1.0-0.0-0.37","4","4","4","4","4","4","4","3","4","4","5","5","5","5","5","5","5","5","5","5","1","1","1","1","1","1","1","1","1","0","0","1","1","0","0","0","1","0","1","1","0","1","0","1","5","1","1","2","2","","1","2","1","4","1","621383779721674752","周","466","","","","nonmatch","","","","","","","","","","","","","","key","j","16.654867256637168","768","428","f","false","match","img/hexagon.png","六边","六边","ALT1_2","prac_ALT1_2","","","","","","","","","","","",""
"null","<span style='color:red; font-size: 70px;'>错误! </span>","null","html-keyboard-response","84","276003","0.0-7.0-1.0-1.0-0.0-1.37","4","4","4","4","4","4","4","3","4","4","5","5","5","5","5","5","5","5","5","5","1","1","1","1","1","1","1","1","1","0","0","1","1","0","0","0","1","0","1","1","0","1","0","1","5","1","1","2","2","","1","2","1","4","1","621383779721674752","周","466","","","","","","","","","","","","","","","","","","","","","","","","","","","","","","feedback_test","","","","","","","","","","","",""
"673","","f","psychophysics","85","277679","0.0-7.0-1.0-1.0-0.0-0.38","4","4","4","4","4","4","4","3","4","4","5","5","5","5","5","5","5","5","5","5","1","1","1","1","1","1","1","1","1","0","0","1","1","0","0","0","1","0","1","1","0","1","0","1","5","1","1","2","2","","1","2","1","4","1","621383779721674752","周","466","","","","match","","","","","","","","","","","","","","key","f","16.651515151515152","768","428","f","true","match","img/diamond.png","菱形","菱形","ALT1_2","prac_ALT1_2","","","","","","","","","","","",""
"null","<span style='color:GreenYellow; font-size: 70px;'>正确! </span>","null","html-keyboard-response","86","278179","0.0-7.0-1.0-1.0-0.0-1.38","4","4","4","4","4","4","4","3","4","4","5","5","5","5","5","5","5","5","5","5","1","1","1","1","1","1","1","1","1","0","0","1","1","0","0","0","1","0","1","1","0","1","0","1","5","1","1","2","2","","1","2","1","4","1","621383779721674752","周","466","","","","","","","","","","","","","","","","","","","","","","","","","","","","","","feedback_test","","","","","","","","","","","",""
"746","","f","psychophysics","87","279927","0.0-7.0-1.0-1.0-0.0-0.39","4","4","4","4","4","4","4","3","4","4","5","5","5","5","5","5","5","5","5","5","1","1","1","1","1","1","1","1","1","0","0","1","1","0","0","0","1","0","1","1","0","1","0","1","5","1","1","2","2","","1","2","1","4","1","621383779721674752","周","466","","","","match","","","","","","","","","","","","","","key","f","16.65242718446613","768","428","f","true","match","img/hexagon.png","六边","六边","ALT1_2","prac_ALT1_2","","","","","","","","","","","",""
"null","<span style='color:GreenYellow; font-size: 70px;'>正确! </span>","null","html-keyboard-response","88","280428","0.0-7.0-1.0-1.0-0.0-1.39","4","4","4","4","4","4","4","3","4","4","5","5","5","5","5","5","5","5","5","5","1","1","1","1","1","1","1","1","1","0","0","1","1","0","0","0","1","0","1","1","0","1","0","1","5","1","1","2","2","","1","2","1","4","1","621383779721674752","周","466","","","","","","","","","","","","","","","","","","","","","","","","","","","","","","feedback_test","","","","","","","","","","","",""
"601","","f","psychophysics","89","282031","0.0-7.0-1.0-1.0-0.0-0.40","4","4","4","4","4","4","4","3","4","4","5","5","5","5","5","5","5","5","5","5","1","1","1","1","1","1","1","1","1","0","0","1","1","0","0","0","1","0","1","1","0","1","0","1","5","1","1","2","2","","1","2","1","4","1","621383779721674752","周","466","","","","match","","","","","","","","","","","","","","key","f","16.65052631578935","768","428","f","true","match","img/square.png","方形","方形","ALT1_2","prac_ALT1_2","","","","","","","","","","","",""
"null","<span style='color:GreenYellow; font-size: 70px;'>正确! </span>","null","html-keyboard-response","90","282531","0.0-7.0-1.0-1.0-0.0-1.40","4","4","4","4","4","4","4","3","4","4","5","5","5","5","5","5","5","5","5","5","1","1","1","1","1","1","1","1","1","0","0","1","1","0","0","0","1","0","1","1","0","1","0","1","5","1","1","2","2","","1","2","1","4","1","621383779721674752","周","466","","","","","","","","","","","","","","","","","","","","","","","","","","","","","","feedback_test","","","","","","","","","","","",""
"683","","f","psychophysics","91","284215","0.0-7.0-1.0-1.0-0.0-0.41","4","4","4","4","4","4","4","3","4","4","5","5","5","5","5","5","5","5","5","5","1","1","1","1","1","1","1","1","1","0","0","1","1","0","0","0","1","0","1","1","0","1","0","1","5","1","1","2","2","","1","2","1","4","1","621383779721674752","周","466","","","","match","","","","","","","","","","","","","","key","f","16.65","768","428","f","true","match","img/diamond.png","菱形","菱形","ALT1_2","prac_ALT1_2","","","","","","","","","","","",""
"null","<span style='color:GreenYellow; font-size: 70px;'>正确! </span>","null","html-keyboard-response","92","284716","0.0-7.0-1.0-1.0-0.0-1.41","4","4","4","4","4","4","4","3","4","4","5","5","5","5","5","5","5","5","5","5","1","1","1","1","1","1","1","1","1","0","0","1","1","0","0","0","1","0","1","1","0","1","0","1","5","1","1","2","2","","1","2","1","4","1","621383779721674752","周","466","","","","","","","","","","","","","","","","","","","","","","","","","","","","","","feedback_test","","","","","","","","","","","",""
"601","","j","psychophysics","93","286320","0.0-7.0-1.0-1.0-0.0-0.42","4","4","4","4","4","4","4","3","4","4","5","5","5","5","5","5","5","5","5","5","1","1","1","1","1","1","1","1","1","0","0","1","1","0","0","0","1","0","1","1","0","1","0","1","5","1","1","2","2","","1","2","1","4","1","621383779721674752","周","466","","","","nonmatch","","","","","","","","","","","","","","key","j","16.646315789473928","768","428","j","true","nonmatch","img/ellipse.png","菱形","椭圆","ALT1_2","prac_ALT1_2","","","","","","","","","","","",""
"null","<span style='color:GreenYellow; font-size: 70px;'>正确! </span>","null","html-keyboard-response","94","286821","0.0-7.0-1.0-1.0-0.0-1.42","4","4","4","4","4","4","4","3","4","4","5","5","5","5","5","5","5","5","5","5","1","1","1","1","1","1","1","1","1","0","0","1","1","0","0","0","1","0","1","1","0","1","0","1","5","1","1","2","2","","1","2","1","4","1","621383779721674752","周","466","","","","","","","","","","","","","","","","","","","","","","","","","","","","","","feedback_test","","","","","","","","","","","",""
"745","","f","psychophysics","95","288567","0.0-7.0-1.0-1.0-0.0-0.43","4","4","4","4","4","4","4","3","4","4","5","5","5","5","5","5","5","5","5","5","1","1","1","1","1","1","1","1","1","0","0","1","1","0","0","0","1","0","1","1","0","1","0","1","5","1","1","2","2","","1","2","1","4","1","621383779721674752","周","466","","","","match","","","","","","","","","","","","","","key","f","16.644660194174417","768","428","f","true","match","img/ellipse.png","椭圆","椭圆","ALT1_2","prac_ALT1_2","","","","","","","","","","","",""
"null","<span style='color:GreenYellow; font-size: 70px;'>正确! </span>","null","html-keyboard-response","96","289067","0.0-7.0-1.0-1.0-0.0-1.43","4","4","4","4","4","4","4","3","4","4","5","5","5","5","5","5","5","5","5","5","1","1","1","1","1","1","1","1","1","0","0","1","1","0","0","0","1","0","1","1","0","1","0","1","5","1","1","2","2","","1","2","1","4","1","621383779721674752","周","466","","","","","","","","","","","","","","","","","","","","","","","","","","","","","","feedback_test","","","","","","","","","","","",""
"882","","f","psychophysics","97","290951","0.0-7.0-1.0-1.0-0.0-0.44","4","4","4","4","4","4","4","3","4","4","5","5","5","5","5","5","5","5","5","5","1","1","1","1","1","1","1","1","1","0","0","1","1","0","0","0","1","0","1","1","0","1","0","1","5","1","1","2","2","","1","2","1","4","1","621383779721674752","周","466","","","","match","","","","","","","","","","","","","","key","f","16.795535714286025","768","428","j","false","nonmatch","img/hexagon.png","菱形","六边","ALT1_2","prac_ALT1_2","","","","","","","","","","","",""
"null","<span style='color:red; font-size: 70px;'>错误! </span>","null","html-keyboard-response","98","291452","0.0-7.0-1.0-1.0-0.0-1.44","4","4","4","4","4","4","4","3","4","4","5","5","5","5","5","5","5","5","5","5","1","1","1","1","1","1","1","1","1","0","0","1","1","0","0","0","1","0","1","1","0","1","0","1","5","1","1","2","2","","1","2","1","4","1","621383779721674752","周","466","","","","","","","","","","","","","","","","","","","","","","","","","","","","","","feedback_test","","","","","","","","","","","",""
"689","","j","psychophysics","99","293142","0.0-7.0-1.0-1.0-0.0-0.45","4","4","4","4","4","4","4","3","4","4","5","5","5","5","5","5","5","5","5","5","1","1","1","1","1","1","1","1","1","0","0","1","1","0","0","0","1","0","1","1","0","1","0","1","5","1","1","2","2","","1","2","1","4","1","621383779721674752","周","466","","","","nonmatch","","","","","","","","","","","","","","key","j","16.648000000000465","768","428","j","true","nonmatch","img/diamond.png","六边","菱形","ALT1_2","prac_ALT1_2","","","","","","","","","","","",""
"null","<span style='color:GreenYellow; font-size: 70px;'>正确! </span>","null","html-keyboard-response","100","293645","0.0-7.0-1.0-1.0-0.0-1.45","4","4","4","4","4","4","4","3","4","4","5","5","5","5","5","5","5","5","5","5","1","1","1","1","1","1","1","1","1","0","0","1","1","0","0","0","1","0","1","1","0","1","0","1","5","1","1","2","2","","1","2","1","4","1","621383779721674752","周","466","","","","","","","","","","","","","","","","","","","","","","","","","","","","","","feedback_test","","","","","","","","","","","",""
"657","","f","psychophysics","101","295303","0.0-7.0-1.0-1.0-0.0-0.46","4","4","4","4","4","4","4","3","4","4","5","5","5","5","5","5","5","5","5","5","1","1","1","1","1","1","1","1","1","0","0","1","1","0","0","0","1","0","1","1","0","1","0","1","5","1","1","2","2","","1","2","1","4","1","621383779721674752","周","466","","","","match","","","","","","","","","","","","","","key","f","16.651515151515152","768","428","f","true","match","img/ellipse.png","椭圆","椭圆","ALT1_2","prac_ALT1_2","","","","","","","","","","","",""
"null","<span style='color:GreenYellow; font-size: 70px;'>正确! </span>","null","html-keyboard-response","102","295803","0.0-7.0-1.0-1.0-0.0-1.46","4","4","4","4","4","4","4","3","4","4","5","5","5","5","5","5","5","5","5","5","1","1","1","1","1","1","1","1","1","0","0","1","1","0","0","0","1","0","1","1","0","1","0","1","5","1","1","2","2","","1","2","1","4","1","621383779721674752","周","466","","","","","","","","","","","","","","","","","","","","","","","","","","","","","","feedback_test","","","","","","","","","","","",""
"594","","f","psychophysics","103","297399","0.0-7.0-1.0-1.0-0.0-0.47","4","4","4","4","4","4","4","3","4","4","5","5","5","5","5","5","5","5","5","5","1","1","1","1","1","1","1","1","1","0","0","1","1","0","0","0","1","0","1","1","0","1","0","1","5","1","1","2","2","","1","2","1","4","1","621383779721674752","周","466","","","","match","","","","","","","","","","","","","","key","f","16.651578947368666","768","428","f","true","match","img/square.png","方形","方形","ALT1_2","prac_ALT1_2","","","","","","","","","","","",""
"null","<span style='color:GreenYellow; font-size: 70px;'>正确! </span>","null","html-keyboard-response","104","297900","0.0-7.0-1.0-1.0-0.0-1.47","4","4","4","4","4","4","4","3","4","4","5","5","5","5","5","5","5","5","5","5","1","1","1","1","1","1","1","1","1","0","0","1","1","0","0","0","1","0","1","1","0","1","0","1","5","1","1","2","2","","1","2","1","4","1","621383779721674752","周","466","","","","","","","","","","","","","","","","","","","","","","","","","","","","","","feedback_test","","","","","","","","","","","",""
"1274","<style>.context{color:white; font-size: 35px; line-height:40px}</style>                          <div><p class='context'>您正确回答了92% 的试次。</p><p class='context'>您的平均反应时为662毫秒。</p><p class='context'>恭喜您完成练习。按空格键进入正式实验。</p><p class='footer' style='font-size: 35px; line-height:40px;'>请在进入正式实验实验之前将您的<span style='color: lightgreen;'>食指</span>放在电脑键盘的相应键位上进行按键。</p>"," ","html-keyboard-response","105","299175","0.0-7.0-1.0-2.0","4","4","4","4","4","4","4","3","4","4","5","5","5","5","5","5","5","5","5","5","1","1","1","1","1","1","1","1","1","0","0","1","1","0","0","0","1","0","1","1","0","1","0","1","5","1","1","2","2","","1","2","1","4","1","621383779721674752","周","466","","","","","","","","","","","","","","","","","","","","","","","","","","","","","","","","","","","","","","","","","",""
"797","
  <p style='color: white; font-size: 22px'>请您将手指放在按键上，准备进入正式的匹配任务。</p>
  <p> <div style = ""color: green""><按空格键进入下一阶段的匹配任务></div></p>
  "," ","html-keyboard-response","106","299975","0.0-7.0-1.0-3.0","4","4","4","4","4","4","4","3","4","4","5","5","5","5","5","5","5","5","5","5","1","1","1","1","1","1","1","1","1","0","0","1","1","0","0","0","1","0","1","1","0","1","0","1","5","1","1","2","2","","1","2","1","4","1","621383779721674752","周","466","","","","","","","","","","","","","","","","","","","","","","","","","","","","","","","","","","","","","","","","","",""
"598","","j","psychophysics","107","301575","0.0-7.0-1.0-4.0-0.0-0.0","4","4","4","4","4","4","4","3","4","4","5","5","5","5","5","5","5","5","5","5","1","1","1","1","1","1","1","1","1","0","0","1","1","0","0","0","1","0","1","1","0","1","0","1","5","1","1","2","2","","1","2","1","4","1","621383779721674752","周","466","","","","nonmatch","","","","","","","","","","","","","","key","j","16.645263157894615","768","428","j","true","nonmatch","img/diamond.png","方形","菱形","ALT1","formal_ALT1_2","","","","","","","","","","","",""
"null","<span style='color:GreenYellow; font-size: 70px;'>正确! </span>","null","html-keyboard-response","108","302076","0.0-7.0-1.0-4.0-0.0-1.0","4","4","4","4","4","4","4","3","4","4","5","5","5","5","5","5","5","5","5","5","1","1","1","1","1","1","1","1","1","0","0","1","1","0","0","0","1","0","1","1","0","1","0","1","5","1","1","2","2","","1","2","1","4","1","621383779721674752","周","466","","","","","","","","","","","","","","","","","","","","","","","","","","","","","","feedback_test","","","","","","","","","","","",""
"642","","j","psychophysics","109","303719","0.0-7.0-1.0-4.0-0.0-0.1","4","4","4","4","4","4","4","3","4","4","5","5","5","5","5","5","5","5","5","5","1","1","1","1","1","1","1","1","1","0","0","1","1","0","0","0","1","0","1","1","0","1","0","1","5","1","1","2","2","","1","2","1","4","1","621383779721674752","周","466","","","","nonmatch","","","","","","","","","","","","","","key","j","16.645360824742028","768","428","j","true","nonmatch","img/hexagon.png","菱形","六边","ALT1","formal_ALT1_2","","","","","","","","","","","",""
"null","<span style='color:GreenYellow; font-size: 70px;'>正确! </span>","null","html-keyboard-response","110","304220","0.0-7.0-1.0-4.0-0.0-1.1","4","4","4","4","4","4","4","3","4","4","5","5","5","5","5","5","5","5","5","5","1","1","1","1","1","1","1","1","1","0","0","1","1","0","0","0","1","0","1","1","0","1","0","1","5","1","1","2","2","","1","2","1","4","1","621383779721674752","周","466","","","","","","","","","","","","","","","","","","","","","","","","","","","","","","feedback_test","","","","","","","","","","","",""
"713","","j","psychophysics","111","305935","0.0-7.0-1.0-4.0-0.0-0.2","4","4","4","4","4","4","4","3","4","4","5","5","5","5","5","5","5","5","5","5","1","1","1","1","1","1","1","1","1","0","0","1","1","0","0","0","1","0","1","1","0","1","0","1","5","1","1","2","2","","1","2","1","4","1","621383779721674752","周","466","","","","nonmatch","","","","","","","","","","","","","","key","j","16.653921568627567","768","428","j","true","nonmatch","img/ellipse.png","方形","椭圆","ALT1","formal_ALT1_2","","","","","","","","","","","",""
"null","<span style='color:GreenYellow; font-size: 70px;'>正确! </span>","null","html-keyboard-response","112","306436","0.0-7.0-1.0-4.0-0.0-1.2","4","4","4","4","4","4","4","3","4","4","5","5","5","5","5","5","5","5","5","5","1","1","1","1","1","1","1","1","1","0","0","1","1","0","0","0","1","0","1","1","0","1","0","1","5","1","1","2","2","","1","2","1","4","1","621383779721674752","周","466","","","","","","","","","","","","","","","","","","","","","","","","","","","","","","feedback_test","","","","","","","","","","","",""
"617","","j","psychophysics","113","308055","0.0-7.0-1.0-4.0-0.0-0.3","4","4","4","4","4","4","4","3","4","4","5","5","5","5","5","5","5","5","5","5","1","1","1","1","1","1","1","1","1","0","0","1","1","0","0","0","1","0","1","1","0","1","0","1","5","1","1","2","2","","1","2","1","4","1","621383779721674752","周","466","","","","nonmatch","","","","","","","","","","","","","","key","j","16.651041666666668","768","428","j","true","nonmatch","img/ellipse.png","菱形","椭圆","ALT1","formal_ALT1_2","","","","","","","","","","","",""
"null","<span style='color:GreenYellow; font-size: 70px;'>正确! </span>","null","html-keyboard-response","114","308555","0.0-7.0-1.0-4.0-0.0-1.3","4","4","4","4","4","4","4","3","4","4","5","5","5","5","5","5","5","5","5","5","1","1","1","1","1","1","1","1","1","0","0","1","1","0","0","0","1","0","1","1","0","1","0","1","5","1","1","2","2","","1","2","1","4","1","621383779721674752","周","466","","","","","","","","","","","","","","","","","","","","","","","","","","","","","","feedback_test","","","","","","","","","","","",""
"553","","j","psychophysics","115","310111","0.0-7.0-1.0-4.0-0.0-0.4","4","4","4","4","4","4","4","3","4","4","5","5","5","5","5","5","5","5","5","5","1","1","1","1","1","1","1","1","1","0","0","1","1","0","0","0","1","0","1","1","0","1","0","1","5","1","1","2","2","","1","2","1","4","1","621383779721674752","周","466","","","","nonmatch","","","","","","","","","","","","","","key","j","16.645652173913298","768","428","j","true","nonmatch","img/ellipse.png","六边","椭圆","ALT1","formal_ALT1_2","","","","","","","","","","","",""
"null","<span style='color:GreenYellow; font-size: 70px;'>正确! </span>","null","html-keyboard-response","116","310612","0.0-7.0-1.0-4.0-0.0-1.4","4","4","4","4","4","4","4","3","4","4","5","5","5","5","5","5","5","5","5","5","1","1","1","1","1","1","1","1","1","0","0","1","1","0","0","0","1","0","1","1","0","1","0","1","5","1","1","2","2","","1","2","1","4","1","621383779721674752","周","466","","","","","","","","","","","","","","","","","","","","","","","","","","","","","","feedback_test","","","","","","","","","","","",""
"552","","f","psychophysics","117","312167","0.0-7.0-1.0-4.0-0.0-0.5","4","4","4","4","4","4","4","3","4","4","5","5","5","5","5","5","5","5","5","5","1","1","1","1","1","1","1","1","1","0","0","1","1","0","0","0","1","0","1","1","0","1","0","1","5","1","1","2","2","","1","2","1","4","1","621383779721674752","周","466","","","","match","","","","","","","","","","","","","","key","f","16.650537634408604","768","428","f","true","match","img/square.png","方形","方形","ALT1","formal_ALT1_2","","","","","","","","","","","",""
"null","<span style='color:GreenYellow; font-size: 70px;'>正确! </span>","null","html-keyboard-response","118","312668","0.0-7.0-1.0-4.0-0.0-1.5","4","4","4","4","4","4","4","3","4","4","5","5","5","5","5","5","5","5","5","5","1","1","1","1","1","1","1","1","1","0","0","1","1","0","0","0","1","0","1","1","0","1","0","1","5","1","1","2","2","","1","2","1","4","1","621383779721674752","周","466","","","","","","","","","","","","","","","","","","","","","","","","","","","","","","feedback_test","","","","","","","","","","","",""
"650","","f","psychophysics","119","314320","0.0-7.0-1.0-4.0-0.0-0.6","4","4","4","4","4","4","4","3","4","4","5","5","5","5","5","5","5","5","5","5","1","1","1","1","1","1","1","1","1","0","0","1","1","0","0","0","1","0","1","1","0","1","0","1","5","1","1","2","2","","1","2","1","4","1","621383779721674752","周","466","","","","match","","","","","","","","","","","","","","key","f","16.652040816326767","768","428","f","true","match","img/hexagon.png","六边","六边","ALT1","formal_ALT1_2","","","","","","","","","","","",""
"null","<span style='color:GreenYellow; font-size: 70px;'>正确! </span>","null","html-keyboard-response","120","314821","0.0-7.0-1.0-4.0-0.0-1.6","4","4","4","4","4","4","4","3","4","4","5","5","5","5","5","5","5","5","5","5","1","1","1","1","1","1","1","1","1","0","0","1","1","0","0","0","1","0","1","1","0","1","0","1","5","1","1","2","2","","1","2","1","4","1","621383779721674752","周","466","","","","","","","","","","","","","","","","","","","","","","","","","","","","","","feedback_test","","","","","","","","","","","",""
"552","","f","psychophysics","121","316375","0.0-7.0-1.0-4.0-0.0-0.7","4","4","4","4","4","4","4","3","4","4","5","5","5","5","5","5","5","5","5","5","1","1","1","1","1","1","1","1","1","0","0","1","1","0","0","0","1","0","1","1","0","1","0","1","5","1","1","2","2","","1","2","1","4","1","621383779721674752","周","466","","","","match","","","","","","","","","","","","","","key","f","16.652173913043477","768","428","f","true","match","img/hexagon.png","六边","六边","ALT1","formal_ALT1_2","","","","","","","","","","","",""
"null","<span style='color:GreenYellow; font-size: 70px;'>正确! </span>","null","html-keyboard-response","122","316876","0.0-7.0-1.0-4.0-0.0-1.7","4","4","4","4","4","4","4","3","4","4","5","5","5","5","5","5","5","5","5","5","1","1","1","1","1","1","1","1","1","0","0","1","1","0","0","0","1","0","1","1","0","1","0","1","5","1","1","2","2","","1","2","1","4","1","621383779721674752","周","466","","","","","","","","","","","","","","","","","","","","","","","","","","","","","","feedback_test","","","","","","","","","","","",""
"570","","f","psychophysics","123","318446","0.0-7.0-1.0-4.0-0.0-0.8","4","4","4","4","4","4","4","3","4","4","5","5","5","5","5","5","5","5","5","5","1","1","1","1","1","1","1","1","1","0","0","1","1","0","0","0","1","0","1","1","0","1","0","1","5","1","1","2","2","","1","2","1","4","1","621383779721674752","周","466","","","","match","","","","","","","","","","","","","","key","f","16.647311827957115","768","428","f","true","match","img/hexagon.png","六边","六边","ALT1","formal_ALT1_2","","","","","","","","","","","",""
"null","<span style='color:GreenYellow; font-size: 70px;'>正确! </span>","null","html-keyboard-response","124","318948","0.0-7.0-1.0-4.0-0.0-1.8","4","4","4","4","4","4","4","3","4","4","5","5","5","5","5","5","5","5","5","5","1","1","1","1","1","1","1","1","1","0","0","1","1","0","0","0","1","0","1","1","0","1","0","1","5","1","1","2","2","","1","2","1","4","1","621383779721674752","周","466","","","","","","","","","","","","","","","","","","","","","","","","","","","","","","feedback_test","","","","","","","","","","","",""
"657","","f","psychophysics","125","320607","0.0-7.0-1.0-4.0-0.0-0.9","4","4","4","4","4","4","4","3","4","4","5","5","5","5","5","5","5","5","5","5","1","1","1","1","1","1","1","1","1","0","0","1","1","0","0","0","1","0","1","1","0","1","0","1","5","1","1","2","2","","1","2","1","4","1","621383779721674752","周","466","","","","match","","","","","","","","","","","","","","key","f","16.650505050504698","768","428","f","true","match","img/ellipse.png","椭圆","椭圆","ALT1","formal_ALT1_2","","","","","","","","","","","",""
"null","<span style='color:GreenYellow; font-size: 70px;'>正确! </span>","null","html-keyboard-response","126","321108","0.0-7.0-1.0-4.0-0.0-1.9","4","4","4","4","4","4","4","3","4","4","5","5","5","5","5","5","5","5","5","5","1","1","1","1","1","1","1","1","1","0","0","1","1","0","0","0","1","0","1","1","0","1","0","1","5","1","1","2","2","","1","2","1","4","1","621383779721674752","周","466","","","","","","","","","","","","","","","","","","","","","","","","","","","","","","feedback_test","","","","","","","","","","","",""
"608","","f","psychophysics","127","322719","0.0-7.0-1.0-4.0-0.0-0.10","4","4","4","4","4","4","4","3","4","4","5","5","5","5","5","5","5","5","5","5","1","1","1","1","1","1","1","1","1","0","0","1","1","0","0","0","1","0","1","1","0","1","0","1","5","1","1","2","2","","1","2","1","4","1","621383779721674752","周","466","","","","match","","","","","","","","","","","","","","key","f","16.65052631578935","768","428","f","true","match","img/square.png","方形","方形","ALT1","formal_ALT1_2","","","","","","","","","","","",""
"null","<span style='color:GreenYellow; font-size: 70px;'>正确! </span>","null","html-keyboard-response","128","323220","0.0-7.0-1.0-4.0-0.0-1.10","4","4","4","4","4","4","4","3","4","4","5","5","5","5","5","5","5","5","5","5","1","1","1","1","1","1","1","1","1","0","0","1","1","0","0","0","1","0","1","1","0","1","0","1","5","1","1","2","2","","1","2","1","4","1","621383779721674752","周","466","","","","","","","","","","","","","","","","","","","","","","","","","","","","","","feedback_test","","","","","","","","","","","",""
"616","","j","psychophysics","129","324839","0.0-7.0-1.0-4.0-0.0-0.11","4","4","4","4","4","4","4","3","4","4","5","5","5","5","5","5","5","5","5","5","1","1","1","1","1","1","1","1","1","0","0","1","1","0","0","0","1","0","1","1","0","1","0","1","5","1","1","2","2","","1","2","1","4","1","621383779721674752","周","466","","","","nonmatch","","","","","","","","","","","","","","key","j","16.636458333333696","768","428","j","true","nonmatch","img/square.png","菱形","方形","ALT1","formal_ALT1_2","","","","","","","","","","","",""
"null","<span style='color:GreenYellow; font-size: 70px;'>正确! </span>","null","html-keyboard-response","130","325340","0.0-7.0-1.0-4.0-0.0-1.11","4","4","4","4","4","4","4","3","4","4","5","5","5","5","5","5","5","5","5","5","1","1","1","1","1","1","1","1","1","0","0","1","1","0","0","0","1","0","1","1","0","1","0","1","5","1","1","2","2","","1","2","1","4","1","621383779721674752","周","466","","","","","","","","","","","","","","","","","","","","","","","","","","","","","","feedback_test","","","","","","","","","","","",""
"601","","j","psychophysics","131","326943","0.0-7.0-1.0-4.0-0.0-0.12","4","4","4","4","4","4","4","3","4","4","5","5","5","5","5","5","5","5","5","5","1","1","1","1","1","1","1","1","1","0","0","1","1","0","0","0","1","0","1","1","0","1","0","1","5","1","1","2","2","","1","2","1","4","1","621383779721674752","周","466","","","","nonmatch","","","","","","","","","","","","","","key","j","16.644210526315913","768","428","j","true","nonmatch","img/hexagon.png","椭圆","六边","ALT1","formal_ALT1_2","","","","","","","","","","","",""
"null","<span style='color:GreenYellow; font-size: 70px;'>正确! </span>","null","html-keyboard-response","132","327444","0.0-7.0-1.0-4.0-0.0-1.12","4","4","4","4","4","4","4","3","4","4","5","5","5","5","5","5","5","5","5","5","1","1","1","1","1","1","1","1","1","0","0","1","1","0","0","0","1","0","1","1","0","1","0","1","5","1","1","2","2","","1","2","1","4","1","621383779721674752","周","466","","","","","","","","","","","","","","","","","","","","","","","","","","","","","","feedback_test","","","","","","","","","","","",""
"616","","j","psychophysics","133","329063","0.0-7.0-1.0-4.0-0.0-0.13","4","4","4","4","4","4","4","3","4","4","5","5","5","5","5","5","5","5","5","5","1","1","1","1","1","1","1","1","1","0","0","1","1","0","0","0","1","0","1","1","0","1","0","1","5","1","1","2","2","","1","2","1","4","1","621383779721674752","周","466","","","","nonmatch","","","","","","","","","","","","","","key","j","16.653124999999516","768","428","j","true","nonmatch","img/hexagon.png","方形","六边","ALT1","formal_ALT1_2","","","","","","","","","","","",""
"null","<span style='color:GreenYellow; font-size: 70px;'>正确! </span>","null","html-keyboard-response","134","329564","0.0-7.0-1.0-4.0-0.0-1.13","4","4","4","4","4","4","4","3","4","4","5","5","5","5","5","5","5","5","5","5","1","1","1","1","1","1","1","1","1","0","0","1","1","0","0","0","1","0","1","1","0","1","0","1","5","1","1","2","2","","1","2","1","4","1","621383779721674752","周","466","","","","","","","","","","","","","","","","","","","","","","","","","","","","","","feedback_test","","","","","","","","","","","",""
"803","","j","psychophysics","135","331367","0.0-7.0-1.0-4.0-0.0-0.14","4","4","4","4","4","4","4","3","4","4","5","5","5","5","5","5","5","5","5","5","1","1","1","1","1","1","1","1","1","0","0","1","1","0","0","0","1","0","1","1","0","1","0","1","5","1","1","2","2","","1","2","1","4","1","621383779721674752","周","466","","","","nonmatch","","","","","","","","","","","","","","key","j","16.642990654205498","768","428","f","false","match","img/diamond.png","菱形","菱形","ALT1","formal_ALT1_2","","","","","","","","","","","",""
"null","<span style='color:red; font-size: 70px;'>错误! </span>","null","html-keyboard-response","136","331868","0.0-7.0-1.0-4.0-0.0-1.14","4","4","4","4","4","4","4","3","4","4","5","5","5","5","5","5","5","5","5","5","1","1","1","1","1","1","1","1","1","0","0","1","1","0","0","0","1","0","1","1","0","1","0","1","5","1","1","2","2","","1","2","1","4","1","621383779721674752","周","466","","","","","","","","","","","","","","","","","","","","","","","","","","","","","","feedback_test","","","","","","","","","","","",""
"697","","f","psychophysics","137","333567","0.0-7.0-1.0-4.0-0.0-0.15","4","4","4","4","4","4","4","3","4","4","5","5","5","5","5","5","5","5","5","5","1","1","1","1","1","1","1","1","1","0","0","1","1","0","0","0","1","0","1","1","0","1","0","1","5","1","1","2","2","","1","2","1","4","1","621383779721674752","周","466","","","","match","","","","","","","","","","","","","","key","f","16.651485148515313","768","428","f","true","match","img/ellipse.png","椭圆","椭圆","ALT1","formal_ALT1_2","","","","","","","","","","","",""
"null","<span style='color:GreenYellow; font-size: 70px;'>正确! </span>","null","html-keyboard-response","138","334067","0.0-7.0-1.0-4.0-0.0-1.15","4","4","4","4","4","4","4","3","4","4","5","5","5","5","5","5","5","5","5","5","1","1","1","1","1","1","1","1","1","0","0","1","1","0","0","0","1","0","1","1","0","1","0","1","5","1","1","2","2","","1","2","1","4","1","621383779721674752","周","466","","","","","","","","","","","","","","","","","","","","","","","","","","","","","","feedback_test","","","","","","","","","","","",""
"602","","f","psychophysics","139","335671","0.0-7.0-1.0-4.0-0.0-0.16","4","4","4","4","4","4","4","3","4","4","5","5","5","5","5","5","5","5","5","5","1","1","1","1","1","1","1","1","1","0","0","1","1","0","0","0","1","0","1","1","0","1","0","1","5","1","1","2","2","","1","2","1","4","1","621383779721674752","周","466","","","","match","","","","","","","","","","","","","","key","f","16.651578947368055","768","428","f","true","match","img/diamond.png","菱形","菱形","ALT1","formal_ALT1_2","","","","","","","","","","","",""
"null","<span style='color:GreenYellow; font-size: 70px;'>正确! </span>","null","html-keyboard-response","140","336172","0.0-7.0-1.0-4.0-0.0-1.16","4","4","4","4","4","4","4","3","4","4","5","5","5","5","5","5","5","5","5","5","1","1","1","1","1","1","1","1","1","0","0","1","1","0","0","0","1","0","1","1","0","1","0","1","5","1","1","2","2","","1","2","1","4","1","621383779721674752","周","466","","","","","","","","","","","","","","","","","","","","","","","","","","","","","","feedback_test","","","","","","","","","","","",""
"585","","j","psychophysics","141","337759","0.0-7.0-1.0-4.0-0.0-0.17","4","4","4","4","4","4","4","3","4","4","5","5","5","5","5","5","5","5","5","5","1","1","1","1","1","1","1","1","1","0","0","1","1","0","0","0","1","0","1","1","0","1","0","1","5","1","1","2","2","","1","2","1","4","1","621383779721674752","周","466","","","","nonmatch","","","","","","","","","","","","","","key","j","16.654736842105386","768","428","j","true","nonmatch","img/diamond.png","椭圆","菱形","ALT1","formal_ALT1_2","","","","","","","","","","","",""
"null","<span style='color:GreenYellow; font-size: 70px;'>正确! </span>","null","html-keyboard-response","142","338260","0.0-7.0-1.0-4.0-0.0-1.17","4","4","4","4","4","4","4","3","4","4","5","5","5","5","5","5","5","5","5","5","1","1","1","1","1","1","1","1","1","0","0","1","1","0","0","0","1","0","1","1","0","1","0","1","5","1","1","2","2","","1","2","1","4","1","621383779721674752","周","466","","","","","","","","","","","","","","","","","","","","","","","","","","","","","","feedback_test","","","","","","","","","","","",""
"617","","f","psychophysics","143","339878","0.0-7.0-1.0-4.0-0.0-0.18","4","4","4","4","4","4","4","3","4","4","5","5","5","5","5","5","5","5","5","5","1","1","1","1","1","1","1","1","1","0","0","1","1","0","0","0","1","0","1","1","0","1","0","1","5","1","1","2","2","","1","2","1","4","1","621383779721674752","周","466","","","","match","","","","","","","","","","","","","","key","f","16.648958333333212","768","428","f","true","match","img/ellipse.png","椭圆","椭圆","ALT1","formal_ALT1_2","","","","","","","","","","","",""
"null","<span style='color:GreenYellow; font-size: 70px;'>正确! </span>","null","html-keyboard-response","144","340380","0.0-7.0-1.0-4.0-0.0-1.18","4","4","4","4","4","4","4","3","4","4","5","5","5","5","5","5","5","5","5","5","1","1","1","1","1","1","1","1","1","0","0","1","1","0","0","0","1","0","1","1","0","1","0","1","5","1","1","2","2","","1","2","1","4","1","621383779721674752","周","466","","","","","","","","","","","","","","","","","","","","","","","","","","","","","","feedback_test","","","","","","","","","","","",""
"658","","j","psychophysics","145","342040","0.0-7.0-1.0-4.0-0.0-0.19","4","4","4","4","4","4","4","3","4","4","5","5","5","5","5","5","5","5","5","5","1","1","1","1","1","1","1","1","1","0","0","1","1","0","0","0","1","0","1","1","0","1","0","1","5","1","1","2","2","","1","2","1","4","1","621383779721674752","周","466","","","","nonmatch","","","","","","","","","","","","","","key","j","16.646464646464647","768","428","j","true","nonmatch","img/square.png","六边","方形","ALT1","formal_ALT1_2","","","","","","","","","","","",""
"null","<span style='color:GreenYellow; font-size: 70px;'>正确! </span>","null","html-keyboard-response","146","342540","0.0-7.0-1.0-4.0-0.0-1.19","4","4","4","4","4","4","4","3","4","4","5","5","5","5","5","5","5","5","5","5","1","1","1","1","1","1","1","1","1","0","0","1","1","0","0","0","1","0","1","1","0","1","0","1","5","1","1","2","2","","1","2","1","4","1","621383779721674752","周","466","","","","","","","","","","","","","","","","","","","","","","","","","","","","","","feedback_test","","","","","","","","","","","",""
"713","","f","psychophysics","147","344255","0.0-7.0-1.0-4.0-0.0-0.20","4","4","4","4","4","4","4","3","4","4","5","5","5","5","5","5","5","5","5","5","1","1","1","1","1","1","1","1","1","0","0","1","1","0","0","0","1","0","1","1","0","1","0","1","5","1","1","2","2","","1","2","1","4","1","621383779721674752","周","466","","","","match","","","","","","","","","","","","","","key","f","16.65294117647036","768","428","f","true","match","img/square.png","方形","方形","ALT1","formal_ALT1_2","","","","","","","","","","","",""
"null","<span style='color:GreenYellow; font-size: 70px;'>正确! </span>","null","html-keyboard-response","148","344756","0.0-7.0-1.0-4.0-0.0-1.20","4","4","4","4","4","4","4","3","4","4","5","5","5","5","5","5","5","5","5","5","1","1","1","1","1","1","1","1","1","0","0","1","1","0","0","0","1","0","1","1","0","1","0","1","5","1","1","2","2","","1","2","1","4","1","621383779721674752","周","466","","","","","","","","","","","","","","","","","","","","","","","","","","","","","","feedback_test","","","","","","","","","","","",""
"938","","f","psychophysics","149","346695","0.0-7.0-1.0-4.0-0.0-0.21","4","4","4","4","4","4","4","3","4","4","5","5","5","5","5","5","5","5","5","5","1","1","1","1","1","1","1","1","1","0","0","1","1","0","0","0","1","0","1","1","0","1","0","1","5","1","1","2","2","","1","2","1","4","1","621383779721674752","周","466","","","","match","","","","","","","","","","","","","","key","f","16.65130434782629","768","428","f","true","match","img/diamond.png","菱形","菱形","ALT1","formal_ALT1_2","","","","","","","","","","","",""
"null","<span style='color:GreenYellow; font-size: 70px;'>正确! </span>","null","html-keyboard-response","150","347196","0.0-7.0-1.0-4.0-0.0-1.21","4","4","4","4","4","4","4","3","4","4","5","5","5","5","5","5","5","5","5","5","1","1","1","1","1","1","1","1","1","0","0","1","1","0","0","0","1","0","1","1","0","1","0","1","5","1","1","2","2","","1","2","1","4","1","621383779721674752","周","466","","","","","","","","","","","","","","","","","","","","","","","","","","","","","","feedback_test","","","","","","","","","","","",""
"585","","j","psychophysics","151","348783","0.0-7.0-1.0-4.0-0.0-0.22","4","4","4","4","4","4","4","3","4","4","5","5","5","5","5","5","5","5","5","5","1","1","1","1","1","1","1","1","1","0","0","1","1","0","0","0","1","0","1","1","0","1","0","1","5","1","1","2","2","","1","2","1","4","1","621383779721674752","周","466","","","","nonmatch","","","","","","","","","","","","","","key","j","16.651578947368055","768","428","j","true","nonmatch","img/square.png","椭圆","方形","ALT1","formal_ALT1_2","","","","","","","","","","","",""
"null","<span style='color:GreenYellow; font-size: 70px;'>正确! </span>","null","html-keyboard-response","152","349283","0.0-7.0-1.0-4.0-0.0-1.22","4","4","4","4","4","4","4","3","4","4","5","5","5","5","5","5","5","5","5","5","1","1","1","1","1","1","1","1","1","0","0","1","1","0","0","0","1","0","1","1","0","1","0","1","5","1","1","2","2","","1","2","1","4","1","621383779721674752","周","466","","","","","","","","","","","","","","","","","","","","","","","","","","","","","","feedback_test","","","","","","","","","","","",""
"634","","j","psychophysics","153","350918","0.0-7.0-1.0-4.0-0.0-0.23","4","4","4","4","4","4","4","3","4","4","5","5","5","5","5","5","5","5","5","5","1","1","1","1","1","1","1","1","1","0","0","1","1","0","0","0","1","0","1","1","0","1","0","1","5","1","1","2","2","","1","2","1","4","1","621383779721674752","周","466","","","","nonmatch","","","","","","","","","","","","","","key","j","16.651546391752696","768","428","j","true","nonmatch","img/diamond.png","六边","菱形","ALT1","formal_ALT1_2","","","","","","","","","","","",""
"null","<span style='color:GreenYellow; font-size: 70px;'>正确! </span>","null","html-keyboard-response","154","351420","0.0-7.0-1.0-4.0-0.0-1.23","4","4","4","4","4","4","4","3","4","4","5","5","5","5","5","5","5","5","5","5","1","1","1","1","1","1","1","1","1","0","0","1","1","0","0","0","1","0","1","1","0","1","0","1","5","1","1","2","2","","1","2","1","4","1","621383779721674752","周","466","","","","","","","","","","","","","","","","","","","","","","","","","","","","","","feedback_test","","","","","","","","","","","",""
"688","","j","psychophysics","155","353111","0.0-7.0-1.0-4.0-0.0-0.24","4","4","4","4","4","4","4","3","4","4","5","5","5","5","5","5","5","5","5","5","1","1","1","1","1","1","1","1","1","0","0","1","1","0","0","0","1","0","1","1","0","1","0","1","5","1","1","2","2","","1","2","1","4","1","621383779721674752","周","466","","","","nonmatch","","","","","","","","","","","","","","key","j","16.652475247524983","768","428","f","false","match","img/hexagon.png","六边","六边","ALT1","formal_ALT1_2","","","","","","","","","","","",""
"null","<span style='color:red; font-size: 70px;'>错误! </span>","null","html-keyboard-response","156","353613","0.0-7.0-1.0-4.0-0.0-1.24","4","4","4","4","4","4","4","3","4","4","5","5","5","5","5","5","5","5","5","5","1","1","1","1","1","1","1","1","1","0","0","1","1","0","0","0","1","0","1","1","0","1","0","1","5","1","1","2","2","","1","2","1","4","1","621383779721674752","周","466","","","","","","","","","","","","","","","","","","","","","","","","","","","","","","feedback_test","","","","","","","","","","","",""
"608","","f","psychophysics","157","355223","0.0-7.0-1.0-4.0-0.0-0.25","4","4","4","4","4","4","4","3","4","4","5","5","5","5","5","5","5","5","5","5","1","1","1","1","1","1","1","1","1","0","0","1","1","0","0","0","1","0","1","1","0","1","0","1","5","1","1","2","2","","1","2","1","4","1","621383779721674752","周","466","","","","match","","","","","","","","","","","","","","key","f","16.647368421052633","768","428","f","true","match","img/square.png","方形","方形","ALT1","formal_ALT1_2","","","","","","","","","","","",""
"null","<span style='color:GreenYellow; font-size: 70px;'>正确! </span>","null","html-keyboard-response","158","355723","0.0-7.0-1.0-4.0-0.0-1.25","4","4","4","4","4","4","4","3","4","4","5","5","5","5","5","5","5","5","5","5","1","1","1","1","1","1","1","1","1","0","0","1","1","0","0","0","1","0","1","1","0","1","0","1","5","1","1","2","2","","1","2","1","4","1","621383779721674752","周","466","","","","","","","","","","","","","","","","","","","","","","","","","","","","","","feedback_test","","","","","","","","","","","",""
"627","","f","psychophysics","159","357351","0.0-7.0-1.0-4.0-0.0-0.26","4","4","4","4","4","4","4","3","4","4","5","5","5","5","5","5","5","5","5","5","1","1","1","1","1","1","1","1","1","0","0","1","1","0","0","0","1","0","1","1","0","1","0","1","5","1","1","2","2","","1","2","1","4","1","621383779721674752","周","466","","","","match","","","","","","","","","","","","","","key","f","16.647916666666788","768","428","f","true","match","img/ellipse.png","椭圆","椭圆","ALT1","formal_ALT1_2","","","","","","","","","","","",""
"null","<span style='color:GreenYellow; font-size: 70px;'>正确! </span>","null","html-keyboard-response","160","357852","0.0-7.0-1.0-4.0-0.0-1.26","4","4","4","4","4","4","4","3","4","4","5","5","5","5","5","5","5","5","5","5","1","1","1","1","1","1","1","1","1","0","0","1","1","0","0","0","1","0","1","1","0","1","0","1","5","1","1","2","2","","1","2","1","4","1","621383779721674752","周","466","","","","","","","","","","","","","","","","","","","","","","","","","","","","","","feedback_test","","","","","","","","","","","",""
"594","","j","psychophysics","161","359447","0.0-7.0-1.0-4.0-0.0-0.27","4","4","4","4","4","4","4","3","4","4","5","5","5","5","5","5","5","5","5","5","1","1","1","1","1","1","1","1","1","0","0","1","1","0","0","0","1","0","1","1","0","1","0","1","5","1","1","2","2","","1","2","1","4","1","621383779721674752","周","466","","","","nonmatch","","","","","","","","","","","","","","key","j","16.652631578947368","768","428","j","true","nonmatch","img/diamond.png","六边","菱形","ALT1","formal_ALT1_2","","","","","","","","","","","",""
"null","<span style='color:GreenYellow; font-size: 70px;'>正确! </span>","null","html-keyboard-response","162","359948","0.0-7.0-1.0-4.0-0.0-1.27","4","4","4","4","4","4","4","3","4","4","5","5","5","5","5","5","5","5","5","5","1","1","1","1","1","1","1","1","1","0","0","1","1","0","0","0","1","0","1","1","0","1","0","1","5","1","1","2","2","","1","2","1","4","1","621383779721674752","周","466","","","","","","","","","","","","","","","","","","","","","","","","","","","","","","feedback_test","","","","","","","","","","","",""
"665","","j","psychophysics","163","361615","0.0-7.0-1.0-4.0-0.0-0.28","4","4","4","4","4","4","4","3","4","4","5","5","5","5","5","5","5","5","5","5","1","1","1","1","1","1","1","1","1","0","0","1","1","0","0","0","1","0","1","1","0","1","0","1","5","1","1","2","2","","1","2","1","4","1","621383779721674752","周","466","","","","nonmatch","","","","","","","","","","","","","","key","j","16.65353535353547","768","428","j","true","nonmatch","img/diamond.png","椭圆","菱形","ALT1","formal_ALT1_2","","","","","","","","","","","",""
"null","<span style='color:GreenYellow; font-size: 70px;'>正确! </span>","null","html-keyboard-response","164","362115","0.0-7.0-1.0-4.0-0.0-1.28","4","4","4","4","4","4","4","3","4","4","5","5","5","5","5","5","5","5","5","5","1","1","1","1","1","1","1","1","1","0","0","1","1","0","0","0","1","0","1","1","0","1","0","1","5","1","1","2","2","","1","2","1","4","1","621383779721674752","周","466","","","","","","","","","","","","","","","","","","","","","","","","","","","","","","feedback_test","","","","","","","","","","","",""
"618","","j","psychophysics","165","363735","0.0-7.0-1.0-4.0-0.0-0.29","4","4","4","4","4","4","4","3","4","4","5","5","5","5","5","5","5","5","5","5","1","1","1","1","1","1","1","1","1","0","0","1","1","0","0","0","1","0","1","1","0","1","0","1","5","1","1","2","2","","1","2","1","4","1","621383779721674752","周","466","","","","nonmatch","","","","","","","","","","","","","","key","j","16.65463917525773","768","428","j","true","nonmatch","img/ellipse.png","六边","椭圆","ALT1","formal_ALT1_2","","","","","","","","","","","",""
"null","<span style='color:GreenYellow; font-size: 70px;'>正确! </span>","null","html-keyboard-response","166","364236","0.0-7.0-1.0-4.0-0.0-1.29","4","4","4","4","4","4","4","3","4","4","5","5","5","5","5","5","5","5","5","5","1","1","1","1","1","1","1","1","1","0","0","1","1","0","0","0","1","0","1","1","0","1","0","1","5","1","1","2","2","","1","2","1","4","1","621383779721674752","周","466","","","","","","","","","","","","","","","","","","","","","","","","","","","","","","feedback_test","","","","","","","","","","","",""
"657","","f","psychophysics","167","365895","0.0-7.0-1.0-4.0-0.0-0.30","4","4","4","4","4","4","4","3","4","4","5","5","5","5","5","5","5","5","5","5","1","1","1","1","1","1","1","1","1","0","0","1","1","0","0","0","1","0","1","1","0","1","0","1","5","1","1","2","2","","1","2","1","4","1","621383779721674752","周","466","","","","match","","","","","","","","","","","","","","key","f","16.646938775510442","768","428","f","true","match","img/ellipse.png","椭圆","椭圆","ALT1","formal_ALT1_2","","","","","","","","","","","",""
"null","<span style='color:GreenYellow; font-size: 70px;'>正确! </span>","null","html-keyboard-response","168","366396","0.0-7.0-1.0-4.0-0.0-1.30","4","4","4","4","4","4","4","3","4","4","5","5","5","5","5","5","5","5","5","5","1","1","1","1","1","1","1","1","1","0","0","1","1","0","0","0","1","0","1","1","0","1","0","1","5","1","1","2","2","","1","2","1","4","1","621383779721674752","周","466","","","","","","","","","","","","","","","","","","","","","","","","","","","","","","feedback_test","","","","","","","","","","","",""
"787","","j","psychophysics","169","368183","0.0-7.0-1.0-4.0-0.0-0.31","4","4","4","4","4","4","4","3","4","4","5","5","5","5","5","5","5","5","5","5","1","1","1","1","1","1","1","1","1","0","0","1","1","0","0","0","1","0","1","1","0","1","0","1","5","1","1","2","2","","1","2","1","4","1","621383779721674752","周","466","","","","nonmatch","","","","","","","","","","","","","","key","j","16.643396226414655","768","428","j","true","nonmatch","img/square.png","菱形","方形","ALT1","formal_ALT1_2","","","","","","","","","","","",""
"null","<span style='color:GreenYellow; font-size: 70px;'>正确! </span>","null","html-keyboard-response","170","368685","0.0-7.0-1.0-4.0-0.0-1.31","4","4","4","4","4","4","4","3","4","4","5","5","5","5","5","5","5","5","5","5","1","1","1","1","1","1","1","1","1","0","0","1","1","0","0","0","1","0","1","1","0","1","0","1","5","1","1","2","2","","1","2","1","4","1","621383779721674752","周","466","","","","","","","","","","","","","","","","","","","","","","","","","","","","","","feedback_test","","","","","","","","","","","",""
"689","","f","psychophysics","171","370375","0.0-7.0-1.0-4.0-0.0-0.32","4","4","4","4","4","4","4","3","4","4","5","5","5","5","5","5","5","5","5","5","1","1","1","1","1","1","1","1","1","0","0","1","1","0","0","0","1","0","1","1","0","1","0","1","5","1","1","2","2","","1","2","1","4","1","621383779721674752","周","466","","","","match","","","","","","","","","","","","","","key","f","16.652999999999885","768","428","f","true","match","img/square.png","方形","方形","ALT1","formal_ALT1_2","","","","","","","","","","","",""
"null","<span style='color:GreenYellow; font-size: 70px;'>正确! </span>","null","html-keyboard-response","172","370877","0.0-7.0-1.0-4.0-0.0-1.32","4","4","4","4","4","4","4","3","4","4","5","5","5","5","5","5","5","5","5","5","1","1","1","1","1","1","1","1","1","0","0","1","1","0","0","0","1","0","1","1","0","1","0","1","5","1","1","2","2","","1","2","1","4","1","621383779721674752","周","466","","","","","","","","","","","","","","","","","","","","","","","","","","","","","","feedback_test","","","","","","","","","","","",""
"841","","j","psychophysics","173","372719","0.0-7.0-1.0-4.0-0.0-0.33","4","4","4","4","4","4","4","3","4","4","5","5","5","5","5","5","5","5","5","5","1","1","1","1","1","1","1","1","1","0","0","1","1","0","0","0","1","0","1","1","0","1","0","1","5","1","1","2","2","","1","2","1","4","1","621383779721674752","周","466","","","","nonmatch","","","","","","","","","","","","","","key","j","16.65137614678899","768","428","j","true","nonmatch","img/square.png","六边","方形","ALT1","formal_ALT1_2","","","","","","","","","","","",""
"null","<span style='color:GreenYellow; font-size: 70px;'>正确! </span>","null","html-keyboard-response","174","373219","0.0-7.0-1.0-4.0-0.0-1.33","4","4","4","4","4","4","4","3","4","4","5","5","5","5","5","5","5","5","5","5","1","1","1","1","1","1","1","1","1","0","0","1","1","0","0","0","1","0","1","1","0","1","0","1","5","1","1","2","2","","1","2","1","4","1","621383779721674752","周","466","","","","","","","","","","","","","","","","","","","","","","","","","","","","","","feedback_test","","","","","","","","","","","",""
"633","","j","psychophysics","175","374855","0.0-7.0-1.0-4.0-0.0-0.34","4","4","4","4","4","4","4","3","4","4","5","5","5","5","5","5","5","5","5","5","1","1","1","1","1","1","1","1","1","0","0","1","1","0","0","0","1","0","1","1","0","1","0","1","5","1","1","2","2","","1","2","1","4","1","621383779721674752","周","466","","","","nonmatch","","","","","","","","","","","","","","key","j","16.646938775510442","768","428","j","true","nonmatch","img/ellipse.png","菱形","椭圆","ALT1","formal_ALT1_2","","","","","","","","","","","",""
"null","<span style='color:GreenYellow; font-size: 70px;'>正确! </span>","null","html-keyboard-response","176","375355","0.0-7.0-1.0-4.0-0.0-1.34","4","4","4","4","4","4","4","3","4","4","5","5","5","5","5","5","5","5","5","5","1","1","1","1","1","1","1","1","1","0","0","1","1","0","0","0","1","0","1","1","0","1","0","1","5","1","1","2","2","","1","2","1","4","1","621383779721674752","周","466","","","","","","","","","","","","","","","","","","","","","","","","","","","","","","feedback_test","","","","","","","","","","","",""
"770","","j","psychophysics","177","377127","0.0-7.0-1.0-4.0-0.0-0.35","4","4","4","4","4","4","4","3","4","4","5","5","5","5","5","5","5","5","5","5","1","1","1","1","1","1","1","1","1","0","0","1","1","0","0","0","1","0","1","1","0","1","0","1","5","1","1","2","2","","1","2","1","4","1","621383779721674752","周","466","","","","nonmatch","","","","","","","","","","","","","","key","j","16.63904761904795","768","428","j","true","nonmatch","img/hexagon.png","菱形","六边","ALT1","formal_ALT1_2","","","","","","","","","","","",""
"null","<span style='color:GreenYellow; font-size: 70px;'>正确! </span>","null","html-keyboard-response","178","377627","0.0-7.0-1.0-4.0-0.0-1.35","4","4","4","4","4","4","4","3","4","4","5","5","5","5","5","5","5","5","5","5","1","1","1","1","1","1","1","1","1","0","0","1","1","0","0","0","1","0","1","1","0","1","0","1","5","1","1","2","2","","1","2","1","4","1","621383779721674752","周","466","","","","","","","","","","","","","","","","","","","","","","","","","","","","","","feedback_test","","","","","","","","","","","",""
"538","","f","psychophysics","179","379166","0.0-7.0-1.0-4.0-0.0-0.36","4","4","4","4","4","4","4","3","4","4","5","5","5","5","5","5","5","5","5","5","1","1","1","1","1","1","1","1","1","0","0","1","1","0","0","0","1","0","1","1","0","1","0","1","5","1","1","2","2","","1","2","1","4","1","621383779721674752","周","466","","","","match","","","","","","","","","","","","","","key","f","16.65274725274751","768","428","f","true","match","img/ellipse.png","椭圆","椭圆","ALT1","formal_ALT1_2","","","","","","","","","","","",""
"null","<span style='color:GreenYellow; font-size: 70px;'>正确! </span>","null","html-keyboard-response","180","379668","0.0-7.0-1.0-4.0-0.0-1.36","4","4","4","4","4","4","4","3","4","4","5","5","5","5","5","5","5","5","5","5","1","1","1","1","1","1","1","1","1","0","0","1","1","0","0","0","1","0","1","1","0","1","0","1","5","1","1","2","2","","1","2","1","4","1","621383779721674752","周","466","","","","","","","","","","","","","","","","","","","","","","","","","","","","","","feedback_test","","","","","","","","","","","",""
"834","","f","psychophysics","181","381503","0.0-7.0-1.0-4.0-0.0-0.37","4","4","4","4","4","4","4","3","4","4","5","5","5","5","5","5","5","5","5","5","1","1","1","1","1","1","1","1","1","0","0","1","1","0","0","0","1","0","1","1","0","1","0","1","5","1","1","2","2","","1","2","1","4","1","621383779721674752","周","466","","","","match","","","","","","","","","","","","","","key","f","16.643119266055365","768","428","f","true","match","img/diamond.png","菱形","菱形","ALT1","formal_ALT1_2","","","","","","","","","","","",""
