"rt","stimulus","response","trial_type","trial_index","time_elapsed","internal_node_id","ses_1","ses_2","ses_3","ses_4","ses_5","ses_6","ses_7","ses_8","ses_9","ses_10","coreself_1","coreself_2","coreself_3","coreself_4","coreself_5","coreself_6","coreself_7","coreself_8","coreself_9","coreself_10","SGPS_1","SGPS_2","SGPS_3","SGPS_4","SGPS_5","SGPS_6","SGPS_7","SGPS_8","SGPS_9","NPI1","NPI2","NPI3","NPI4","NPI5","NPI6","NPI7","NPI8","NPI9","NPI10","NPI11","NPI12","NPI13","NPI14","NPI15","hsns_1","hsns_2","hsns_3","hsns_4","hsns_5","trap1","hsns_6","hsns_7","hsns_8","hsns_9","hsns_10","subj_idx","friend_name","ParticipantID","value","success","user_agent","responses","item_order","radio_event_ids","radio_event_times","key_event_times","mouse_event_times","straightlining","zigzagging","honeypot","timeout","failed_images","failed_audio","failed_video","version_attrib","version_target","correct","IAT","screen_id","task_id","RT","condition","word","varname","summary","version_attrib2","version_target2","time_stamp","view_history","response_type","key_press","avg_frame_time","center_x","center_y","correct_response","identity","Image","question_order","correct_answer","trap1_item"
"1374","
   <p><div style = ""color: white;font-size:25px;"">您好，欢迎参加本次实验。</div> </p>
   <p><div style = ""color: white;font-size:25px;"">为充分保障您的权利，请确保您已经知晓并同意《参与实验同意书》以及《数据公开知情同意书》。</div></p>
   <p><div style = ""color: white;font-size:25px;"">如果您未见过上述内容，请咨询实验员。</div></p>
   <p><div style = ""color: white;font-size:25px;"">如果您选择继续实验，则表示您已经清楚两份知情同意书的内容并同意。</div></p>
   <p><div style = ""color: pink;font-size:30px;"">请确保您记得day0的实验编号，您将在本次实验输入该编号，若您忘记，请咨询实验员后作答。</div></p>
   <p><div style = ""color: lightblue;font-size:25px;"">请您尽可能认真地作答，我们将依据您在各问卷和按键任务中的作答质量发放报酬。</div></p>
   <p> <div style = ""color: green;font-size:25px;""><按空格键至下页></div> </p>
   "," ","html-keyboard-response","0","1375","0.0-0.0","4","4","4","4","4","4","4","4","4","4","5","5","5","5","5","5","5","5","5","5","1","1","1","1","1","1","1","1","1","0","0","0","1","0","1","0","0","1","1","1","0","0","1","0","5","2","2","1","1","4","1","3","2","5","1","619618027951882240","张","268","","","","","","","","","","","","","","","","","","","","","","","","","","","","","","","","","","","","","","","","","",""
"","","","call-function","1","1376","0.0-1.0-0.0","4","4","4","4","4","4","4","4","4","4","5","5","5","5","5","5","5","5","5","5","1","1","1","1","1","1","1","1","1","0","0","0","1","0","1","0","0","1","1","1","0","0","1","0","5","2","2","1","1","4","1","3","2","5","1","619618027951882240","张","268","","","","","","","","","","","","","","","","","","","","","","","","","","","","","","","","","","","","","","","","","",""
"30679","","{""friend_name"":""张"",""ParticipantID"":""268""}","survey-html-form","2","32056","0.0-1.0-1.0","4","4","4","4","4","4","4","4","4","4","5","5","5","5","5","5","5","5","5","5","1","1","1","1","1","1","1","1","1","0","0","0","1","0","1","0","0","1","1","1","0","0","1","0","5","2","2","1","1","4","1","3","2","5","1","619618027951882240","张","268","","","","","","","","","","","","","","","","","","","","","","","","","","","","","","","","","","","","","","","","","",""
"","","","fullscreen","3","33148","0.0-2.0","4","4","4","4","4","4","4","4","4","4","5","5","5","5","5","5","5","5","5","5","1","1","1","1","1","1","1","1","1","0","0","0","1","0","1","0","0","1","1","1","0","0","1","0","5","2","2","1","1","4","1","3","2","5","1","619618027951882240","张","268","","true","{}","","","","","","","","","","","","","","","","","","","","","","","","","","","","","","","","","","","","","","",""
"15953.800000190735","","{""Q01"":""4"",""Q02"":""4"",""Q03"":""4"",""Q04"":""4"",""Q05"":""4"",""Q06"":""4"",""Q07"":""4"",""Q08"":""4"",""Q09"":""4"",""Q10"":""4""}","survey-template","4","49104","0.0-3.0","4","4","4","4","4","4","4","4","4","4","5","5","5","5","5","5","5","5","5","5","1","1","1","1","1","1","1","1","1","0","0","0","1","0","1","0","0","1","1","1","0","0","1","0","5","2","2","1","1","4","1","3","2","5","1","619618027951882240","张","268","","","","{""Q01"":""4"",""Q02"":""4"",""Q03"":""4"",""Q04"":""4"",""Q05"":""4"",""Q06"":""4"",""Q07"":""4"",""Q08"":""4"",""Q09"":""4"",""Q10"":""4""}","[0,1,2,3,4,5,6,7,8,9]","[""Q01"",""Q02"",""Q03"",""Q04"",""Q05"",""Q06"",""Q07"",""Q07"",""Q08"",""Q09"",""Q10""]","[1280.9000000953674,2497,3745.100000143051,5584.900000095367,7432.800000190735,8392.900000095367,9592.900000095367,9904.800000190735,11321,11769.100000143051,12217]","[]","[1280.9000000953674,2497,3745.100000143051,4969,5584.900000095367,6328.900000095367,6880.900000095367,7432.800000190735,8392.900000095367,9000.900000095367,9592.900000095367,9904.800000190735,10920.800000190735,11321,11769.100000143051,12217,15953]","0.5","0.5555555555555556","0","","","","","","","","","","","","","","","","","","","","","","","","","","","","","",""
"12979.799999952316","","{""Q01"":""5"",""Q02"":""5"",""Q03"":""5"",""Q04"":""5"",""Q05"":""5"",""Q06"":""5"",""Q07"":""5"",""Q08"":""5"",""Q09"":""5"",""Q10"":""5""}","survey-template","5","62088","0.0-4.0","4","4","4","4","4","4","4","4","4","4","5","5","5","5","5","5","5","5","5","5","1","1","1","1","1","1","1","1","1","0","0","0","1","0","1","0","0","1","1","1","0","0","1","0","5","2","2","1","1","4","1","3","2","5","1","619618027951882240","张","268","","","","{""Q01"":""5"",""Q02"":""5"",""Q03"":""5"",""Q04"":""5"",""Q05"":""5"",""Q06"":""5"",""Q07"":""5"",""Q08"":""5"",""Q09"":""5"",""Q10"":""5""}","[0,1,2,3,4,5,6,7,8,9]","[""Q01"",""Q02"",""Q03"",""Q04"",""Q05"",""Q06"",""Q07"",""Q08"",""Q09"",""Q10""]","[1754.5999999046326,2786.5999999046326,3474.7000000476837,4618.5,5802.5,6802.5,8506.5,9066.900000095367,10346.5,12314.599999904633]","[]","[1754.5999999046326,2786.5999999046326,3474.7000000476837,4618.5,5802.5,6802.5,8146.400000095367,8506.5,9066.900000095367,10346.5,11226.5,12114.299999952316,12314.599999904633,12978.700000047684]","0.6","0.7777777777777778","0","","","","","","","","","","","","","","","","","","","","","","","","","","","","","",""
"","","","preload","6","62402","0.0-5.0","4","4","4","4","4","4","4","4","4","4","5","5","5","5","5","5","5","5","5","5","1","1","1","1","1","1","1","1","1","0","0","0","1","0","1","0","0","1","1","1","0","0","1","0","5","2","2","1","1","4","1","3","2","5","1","619618027951882240","张","268","","true","","","","","","","","","","","false","[]","[]","[]","","","","","","","","","","","","","","","","","","","","","","","","","",""
"32876","
    <h3>词语分类任务</h3>
    <p>在接下来的任务中，你需要对一系列词语进行分类。</p>
    <p>请先熟悉这些词语，这有利于你完成接下来的任务。</p>
    <table align=""center"" border=1 cellpadding=3 cellspacing=0>
    <tr> <th>类别</th> <th>词语</th> </tr>
    <tr> <td>&emsp;积极&emsp;</td> <td>&emsp;能干、全能、全才、高效、精干、天才&emsp;</td> </tr>
    <tr> <td>&emsp;消极&emsp;</td> <td>&emsp;无能、低能、废物、拙笨、愚钝、蠢笨&emsp;</td> </tr>
    <tr> <td>&emsp;自我&emsp;</td> <td>&emsp;我、我的、自己、自己的、本人、本人的&emsp;</td> </tr>
    <tr> <td>&emsp;他人&emsp;</td> <td>&emsp;他、他的、别人、别人的、他人、他人的&emsp;</td> </tr>
    </table><br/>","0","html-button-response","7","95279","0.0-6.0-0.0-0.0","4","4","4","4","4","4","4","4","4","4","5","5","5","5","5","5","5","5","5","5","1","1","1","1","1","1","1","1","1","0","0","0","1","0","1","0","0","1","1","1","0","0","1","0","5","2","2","1","1","4","1","3","2","5","1","619618027951882240","张","268","","","","","","","","","","","","","","","","","2","2","","","","","","","","","","","","","","","","","","","","","","","",""
"14021","
    <div class=""tag-bottom"">
    <p> —— 任务1：对“他人”词和“自我”词分类 ——<p/>
    不同词语会出现在屏幕中央，类别标签将始终显示在屏幕上方<p/>   
    <span style=""color:#FFD866""><b>请根据上方标签的提示，尽可能正确并且快速地做出按键反应</b></span><p/>
    当按键错误时屏幕中会出现<span style=""color:red""> X </span>，需要按另一个键纠正才能继续<br/><p/>
    请把双手食指分别放在键盘的“E”键和“I”键上<p/>
    按<空格键>开始
    </p></div>"," ","html-keyboard-response","8","109303","0.0-6.0-0.0-1.0","4","4","4","4","4","4","4","4","4","4","5","5","5","5","5","5","5","5","5","5","1","1","1","1","1","1","1","1","1","0","0","0","1","0","1","0","0","1","1","1","0","0","1","0","5","2","2","1","1","4","1","3","2","5","1","619618027951882240","张","268","","","","","","","","","","","","","","","","","","","","","","","","","","","","","","","","","","","","","","","","","",""
"null","","null","html-keyboard-response","9","109554","0.0-6.0-0.0-2.0-0.0","4","4","4","4","4","4","4","4","4","4","5","5","5","5","5","5","5","5","5","5","1","1","1","1","1","1","1","1","1","0","0","0","1","0","1","0","0","1","1","1","0","0","1","0","5","2","2","1","1","4","1","3","2","5","1","619618027951882240","张","268","","","","","","","","","","","","","","","","","","","","","","","","","","","","","","","","","","","","","","","","","",""
"594","<p style=""color:rgb(150, 250, 100); font-size: 35px;"">他</p>","i","categorize-html","10","110863","0.0-6.0-0.0-2.0-1.0","4","4","4","4","4","4","4","4","4","4","5","5","5","5","5","5","5","5","5","5","1","1","1","1","1","1","1","1","1","0","0","0","1","0","1","0","0","1","1","1","0","0","1","0","5","2","2","1","1","4","1","3","2","5","1","619618027951882240","张","268","","","","","","","","","","","","","","","","","","","false","1","1","ability","594","other","他","","","","","","","","","","","","","","","","",""
"null","","null","html-keyboard-response","11","111115","0.0-6.0-0.0-2.0-0.1","4","4","4","4","4","4","4","4","4","4","5","5","5","5","5","5","5","5","5","5","1","1","1","1","1","1","1","1","1","0","0","0","1","0","1","0","0","1","1","1","0","0","1","0","5","2","2","1","1","4","1","3","2","5","1","619618027951882240","张","268","","","","","","","","","","","","","","","","","","","","","","","","","","","","","","","","","","","","","","","","","",""
"467","<p style=""color:rgb(150, 250, 100); font-size: 35px;"">他的</p>","e","categorize-html","12","111583","0.0-6.0-0.0-2.0-1.1","4","4","4","4","4","4","4","4","4","4","5","5","5","5","5","5","5","5","5","5","1","1","1","1","1","1","1","1","1","0","0","0","1","0","1","0","0","1","1","1","0","0","1","0","5","2","2","1","1","4","1","3","2","5","1","619618027951882240","张","268","","","","","","","","","","","","","","","","","","","true","1","1","ability","467","other","他的","","","","","","","","","","","","","","","","",""
"null","","null","html-keyboard-response","13","111834","0.0-6.0-0.0-2.0-0.2","4","4","4","4","4","4","4","4","4","4","5","5","5","5","5","5","5","5","5","5","1","1","1","1","1","1","1","1","1","0","0","0","1","0","1","0","0","1","1","1","0","0","1","0","5","2","2","1","1","4","1","3","2","5","1","619618027951882240","张","268","","","","","","","","","","","","","","","","","","","","","","","","","","","","","","","","","","","","","","","","","",""
"572","<p style=""color:rgb(150, 250, 100); font-size: 35px;"">别人</p>","i","categorize-html","14","112702","0.0-6.0-0.0-2.0-1.2","4","4","4","4","4","4","4","4","4","4","5","5","5","5","5","5","5","5","5","5","1","1","1","1","1","1","1","1","1","0","0","0","1","0","1","0","0","1","1","1","0","0","1","0","5","2","2","1","1","4","1","3","2","5","1","619618027951882240","张","268","","","","","","","","","","","","","","","","","","","false","1","1","ability","572","other","别人","","","","","","","","","","","","","","","","",""
"null","","null","html-keyboard-response","15","112954","0.0-6.0-0.0-2.0-0.3","4","4","4","4","4","4","4","4","4","4","5","5","5","5","5","5","5","5","5","5","1","1","1","1","1","1","1","1","1","0","0","0","1","0","1","0","0","1","1","1","0","0","1","0","5","2","2","1","1","4","1","3","2","5","1","619618027951882240","张","268","","","","","","","","","","","","","","","","","","","","","","","","","","","","","","","","","","","","","","","","","",""
"516","<p style=""color:rgb(150, 250, 100); font-size: 35px;"">别人的</p>","e","categorize-html","16","113471","0.0-6.0-0.0-2.0-1.3","4","4","4","4","4","4","4","4","4","4","5","5","5","5","5","5","5","5","5","5","1","1","1","1","1","1","1","1","1","0","0","0","1","0","1","0","0","1","1","1","0","0","1","0","5","2","2","1","1","4","1","3","2","5","1","619618027951882240","张","268","","","","","","","","","","","","","","","","","","","true","1","1","ability","516","other","别人的","","","","","","","","","","","","","","","","",""
"null","","null","html-keyboard-response","17","113723","0.0-6.0-0.0-2.0-0.4","4","4","4","4","4","4","4","4","4","4","5","5","5","5","5","5","5","5","5","5","1","1","1","1","1","1","1","1","1","0","0","0","1","0","1","0","0","1","1","1","0","0","1","0","5","2","2","1","1","4","1","3","2","5","1","619618027951882240","张","268","","","","","","","","","","","","","","","","","","","","","","","","","","","","","","","","","","","","","","","","","",""
"459","<p style=""color:rgb(150, 250, 100); font-size: 35px;"">自己</p>","i","categorize-html","18","114183","0.0-6.0-0.0-2.0-1.4","4","4","4","4","4","4","4","4","4","4","5","5","5","5","5","5","5","5","5","5","1","1","1","1","1","1","1","1","1","0","0","0","1","0","1","0","0","1","1","1","0","0","1","0","5","2","2","1","1","4","1","3","2","5","1","619618027951882240","张","268","","","","","","","","","","","","","","","","","","","true","1","1","ability","459","self","自己","","","","","","","","","","","","","","","","",""
"null","","null","html-keyboard-response","19","114435","0.0-6.0-0.0-2.0-0.5","4","4","4","4","4","4","4","4","4","4","5","5","5","5","5","5","5","5","5","5","1","1","1","1","1","1","1","1","1","0","0","0","1","0","1","0","0","1","1","1","0","0","1","0","5","2","2","1","1","4","1","3","2","5","1","619618027951882240","张","268","","","","","","","","","","","","","","","","","","","","","","","","","","","","","","","","","","","","","","","","","",""
"499","<p style=""color:rgb(150, 250, 100); font-size: 35px;"">本人的</p>","i","categorize-html","20","114935","0.0-6.0-0.0-2.0-1.5","4","4","4","4","4","4","4","4","4","4","5","5","5","5","5","5","5","5","5","5","1","1","1","1","1","1","1","1","1","0","0","0","1","0","1","0","0","1","1","1","0","0","1","0","5","2","2","1","1","4","1","3","2","5","1","619618027951882240","张","268","","","","","","","","","","","","","","","","","","","true","1","1","ability","499","self","本人的","","","","","","","","","","","","","","","","",""
"null","","null","html-keyboard-response","21","115190","0.0-6.0-0.0-2.0-0.6","4","4","4","4","4","4","4","4","4","4","5","5","5","5","5","5","5","5","5","5","1","1","1","1","1","1","1","1","1","0","0","0","1","0","1","0","0","1","1","1","0","0","1","0","5","2","2","1","1","4","1","3","2","5","1","619618027951882240","张","268","","","","","","","","","","","","","","","","","","","","","","","","","","","","","","","","","","","","","","","","","",""
"439","<p style=""color:rgb(150, 250, 100); font-size: 35px;"">自己的</p>","i","categorize-html","22","115631","0.0-6.0-0.0-2.0-1.6","4","4","4","4","4","4","4","4","4","4","5","5","5","5","5","5","5","5","5","5","1","1","1","1","1","1","1","1","1","0","0","0","1","0","1","0","0","1","1","1","0","0","1","0","5","2","2","1","1","4","1","3","2","5","1","619618027951882240","张","268","","","","","","","","","","","","","","","","","","","true","1","1","ability","439","self","自己的","","","","","","","","","","","","","","","","",""
"null","","null","html-keyboard-response","23","115882","0.0-6.0-0.0-2.0-0.7","4","4","4","4","4","4","4","4","4","4","5","5","5","5","5","5","5","5","5","5","1","1","1","1","1","1","1","1","1","0","0","0","1","0","1","0","0","1","1","1","0","0","1","0","5","2","2","1","1","4","1","3","2","5","1","619618027951882240","张","268","","","","","","","","","","","","","","","","","","","","","","","","","","","","","","","","","","","","","","","","","",""
"468","<p style=""color:rgb(150, 250, 100); font-size: 35px;"">本人</p>","i","categorize-html","24","116351","0.0-6.0-0.0-2.0-1.7","4","4","4","4","4","4","4","4","4","4","5","5","5","5","5","5","5","5","5","5","1","1","1","1","1","1","1","1","1","0","0","0","1","0","1","0","0","1","1","1","0","0","1","0","5","2","2","1","1","4","1","3","2","5","1","619618027951882240","张","268","","","","","","","","","","","","","","","","","","","true","1","1","ability","468","self","本人","","","","","","","","","","","","","","","","",""
"null","","null","html-keyboard-response","25","116602","0.0-6.0-0.0-2.0-0.8","4","4","4","4","4","4","4","4","4","4","5","5","5","5","5","5","5","5","5","5","1","1","1","1","1","1","1","1","1","0","0","0","1","0","1","0","0","1","1","1","0","0","1","0","5","2","2","1","1","4","1","3","2","5","1","619618027951882240","张","268","","","","","","","","","","","","","","","","","","","","","","","","","","","","","","","","","","","","","","","","","",""
"676","<p style=""color:rgb(150, 250, 100); font-size: 35px;"">我</p>","i","categorize-html","26","117278","0.0-6.0-0.0-2.0-1.8","4","4","4","4","4","4","4","4","4","4","5","5","5","5","5","5","5","5","5","5","1","1","1","1","1","1","1","1","1","0","0","0","1","0","1","0","0","1","1","1","0","0","1","0","5","2","2","1","1","4","1","3","2","5","1","619618027951882240","张","268","","","","","","","","","","","","","","","","","","","true","1","1","ability","676","self","我","","","","","","","","","","","","","","","","",""
"null","","null","html-keyboard-response","27","117530","0.0-6.0-0.0-2.0-0.9","4","4","4","4","4","4","4","4","4","4","5","5","5","5","5","5","5","5","5","5","1","1","1","1","1","1","1","1","1","0","0","0","1","0","1","0","0","1","1","1","0","0","1","0","5","2","2","1","1","4","1","3","2","5","1","619618027951882240","张","268","","","","","","","","","","","","","","","","","","","","","","","","","","","","","","","","","","","","","","","","","",""
"460","<p style=""color:rgb(150, 250, 100); font-size: 35px;"">他人</p>","e","categorize-html","28","117991","0.0-6.0-0.0-2.0-1.9","4","4","4","4","4","4","4","4","4","4","5","5","5","5","5","5","5","5","5","5","1","1","1","1","1","1","1","1","1","0","0","0","1","0","1","0","0","1","1","1","0","0","1","0","5","2","2","1","1","4","1","3","2","5","1","619618027951882240","张","268","","","","","","","","","","","","","","","","","","","true","1","1","ability","460","other","他人","","","","","","","","","","","","","","","","",""
"null","","null","html-keyboard-response","29","118243","0.0-6.0-0.0-2.0-0.10","4","4","4","4","4","4","4","4","4","4","5","5","5","5","5","5","5","5","5","5","1","1","1","1","1","1","1","1","1","0","0","0","1","0","1","0","0","1","1","1","0","0","1","0","5","2","2","1","1","4","1","3","2","5","1","619618027951882240","张","268","","","","","","","","","","","","","","","","","","","","","","","","","","","","","","","","","","","","","","","","","",""
"643","<p style=""color:rgb(150, 250, 100); font-size: 35px;"">我的</p>","i","categorize-html","30","118887","0.0-6.0-0.0-2.0-1.10","4","4","4","4","4","4","4","4","4","4","5","5","5","5","5","5","5","5","5","5","1","1","1","1","1","1","1","1","1","0","0","0","1","0","1","0","0","1","1","1","0","0","1","0","5","2","2","1","1","4","1","3","2","5","1","619618027951882240","张","268","","","","","","","","","","","","","","","","","","","true","1","1","ability","643","self","我的","","","","","","","","","","","","","","","","",""
"null","","null","html-keyboard-response","31","119138","0.0-6.0-0.0-2.0-0.11","4","4","4","4","4","4","4","4","4","4","5","5","5","5","5","5","5","5","5","5","1","1","1","1","1","1","1","1","1","0","0","0","1","0","1","0","0","1","1","1","0","0","1","0","5","2","2","1","1","4","1","3","2","5","1","619618027951882240","张","268","","","","","","","","","","","","","","","","","","","","","","","","","","","","","","","","","","","","","","","","","",""
"579","<p style=""color:rgb(150, 250, 100); font-size: 35px;"">他人的</p>","e","categorize-html","32","119719","0.0-6.0-0.0-2.0-1.11","4","4","4","4","4","4","4","4","4","4","5","5","5","5","5","5","5","5","5","5","1","1","1","1","1","1","1","1","1","0","0","0","1","0","1","0","0","1","1","1","0","0","1","0","5","2","2","1","1","4","1","3","2","5","1","619618027951882240","张","268","","","","","","","","","","","","","","","","","","","true","1","1","ability","579","other","他人的","","","","","","","","","","","","","","","","",""
"815","
    <div class=""tag-bottom""><p>
    —— 任务2：对“消极”词和“积极”词分类 ——<p/>   
    <span style=""color:#78DCE8""><b>注意上方，类别标签和需要分类的词语都已经改变</b></span><p/>
    <span style=""color:#FFD866""><b>请根据上方标签的提示，尽可能正确并且快速地做出按键反应</b></span><p/>
    当按键错误时屏幕中会出现<span style=""color:red""> X </span>，需要按另一个键纠正才能继续<br/><p/>
    请把双手食指分别放在键盘的“E”键和“I”键上<p/>
    按<空格键>开始
    </p></div>"," ","html-keyboard-response","33","120534","0.0-6.0-0.0-3.0","4","4","4","4","4","4","4","4","4","4","5","5","5","5","5","5","5","5","5","5","1","1","1","1","1","1","1","1","1","0","0","0","1","0","1","0","0","1","1","1","0","0","1","0","5","2","2","1","1","4","1","3","2","5","1","619618027951882240","张","268","","","","","","","","","","","","","","","","","","","","","","","","","","","","","","","","","","","","","","","","","",""
"null","","null","html-keyboard-response","34","120786","0.0-6.0-0.0-4.0-0.0","4","4","4","4","4","4","4","4","4","4","5","5","5","5","5","5","5","5","5","5","1","1","1","1","1","1","1","1","1","0","0","0","1","0","1","0","0","1","1","1","0","0","1","0","5","2","2","1","1","4","1","3","2","5","1","619618027951882240","张","268","","","","","","","","","","","","","","","","","","","","","","","","","","","","","","","","","","","","","","","","","",""
"524","<p style=""color:white; font-size: 35px;"">低能</p>","e","categorize-html","35","121311","0.0-6.0-0.0-4.0-1.0","4","4","4","4","4","4","4","4","4","4","5","5","5","5","5","5","5","5","5","5","1","1","1","1","1","1","1","1","1","0","0","0","1","0","1","0","0","1","1","1","0","0","1","0","5","2","2","1","1","4","1","3","2","5","1","619618027951882240","张","268","","","","","","","","","","","","","","","","","","","true","2","2","ability","524","negative","低能","","","","","","","","","","","","","","","","",""
"null","","null","html-keyboard-response","36","121563","0.0-6.0-0.0-4.0-0.1","4","4","4","4","4","4","4","4","4","4","5","5","5","5","5","5","5","5","5","5","1","1","1","1","1","1","1","1","1","0","0","0","1","0","1","0","0","1","1","1","0","0","1","0","5","2","2","1","1","4","1","3","2","5","1","619618027951882240","张","268","","","","","","","","","","","","","","","","","","","","","","","","","","","","","","","","","","","","","","","","","",""
"475","<p style=""color:white; font-size: 35px;"">废物</p>","e","categorize-html","37","122039","0.0-6.0-0.0-4.0-1.1","4","4","4","4","4","4","4","4","4","4","5","5","5","5","5","5","5","5","5","5","1","1","1","1","1","1","1","1","1","0","0","0","1","0","1","0","0","1","1","1","0","0","1","0","5","2","2","1","1","4","1","3","2","5","1","619618027951882240","张","268","","","","","","","","","","","","","","","","","","","true","2","2","ability","475","negative","废物","","","","","","","","","","","","","","","","",""
"null","","null","html-keyboard-response","38","122293","0.0-6.0-0.0-4.0-0.2","4","4","4","4","4","4","4","4","4","4","5","5","5","5","5","5","5","5","5","5","1","1","1","1","1","1","1","1","1","0","0","0","1","0","1","0","0","1","1","1","0","0","1","0","5","2","2","1","1","4","1","3","2","5","1","619618027951882240","张","268","","","","","","","","","","","","","","","","","","","","","","","","","","","","","","","","","","","","","","","","","",""
"480","<p style=""color:white; font-size: 35px;"">蠢笨</p>","e","categorize-html","39","122774","0.0-6.0-0.0-4.0-1.2","4","4","4","4","4","4","4","4","4","4","5","5","5","5","5","5","5","5","5","5","1","1","1","1","1","1","1","1","1","0","0","0","1","0","1","0","0","1","1","1","0","0","1","0","5","2","2","1","1","4","1","3","2","5","1","619618027951882240","张","268","","","","","","","","","","","","","","","","","","","true","2","2","ability","480","negative","蠢笨","","","","","","","","","","","","","","","","",""
"null","","null","html-keyboard-response","40","123026","0.0-6.0-0.0-4.0-0.3","4","4","4","4","4","4","4","4","4","4","5","5","5","5","5","5","5","5","5","5","1","1","1","1","1","1","1","1","1","0","0","0","1","0","1","0","0","1","1","1","0","0","1","0","5","2","2","1","1","4","1","3","2","5","1","619618027951882240","张","268","","","","","","","","","","","","","","","","","","","","","","","","","","","","","","","","","","","","","","","","","",""
"412","<p style=""color:white; font-size: 35px;"">精干</p>","i","categorize-html","41","123439","0.0-6.0-0.0-4.0-1.3","4","4","4","4","4","4","4","4","4","4","5","5","5","5","5","5","5","5","5","5","1","1","1","1","1","1","1","1","1","0","0","0","1","0","1","0","0","1","1","1","0","0","1","0","5","2","2","1","1","4","1","3","2","5","1","619618027951882240","张","268","","","","","","","","","","","","","","","","","","","true","2","2","ability","412","positive","精干","","","","","","","","","","","","","","","","",""
"null","","null","html-keyboard-response","42","123690","0.0-6.0-0.0-4.0-0.4","4","4","4","4","4","4","4","4","4","4","5","5","5","5","5","5","5","5","5","5","1","1","1","1","1","1","1","1","1","0","0","0","1","0","1","0","0","1","1","1","0","0","1","0","5","2","2","1","1","4","1","3","2","5","1","619618027951882240","张","268","","","","","","","","","","","","","","","","","","","","","","","","","","","","","","","","","","","","","","","","","",""
"444","<p style=""color:white; font-size: 35px;"">高效</p>","i","categorize-html","43","124134","0.0-6.0-0.0-4.0-1.4","4","4","4","4","4","4","4","4","4","4","5","5","5","5","5","5","5","5","5","5","1","1","1","1","1","1","1","1","1","0","0","0","1","0","1","0","0","1","1","1","0","0","1","0","5","2","2","1","1","4","1","3","2","5","1","619618027951882240","张","268","","","","","","","","","","","","","","","","","","","true","2","2","ability","444","positive","高效","","","","","","","","","","","","","","","","",""
"null","","null","html-keyboard-response","44","124386","0.0-6.0-0.0-4.0-0.5","4","4","4","4","4","4","4","4","4","4","5","5","5","5","5","5","5","5","5","5","1","1","1","1","1","1","1","1","1","0","0","0","1","0","1","0","0","1","1","1","0","0","1","0","5","2","2","1","1","4","1","3","2","5","1","619618027951882240","张","268","","","","","","","","","","","","","","","","","","","","","","","","","","","","","","","","","","","","","","","","","",""
"427","<p style=""color:white; font-size: 35px;"">全才</p>","i","categorize-html","45","124815","0.0-6.0-0.0-4.0-1.5","4","4","4","4","4","4","4","4","4","4","5","5","5","5","5","5","5","5","5","5","1","1","1","1","1","1","1","1","1","0","0","0","1","0","1","0","0","1","1","1","0","0","1","0","5","2","2","1","1","4","1","3","2","5","1","619618027951882240","张","268","","","","","","","","","","","","","","","","","","","true","2","2","ability","427","positive","全才","","","","","","","","","","","","","","","","",""
"null","","null","html-keyboard-response","46","125066","0.0-6.0-0.0-4.0-0.6","4","4","4","4","4","4","4","4","4","4","5","5","5","5","5","5","5","5","5","5","1","1","1","1","1","1","1","1","1","0","0","0","1","0","1","0","0","1","1","1","0","0","1","0","5","2","2","1","1","4","1","3","2","5","1","619618027951882240","张","268","","","","","","","","","","","","","","","","","","","","","","","","","","","","","","","","","","","","","","","","","",""
"451","<p style=""color:white; font-size: 35px;"">天才</p>","i","categorize-html","47","125518","0.0-6.0-0.0-4.0-1.6","4","4","4","4","4","4","4","4","4","4","5","5","5","5","5","5","5","5","5","5","1","1","1","1","1","1","1","1","1","0","0","0","1","0","1","0","0","1","1","1","0","0","1","0","5","2","2","1","1","4","1","3","2","5","1","619618027951882240","张","268","","","","","","","","","","","","","","","","","","","true","2","2","ability","451","positive","天才","","","","","","","","","","","","","","","","",""
"null","","null","html-keyboard-response","48","125770","0.0-6.0-0.0-4.0-0.7","4","4","4","4","4","4","4","4","4","4","5","5","5","5","5","5","5","5","5","5","1","1","1","1","1","1","1","1","1","0","0","0","1","0","1","0","0","1","1","1","0","0","1","0","5","2","2","1","1","4","1","3","2","5","1","619618027951882240","张","268","","","","","","","","","","","","","","","","","","","","","","","","","","","","","","","","","","","","","","","","","",""
"476","<p style=""color:white; font-size: 35px;"">无能</p>","e","categorize-html","49","126247","0.0-6.0-0.0-4.0-1.7","4","4","4","4","4","4","4","4","4","4","5","5","5","5","5","5","5","5","5","5","1","1","1","1","1","1","1","1","1","0","0","0","1","0","1","0","0","1","1","1","0","0","1","0","5","2","2","1","1","4","1","3","2","5","1","619618027951882240","张","268","","","","","","","","","","","","","","","","","","","true","2","2","ability","476","negative","无能","","","","","","","","","","","","","","","","",""
"null","","null","html-keyboard-response","50","126505","0.0-6.0-0.0-4.0-0.8","4","4","4","4","4","4","4","4","4","4","5","5","5","5","5","5","5","5","5","5","1","1","1","1","1","1","1","1","1","0","0","0","1","0","1","0","0","1","1","1","0","0","1","0","5","2","2","1","1","4","1","3","2","5","1","619618027951882240","张","268","","","","","","","","","","","","","","","","","","","","","","","","","","","","","","","","","","","","","","","","","",""
"413","<p style=""color:white; font-size: 35px;"">愚钝</p>","e","categorize-html","51","126918","0.0-6.0-0.0-4.0-1.8","4","4","4","4","4","4","4","4","4","4","5","5","5","5","5","5","5","5","5","5","1","1","1","1","1","1","1","1","1","0","0","0","1","0","1","0","0","1","1","1","0","0","1","0","5","2","2","1","1","4","1","3","2","5","1","619618027951882240","张","268","","","","","","","","","","","","","","","","","","","true","2","2","ability","413","negative","愚钝","","","","","","","","","","","","","","","","",""
"null","","null","html-keyboard-response","52","127170","0.0-6.0-0.0-4.0-0.9","4","4","4","4","4","4","4","4","4","4","5","5","5","5","5","5","5","5","5","5","1","1","1","1","1","1","1","1","1","0","0","0","1","0","1","0","0","1","1","1","0","0","1","0","5","2","2","1","1","4","1","3","2","5","1","619618027951882240","张","268","","","","","","","","","","","","","","","","","","","","","","","","","","","","","","","","","","","","","","","","","",""
"556","<p style=""color:white; font-size: 35px;"">全能</p>","i","categorize-html","53","127727","0.0-6.0-0.0-4.0-1.9","4","4","4","4","4","4","4","4","4","4","5","5","5","5","5","5","5","5","5","5","1","1","1","1","1","1","1","1","1","0","0","0","1","0","1","0","0","1","1","1","0","0","1","0","5","2","2","1","1","4","1","3","2","5","1","619618027951882240","张","268","","","","","","","","","","","","","","","","","","","true","2","2","ability","556","positive","全能","","","","","","","","","","","","","","","","",""
"null","","null","html-keyboard-response","54","127978","0.0-6.0-0.0-4.0-0.10","4","4","4","4","4","4","4","4","4","4","5","5","5","5","5","5","5","5","5","5","1","1","1","1","1","1","1","1","1","0","0","0","1","0","1","0","0","1","1","1","0","0","1","0","5","2","2","1","1","4","1","3","2","5","1","619618027951882240","张","268","","","","","","","","","","","","","","","","","","","","","","","","","","","","","","","","","","","","","","","","","",""
"524","<p style=""color:white; font-size: 35px;"">能干</p>","i","categorize-html","55","128503","0.0-6.0-0.0-4.0-1.10","4","4","4","4","4","4","4","4","4","4","5","5","5","5","5","5","5","5","5","5","1","1","1","1","1","1","1","1","1","0","0","0","1","0","1","0","0","1","1","1","0","0","1","0","5","2","2","1","1","4","1","3","2","5","1","619618027951882240","张","268","","","","","","","","","","","","","","","","","","","true","2","2","ability","524","positive","能干","","","","","","","","","","","","","","","","",""
"null","","null","html-keyboard-response","56","128755","0.0-6.0-0.0-4.0-0.11","4","4","4","4","4","4","4","4","4","4","5","5","5","5","5","5","5","5","5","5","1","1","1","1","1","1","1","1","1","0","0","0","1","0","1","0","0","1","1","1","0","0","1","0","5","2","2","1","1","4","1","3","2","5","1","619618027951882240","张","268","","","","","","","","","","","","","","","","","","","","","","","","","","","","","","","","","","","","","","","","","",""
"547","<p style=""color:white; font-size: 35px;"">拙笨</p>","e","categorize-html","57","129303","0.0-6.0-0.0-4.0-1.11","4","4","4","4","4","4","4","4","4","4","5","5","5","5","5","5","5","5","5","5","1","1","1","1","1","1","1","1","1","0","0","0","1","0","1","0","0","1","1","1","0","0","1","0","5","2","2","1","1","4","1","3","2","5","1","619618027951882240","张","268","","","","","","","","","","","","","","","","","","","true","2","2","ability","547","negative","拙笨","","","","","","","","","","","","","","","","",""
"1278","
    <div class=""tag-bottom""><p>
    —— 任务3：对“他人/消极”词和“自我/积极”词分类 ——<p/>
    <span style=""color:#78DCE8""><b>注意上方，之前的四类词语将混合在一起交替呈现</b></span><p/>
    <span style=""color:#FFD866""><b>请根据上方标签的提示，尽可能正确并且快速地做出按键反应</b></span><p/>
    当按键错误时屏幕中会出现<span style=""color:red""> X </span>，需要按另一个键纠正才能继续<br/><p/>
    请把双手食指分别放在键盘的“E”键和“I”键上<p/>
    按<空格键>开始
    </p></div>"," ","html-keyboard-response","58","130581","0.0-6.0-0.0-5.0","4","4","4","4","4","4","4","4","4","4","5","5","5","5","5","5","5","5","5","5","1","1","1","1","1","1","1","1","1","0","0","0","1","0","1","0","0","1","1","1","0","0","1","0","5","2","2","1","1","4","1","3","2","5","1","619618027951882240","张","268","","","","","","","","","","","","","","","","","","","","","","","","","","","","","","","","","","","","","","","","","",""
"null","","null","html-keyboard-response","59","130833","0.0-6.0-0.0-6.0-0.0","4","4","4","4","4","4","4","4","4","4","5","5","5","5","5","5","5","5","5","5","1","1","1","1","1","1","1","1","1","0","0","0","1","0","1","0","0","1","1","1","0","0","1","0","5","2","2","1","1","4","1","3","2","5","1","619618027951882240","张","268","","","","","","","","","","","","","","","","","","","","","","","","","","","","","","","","","","","","","","","","","",""
"564","<p style=""color:rgb(150, 250, 100); font-size: 35px;"">本人</p>","i","categorize-html","60","131399","0.0-6.0-0.0-6.0-1.0","4","4","4","4","4","4","4","4","4","4","5","5","5","5","5","5","5","5","5","5","1","1","1","1","1","1","1","1","1","0","0","0","1","0","1","0","0","1","1","1","0","0","1","0","5","2","2","1","1","4","1","3","2","5","1","619618027951882240","张","268","","","","","","","","","","","","","","","","","","","true","3","3","ability","564","self","本人","","","","","","","","","","","","","","","","",""
"null","","null","html-keyboard-response","61","131651","0.0-6.0-0.0-6.0-0.1","4","4","4","4","4","4","4","4","4","4","5","5","5","5","5","5","5","5","5","5","1","1","1","1","1","1","1","1","1","0","0","0","1","0","1","0","0","1","1","1","0","0","1","0","5","2","2","1","1","4","1","3","2","5","1","619618027951882240","张","268","","","","","","","","","","","","","","","","","","","","","","","","","","","","","","","","","","","","","","","","","",""
"523","<p style=""color:white; font-size: 35px;"">能干</p>","i","categorize-html","62","132175","0.0-6.0-0.0-6.0-1.1","4","4","4","4","4","4","4","4","4","4","5","5","5","5","5","5","5","5","5","5","1","1","1","1","1","1","1","1","1","0","0","0","1","0","1","0","0","1","1","1","0","0","1","0","5","2","2","1","1","4","1","3","2","5","1","619618027951882240","张","268","","","","","","","","","","","","","","","","","","","true","3","3","ability","523","positive","能干","","","","","","","","","","","","","","","","",""
"null","","null","html-keyboard-response","63","132427","0.0-6.0-0.0-6.0-0.2","4","4","4","4","4","4","4","4","4","4","5","5","5","5","5","5","5","5","5","5","1","1","1","1","1","1","1","1","1","0","0","0","1","0","1","0","0","1","1","1","0","0","1","0","5","2","2","1","1","4","1","3","2","5","1","619618027951882240","张","268","","","","","","","","","","","","","","","","","","","","","","","","","","","","","","","","","","","","","","","","","",""
"467","<p style=""color:rgb(150, 250, 100); font-size: 35px;"">别人</p>","e","categorize-html","64","132895","0.0-6.0-0.0-6.0-1.2","4","4","4","4","4","4","4","4","4","4","5","5","5","5","5","5","5","5","5","5","1","1","1","1","1","1","1","1","1","0","0","0","1","0","1","0","0","1","1","1","0","0","1","0","5","2","2","1","1","4","1","3","2","5","1","619618027951882240","张","268","","","","","","","","","","","","","","","","","","","true","3","3","ability","467","other","别人","","","","","","","","","","","","","","","","",""
"null","","null","html-keyboard-response","65","133147","0.0-6.0-0.0-6.0-0.3","4","4","4","4","4","4","4","4","4","4","5","5","5","5","5","5","5","5","5","5","1","1","1","1","1","1","1","1","1","0","0","0","1","0","1","0","0","1","1","1","0","0","1","0","5","2","2","1","1","4","1","3","2","5","1","619618027951882240","张","268","","","","","","","","","","","","","","","","","","","","","","","","","","","","","","","","","","","","","","","","","",""
"402","<p style=""color:white; font-size: 35px;"">低能</p>","e","categorize-html","66","133551","0.0-6.0-0.0-6.0-1.3","4","4","4","4","4","4","4","4","4","4","5","5","5","5","5","5","5","5","5","5","1","1","1","1","1","1","1","1","1","0","0","0","1","0","1","0","0","1","1","1","0","0","1","0","5","2","2","1","1","4","1","3","2","5","1","619618027951882240","张","268","","","","","","","","","","","","","","","","","","","true","3","3","ability","402","negative","低能","","","","","","","","","","","","","","","","",""
"null","","null","html-keyboard-response","67","133803","0.0-6.0-0.0-6.0-0.4","4","4","4","4","4","4","4","4","4","4","5","5","5","5","5","5","5","5","5","5","1","1","1","1","1","1","1","1","1","0","0","0","1","0","1","0","0","1","1","1","0","0","1","0","5","2","2","1","1","4","1","3","2","5","1","619618027951882240","张","268","","","","","","","","","","","","","","","","","","","","","","","","","","","","","","","","","","","","","","","","","",""
"458","<p style=""color:rgb(150, 250, 100); font-size: 35px;"">他人</p>","e","categorize-html","68","134263","0.0-6.0-0.0-6.0-1.4","4","4","4","4","4","4","4","4","4","4","5","5","5","5","5","5","5","5","5","5","1","1","1","1","1","1","1","1","1","0","0","0","1","0","1","0","0","1","1","1","0","0","1","0","5","2","2","1","1","4","1","3","2","5","1","619618027951882240","张","268","","","","","","","","","","","","","","","","","","","true","3","3","ability","458","other","他人","","","","","","","","","","","","","","","","",""
"null","","null","html-keyboard-response","69","134514","0.0-6.0-0.0-6.0-0.5","4","4","4","4","4","4","4","4","4","4","5","5","5","5","5","5","5","5","5","5","1","1","1","1","1","1","1","1","1","0","0","0","1","0","1","0","0","1","1","1","0","0","1","0","5","2","2","1","1","4","1","3","2","5","1","619618027951882240","张","268","","","","","","","","","","","","","","","","","","","","","","","","","","","","","","","","","","","","","","","","","",""
"468","<p style=""color:white; font-size: 35px;"">废物</p>","e","categorize-html","70","134982","0.0-6.0-0.0-6.0-1.5","4","4","4","4","4","4","4","4","4","4","5","5","5","5","5","5","5","5","5","5","1","1","1","1","1","1","1","1","1","0","0","0","1","0","1","0","0","1","1","1","0","0","1","0","5","2","2","1","1","4","1","3","2","5","1","619618027951882240","张","268","","","","","","","","","","","","","","","","","","","true","3","3","ability","468","negative","废物","","","","","","","","","","","","","","","","",""
"null","","null","html-keyboard-response","71","135234","0.0-6.0-0.0-6.0-0.6","4","4","4","4","4","4","4","4","4","4","5","5","5","5","5","5","5","5","5","5","1","1","1","1","1","1","1","1","1","0","0","0","1","0","1","0","0","1","1","1","0","0","1","0","5","2","2","1","1","4","1","3","2","5","1","619618027951882240","张","268","","","","","","","","","","","","","","","","","","","","","","","","","","","","","","","","","","","","","","","","","",""
"444","<p style=""color:rgb(150, 250, 100); font-size: 35px;"">自己</p>","i","categorize-html","72","135679","0.0-6.0-0.0-6.0-1.6","4","4","4","4","4","4","4","4","4","4","5","5","5","5","5","5","5","5","5","5","1","1","1","1","1","1","1","1","1","0","0","0","1","0","1","0","0","1","1","1","0","0","1","0","5","2","2","1","1","4","1","3","2","5","1","619618027951882240","张","268","","","","","","","","","","","","","","","","","","","true","3","3","ability","444","self","自己","","","","","","","","","","","","","","","","",""
"null","","null","html-keyboard-response","73","135931","0.0-6.0-0.0-6.0-0.7","4","4","4","4","4","4","4","4","4","4","5","5","5","5","5","5","5","5","5","5","1","1","1","1","1","1","1","1","1","0","0","0","1","0","1","0","0","1","1","1","0","0","1","0","5","2","2","1","1","4","1","3","2","5","1","619618027951882240","张","268","","","","","","","","","","","","","","","","","","","","","","","","","","","","","","","","","","","","","","","","","",""
"450","<p style=""color:white; font-size: 35px;"">精干</p>","i","categorize-html","74","136383","0.0-6.0-0.0-6.0-1.7","4","4","4","4","4","4","4","4","4","4","5","5","5","5","5","5","5","5","5","5","1","1","1","1","1","1","1","1","1","0","0","0","1","0","1","0","0","1","1","1","0","0","1","0","5","2","2","1","1","4","1","3","2","5","1","619618027951882240","张","268","","","","","","","","","","","","","","","","","","","true","3","3","ability","450","positive","精干","","","","","","","","","","","","","","","","",""
"null","","null","html-keyboard-response","75","136635","0.0-6.0-0.0-6.0-0.8","4","4","4","4","4","4","4","4","4","4","5","5","5","5","5","5","5","5","5","5","1","1","1","1","1","1","1","1","1","0","0","0","1","0","1","0","0","1","1","1","0","0","1","0","5","2","2","1","1","4","1","3","2","5","1","619618027951882240","张","268","","","","","","","","","","","","","","","","","","","","","","","","","","","","","","","","","","","","","","","","","",""
"452","<p style=""color:rgb(150, 250, 100); font-size: 35px;"">本人的</p>","i","categorize-html","76","137087","0.0-6.0-0.0-6.0-1.8","4","4","4","4","4","4","4","4","4","4","5","5","5","5","5","5","5","5","5","5","1","1","1","1","1","1","1","1","1","0","0","0","1","0","1","0","0","1","1","1","0","0","1","0","5","2","2","1","1","4","1","3","2","5","1","619618027951882240","张","268","","","","","","","","","","","","","","","","","","","true","3","3","ability","452","self","本人的","","","","","","","","","","","","","","","","",""
"null","","null","html-keyboard-response","77","137338","0.0-6.0-0.0-6.0-0.9","4","4","4","4","4","4","4","4","4","4","5","5","5","5","5","5","5","5","5","5","1","1","1","1","1","1","1","1","1","0","0","0","1","0","1","0","0","1","1","1","0","0","1","0","5","2","2","1","1","4","1","3","2","5","1","619618027951882240","张","268","","","","","","","","","","","","","","","","","","","","","","","","","","","","","","","","","","","","","","","","","",""
"636","<p style=""color:white; font-size: 35px;"">全才</p>","i","categorize-html","78","137975","0.0-6.0-0.0-6.0-1.9","4","4","4","4","4","4","4","4","4","4","5","5","5","5","5","5","5","5","5","5","1","1","1","1","1","1","1","1","1","0","0","0","1","0","1","0","0","1","1","1","0","0","1","0","5","2","2","1","1","4","1","3","2","5","1","619618027951882240","张","268","","","","","","","","","","","","","","","","","","","true","3","3","ability","636","positive","全才","","","","","","","","","","","","","","","","",""
"null","","null","html-keyboard-response","79","138225","0.0-6.0-0.0-6.0-0.10","4","4","4","4","4","4","4","4","4","4","5","5","5","5","5","5","5","5","5","5","1","1","1","1","1","1","1","1","1","0","0","0","1","0","1","0","0","1","1","1","0","0","1","0","5","2","2","1","1","4","1","3","2","5","1","619618027951882240","张","268","","","","","","","","","","","","","","","","","","","","","","","","","","","","","","","","","","","","","","","","","",""
"860","<p style=""color:rgb(150, 250, 100); font-size: 35px;"">他人的</p>","e","categorize-html","80","139087","0.0-6.0-0.0-6.0-1.10","4","4","4","4","4","4","4","4","4","4","5","5","5","5","5","5","5","5","5","5","1","1","1","1","1","1","1","1","1","0","0","0","1","0","1","0","0","1","1","1","0","0","1","0","5","2","2","1","1","4","1","3","2","5","1","619618027951882240","张","268","","","","","","","","","","","","","","","","","","","true","3","3","ability","860","other","他人的","","","","","","","","","","","","","","","","",""
"null","","null","html-keyboard-response","81","139338","0.0-6.0-0.0-6.0-0.11","4","4","4","4","4","4","4","4","4","4","5","5","5","5","5","5","5","5","5","5","1","1","1","1","1","1","1","1","1","0","0","0","1","0","1","0","0","1","1","1","0","0","1","0","5","2","2","1","1","4","1","3","2","5","1","619618027951882240","张","268","","","","","","","","","","","","","","","","","","","","","","","","","","","","","","","","","","","","","","","","","",""
"412","<p style=""color:white; font-size: 35px;"">无能</p>","e","categorize-html","82","139751","0.0-6.0-0.0-6.0-1.11","4","4","4","4","4","4","4","4","4","4","5","5","5","5","5","5","5","5","5","5","1","1","1","1","1","1","1","1","1","0","0","0","1","0","1","0","0","1","1","1","0","0","1","0","5","2","2","1","1","4","1","3","2","5","1","619618027951882240","张","268","","","","","","","","","","","","","","","","","","","true","3","3","ability","412","negative","无能","","","","","","","","","","","","","","","","",""
"null","","null","html-keyboard-response","83","140002","0.0-6.0-0.0-6.0-0.12","4","4","4","4","4","4","4","4","4","4","5","5","5","5","5","5","5","5","5","5","1","1","1","1","1","1","1","1","1","0","0","0","1","0","1","0","0","1","1","1","0","0","1","0","5","2","2","1","1","4","1","3","2","5","1","619618027951882240","张","268","","","","","","","","","","","","","","","","","","","","","","","","","","","","","","","","","","","","","","","","","",""
"636","<p style=""color:rgb(150, 250, 100); font-size: 35px;"">他</p>","e","categorize-html","84","140639","0.0-6.0-0.0-6.0-1.12","4","4","4","4","4","4","4","4","4","4","5","5","5","5","5","5","5","5","5","5","1","1","1","1","1","1","1","1","1","0","0","0","1","0","1","0","0","1","1","1","0","0","1","0","5","2","2","1","1","4","1","3","2","5","1","619618027951882240","张","268","","","","","","","","","","","","","","","","","","","true","3","3","ability","636","other","他","","","","","","","","","","","","","","","","",""
"null","","null","html-keyboard-response","85","140891","0.0-6.0-0.0-6.0-0.13","4","4","4","4","4","4","4","4","4","4","5","5","5","5","5","5","5","5","5","5","1","1","1","1","1","1","1","1","1","0","0","0","1","0","1","0","0","1","1","1","0","0","1","0","5","2","2","1","1","4","1","3","2","5","1","619618027951882240","张","268","","","","","","","","","","","","","","","","","","","","","","","","","","","","","","","","","","","","","","","","","",""
"514","<p style=""color:white; font-size: 35px;"">愚钝</p>","e","categorize-html","86","141407","0.0-6.0-0.0-6.0-1.13","4","4","4","4","4","4","4","4","4","4","5","5","5","5","5","5","5","5","5","5","1","1","1","1","1","1","1","1","1","0","0","0","1","0","1","0","0","1","1","1","0","0","1","0","5","2","2","1","1","4","1","3","2","5","1","619618027951882240","张","268","","","","","","","","","","","","","","","","","","","true","3","3","ability","514","negative","愚钝","","","","","","","","","","","","","","","","",""
"null","","null","html-keyboard-response","87","141657","0.0-6.0-0.0-6.0-0.14","4","4","4","4","4","4","4","4","4","4","5","5","5","5","5","5","5","5","5","5","1","1","1","1","1","1","1","1","1","0","0","0","1","0","1","0","0","1","1","1","0","0","1","0","5","2","2","1","1","4","1","3","2","5","1","619618027951882240","张","268","","","","","","","","","","","","","","","","","","","","","","","","","","","","","","","","","","","","","","","","","",""
"524","<p style=""color:rgb(150, 250, 100); font-size: 35px;"">自己的</p>","i","categorize-html","88","142184","0.0-6.0-0.0-6.0-1.14","4","4","4","4","4","4","4","4","4","4","5","5","5","5","5","5","5","5","5","5","1","1","1","1","1","1","1","1","1","0","0","0","1","0","1","0","0","1","1","1","0","0","1","0","5","2","2","1","1","4","1","3","2","5","1","619618027951882240","张","268","","","","","","","","","","","","","","","","","","","true","3","3","ability","524","self","自己的","","","","","","","","","","","","","","","","",""
"null","","null","html-keyboard-response","89","142435","0.0-6.0-0.0-6.0-0.15","4","4","4","4","4","4","4","4","4","4","5","5","5","5","5","5","5","5","5","5","1","1","1","1","1","1","1","1","1","0","0","0","1","0","1","0","0","1","1","1","0","0","1","0","5","2","2","1","1","4","1","3","2","5","1","619618027951882240","张","268","","","","","","","","","","","","","","","","","","","","","","","","","","","","","","","","","","","","","","","","","",""
"530","<p style=""color:white; font-size: 35px;"">天才</p>","i","categorize-html","90","142966","0.0-6.0-0.0-6.0-1.15","4","4","4","4","4","4","4","4","4","4","5","5","5","5","5","5","5","5","5","5","1","1","1","1","1","1","1","1","1","0","0","0","1","0","1","0","0","1","1","1","0","0","1","0","5","2","2","1","1","4","1","3","2","5","1","619618027951882240","张","268","","","","","","","","","","","","","","","","","","","true","3","3","ability","530","positive","天才","","","","","","","","","","","","","","","","",""
"null","","null","html-keyboard-response","91","143218","0.0-6.0-0.0-6.0-0.16","4","4","4","4","4","4","4","4","4","4","5","5","5","5","5","5","5","5","5","5","1","1","1","1","1","1","1","1","1","0","0","0","1","0","1","0","0","1","1","1","0","0","1","0","5","2","2","1","1","4","1","3","2","5","1","619618027951882240","张","268","","","","","","","","","","","","","","","","","","","","","","","","","","","","","","","","","","","","","","","","","",""
"691","<p style=""color:rgb(150, 250, 100); font-size: 35px;"">我的</p>","i","categorize-html","92","143910","0.0-6.0-0.0-6.0-1.16","4","4","4","4","4","4","4","4","4","4","5","5","5","5","5","5","5","5","5","5","1","1","1","1","1","1","1","1","1","0","0","0","1","0","1","0","0","1","1","1","0","0","1","0","5","2","2","1","1","4","1","3","2","5","1","619618027951882240","张","268","","","","","","","","","","","","","","","","","","","true","3","3","ability","691","self","我的","","","","","","","","","","","","","","","","",""
"null","","null","html-keyboard-response","93","144162","0.0-6.0-0.0-6.0-0.17","4","4","4","4","4","4","4","4","4","4","5","5","5","5","5","5","5","5","5","5","1","1","1","1","1","1","1","1","1","0","0","0","1","0","1","0","0","1","1","1","0","0","1","0","5","2","2","1","1","4","1","3","2","5","1","619618027951882240","张","268","","","","","","","","","","","","","","","","","","","","","","","","","","","","","","","","","","","","","","","","","",""
"476","<p style=""color:white; font-size: 35px;"">高效</p>","i","categorize-html","94","144639","0.0-6.0-0.0-6.0-1.17","4","4","4","4","4","4","4","4","4","4","5","5","5","5","5","5","5","5","5","5","1","1","1","1","1","1","1","1","1","0","0","0","1","0","1","0","0","1","1","1","0","0","1","0","5","2","2","1","1","4","1","3","2","5","1","619618027951882240","张","268","","","","","","","","","","","","","","","","","","","true","3","3","ability","476","positive","高效","","","","","","","","","","","","","","","","",""
"null","","null","html-keyboard-response","95","144891","0.0-6.0-0.0-6.0-0.18","4","4","4","4","4","4","4","4","4","4","5","5","5","5","5","5","5","5","5","5","1","1","1","1","1","1","1","1","1","0","0","0","1","0","1","0","0","1","1","1","0","0","1","0","5","2","2","1","1","4","1","3","2","5","1","619618027951882240","张","268","","","","","","","","","","","","","","","","","","","","","","","","","","","","","","","","","","","","","","","","","",""
"611","<p style=""color:rgb(150, 250, 100); font-size: 35px;"">他的</p>","e","categorize-html","96","145503","0.0-6.0-0.0-6.0-1.18","4","4","4","4","4","4","4","4","4","4","5","5","5","5","5","5","5","5","5","5","1","1","1","1","1","1","1","1","1","0","0","0","1","0","1","0","0","1","1","1","0","0","1","0","5","2","2","1","1","4","1","3","2","5","1","619618027951882240","张","268","","","","","","","","","","","","","","","","","","","true","3","3","ability","611","other","他的","","","","","","","","","","","","","","","","",""
"null","","null","html-keyboard-response","97","145754","0.0-6.0-0.0-6.0-0.19","4","4","4","4","4","4","4","4","4","4","5","5","5","5","5","5","5","5","5","5","1","1","1","1","1","1","1","1","1","0","0","0","1","0","1","0","0","1","1","1","0","0","1","0","5","2","2","1","1","4","1","3","2","5","1","619618027951882240","张","268","","","","","","","","","","","","","","","","","","","","","","","","","","","","","","","","","","","","","","","","","",""
"468","<p style=""color:white; font-size: 35px;"">拙笨</p>","e","categorize-html","98","146224","0.0-6.0-0.0-6.0-1.19","4","4","4","4","4","4","4","4","4","4","5","5","5","5","5","5","5","5","5","5","1","1","1","1","1","1","1","1","1","0","0","0","1","0","1","0","0","1","1","1","0","0","1","0","5","2","2","1","1","4","1","3","2","5","1","619618027951882240","张","268","","","","","","","","","","","","","","","","","","","true","3","3","ability","468","negative","拙笨","","","","","","","","","","","","","","","","",""
"null","","null","html-keyboard-response","99","146475","0.0-6.0-0.0-6.0-0.20","4","4","4","4","4","4","4","4","4","4","5","5","5","5","5","5","5","5","5","5","1","1","1","1","1","1","1","1","1","0","0","0","1","0","1","0","0","1","1","1","0","0","1","0","5","2","2","1","1","4","1","3","2","5","1","619618027951882240","张","268","","","","","","","","","","","","","","","","","","","","","","","","","","","","","","","","","","","","","","","","","",""
"402","<p style=""color:rgb(150, 250, 100); font-size: 35px;"">别人的</p>","e","categorize-html","100","146879","0.0-6.0-0.0-6.0-1.20","4","4","4","4","4","4","4","4","4","4","5","5","5","5","5","5","5","5","5","5","1","1","1","1","1","1","1","1","1","0","0","0","1","0","1","0","0","1","1","1","0","0","1","0","5","2","2","1","1","4","1","3","2","5","1","619618027951882240","张","268","","","","","","","","","","","","","","","","","","","true","3","3","ability","402","other","别人的","","","","","","","","","","","","","","","","",""
"null","","null","html-keyboard-response","101","147131","0.0-6.0-0.0-6.0-0.21","4","4","4","4","4","4","4","4","4","4","5","5","5","5","5","5","5","5","5","5","1","1","1","1","1","1","1","1","1","0","0","0","1","0","1","0","0","1","1","1","0","0","1","0","5","2","2","1","1","4","1","3","2","5","1","619618027951882240","张","268","","","","","","","","","","","","","","","","","","","","","","","","","","","","","","","","","","","","","","","","","",""
"1067","<p style=""color:white; font-size: 35px;"">全能</p>","i","categorize-html","102","148198","0.0-6.0-0.0-6.0-1.21","4","4","4","4","4","4","4","4","4","4","5","5","5","5","5","5","5","5","5","5","1","1","1","1","1","1","1","1","1","0","0","0","1","0","1","0","0","1","1","1","0","0","1","0","5","2","2","1","1","4","1","3","2","5","1","619618027951882240","张","268","","","","","","","","","","","","","","","","","","","true","3","3","ability","1067","positive","全能","","","","","","","","","","","","","","","","",""
"null","","null","html-keyboard-response","103","148449","0.0-6.0-0.0-6.0-0.22","4","4","4","4","4","4","4","4","4","4","5","5","5","5","5","5","5","5","5","5","1","1","1","1","1","1","1","1","1","0","0","0","1","0","1","0","0","1","1","1","0","0","1","0","5","2","2","1","1","4","1","3","2","5","1","619618027951882240","张","268","","","","","","","","","","","","","","","","","","","","","","","","","","","","","","","","","","","","","","","","","",""
"455","<p style=""color:rgb(150, 250, 100); font-size: 35px;"">我</p>","i","categorize-html","104","148905","0.0-6.0-0.0-6.0-1.22","4","4","4","4","4","4","4","4","4","4","5","5","5","5","5","5","5","5","5","5","1","1","1","1","1","1","1","1","1","0","0","0","1","0","1","0","0","1","1","1","0","0","1","0","5","2","2","1","1","4","1","3","2","5","1","619618027951882240","张","268","","","","","","","","","","","","","","","","","","","true","3","3","ability","455","self","我","","","","","","","","","","","","","","","","",""
"null","","null","html-keyboard-response","105","149158","0.0-6.0-0.0-6.0-0.23","4","4","4","4","4","4","4","4","4","4","5","5","5","5","5","5","5","5","5","5","1","1","1","1","1","1","1","1","1","0","0","0","1","0","1","0","0","1","1","1","0","0","1","0","5","2","2","1","1","4","1","3","2","5","1","619618027951882240","张","268","","","","","","","","","","","","","","","","","","","","","","","","","","","","","","","","","","","","","","","","","",""
"544","<p style=""color:white; font-size: 35px;"">蠢笨</p>","e","categorize-html","106","149703","0.0-6.0-0.0-6.0-1.23","4","4","4","4","4","4","4","4","4","4","5","5","5","5","5","5","5","5","5","5","1","1","1","1","1","1","1","1","1","0","0","0","1","0","1","0","0","1","1","1","0","0","1","0","5","2","2","1","1","4","1","3","2","5","1","619618027951882240","张","268","","","","","","","","","","","","","","","","","","","true","3","3","ability","544","negative","蠢笨","","","","","","","","","","","","","","","","",""
"1079","
    <div class=""tag-bottom""><p>
    —— 任务4：对“他人/消极”词和“自我/积极”词分类 ——<p/>
    <span style=""color:#78DCE8""><b>与刚才的任务完全相同，请再次对这四类词语分类</b></span><p/>
    <span style=""color:#FFD866""><b>请根据上方标签的提示，尽可能正确并且快速地做出按键反应</b></span><p/>
    当按键错误时屏幕中会出现<span style=""color:red""> X </span>，需要按另一个键纠正才能继续<br/><p/>
    请把双手食指分别放在键盘的“E”键和“I”键上<p/>
    按<空格键>开始
    </p></div>"," ","html-keyboard-response","107","150782","0.0-6.0-0.0-7.0","4","4","4","4","4","4","4","4","4","4","5","5","5","5","5","5","5","5","5","5","1","1","1","1","1","1","1","1","1","0","0","0","1","0","1","0","0","1","1","1","0","0","1","0","5","2","2","1","1","4","1","3","2","5","1","619618027951882240","张","268","","","","","","","","","","","","","","","","","","","","","","","","","","","","","","","","","","","","","","","","","",""
"null","","null","html-keyboard-response","108","151034","0.0-6.0-0.0-8.0-0.0","4","4","4","4","4","4","4","4","4","4","5","5","5","5","5","5","5","5","5","5","1","1","1","1","1","1","1","1","1","0","0","0","1","0","1","0","0","1","1","1","0","0","1","0","5","2","2","1","1","4","1","3","2","5","1","619618027951882240","张","268","","","","","","","","","","","","","","","","","","","","","","","","","","","","","","","","","","","","","","","","","",""
"531","<p style=""color:rgb(150, 250, 100); font-size: 35px;"">别人</p>","e","categorize-html","109","151567","0.0-6.0-0.0-8.0-1.0","4","4","4","4","4","4","4","4","4","4","5","5","5","5","5","5","5","5","5","5","1","1","1","1","1","1","1","1","1","0","0","0","1","0","1","0","0","1","1","1","0","0","1","0","5","2","2","1","1","4","1","3","2","5","1","619618027951882240","张","268","","","","","","","","","","","","","","","","","","","true","4","4","ability","531","other","别人","","","","","","","","","","","","","","","","",""
"null","","null","html-keyboard-response","110","151819","0.0-6.0-0.0-8.0-0.1","4","4","4","4","4","4","4","4","4","4","5","5","5","5","5","5","5","5","5","5","1","1","1","1","1","1","1","1","1","0","0","0","1","0","1","0","0","1","1","1","0","0","1","0","5","2","2","1","1","4","1","3","2","5","1","619618027951882240","张","268","","","","","","","","","","","","","","","","","","","","","","","","","","","","","","","","","","","","","","","","","",""
"699","<p style=""color:white; font-size: 35px;"">天才</p>","i","categorize-html","111","152520","0.0-6.0-0.0-8.0-1.1","4","4","4","4","4","4","4","4","4","4","5","5","5","5","5","5","5","5","5","5","1","1","1","1","1","1","1","1","1","0","0","0","1","0","1","0","0","1","1","1","0","0","1","0","5","2","2","1","1","4","1","3","2","5","1","619618027951882240","张","268","","","","","","","","","","","","","","","","","","","true","4","4","ability","699","positive","天才","","","","","","","","","","","","","","","","",""
"null","","null","html-keyboard-response","112","152771","0.0-6.0-0.0-8.0-0.2","4","4","4","4","4","4","4","4","4","4","5","5","5","5","5","5","5","5","5","5","1","1","1","1","1","1","1","1","1","0","0","0","1","0","1","0","0","1","1","1","0","0","1","0","5","2","2","1","1","4","1","3","2","5","1","619618027951882240","张","268","","","","","","","","","","","","","","","","","","","","","","","","","","","","","","","","","","","","","","","","","",""
"411","<p style=""color:rgb(150, 250, 100); font-size: 35px;"">本人</p>","i","categorize-html","113","153183","0.0-6.0-0.0-8.0-1.2","4","4","4","4","4","4","4","4","4","4","5","5","5","5","5","5","5","5","5","5","1","1","1","1","1","1","1","1","1","0","0","0","1","0","1","0","0","1","1","1","0","0","1","0","5","2","2","1","1","4","1","3","2","5","1","619618027951882240","张","268","","","","","","","","","","","","","","","","","","","true","4","4","ability","411","self","本人","","","","","","","","","","","","","","","","",""
"null","","null","html-keyboard-response","114","153439","0.0-6.0-0.0-8.0-0.3","4","4","4","4","4","4","4","4","4","4","5","5","5","5","5","5","5","5","5","5","1","1","1","1","1","1","1","1","1","0","0","0","1","0","1","0","0","1","1","1","0","0","1","0","5","2","2","1","1","4","1","3","2","5","1","619618027951882240","张","268","","","","","","","","","","","","","","","","","","","","","","","","","","","","","","","","","","","","","","","","","",""
"423","<p style=""color:white; font-size: 35px;"">无能</p>","e","categorize-html","115","153863","0.0-6.0-0.0-8.0-1.3","4","4","4","4","4","4","4","4","4","4","5","5","5","5","5","5","5","5","5","5","1","1","1","1","1","1","1","1","1","0","0","0","1","0","1","0","0","1","1","1","0","0","1","0","5","2","2","1","1","4","1","3","2","5","1","619618027951882240","张","268","","","","","","","","","","","","","","","","","","","true","4","4","ability","423","negative","无能","","","","","","","","","","","","","","","","",""
"null","","null","html-keyboard-response","116","154114","0.0-6.0-0.0-8.0-0.4","4","4","4","4","4","4","4","4","4","4","5","5","5","5","5","5","5","5","5","5","1","1","1","1","1","1","1","1","1","0","0","0","1","0","1","0","0","1","1","1","0","0","1","0","5","2","2","1","1","4","1","3","2","5","1","619618027951882240","张","268","","","","","","","","","","","","","","","","","","","","","","","","","","","","","","","","","","","","","","","","","",""
"676","<p style=""color:rgb(150, 250, 100); font-size: 35px;"">本人</p>","e","categorize-html","117","155046","0.0-6.0-0.0-8.0-1.4","4","4","4","4","4","4","4","4","4","4","5","5","5","5","5","5","5","5","5","5","1","1","1","1","1","1","1","1","1","0","0","0","1","0","1","0","0","1","1","1","0","0","1","0","5","2","2","1","1","4","1","3","2","5","1","619618027951882240","张","268","","","","","","","","","","","","","","","","","","","false","4","4","ability","1152.5555555555557","self","本人","","","","","","","","","","","","","","","","",""
"null","","null","html-keyboard-response","118","155297","0.0-6.0-0.0-8.0-0.5","4","4","4","4","4","4","4","4","4","4","5","5","5","5","5","5","5","5","5","5","1","1","1","1","1","1","1","1","1","0","0","0","1","0","1","0","0","1","1","1","0","0","1","0","5","2","2","1","1","4","1","3","2","5","1","619618027951882240","张","268","","","","","","","","","","","","","","","","","","","","","","","","","","","","","","","","","","","","","","","","","",""
"502","<p style=""color:white; font-size: 35px;"">愚钝</p>","e","categorize-html","119","155799","0.0-6.0-0.0-8.0-1.5","4","4","4","4","4","4","4","4","4","4","5","5","5","5","5","5","5","5","5","5","1","1","1","1","1","1","1","1","1","0","0","0","1","0","1","0","0","1","1","1","0","0","1","0","5","2","2","1","1","4","1","3","2","5","1","619618027951882240","张","268","","","","","","","","","","","","","","","","","","","true","4","4","ability","502","negative","愚钝","","","","","","","","","","","","","","","","",""
"null","","null","html-keyboard-response","120","156051","0.0-6.0-0.0-8.0-0.6","4","4","4","4","4","4","4","4","4","4","5","5","5","5","5","5","5","5","5","5","1","1","1","1","1","1","1","1","1","0","0","0","1","0","1","0","0","1","1","1","0","0","1","0","5","2","2","1","1","4","1","3","2","5","1","619618027951882240","张","268","","","","","","","","","","","","","","","","","","","","","","","","","","","","","","","","","","","","","","","","","",""
"381","<p style=""color:rgb(150, 250, 100); font-size: 35px;"">他人</p>","e","categorize-html","121","156433","0.0-6.0-0.0-8.0-1.6","4","4","4","4","4","4","4","4","4","4","5","5","5","5","5","5","5","5","5","5","1","1","1","1","1","1","1","1","1","0","0","0","1","0","1","0","0","1","1","1","0","0","1","0","5","2","2","1","1","4","1","3","2","5","1","619618027951882240","张","268","","","","","","","","","","","","","","","","","","","true","4","4","ability","381","other","他人","","","","","","","","","","","","","","","","",""
"null","","null","html-keyboard-response","122","156685","0.0-6.0-0.0-8.0-0.7","4","4","4","4","4","4","4","4","4","4","5","5","5","5","5","5","5","5","5","5","1","1","1","1","1","1","1","1","1","0","0","0","1","0","1","0","0","1","1","1","0","0","1","0","5","2","2","1","1","4","1","3","2","5","1","619618027951882240","张","268","","","","","","","","","","","","","","","","","","","","","","","","","","","","","","","","","","","","","","","","","",""
"809","<p style=""color:white; font-size: 35px;"">全能</p>","i","categorize-html","123","157494","0.0-6.0-0.0-8.0-1.7","4","4","4","4","4","4","4","4","4","4","5","5","5","5","5","5","5","5","5","5","1","1","1","1","1","1","1","1","1","0","0","0","1","0","1","0","0","1","1","1","0","0","1","0","5","2","2","1","1","4","1","3","2","5","1","619618027951882240","张","268","","","","","","","","","","","","","","","","","","","true","4","4","ability","809","positive","全能","","","","","","","","","","","","","","","","",""
"null","","null","html-keyboard-response","124","157746","0.0-6.0-0.0-8.0-0.8","4","4","4","4","4","4","4","4","4","4","5","5","5","5","5","5","5","5","5","5","1","1","1","1","1","1","1","1","1","0","0","0","1","0","1","0","0","1","1","1","0","0","1","0","5","2","2","1","1","4","1","3","2","5","1","619618027951882240","张","268","","","","","","","","","","","","","","","","","","","","","","","","","","","","","","","","","","","","","","","","","",""
"643","<p style=""color:rgb(150, 250, 100); font-size: 35px;"">我的</p>","i","categorize-html","125","158391","0.0-6.0-0.0-8.0-1.8","4","4","4","4","4","4","4","4","4","4","5","5","5","5","5","5","5","5","5","5","1","1","1","1","1","1","1","1","1","0","0","0","1","0","1","0","0","1","1","1","0","0","1","0","5","2","2","1","1","4","1","3","2","5","1","619618027951882240","张","268","","","","","","","","","","","","","","","","","","","true","4","4","ability","643","self","我的","","","","","","","","","","","","","","","","",""
"null","","null","html-keyboard-response","126","158655","0.0-6.0-0.0-8.0-0.9","4","4","4","4","4","4","4","4","4","4","5","5","5","5","5","5","5","5","5","5","1","1","1","1","1","1","1","1","1","0","0","0","1","0","1","0","0","1","1","1","0","0","1","0","5","2","2","1","1","4","1","3","2","5","1","619618027951882240","张","268","","","","","","","","","","","","","","","","","","","","","","","","","","","","","","","","","","","","","","","","","",""
"471","<p style=""color:white; font-size: 35px;"">低能</p>","e","categorize-html","127","159126","0.0-6.0-0.0-8.0-1.9","4","4","4","4","4","4","4","4","4","4","5","5","5","5","5","5","5","5","5","5","1","1","1","1","1","1","1","1","1","0","0","0","1","0","1","0","0","1","1","1","0","0","1","0","5","2","2","1","1","4","1","3","2","5","1","619618027951882240","张","268","","","","","","","","","","","","","","","","","","","true","4","4","ability","471","negative","低能","","","","","","","","","","","","","","","","",""
"null","","null","html-keyboard-response","128","159378","0.0-6.0-0.0-8.0-0.10","4","4","4","4","4","4","4","4","4","4","5","5","5","5","5","5","5","5","5","5","1","1","1","1","1","1","1","1","1","0","0","0","1","0","1","0","0","1","1","1","0","0","1","0","5","2","2","1","1","4","1","3","2","5","1","619618027951882240","张","268","","","","","","","","","","","","","","","","","","","","","","","","","","","","","","","","","","","","","","","","","",""
"484","<p style=""color:rgb(150, 250, 100); font-size: 35px;"">他的</p>","e","categorize-html","129","159863","0.0-6.0-0.0-8.0-1.10","4","4","4","4","4","4","4","4","4","4","5","5","5","5","5","5","5","5","5","5","1","1","1","1","1","1","1","1","1","0","0","0","1","0","1","0","0","1","1","1","0","0","1","0","5","2","2","1","1","4","1","3","2","5","1","619618027951882240","张","268","","","","","","","","","","","","","","","","","","","true","4","4","ability","484","other","他的","","","","","","","","","","","","","","","","",""
"null","","null","html-keyboard-response","130","160114","0.0-6.0-0.0-8.0-0.11","4","4","4","4","4","4","4","4","4","4","5","5","5","5","5","5","5","5","5","5","1","1","1","1","1","1","1","1","1","0","0","0","1","0","1","0","0","1","1","1","0","0","1","0","5","2","2","1","1","4","1","3","2","5","1","619618027951882240","张","268","","","","","","","","","","","","","","","","","","","","","","","","","","","","","","","","","","","","","","","","","",""
"588","<p style=""color:white; font-size: 35px;"">全才</p>","i","categorize-html","131","160703","0.0-6.0-0.0-8.0-1.11","4","4","4","4","4","4","4","4","4","4","5","5","5","5","5","5","5","5","5","5","1","1","1","1","1","1","1","1","1","0","0","0","1","0","1","0","0","1","1","1","0","0","1","0","5","2","2","1","1","4","1","3","2","5","1","619618027951882240","张","268","","","","","","","","","","","","","","","","","","","true","4","4","ability","588","positive","全才","","","","","","","","","","","","","","","","",""
"null","","null","html-keyboard-response","132","160955","0.0-6.0-0.0-8.0-0.12","4","4","4","4","4","4","4","4","4","4","5","5","5","5","5","5","5","5","5","5","1","1","1","1","1","1","1","1","1","0","0","0","1","0","1","0","0","1","1","1","0","0","1","0","5","2","2","1","1","4","1","3","2","5","1","619618027951882240","张","268","","","","","","","","","","","","","","","","","","","","","","","","","","","","","","","","","","","","","","","","","",""
"531","<p style=""color:rgb(150, 250, 100); font-size: 35px;"">他人的</p>","e","categorize-html","133","161487","0.0-6.0-0.0-8.0-1.12","4","4","4","4","4","4","4","4","4","4","5","5","5","5","5","5","5","5","5","5","1","1","1","1","1","1","1","1","1","0","0","0","1","0","1","0","0","1","1","1","0","0","1","0","5","2","2","1","1","4","1","3","2","5","1","619618027951882240","张","268","","","","","","","","","","","","","","","","","","","true","4","4","ability","531","other","他人的","","","","","","","","","","","","","","","","",""
"null","","null","html-keyboard-response","134","161738","0.0-6.0-0.0-8.0-0.13","4","4","4","4","4","4","4","4","4","4","5","5","5","5","5","5","5","5","5","5","1","1","1","1","1","1","1","1","1","0","0","0","1","0","1","0","0","1","1","1","0","0","1","0","5","2","2","1","1","4","1","3","2","5","1","619618027951882240","张","268","","","","","","","","","","","","","","","","","","","","","","","","","","","","","","","","","","","","","","","","","",""
"636","<p style=""color:white; font-size: 35px;"">能干</p>","i","categorize-html","135","162375","0.0-6.0-0.0-8.0-1.13","4","4","4","4","4","4","4","4","4","4","5","5","5","5","5","5","5","5","5","5","1","1","1","1","1","1","1","1","1","0","0","0","1","0","1","0","0","1","1","1","0","0","1","0","5","2","2","1","1","4","1","3","2","5","1","619618027951882240","张","268","","","","","","","","","","","","","","","","","","","true","4","4","ability","636","positive","能干","","","","","","","","","","","","","","","","",""
"null","","null","html-keyboard-response","136","162628","0.0-6.0-0.0-8.0-0.14","4","4","4","4","4","4","4","4","4","4","5","5","5","5","5","5","5","5","5","5","1","1","1","1","1","1","1","1","1","0","0","0","1","0","1","0","0","1","1","1","0","0","1","0","5","2","2","1","1","4","1","3","2","5","1","619618027951882240","张","268","","","","","","","","","","","","","","","","","","","","","","","","","","","","","","","","","","","","","","","","","",""
"681","<p style=""color:rgb(150, 250, 100); font-size: 35px;"">自己的</p>","i","categorize-html","137","163311","0.0-6.0-0.0-8.0-1.14","4","4","4","4","4","4","4","4","4","4","5","5","5","5","5","5","5","5","5","5","1","1","1","1","1","1","1","1","1","0","0","0","1","0","1","0","0","1","1","1","0","0","1","0","5","2","2","1","1","4","1","3","2","5","1","619618027951882240","张","268","","","","","","","","","","","","","","","","","","","true","4","4","ability","681","self","自己的","","","","","","","","","","","","","","","","",""
"null","","null","html-keyboard-response","138","163563","0.0-6.0-0.0-8.0-0.15","4","4","4","4","4","4","4","4","4","4","5","5","5","5","5","5","5","5","5","5","1","1","1","1","1","1","1","1","1","0","0","0","1","0","1","0","0","1","1","1","0","0","1","0","5","2","2","1","1","4","1","3","2","5","1","619618027951882240","张","268","","","","","","","","","","","","","","","","","","","","","","","","","","","","","","","","","","","","","","","","","",""
"483","<p style=""color:white; font-size: 35px;"">愚钝</p>","e","categorize-html","139","164048","0.0-6.0-0.0-8.0-1.15","4","4","4","4","4","4","4","4","4","4","5","5","5","5","5","5","5","5","5","5","1","1","1","1","1","1","1","1","1","0","0","0","1","0","1","0","0","1","1","1","0","0","1","0","5","2","2","1","1","4","1","3","2","5","1","619618027951882240","张","268","","","","","","","","","","","","","","","","","","","true","4","4","ability","483","negative","愚钝","","","","","","","","","","","","","","","","",""
"null","","null","html-keyboard-response","140","164303","0.0-6.0-0.0-8.0-0.16","4","4","4","4","4","4","4","4","4","4","5","5","5","5","5","5","5","5","5","5","1","1","1","1","1","1","1","1","1","0","0","0","1","0","1","0","0","1","1","1","0","0","1","0","5","2","2","1","1","4","1","3","2","5","1","619618027951882240","张","268","","","","","","","","","","","","","","","","","","","","","","","","","","","","","","","","","","","","","","","","","",""
"487","<p style=""color:rgb(150, 250, 100); font-size: 35px;"">他</p>","e","categorize-html","141","164791","0.0-6.0-0.0-8.0-1.16","4","4","4","4","4","4","4","4","4","4","5","5","5","5","5","5","5","5","5","5","1","1","1","1","1","1","1","1","1","0","0","0","1","0","1","0","0","1","1","1","0","0","1","0","5","2","2","1","1","4","1","3","2","5","1","619618027951882240","张","268","","","","","","","","","","","","","","","","","","","true","4","4","ability","487","other","他","","","","","","","","","","","","","","","","",""
"null","","null","html-keyboard-response","142","165055","0.0-6.0-0.0-8.0-0.17","4","4","4","4","4","4","4","4","4","4","5","5","5","5","5","5","5","5","5","5","1","1","1","1","1","1","1","1","1","0","0","0","1","0","1","0","0","1","1","1","0","0","1","0","5","2","2","1","1","4","1","3","2","5","1","619618027951882240","张","268","","","","","","","","","","","","","","","","","","","","","","","","","","","","","","","","","","","","","","","","","",""
"527","<p style=""color:white; font-size: 35px;"">蠢笨</p>","e","categorize-html","143","165583","0.0-6.0-0.0-8.0-1.17","4","4","4","4","4","4","4","4","4","4","5","5","5","5","5","5","5","5","5","5","1","1","1","1","1","1","1","1","1","0","0","0","1","0","1","0","0","1","1","1","0","0","1","0","5","2","2","1","1","4","1","3","2","5","1","619618027951882240","张","268","","","","","","","","","","","","","","","","","","","true","4","4","ability","527","negative","蠢笨","","","","","","","","","","","","","","","","",""
"null","","null","html-keyboard-response","144","165835","0.0-6.0-0.0-8.0-0.18","4","4","4","4","4","4","4","4","4","4","5","5","5","5","5","5","5","5","5","5","1","1","1","1","1","1","1","1","1","0","0","0","1","0","1","0","0","1","1","1","0","0","1","0","5","2","2","1","1","4","1","3","2","5","1","619618027951882240","张","268","","","","","","","","","","","","","","","","","","","","","","","","","","","","","","","","","","","","","","","","","",""
"467","<p style=""color:rgb(150, 250, 100); font-size: 35px;"">我</p>","i","categorize-html","145","166303","0.0-6.0-0.0-8.0-1.18","4","4","4","4","4","4","4","4","4","4","5","5","5","5","5","5","5","5","5","5","1","1","1","1","1","1","1","1","1","0","0","0","1","0","1","0","0","1","1","1","0","0","1","0","5","2","2","1","1","4","1","3","2","5","1","619618027951882240","张","268","","","","","","","","","","","","","","","","","","","true","4","4","ability","467","self","我","","","","","","","","","","","","","","","","",""
"null","","null","html-keyboard-response","146","166555","0.0-6.0-0.0-8.0-0.19","4","4","4","4","4","4","4","4","4","4","5","5","5","5","5","5","5","5","5","5","1","1","1","1","1","1","1","1","1","0","0","0","1","0","1","0","0","1","1","1","0","0","1","0","5","2","2","1","1","4","1","3","2","5","1","619618027951882240","张","268","","","","","","","","","","","","","","","","","","","","","","","","","","","","","","","","","","","","","","","","","",""
"491","<p style=""color:white; font-size: 35px;"">高效</p>","i","categorize-html","147","167047","0.0-6.0-0.0-8.0-1.19","4","4","4","4","4","4","4","4","4","4","5","5","5","5","5","5","5","5","5","5","1","1","1","1","1","1","1","1","1","0","0","0","1","0","1","0","0","1","1","1","0","0","1","0","5","2","2","1","1","4","1","3","2","5","1","619618027951882240","张","268","","","","","","","","","","","","","","","","","","","true","4","4","ability","491","positive","高效","","","","","","","","","","","","","","","","",""
"null","","null","html-keyboard-response","148","167313","0.0-6.0-0.0-8.0-0.20","4","4","4","4","4","4","4","4","4","4","5","5","5","5","5","5","5","5","5","5","1","1","1","1","1","1","1","1","1","0","0","0","1","0","1","0","0","1","1","1","0","0","1","0","5","2","2","1","1","4","1","3","2","5","1","619618027951882240","张","268","","","","","","","","","","","","","","","","","","","","","","","","","","","","","","","","","","","","","","","","","",""
"645","<p style=""color:rgb(150, 250, 100); font-size: 35px;"">他</p>","e","categorize-html","149","167959","0.0-6.0-0.0-8.0-1.20","4","4","4","4","4","4","4","4","4","4","5","5","5","5","5","5","5","5","5","5","1","1","1","1","1","1","1","1","1","0","0","0","1","0","1","0","0","1","1","1","0","0","1","0","5","2","2","1","1","4","1","3","2","5","1","619618027951882240","张","268","","","","","","","","","","","","","","","","","","","true","4","4","ability","645","other","他","","","","","","","","","","","","","","","","",""
"null","","null","html-keyboard-response","150","168211","0.0-6.0-0.0-8.0-0.21","4","4","4","4","4","4","4","4","4","4","5","5","5","5","5","5","5","5","5","5","1","1","1","1","1","1","1","1","1","0","0","0","1","0","1","0","0","1","1","1","0","0","1","0","5","2","2","1","1","4","1","3","2","5","1","619618027951882240","张","268","","","","","","","","","","","","","","","","","","","","","","","","","","","","","","","","","","","","","","","","","",""
"483","<p style=""color:white; font-size: 35px;"">能干</p>","e","categorize-html","151","168951","0.0-6.0-0.0-8.0-1.21","4","4","4","4","4","4","4","4","4","4","5","5","5","5","5","5","5","5","5","5","1","1","1","1","1","1","1","1","1","0","0","0","1","0","1","0","0","1","1","1","0","0","1","0","5","2","2","1","1","4","1","3","2","5","1","619618027951882240","张","268","","","","","","","","","","","","","","","","","","","false","4","4","ability","1152.5555555555557","positive","能干","","","","","","","","","","","","","","","","",""
"null","","null","html-keyboard-response","152","169202","0.0-6.0-0.0-8.0-0.22","4","4","4","4","4","4","4","4","4","4","5","5","5","5","5","5","5","5","5","5","1","1","1","1","1","1","1","1","1","0","0","0","1","0","1","0","0","1","1","1","0","0","1","0","5","2","2","1","1","4","1","3","2","5","1","619618027951882240","张","268","","","","","","","","","","","","","","","","","","","","","","","","","","","","","","","","","","","","","","","","","",""
"507","<p style=""color:rgb(150, 250, 100); font-size: 35px;"">本人的</p>","i","categorize-html","153","169711","0.0-6.0-0.0-8.0-1.22","4","4","4","4","4","4","4","4","4","4","5","5","5","5","5","5","5","5","5","5","1","1","1","1","1","1","1","1","1","0","0","0","1","0","1","0","0","1","1","1","0","0","1","0","5","2","2","1","1","4","1","3","2","5","1","619618027951882240","张","268","","","","","","","","","","","","","","","","","","","true","4","4","ability","507","self","本人的","","","","","","","","","","","","","","","","",""
"null","","null","html-keyboard-response","154","169962","0.0-6.0-0.0-8.0-0.23","4","4","4","4","4","4","4","4","4","4","5","5","5","5","5","5","5","5","5","5","1","1","1","1","1","1","1","1","1","0","0","0","1","0","1","0","0","1","1","1","0","0","1","0","5","2","2","1","1","4","1","3","2","5","1","619618027951882240","张","268","","","","","","","","","","","","","","","","","","","","","","","","","","","","","","","","","","","","","","","","","",""
"596","<p style=""color:white; font-size: 35px;"">蠢笨</p>","e","categorize-html","155","170559","0.0-6.0-0.0-8.0-1.23","4","4","4","4","4","4","4","4","4","4","5","5","5","5","5","5","5","5","5","5","1","1","1","1","1","1","1","1","1","0","0","0","1","0","1","0","0","1","1","1","0","0","1","0","5","2","2","1","1","4","1","3","2","5","1","619618027951882240","张","268","","","","","","","","","","","","","","","","","","","true","4","4","ability","596","negative","蠢笨","","","","","","","","","","","","","","","","",""
"null","","null","html-keyboard-response","156","170811","0.0-6.0-0.0-8.0-0.24","4","4","4","4","4","4","4","4","4","4","5","5","5","5","5","5","5","5","5","5","1","1","1","1","1","1","1","1","1","0","0","0","1","0","1","0","0","1","1","1","0","0","1","0","5","2","2","1","1","4","1","3","2","5","1","619618027951882240","张","268","","","","","","","","","","","","","","","","","","","","","","","","","","","","","","","","","","","","","","","","","",""
"723","<p style=""color:rgb(150, 250, 100); font-size: 35px;"">自己的</p>","i","categorize-html","157","171535","0.0-6.0-0.0-8.0-1.24","4","4","4","4","4","4","4","4","4","4","5","5","5","5","5","5","5","5","5","5","1","1","1","1","1","1","1","1","1","0","0","0","1","0","1","0","0","1","1","1","0","0","1","0","5","2","2","1","1","4","1","3","2","5","1","619618027951882240","张","268","","","","","","","","","","","","","","","","","","","true","4","4","ability","723","self","自己的","","","","","","","","","","","","","","","","",""
"null","","null","html-keyboard-response","158","171787","0.0-6.0-0.0-8.0-0.25","4","4","4","4","4","4","4","4","4","4","5","5","5","5","5","5","5","5","5","5","1","1","1","1","1","1","1","1","1","0","0","0","1","0","1","0","0","1","1","1","0","0","1","0","5","2","2","1","1","4","1","3","2","5","1","619618027951882240","张","268","","","","","","","","","","","","","","","","","","","","","","","","","","","","","","","","","","","","","","","","","",""
"491","<p style=""color:white; font-size: 35px;"">拙笨</p>","e","categorize-html","159","172280","0.0-6.0-0.0-8.0-1.25","4","4","4","4","4","4","4","4","4","4","5","5","5","5","5","5","5","5","5","5","1","1","1","1","1","1","1","1","1","0","0","0","1","0","1","0","0","1","1","1","0","0","1","0","5","2","2","1","1","4","1","3","2","5","1","619618027951882240","张","268","","","","","","","","","","","","","","","","","","","true","4","4","ability","491","negative","拙笨","","","","","","","","","","","","","","","","",""
"null","","null","html-keyboard-response","160","172531","0.0-6.0-0.0-8.0-0.26","4","4","4","4","4","4","4","4","4","4","5","5","5","5","5","5","5","5","5","5","1","1","1","1","1","1","1","1","1","0","0","0","1","0","1","0","0","1","1","1","0","0","1","0","5","2","2","1","1","4","1","3","2","5","1","619618027951882240","张","268","","","","","","","","","","","","","","","","","","","","","","","","","","","","","","","","","","","","","","","","","",""
"476","<p style=""color:rgb(150, 250, 100); font-size: 35px;"">他的</p>","e","categorize-html","161","173008","0.0-6.0-0.0-8.0-1.26","4","4","4","4","4","4","4","4","4","4","5","5","5","5","5","5","5","5","5","5","1","1","1","1","1","1","1","1","1","0","0","0","1","0","1","0","0","1","1","1","0","0","1","0","5","2","2","1","1","4","1","3","2","5","1","619618027951882240","张","268","","","","","","","","","","","","","","","","","","","true","4","4","ability","476","other","他的","","","","","","","","","","","","","","","","",""
"null","","null","html-keyboard-response","162","173259","0.0-6.0-0.0-8.0-0.27","4","4","4","4","4","4","4","4","4","4","5","5","5","5","5","5","5","5","5","5","1","1","1","1","1","1","1","1","1","0","0","0","1","0","1","0","0","1","1","1","0","0","1","0","5","2","2","1","1","4","1","3","2","5","1","619618027951882240","张","268","","","","","","","","","","","","","","","","","","","","","","","","","","","","","","","","","","","","","","","","","",""
"547","<p style=""color:white; font-size: 35px;"">天才</p>","i","categorize-html","163","173807","0.0-6.0-0.0-8.0-1.27","4","4","4","4","4","4","4","4","4","4","5","5","5","5","5","5","5","5","5","5","1","1","1","1","1","1","1","1","1","0","0","0","1","0","1","0","0","1","1","1","0","0","1","0","5","2","2","1","1","4","1","3","2","5","1","619618027951882240","张","268","","","","","","","","","","","","","","","","","","","true","4","4","ability","547","positive","天才","","","","","","","","","","","","","","","","",""
"null","","null","html-keyboard-response","164","174058","0.0-6.0-0.0-8.0-0.28","4","4","4","4","4","4","4","4","4","4","5","5","5","5","5","5","5","5","5","5","1","1","1","1","1","1","1","1","1","0","0","0","1","0","1","0","0","1","1","1","0","0","1","0","5","2","2","1","1","4","1","3","2","5","1","619618027951882240","张","268","","","","","","","","","","","","","","","","","","","","","","","","","","","","","","","","","","","","","","","","","",""
"523","<p style=""color:rgb(150, 250, 100); font-size: 35px;"">他人的</p>","e","categorize-html","165","174582","0.0-6.0-0.0-8.0-1.28","4","4","4","4","4","4","4","4","4","4","5","5","5","5","5","5","5","5","5","5","1","1","1","1","1","1","1","1","1","0","0","0","1","0","1","0","0","1","1","1","0","0","1","0","5","2","2","1","1","4","1","3","2","5","1","619618027951882240","张","268","","","","","","","","","","","","","","","","","","","true","4","4","ability","523","other","他人的","","","","","","","","","","","","","","","","",""
"null","","null","html-keyboard-response","166","174834","0.0-6.0-0.0-8.0-0.29","4","4","4","4","4","4","4","4","4","4","5","5","5","5","5","5","5","5","5","5","1","1","1","1","1","1","1","1","1","0","0","0","1","0","1","0","0","1","1","1","0","0","1","0","5","2","2","1","1","4","1","3","2","5","1","619618027951882240","张","268","","","","","","","","","","","","","","","","","","","","","","","","","","","","","","","","","","","","","","","","","",""
"507","<p style=""color:white; font-size: 35px;"">高效</p>","i","categorize-html","167","175343","0.0-6.0-0.0-8.0-1.29","4","4","4","4","4","4","4","4","4","4","5","5","5","5","5","5","5","5","5","5","1","1","1","1","1","1","1","1","1","0","0","0","1","0","1","0","0","1","1","1","0","0","1","0","5","2","2","1","1","4","1","3","2","5","1","619618027951882240","张","268","","","","","","","","","","","","","","","","","","","true","4","4","ability","507","positive","高效","","","","","","","","","","","","","","","","",""
"null","","null","html-keyboard-response","168","175593","0.0-6.0-0.0-8.0-0.30","4","4","4","4","4","4","4","4","4","4","5","5","5","5","5","5","5","5","5","5","1","1","1","1","1","1","1","1","1","0","0","0","1","0","1","0","0","1","1","1","0","0","1","0","5","2","2","1","1","4","1","3","2","5","1","619618027951882240","张","268","","","","","","","","","","","","","","","","","","","","","","","","","","","","","","","","","","","","","","","","","",""
"532","<p style=""color:rgb(150, 250, 100); font-size: 35px;"">自己</p>","i","categorize-html","169","176127","0.0-6.0-0.0-8.0-1.30","4","4","4","4","4","4","4","4","4","4","5","5","5","5","5","5","5","5","5","5","1","1","1","1","1","1","1","1","1","0","0","0","1","0","1","0","0","1","1","1","0","0","1","0","5","2","2","1","1","4","1","3","2","5","1","619618027951882240","张","268","","","","","","","","","","","","","","","","","","","true","4","4","ability","532","self","自己","","","","","","","","","","","","","","","","",""
"null","","null","html-keyboard-response","170","176378","0.0-6.0-0.0-8.0-0.31","4","4","4","4","4","4","4","4","4","4","5","5","5","5","5","5","5","5","5","5","1","1","1","1","1","1","1","1","1","0","0","0","1","0","1","0","0","1","1","1","0","0","1","0","5","2","2","1","1","4","1","3","2","5","1","619618027951882240","张","268","","","","","","","","","","","","","","","","","","","","","","","","","","","","","","","","","","","","","","","","","",""
"492","<p style=""color:white; font-size: 35px;"">无能</p>","e","categorize-html","171","176871","0.0-6.0-0.0-8.0-1.31","4","4","4","4","4","4","4","4","4","4","5","5","5","5","5","5","5","5","5","5","1","1","1","1","1","1","1","1","1","0","0","0","1","0","1","0","0","1","1","1","0","0","1","0","5","2","2","1","1","4","1","3","2","5","1","619618027951882240","张","268","","","","","","","","","","","","","","","","","","","true","4","4","ability","492","negative","无能","","","","","","","","","","","","","","","","",""
"null","","null","html-keyboard-response","172","177122","0.0-6.0-0.0-8.0-0.32","4","4","4","4","4","4","4","4","4","4","5","5","5","5","5","5","5","5","5","5","1","1","1","1","1","1","1","1","1","0","0","0","1","0","1","0","0","1","1","1","0","0","1","0","5","2","2","1","1","4","1","3","2","5","1","619618027951882240","张","268","","","","","","","","","","","","","","","","","","","","","","","","","","","","","","","","","","","","","","","","","",""
"483","<p style=""color:rgb(150, 250, 100); font-size: 35px;"">别人的</p>","e","categorize-html","173","177607","0.0-6.0-0.0-8.0-1.32","4","4","4","4","4","4","4","4","4","4","5","5","5","5","5","5","5","5","5","5","1","1","1","1","1","1","1","1","1","0","0","0","1","0","1","0","0","1","1","1","0","0","1","0","5","2","2","1","1","4","1","3","2","5","1","619618027951882240","张","268","","","","","","","","","","","","","","","","","","","true","4","4","ability","483","other","别人的","","","","","","","","","","","","","","","","",""
"null","","null","html-keyboard-response","174","177858","0.0-6.0-0.0-8.0-0.33","4","4","4","4","4","4","4","4","4","4","5","5","5","5","5","5","5","5","5","5","1","1","1","1","1","1","1","1","1","0","0","0","1","0","1","0","0","1","1","1","0","0","1","0","5","2","2","1","1","4","1","3","2","5","1","619618027951882240","张","268","","","","","","","","","","","","","","","","","","","","","","","","","","","","","","","","","","","","","","","","","",""
"460","<p style=""color:white; font-size: 35px;"">精干</p>","i","categorize-html","175","178319","0.0-6.0-0.0-8.0-1.33","4","4","4","4","4","4","4","4","4","4","5","5","5","5","5","5","5","5","5","5","1","1","1","1","1","1","1","1","1","0","0","0","1","0","1","0","0","1","1","1","0","0","1","0","5","2","2","1","1","4","1","3","2","5","1","619618027951882240","张","268","","","","","","","","","","","","","","","","","","","true","4","4","ability","460","positive","精干","","","","","","","","","","","","","","","","",""
"null","","null","html-keyboard-response","176","178571","0.0-6.0-0.0-8.0-0.34","4","4","4","4","4","4","4","4","4","4","5","5","5","5","5","5","5","5","5","5","1","1","1","1","1","1","1","1","1","0","0","0","1","0","1","0","0","1","1","1","0","0","1","0","5","2","2","1","1","4","1","3","2","5","1","619618027951882240","张","268","","","","","","","","","","","","","","","","","","","","","","","","","","","","","","","","","","","","","","","","","",""
"650","<p style=""color:rgb(150, 250, 100); font-size: 35px;"">我</p>","i","categorize-html","177","179222","0.0-6.0-0.0-8.0-1.34","4","4","4","4","4","4","4","4","4","4","5","5","5","5","5","5","5","5","5","5","1","1","1","1","1","1","1","1","1","0","0","0","1","0","1","0","0","1","1","1","0","0","1","0","5","2","2","1","1","4","1","3","2","5","1","619618027951882240","张","268","","","","","","","","","","","","","","","","","","","true","4","4","ability","650","self","我","","","","","","","","","","","","","","","","",""
"null","","null","html-keyboard-response","178","179474","0.0-6.0-0.0-8.0-0.35","4","4","4","4","4","4","4","4","4","4","5","5","5","5","5","5","5","5","5","5","1","1","1","1","1","1","1","1","1","0","0","0","1","0","1","0","0","1","1","1","0","0","1","0","5","2","2","1","1","4","1","3","2","5","1","619618027951882240","张","268","","","","","","","","","","","","","","","","","","","","","","","","","","","","","","","","","","","","","","","","","",""
"508","<p style=""color:white; font-size: 35px;"">废物</p>","e","categorize-html","179","179983","0.0-6.0-0.0-8.0-1.35","4","4","4","4","4","4","4","4","4","4","5","5","5","5","5","5","5","5","5","5","1","1","1","1","1","1","1","1","1","0","0","0","1","0","1","0","0","1","1","1","0","0","1","0","5","2","2","1","1","4","1","3","2","5","1","619618027951882240","张","268","","","","","","","","","","","","","","","","","","","true","4","4","ability","508","negative","废物","","","","","","","","","","","","","","","","",""
"null","","null","html-keyboard-response","180","180249","0.0-6.0-0.0-8.0-0.36","4","4","4","4","4","4","4","4","4","4","5","5","5","5","5","5","5","5","5","5","1","1","1","1","1","1","1","1","1","0","0","0","1","0","1","0","0","1","1","1","0","0","1","0","5","2","2","1","1","4","1","3","2","5","1","619618027951882240","张","268","","","","","","","","","","","","","","","","","","","","","","","","","","","","","","","","","","","","","","","","","",""
"620","<p style=""color:rgb(150, 250, 100); font-size: 35px;"">自己</p>","i","categorize-html","181","180871","0.0-6.0-0.0-8.0-1.36","4","4","4","4","4","4","4","4","4","4","5","5","5","5","5","5","5","5","5","5","1","1","1","1","1","1","1","1","1","0","0","0","1","0","1","0","0","1","1","1","0","0","1","0","5","2","2","1","1","4","1","3","2","5","1","619618027951882240","张","268","","","","","","","","","","","","","","","","","","","true","4","4","ability","620","self","自己","","","","","","","","","","","","","","","","",""
"null","","null","html-keyboard-response","182","181123","0.0-6.0-0.0-8.0-0.37","4","4","4","4","4","4","4","4","4","4","5","5","5","5","5","5","5","5","5","5","1","1","1","1","1","1","1","1","1","0","0","0","1","0","1","0","0","1","1","1","0","0","1","0","5","2","2","1","1","4","1","3","2","5","1","619618027951882240","张","268","","","","","","","","","","","","","","","","","","","","","","","","","","","","","","","","","","","","","","","","","",""
"627","<p style=""color:white; font-size: 35px;"">精干</p>","i","categorize-html","183","181751","0.0-6.0-0.0-8.0-1.37","4","4","4","4","4","4","4","4","4","4","5","5","5","5","5","5","5","5","5","5","1","1","1","1","1","1","1","1","1","0","0","0","1","0","1","0","0","1","1","1","0","0","1","0","5","2","2","1","1","4","1","3","2","5","1","619618027951882240","张","268","","","","","","","","","","","","","","","","","","","true","4","4","ability","627","positive","精干","","","","","","","","","","","","","","","","",""
"null","","null","html-keyboard-response","184","182002","0.0-6.0-0.0-8.0-0.38","4","4","4","4","4","4","4","4","4","4","5","5","5","5","5","5","5","5","5","5","1","1","1","1","1","1","1","1","1","0","0","0","1","0","1","0","0","1","1","1","0","0","1","0","5","2","2","1","1","4","1","3","2","5","1","619618027951882240","张","268","","","","","","","","","","","","","","","","","","","","","","","","","","","","","","","","","","","","","","","","","",""
"491","<p style=""color:rgb(150, 250, 100); font-size: 35px;"">他人</p>","e","categorize-html","185","182495","0.0-6.0-0.0-8.0-1.38","4","4","4","4","4","4","4","4","4","4","5","5","5","5","5","5","5","5","5","5","1","1","1","1","1","1","1","1","1","0","0","0","1","0","1","0","0","1","1","1","0","0","1","0","5","2","2","1","1","4","1","3","2","5","1","619618027951882240","张","268","","","","","","","","","","","","","","","","","","","true","4","4","ability","491","other","他人","","","","","","","","","","","","","","","","",""
"null","","null","html-keyboard-response","186","182745","0.0-6.0-0.0-8.0-0.39","4","4","4","4","4","4","4","4","4","4","5","5","5","5","5","5","5","5","5","5","1","1","1","1","1","1","1","1","1","0","0","0","1","0","1","0","0","1","1","1","0","0","1","0","5","2","2","1","1","4","1","3","2","5","1","619618027951882240","张","268","","","","","","","","","","","","","","","","","","","","","","","","","","","","","","","","","","","","","","","","","",""
"588","<p style=""color:white; font-size: 35px;"">拙笨</p>","e","categorize-html","187","183335","0.0-6.0-0.0-8.0-1.39","4","4","4","4","4","4","4","4","4","4","5","5","5","5","5","5","5","5","5","5","1","1","1","1","1","1","1","1","1","0","0","0","1","0","1","0","0","1","1","1","0","0","1","0","5","2","2","1","1","4","1","3","2","5","1","619618027951882240","张","268","","","","","","","","","","","","","","","","","","","true","4","4","ability","588","negative","拙笨","","","","","","","","","","","","","","","","",""
"null","","null","html-keyboard-response","188","183587","0.0-6.0-0.0-8.0-0.40","4","4","4","4","4","4","4","4","4","4","5","5","5","5","5","5","5","5","5","5","1","1","1","1","1","1","1","1","1","0","0","0","1","0","1","0","0","1","1","1","0","0","1","0","5","2","2","1","1","4","1","3","2","5","1","619618027951882240","张","268","","","","","","","","","","","","","","","","","","","","","","","","","","","","","","","","","","","","","","","","","",""
"747","<p style=""color:rgb(150, 250, 100); font-size: 35px;"">别人的</p>","e","categorize-html","189","184335","0.0-6.0-0.0-8.0-1.40","4","4","4","4","4","4","4","4","4","4","5","5","5","5","5","5","5","5","5","5","1","1","1","1","1","1","1","1","1","0","0","0","1","0","1","0","0","1","1","1","0","0","1","0","5","2","2","1","1","4","1","3","2","5","1","619618027951882240","张","268","","","","","","","","","","","","","","","","","","","true","4","4","ability","747","other","别人的","","","","","","","","","","","","","","","","",""
"null","","null","html-keyboard-response","190","184586","0.0-6.0-0.0-8.0-0.41","4","4","4","4","4","4","4","4","4","4","5","5","5","5","5","5","5","5","5","5","1","1","1","1","1","1","1","1","1","0","0","0","1","0","1","0","0","1","1","1","0","0","1","0","5","2","2","1","1","4","1","3","2","5","1","619618027951882240","张","268","","","","","","","","","","","","","","","","","","","","","","","","","","","","","","","","","","","","","","","","","",""
"532","<p style=""color:white; font-size: 35px;"">全才</p>","i","categorize-html","191","185118","0.0-6.0-0.0-8.0-1.41","4","4","4","4","4","4","4","4","4","4","5","5","5","5","5","5","5","5","5","5","1","1","1","1","1","1","1","1","1","0","0","0","1","0","1","0","0","1","1","1","0","0","1","0","5","2","2","1","1","4","1","3","2","5","1","619618027951882240","张","268","","","","","","","","","","","","","","","","","","","true","4","4","ability","532","positive","全才","","","","","","","","","","","","","","","","",""
"null","","null","html-keyboard-response","192","185370","0.0-6.0-0.0-8.0-0.42","4","4","4","4","4","4","4","4","4","4","5","5","5","5","5","5","5","5","5","5","1","1","1","1","1","1","1","1","1","0","0","0","1","0","1","0","0","1","1","1","0","0","1","0","5","2","2","1","1","4","1","3","2","5","1","619618027951882240","张","268","","","","","","","","","","","","","","","","","","","","","","","","","","","","","","","","","","","","","","","","","",""
"492","<p style=""color:rgb(150, 250, 100); font-size: 35px;"">本人的</p>","i","categorize-html","193","185863","0.0-6.0-0.0-8.0-1.42","4","4","4","4","4","4","4","4","4","4","5","5","5","5","5","5","5","5","5","5","1","1","1","1","1","1","1","1","1","0","0","0","1","0","1","0","0","1","1","1","0","0","1","0","5","2","2","1","1","4","1","3","2","5","1","619618027951882240","张","268","","","","","","","","","","","","","","","","","","","true","4","4","ability","492","self","本人的","","","","","","","","","","","","","","","","",""
