"rt","stimulus","response","trial_type","trial_index","time_elapsed","internal_node_id","ses_1","ses_2","ses_3","ses_4","ses_5","ses_6","ses_7","ses_8","ses_9","ses_10","coreself_1","coreself_2","coreself_3","coreself_4","coreself_5","coreself_6","coreself_7","coreself_8","coreself_9","coreself_10","SGPS_1","SGPS_2","SGPS_3","SGPS_4","SGPS_5","SGPS_6","SGPS_7","SGPS_8","SGPS_9","NPI1","NPI2","NPI3","NPI4","NPI5","NPI6","NPI7","NPI8","NPI9","NPI10","NPI11","NPI12","NPI13","NPI14","NPI15","hsns_1","hsns_2","hsns_3","hsns_4","hsns_5","trap1","hsns_6","hsns_7","hsns_8","hsns_9","hsns_10","subj_idx","friend_name","ParticipantID","value","success","user_agent","responses","item_order","radio_event_ids","radio_event_times","key_event_times","mouse_event_times","straightlining","zigzagging","honeypot","timeout","failed_images","failed_audio","failed_video","view_history","response_type","key_press","avg_frame_time","center_x","center_y","correct_response","correct","identity","Image","word","condition","task_id","screen_id","time_stamp","version_attrib","version_target","IAT","RT","varname","summary","version_attrib2","version_target2","question_order","correct_answer","trap1_item"
"33097","
   <p><div style = ""color: white;font-size:25px;"">您好，欢迎参加本次实验。</div> </p>
   <p><div style = ""color: white;font-size:25px;"">为充分保障您的权利，请确保您已经知晓并同意《参与实验同意书》以及《数据公开知情同意书》。</div></p>
   <p><div style = ""color: white;font-size:25px;"">如果您未见过上述内容，请咨询实验员。</div></p>
   <p><div style = ""color: white;font-size:25px;"">如果您选择继续实验，则表示您已经清楚两份知情同意书的内容并同意。</div></p>
   <p><div style = ""color: pink;font-size:30px;"">请确保您记得day0的实验编号，您将在本次实验输入该编号，若您忘记，请咨询实验员后作答。</div></p>
   <p><div style = ""color: lightblue;font-size:25px;"">请您尽可能认真地作答，我们将依据您在各问卷和按键任务中的作答质量发放报酬。</div></p>
   <p> <div style = ""color: green;font-size:25px;""><按空格键至下页></div> </p>
   "," ","html-keyboard-response","0","33100","0.0-0.0","3","3","3","3","2","3","2","2","3","4","4","3","3","4","4","3","3","3","4","3","1","3","3","2","2","2","2","3","3","1","1","0","1","0","0","0","0","0","0","1","0","0","0","1","4","2","2","4","4","3","5","3","5","3","1","678869245659971584","李","265","","","","","","","","","","","","","","","","","","","","","","","","","","","","","","","","","","","","","","","","","",""
"","","","call-function","1","33105","0.0-1.0-0.0","3","3","3","3","2","3","2","2","3","4","4","3","3","4","4","3","3","3","4","3","1","3","3","2","2","2","2","3","3","1","1","0","1","0","0","0","0","0","0","1","0","0","0","1","4","2","2","4","4","3","5","3","5","3","1","678869245659971584","李","265","","","","","","","","","","","","","","","","","","","","","","","","","","","","","","","","","","","","","","","","","",""
"31438","","{""friend_name"":""李"",""ParticipantID"":""265""}","survey-html-form","2","64544","0.0-1.0-1.0","3","3","3","3","2","3","2","2","3","4","4","3","3","4","4","3","3","3","4","3","1","3","3","2","2","2","2","3","3","1","1","0","1","0","0","0","0","0","0","1","0","0","0","1","4","2","2","4","4","3","5","3","5","3","1","678869245659971584","李","265","","","","","","","","","","","","","","","","","","","","","","","","","","","","","","","","","","","","","","","","","",""
"","","","fullscreen","3","93120","0.0-2.0","3","3","3","3","2","3","2","2","3","4","4","3","3","4","4","3","3","3","4","3","1","3","3","2","2","2","2","3","3","1","1","0","1","0","0","0","0","0","0","1","0","0","0","1","4","2","2","4","4","3","5","3","5","3","1","678869245659971584","李","265","","true","{}","","","","","","","","","","","","","","","","","","","","","","","","","","","","","","","","","","","","","","",""
"43014.59999999404","","{""Q01"":""3"",""Q02"":""3"",""Q03"":""3"",""Q04"":""3"",""Q05"":""2"",""Q06"":""3"",""Q07"":""2"",""Q08"":""2"",""Q09"":""3"",""Q10"":""4""}","survey-template","4","136141","0.0-3.0","3","3","3","3","2","3","2","2","3","4","4","3","3","4","4","3","3","3","4","3","1","3","3","2","2","2","2","3","3","1","1","0","1","0","0","0","0","0","0","1","0","0","0","1","4","2","2","4","4","3","5","3","5","3","1","678869245659971584","李","265","","","","{""Q01"":""3"",""Q02"":""3"",""Q03"":""3"",""Q04"":""3"",""Q05"":""2"",""Q06"":""3"",""Q07"":""2"",""Q08"":""2"",""Q09"":""3"",""Q10"":""4""}","[0,1,2,3,4,5,6,7,8,9]","[""Q01"",""Q02"",""Q03"",""Q04"",""Q05"",""Q06"",""Q07"",""Q08"",""Q09"",""Q10""]","[10312.09999999404,14038.699999988079,19073.80000001192,21619.80000001192,26579.90000000596,28420.40000000596,30873.80000001192,34625.40000000596,37863.09999999404,41599.80000001192]","[]","[10312.09999999404,14038.699999988079,19073.80000001192,21619.80000001192,26579.90000000596,28420.40000000596,30873.80000001192,34625.40000000596,37863.09999999404,41599.80000001192,43012.09999999404]","0.6","0.6666666666666666","0","","","","","","","","","","","","","","","","","","","","","","","","","","","","","",""
"43658.59999999404","","{""Q01"":""4"",""Q02"":""3"",""Q03"":""3"",""Q04"":""4"",""Q05"":""4"",""Q06"":""3"",""Q07"":""3"",""Q08"":""3"",""Q09"":""4"",""Q10"":""3""}","survey-template","5","179816","0.0-4.0","3","3","3","3","2","3","2","2","3","4","4","3","3","4","4","3","3","3","4","3","1","3","3","2","2","2","2","3","3","1","1","0","1","0","0","0","0","0","0","1","0","0","0","1","4","2","2","4","4","3","5","3","5","3","1","678869245659971584","李","265","","","","{""Q01"":""4"",""Q02"":""3"",""Q03"":""3"",""Q04"":""4"",""Q05"":""4"",""Q06"":""3"",""Q07"":""3"",""Q08"":""3"",""Q09"":""4"",""Q10"":""3""}","[0,1,2,3,4,5,6,7,8,9]","[""Q01"",""Q02"",""Q03"",""Q04"",""Q05"",""Q05"",""Q06"",""Q07"",""Q08"",""Q09"",""Q10""]","[12160.299999982119,17830,20599.59999999404,22893.899999976158,25299.79999998212,26734.5,28995.59999999404,32353.59999999404,34688.39999997616,39015,42698.5]","[]","[12160.299999982119,16197.59999999404,17193.79999998212,17830,20599.59999999404,22893.899999976158,25299.79999998212,26734.5,28995.59999999404,31713.79999998212,32353.59999999404,34688.39999997616,38305.79999998212,39015,42698.5,43656]","0.6","0.5555555555555556","0","","","","","","","","","","","","","","","","","","","","","","","","","","","","","",""
"","","","preload","6","180329","0.0-5.0","3","3","3","3","2","3","2","2","3","4","4","3","3","4","4","3","3","3","4","3","1","3","3","2","2","2","2","3","3","1","1","0","1","0","0","0","0","0","0","1","0","0","0","1","4","2","2","4","4","3","5","3","5","3","1","678869245659971584","李","265","","true","","","","","","","","","","","false","[]","[]","[]","","","","","","","","","","","","","","","","","","","","","","","","","",""
"17800","","","instructions","7","198130","0.0-6.0","3","3","3","3","2","3","2","2","3","4","4","3","3","4","4","3","3","3","4","3","1","3","3","2","2","2","2","3","3","1","1","0","1","0","0","0","0","0","0","1","0","0","0","1","4","2","2","4","4","3","5","3","5","3","1","678869245659971584","李","265","","","","","","","","","","","","","","","","","[{""page_index"":0,""viewing_time"":17799}]","","","","","","","","","","","","","","","","","","","","","","","","",""
"22519","","","instructions","8","220653","0.0-7.0-0.0-0.0","3","3","3","3","2","3","2","2","3","4","4","3","3","4","4","3","3","3","4","3","1","3","3","2","2","2","2","3","3","1","1","0","1","0","0","0","0","0","0","1","0","0","0","1","4","2","2","4","4","3","5","3","5","3","1","678869245659971584","李","265","","","","","","","","","","","","","","","","","[{""page_index"":0,""viewing_time"":12254},{""page_index"":1,""viewing_time"":7345},{""page_index"":2,""viewing_time"":2920}]","","","","","","","","","","","","","","","","","","","","","","","","",""
"null","","null","psychophysics","9","222877","0.0-7.0-0.0-1.0-0.0-0.0","3","3","3","3","2","3","2","2","3","4","4","3","3","4","4","3","3","3","4","3","1","3","3","2","2","2","2","3","3","1","1","0","1","0","0","0","0","0","0","1","0","0","0","1","4","2","2","4","4","3","5","3","5","3","1","678869245659971584","李","265","","","","null","","","","","","","","","","","","","","key","null","17.05265891472872","768","428","f","false","nonmatch","img/pentagon.png","三角","五边","ALT1_1","prac_ALT1_1","","","","","","","","","","","",""
"null","<span class='add_' style='color:yellow; font-size: 70px;'> 太慢! </span>","null","html-keyboard-response","10","223389","0.0-7.0-0.0-1.0-0.0-1.0","3","3","3","3","2","3","2","2","3","4","4","3","3","4","4","3","3","3","4","3","1","3","3","2","2","2","2","3","3","1","1","0","1","0","0","0","0","0","0","1","0","0","0","1","4","2","2","4","4","3","5","3","5","3","1","678869245659971584","李","265","","","","","","","","","","","","","","","","","","","","","","","","","","","","","","feedback_test","","","","","","","","","","","",""
"565","","j","psychophysics","11","224956","0.0-7.0-0.0-1.0-0.0-0.1","3","3","3","3","2","3","2","2","3","4","4","3","3","4","4","3","3","3","4","3","1","3","3","2","2","2","2","3","3","1","1","0","1","0","0","0","0","0","0","1","0","0","0","1","4","2","2","4","4","3","5","3","5","3","1","678869245659971584","李","265","","","","match","","","","","","","","","","","","","","key","j","16.66278494623651","768","428","f","false","nonmatch","img/triangle.png","菱形","三角","ALT1_1","prac_ALT1_1","","","","","","","","","","","",""
"null","<span style='color:red; font-size: 70px;'>错误! </span>","null","html-keyboard-response","12","225474","0.0-7.0-0.0-1.0-0.0-1.1","3","3","3","3","2","3","2","2","3","4","4","3","3","4","4","3","3","3","4","3","1","3","3","2","2","2","2","3","3","1","1","0","1","0","0","0","0","0","0","1","0","0","0","1","4","2","2","4","4","3","5","3","5","3","1","678869245659971584","李","265","","","","","","","","","","","","","","","","","","","","","","","","","","","","","","feedback_test","","","","","","","","","","","",""
"538","","f","psychophysics","13","227016","0.0-7.0-0.0-1.0-0.0-0.2","3","3","3","3","2","3","2","2","3","4","4","3","3","4","4","3","3","3","4","3","1","3","3","2","2","2","2","3","3","1","1","0","1","0","0","0","0","0","0","1","0","0","0","1","4","2","2","4","4","3","5","3","5","3","1","678869245659971584","李","265","","","","nonmatch","","","","","","","","","","","","","","key","f","16.663626373626528","768","428","f","true","nonmatch","img/ellipse.png","三角","椭圆","ALT1_1","prac_ALT1_1","","","","","","","","","","","",""
"null","<span style='color:GreenYellow; font-size: 70px;'>正确! </span>","null","html-keyboard-response","14","227527","0.0-7.0-0.0-1.0-0.0-1.2","3","3","3","3","2","3","2","2","3","4","4","3","3","4","4","3","3","3","4","3","1","3","3","2","2","2","2","3","3","1","1","0","1","0","0","0","0","0","0","1","0","0","0","1","4","2","2","4","4","3","5","3","5","3","1","678869245659971584","李","265","","","","","","","","","","","","","","","","","","","","","","","","","","","","","","feedback_test","","","","","","","","","","","",""
"914","","f","psychophysics","15","229451","0.0-7.0-0.0-1.0-0.0-0.3","3","3","3","3","2","3","2","2","3","4","4","3","3","4","4","3","3","3","4","3","1","3","3","2","2","2","2","3","3","1","1","0","1","0","0","0","0","0","0","1","0","0","0","1","4","2","2","4","4","3","5","3","5","3","1","678869245659971584","李","265","","","","nonmatch","","","","","","","","","","","","","","key","f","16.813169642857247","768","428","f","true","nonmatch","img/ellipse.png","五边","椭圆","ALT1_1","prac_ALT1_1","","","","","","","","","","","",""
"null","<span style='color:GreenYellow; font-size: 70px;'>正确! </span>","null","html-keyboard-response","16","229966","0.0-7.0-0.0-1.0-0.0-1.3","3","3","3","3","2","3","2","2","3","4","4","3","3","4","4","3","3","3","4","3","1","3","3","2","2","2","2","3","3","1","1","0","1","0","0","0","0","0","0","1","0","0","0","1","4","2","2","4","4","3","5","3","5","3","1","678869245659971584","李","265","","","","","","","","","","","","","","","","","","","","","","","","","","","","","","feedback_test","","","","","","","","","","","",""
"860","","j","psychophysics","17","231837","0.0-7.0-0.0-1.0-0.0-0.4","3","3","3","3","2","3","2","2","3","4","4","3","3","4","4","3","3","3","4","3","1","3","3","2","2","2","2","3","3","1","1","0","1","0","0","0","0","0","0","1","0","0","0","1","4","2","2","4","4","3","5","3","5","3","1","678869245659971584","李","265","","","","match","","","","","","","","","","","","","","key","j","16.66508108108102","768","428","f","false","nonmatch","img/triangle.png","五边","三角","ALT1_1","prac_ALT1_1","","","","","","","","","","","",""
"null","<span style='color:red; font-size: 70px;'>错误! </span>","null","html-keyboard-response","18","232342","0.0-7.0-0.0-1.0-0.0-1.4","3","3","3","3","2","3","2","2","3","4","4","3","3","4","4","3","3","3","4","3","1","3","3","2","2","2","2","3","3","1","1","0","1","0","0","0","0","0","0","1","0","0","0","1","4","2","2","4","4","3","5","3","5","3","1","678869245659971584","李","265","","","","","","","","","","","","","","","","","","","","","","","","","","","","","","feedback_test","","","","","","","","","","","",""
"761","","f","psychophysics","19","234108","0.0-7.0-0.0-1.0-0.0-0.5","3","3","3","3","2","3","2","2","3","4","4","3","3","4","4","3","3","3","4","3","1","3","3","2","2","2","2","3","3","1","1","0","1","0","0","0","0","0","0","1","0","0","0","1","4","2","2","4","4","3","5","3","5","3","1","678869245659971584","李","265","","","","nonmatch","","","","","","","","","","","","","","key","f","16.665413461538545","768","428","j","false","match","img/ellipse.png","椭圆","椭圆","ALT1_1","prac_ALT1_1","","","","","","","","","","","",""
"null","<span style='color:red; font-size: 70px;'>错误! </span>","null","html-keyboard-response","20","234617","0.0-7.0-0.0-1.0-0.0-1.5","3","3","3","3","2","3","2","2","3","4","4","3","3","4","4","3","3","3","4","3","1","3","3","2","2","2","2","3","3","1","1","0","1","0","0","0","0","0","0","1","0","0","0","1","4","2","2","4","4","3","5","3","5","3","1","678869245659971584","李","265","","","","","","","","","","","","","","","","","","","","","","","","","","","","","","feedback_test","","","","","","","","","","","",""
"939","","j","psychophysics","21","236565","0.0-7.0-0.0-1.0-0.0-0.6","3","3","3","3","2","3","2","2","3","4","4","3","3","4","4","3","3","3","4","3","1","3","3","2","2","2","2","3","3","1","1","0","1","0","0","0","0","0","0","1","0","0","0","1","4","2","2","4","4","3","5","3","5","3","1","678869245659971584","李","265","","","","match","","","","","","","","","","","","","","key","j","16.66287826086956","768","428","f","false","nonmatch","img/triangle.png","椭圆","三角","ALT1_1","prac_ALT1_1","","","","","","","","","","","",""
"null","<span style='color:red; font-size: 70px;'>错误! </span>","null","html-keyboard-response","22","237077","0.0-7.0-0.0-1.0-0.0-1.6","3","3","3","3","2","3","2","2","3","4","4","3","3","4","4","3","3","3","4","3","1","3","3","2","2","2","2","3","3","1","1","0","1","0","0","0","0","0","0","1","0","0","0","1","4","2","2","4","4","3","5","3","5","3","1","678869245659971584","李","265","","","","","","","","","","","","","","","","","","","","","","","","","","","","","","feedback_test","","","","","","","","","","","",""
"825","","f","psychophysics","23","238911","0.0-7.0-0.0-1.0-0.0-0.7","3","3","3","3","2","3","2","2","3","4","4","3","3","4","4","3","3","3","4","3","1","3","3","2","2","2","2","3","3","1","1","0","1","0","0","0","0","0","0","1","0","0","0","1","4","2","2","4","4","3","5","3","5","3","1","678869245659971584","李","265","","","","nonmatch","","","","","","","","","","","","","","key","f","16.663074074074014","768","428","j","false","match","img/diamond.png","菱形","菱形","ALT1_1","prac_ALT1_1","","","","","","","","","","","",""
"null","<span style='color:red; font-size: 70px;'>错误! </span>","null","html-keyboard-response","24","239415","0.0-7.0-0.0-1.0-0.0-1.7","3","3","3","3","2","3","2","2","3","4","4","3","3","4","4","3","3","3","4","3","1","3","3","2","2","2","2","3","3","1","1","0","1","0","0","0","0","0","0","1","0","0","0","1","4","2","2","4","4","3","5","3","5","3","1","678869245659971584","李","265","","","","","","","","","","","","","","","","","","","","","","","","","","","","","","feedback_test","","","","","","","","","","","",""
"1130","","j","psychophysics","25","241550","0.0-7.0-0.0-1.0-0.0-0.8","3","3","3","3","2","3","2","2","3","4","4","3","3","4","4","3","3","3","4","3","1","3","3","2","2","2","2","3","3","1","1","0","1","0","0","0","0","0","0","1","0","0","0","1","4","2","2","4","4","3","5","3","5","3","1","678869245659971584","李","265","","","","match","","","","","","","","","","","","","","key","j","16.9312080000001","768","428","f","false","nonmatch","img/ellipse.png","菱形","椭圆","ALT1_1","prac_ALT1_1","","","","","","","","","","","",""
"null","<span style='color:red; font-size: 70px;'>错误! </span>","null","html-keyboard-response","26","242064","0.0-7.0-0.0-1.0-0.0-1.8","3","3","3","3","2","3","2","2","3","4","4","3","3","4","4","3","3","3","4","3","1","3","3","2","2","2","2","3","3","1","1","0","1","0","0","0","0","0","0","1","0","0","0","1","4","2","2","4","4","3","5","3","5","3","1","678869245659971584","李","265","","","","","","","","","","","","","","","","","","","","","","","","","","","","","","feedback_test","","","","","","","","","","","",""
"926","","f","psychophysics","27","244004","0.0-7.0-0.0-1.0-0.0-0.9","3","3","3","3","2","3","2","2","3","4","4","3","3","4","4","3","3","3","4","3","1","3","3","2","2","2","2","3","3","1","1","0","1","0","0","0","0","0","0","1","0","0","0","1","4","2","2","4","4","3","5","3","5","3","1","678869245659971584","李","265","","","","nonmatch","","","","","","","","","","","","","","key","f","16.663938053097294","768","428","j","false","match","img/pentagon.png","五边","五边","ALT1_1","prac_ALT1_1","","","","","","","","","","","",""
"null","<span style='color:red; font-size: 70px;'>错误! </span>","null","html-keyboard-response","28","244514","0.0-7.0-0.0-1.0-0.0-1.9","3","3","3","3","2","3","2","2","3","4","4","3","3","4","4","3","3","3","4","3","1","3","3","2","2","2","2","3","3","1","1","0","1","0","0","0","0","0","0","1","0","0","0","1","4","2","2","4","4","3","5","3","5","3","1","678869245659971584","李","265","","","","","","","","","","","","","","","","","","","","","","","","","","","","","","feedback_test","","","","","","","","","","","",""
"633","","j","psychophysics","29","246158","0.0-7.0-0.0-1.0-0.0-0.10","3","3","3","3","2","3","2","2","3","4","4","3","3","4","4","3","3","3","4","3","1","3","3","2","2","2","2","3","3","1","1","0","1","0","0","0","0","0","0","1","0","0","0","1","4","2","2","4","4","3","5","3","5","3","1","678869245659971584","李","265","","","","match","","","","","","","","","","","","","","key","j","16.835281250000055","768","428","j","true","match","img/pentagon.png","五边","五边","ALT1_1","prac_ALT1_1","","","","","","","","","","","",""
"null","<span style='color:GreenYellow; font-size: 70px;'>正确! </span>","null","html-keyboard-response","30","246661","0.0-7.0-0.0-1.0-0.0-1.10","3","3","3","3","2","3","2","2","3","4","4","3","3","4","4","3","3","3","4","3","1","3","3","2","2","2","2","3","3","1","1","0","1","0","0","0","0","0","0","1","0","0","0","1","4","2","2","4","4","3","5","3","5","3","1","678869245659971584","李","265","","","","","","","","","","","","","","","","","","","","","","","","","","","","","","feedback_test","","","","","","","","","","","",""
"919","","j","psychophysics","31","248589","0.0-7.0-0.0-1.0-0.0-0.11","3","3","3","3","2","3","2","2","3","4","4","3","3","4","4","3","3","3","4","3","1","3","3","2","2","2","2","3","3","1","1","0","1","0","0","0","0","0","0","1","0","0","0","1","4","2","2","4","4","3","5","3","5","3","1","678869245659971584","李","265","","","","match","","","","","","","","","","","","","","key","j","16.663929824561357","768","428","f","false","nonmatch","img/pentagon.png","椭圆","五边","ALT1_1","prac_ALT1_1","","","","","","","","","","","",""
"null","<span style='color:red; font-size: 70px;'>错误! </span>","null","html-keyboard-response","32","249100","0.0-7.0-0.0-1.0-0.0-1.11","3","3","3","3","2","3","2","2","3","4","4","3","3","4","4","3","3","3","4","3","1","3","3","2","2","2","2","3","3","1","1","0","1","0","0","0","0","0","0","1","0","0","0","1","4","2","2","4","4","3","5","3","5","3","1","678869245659971584","李","265","","","","","","","","","","","","","","","","","","","","","","","","","","","","","","feedback_test","","","","","","","","","","","",""
"null","","null","psychophysics","33","251339","0.0-7.0-0.0-1.0-0.0-0.12","3","3","3","3","2","3","2","2","3","4","4","3","3","4","4","3","3","3","4","3","1","3","3","2","2","2","2","3","3","1","1","0","1","0","0","0","0","0","0","1","0","0","0","1","4","2","2","4","4","3","5","3","5","3","1","678869245659971584","李","265","","","","null","","","","","","","","","","","","","","key","null","16.663818181818264","768","428","j","false","match","img/pentagon.png","五边","五边","ALT1_1","prac_ALT1_1","","","","","","","","","","","",""
"null","<span class='add_' style='color:yellow; font-size: 70px;'> 太慢! </span>","null","html-keyboard-response","34","251849","0.0-7.0-0.0-1.0-0.0-1.12","3","3","3","3","2","3","2","2","3","4","4","3","3","4","4","3","3","3","4","3","1","3","3","2","2","2","2","3","3","1","1","0","1","0","0","0","0","0","0","1","0","0","0","1","4","2","2","4","4","3","5","3","5","3","1","678869245659971584","李","265","","","","","","","","","","","","","","","","","","","","","","","","","","","","","","feedback_test","","","","","","","","","","","",""
"585","","f","psychophysics","35","253439","0.0-7.0-0.0-1.0-0.0-0.13","3","3","3","3","2","3","2","2","3","4","4","3","3","4","4","3","3","3","4","3","1","3","3","2","2","2","2","3","3","1","1","0","1","0","0","0","0","0","0","1","0","0","0","1","4","2","2","4","4","3","5","3","5","3","1","678869245659971584","李","265","","","","nonmatch","","","","","","","","","","","","","","key","f","16.663489361702307","768","428","j","false","match","img/ellipse.png","椭圆","椭圆","ALT1_1","prac_ALT1_1","","","","","","","","","","","",""
"null","<span style='color:red; font-size: 70px;'>错误! </span>","null","html-keyboard-response","36","253946","0.0-7.0-0.0-1.0-0.0-1.13","3","3","3","3","2","3","2","2","3","4","4","3","3","4","4","3","3","3","4","3","1","3","3","2","2","2","2","3","3","1","1","0","1","0","0","0","0","0","0","1","0","0","0","1","4","2","2","4","4","3","5","3","5","3","1","678869245659971584","李","265","","","","","","","","","","","","","","","","","","","","","","","","","","","","","","feedback_test","","","","","","","","","","","",""
"521","","j","psychophysics","37","255473","0.0-7.0-0.0-1.0-0.0-0.14","3","3","3","3","2","3","2","2","3","4","4","3","3","4","4","3","3","3","4","3","1","3","3","2","2","2","2","3","3","1","1","0","1","0","0","0","0","0","0","1","0","0","0","1","4","2","2","4","4","3","5","3","5","3","1","678869245659971584","李","265","","","","match","","","","","","","","","","","","","","key","j","16.663087912088077","768","428","j","true","match","img/diamond.png","菱形","菱形","ALT1_1","prac_ALT1_1","","","","","","","","","","","",""
"null","<span style='color:GreenYellow; font-size: 70px;'>正确! </span>","null","html-keyboard-response","38","255975","0.0-7.0-0.0-1.0-0.0-1.14","3","3","3","3","2","3","2","2","3","4","4","3","3","4","4","3","3","3","4","3","1","3","3","2","2","2","2","3","3","1","1","0","1","0","0","0","0","0","0","1","0","0","0","1","4","2","2","4","4","3","5","3","5","3","1","678869245659971584","李","265","","","","","","","","","","","","","","","","","","","","","","","","","","","","","","feedback_test","","","","","","","","","","","",""
"529","","j","psychophysics","39","257515","0.0-7.0-0.0-1.0-0.0-0.15","3","3","3","3","2","3","2","2","3","4","4","3","3","4","4","3","3","3","4","3","1","3","3","2","2","2","2","3","3","1","1","0","1","0","0","0","0","0","0","1","0","0","0","1","4","2","2","4","4","3","5","3","5","3","1","678869245659971584","李","265","","","","match","","","","","","","","","","","","","","key","j","16.663741573033754","768","428","f","false","nonmatch","img/diamond.png","椭圆","菱形","ALT1_1","prac_ALT1_1","","","","","","","","","","","",""
"null","<span style='color:red; font-size: 70px;'>错误! </span>","null","html-keyboard-response","40","258017","0.0-7.0-0.0-1.0-0.0-1.15","3","3","3","3","2","3","2","2","3","4","4","3","3","4","4","3","3","3","4","3","1","3","3","2","2","2","2","3","3","1","1","0","1","0","0","0","0","0","0","1","0","0","0","1","4","2","2","4","4","3","5","3","5","3","1","678869245659971584","李","265","","","","","","","","","","","","","","","","","","","","","","","","","","","","","","feedback_test","","","","","","","","","","","",""
"799","","f","psychophysics","41","259831","0.0-7.0-0.0-1.0-0.0-0.16","3","3","3","3","2","3","2","2","3","4","4","3","3","4","4","3","3","3","4","3","1","3","3","2","2","2","2","3","3","1","1","0","1","0","0","0","0","0","0","1","0","0","0","1","4","2","2","4","4","3","5","3","5","3","1","678869245659971584","李","265","","","","nonmatch","","","","","","","","","","","","","","key","f","16.664579439252478","768","428","f","true","nonmatch","img/diamond.png","三角","菱形","ALT1_1","prac_ALT1_1","","","","","","","","","","","",""
"null","<span style='color:GreenYellow; font-size: 70px;'>正确! </span>","null","html-keyboard-response","42","260344","0.0-7.0-0.0-1.0-0.0-1.16","3","3","3","3","2","3","2","2","3","4","4","3","3","4","4","3","3","3","4","3","1","3","3","2","2","2","2","3","3","1","1","0","1","0","0","0","0","0","0","1","0","0","0","1","4","2","2","4","4","3","5","3","5","3","1","678869245659971584","李","265","","","","","","","","","","","","","","","","","","","","","","","","","","","","","","feedback_test","","","","","","","","","","","",""
"571","","f","psychophysics","43","261923","0.0-7.0-0.0-1.0-0.0-0.17","3","3","3","3","2","3","2","2","3","4","4","3","3","4","4","3","3","3","4","3","1","3","3","2","2","2","2","3","3","1","1","0","1","0","0","0","0","0","0","1","0","0","0","1","4","2","2","4","4","3","5","3","5","3","1","678869245659971584","李","265","","","","nonmatch","","","","","","","","","","","","","","key","f","16.844451612903065","768","428","j","false","match","img/ellipse.png","椭圆","椭圆","ALT1_1","prac_ALT1_1","","","","","","","","","","","",""
"null","<span style='color:red; font-size: 70px;'>错误! </span>","null","html-keyboard-response","44","262438","0.0-7.0-0.0-1.0-0.0-1.17","3","3","3","3","2","3","2","2","3","4","4","3","3","4","4","3","3","3","4","3","1","3","3","2","2","2","2","3","3","1","1","0","1","0","0","0","0","0","0","1","0","0","0","1","4","2","2","4","4","3","5","3","5","3","1","678869245659971584","李","265","","","","","","","","","","","","","","","","","","","","","","","","","","","","","","feedback_test","","","","","","","","","","","",""
"881","","j","psychophysics","45","264327","0.0-7.0-0.0-1.0-0.0-0.18","3","3","3","3","2","3","2","2","3","4","4","3","3","4","4","3","3","3","4","3","1","3","3","2","2","2","2","3","3","1","1","0","1","0","0","0","0","0","0","1","0","0","0","1","4","2","2","4","4","3","5","3","5","3","1","678869245659971584","李","265","","","","match","","","","","","","","","","","","","","key","j","16.664348214285774","768","428","j","true","match","img/triangle.png","三角","三角","ALT1_1","prac_ALT1_1","","","","","","","","","","","",""
"null","<span style='color:GreenYellow; font-size: 70px;'>正确! </span>","null","html-keyboard-response","46","264835","0.0-7.0-0.0-1.0-0.0-1.18","3","3","3","3","2","3","2","2","3","4","4","3","3","4","4","3","3","3","4","3","1","3","3","2","2","2","2","3","3","1","1","0","1","0","0","0","0","0","0","1","0","0","0","1","4","2","2","4","4","3","5","3","5","3","1","678869245659971584","李","265","","","","","","","","","","","","","","","","","","","","","","","","","","","","","","feedback_test","","","","","","","","","","","",""
"897","","f","psychophysics","47","266738","0.0-7.0-0.0-1.0-0.0-0.19","3","3","3","3","2","3","2","2","3","4","4","3","3","4","4","3","3","3","4","3","1","3","3","2","2","2","2","3","3","1","1","0","1","0","0","0","0","0","0","1","0","0","0","1","4","2","2","4","4","3","5","3","5","3","1","678869245659971584","李","265","","","","nonmatch","","","","","","","","","","","","","","key","f","16.662919642857428","768","428","j","false","match","img/diamond.png","菱形","菱形","ALT1_1","prac_ALT1_1","","","","","","","","","","","",""
"null","<span style='color:red; font-size: 70px;'>错误! </span>","null","html-keyboard-response","48","267248","0.0-7.0-0.0-1.0-0.0-1.19","3","3","3","3","2","3","2","2","3","4","4","3","3","4","4","3","3","3","4","3","1","3","3","2","2","2","2","3","3","1","1","0","1","0","0","0","0","0","0","1","0","0","0","1","4","2","2","4","4","3","5","3","5","3","1","678869245659971584","李","265","","","","","","","","","","","","","","","","","","","","","","","","","","","","","","feedback_test","","","","","","","","","","","",""
"563","","j","psychophysics","49","268816","0.0-7.0-0.0-1.0-0.0-0.20","3","3","3","3","2","3","2","2","3","4","4","3","3","4","4","3","3","3","4","3","1","3","3","2","2","2","2","3","3","1","1","0","1","0","0","0","0","0","0","1","0","0","0","1","4","2","2","4","4","3","5","3","5","3","1","678869245659971584","李","265","","","","match","","","","","","","","","","","","","","key","j","16.663698924731047","768","428","f","false","nonmatch","img/pentagon.png","菱形","五边","ALT1_1","prac_ALT1_1","","","","","","","","","","","",""
"null","<span style='color:red; font-size: 70px;'>错误! </span>","null","html-keyboard-response","50","269327","0.0-7.0-0.0-1.0-0.0-1.20","3","3","3","3","2","3","2","2","3","4","4","3","3","4","4","3","3","3","4","3","1","3","3","2","2","2","2","3","3","1","1","0","1","0","0","0","0","0","0","1","0","0","0","1","4","2","2","4","4","3","5","3","5","3","1","678869245659971584","李","265","","","","","","","","","","","","","","","","","","","","","","","","","","","","","","feedback_test","","","","","","","","","","","",""
"1190","","f","psychophysics","51","271525","0.0-7.0-0.0-1.0-0.0-0.21","3","3","3","3","2","3","2","2","3","4","4","3","3","4","4","3","3","3","4","3","1","3","3","2","2","2","2","3","3","1","1","0","1","0","0","0","0","0","0","1","0","0","0","1","4","2","2","4","4","3","5","3","5","3","1","678869245659971584","李","265","","","","nonmatch","","","","","","","","","","","","","","key","f","16.66313740458048","768","428","j","false","match","img/triangle.png","三角","三角","ALT1_1","prac_ALT1_1","","","","","","","","","","","",""
"null","<span style='color:red; font-size: 70px;'>错误! </span>","null","html-keyboard-response","52","272032","0.0-7.0-0.0-1.0-0.0-1.21","3","3","3","3","2","3","2","2","3","4","4","3","3","4","4","3","3","3","4","3","1","3","3","2","2","2","2","3","3","1","1","0","1","0","0","0","0","0","0","1","0","0","0","1","4","2","2","4","4","3","5","3","5","3","1","678869245659971584","李","265","","","","","","","","","","","","","","","","","","","","","","","","","","","","","","feedback_test","","","","","","","","","","","",""
"807","","j","psychophysics","53","273854","0.0-7.0-0.0-1.0-0.0-0.22","3","3","3","3","2","3","2","2","3","4","4","3","3","4","4","3","3","3","4","3","1","3","3","2","2","2","2","3","3","1","1","0","1","0","0","0","0","0","0","1","0","0","0","1","4","2","2","4","4","3","5","3","5","3","1","678869245659971584","李","265","","","","match","","","","","","","","","","","","","","key","j","16.82252380952372","768","428","f","false","nonmatch","img/diamond.png","五边","菱形","ALT1_1","prac_ALT1_1","","","","","","","","","","","",""
"null","<span style='color:red; font-size: 70px;'>错误! </span>","null","html-keyboard-response","54","274360","0.0-7.0-0.0-1.0-0.0-1.22","3","3","3","3","2","3","2","2","3","4","4","3","3","4","4","3","3","3","4","3","1","3","3","2","2","2","2","3","3","1","1","0","1","0","0","0","0","0","0","1","0","0","0","1","4","2","2","4","4","3","5","3","5","3","1","678869245659971584","李","265","","","","","","","","","","","","","","","","","","","","","","","","","","","","","","feedback_test","","","","","","","","","","","",""
"1145","","f","psychophysics","55","276512","0.0-7.0-0.0-1.0-0.0-0.23","3","3","3","3","2","3","2","2","3","4","4","3","3","4","4","3","3","3","4","3","1","3","3","2","2","2","2","3","3","1","1","0","1","0","0","0","0","0","0","1","0","0","0","1","4","2","2","4","4","3","5","3","5","3","1","678869245659971584","李","265","","","","nonmatch","","","","","","","","","","","","","","key","f","16.66417968750011","768","428","j","false","match","img/triangle.png","三角","三角","ALT1_1","prac_ALT1_1","","","","","","","","","","","",""
"null","<span style='color:red; font-size: 70px;'>错误! </span>","null","html-keyboard-response","56","277025","0.0-7.0-0.0-1.0-0.0-1.23","3","3","3","3","2","3","2","2","3","4","4","3","3","4","4","3","3","3","4","3","1","3","3","2","2","2","2","3","3","1","1","0","1","0","0","0","0","0","0","1","0","0","0","1","4","2","2","4","4","3","5","3","5","3","1","678869245659971584","李","265","","","","","","","","","","","","","","","","","","","","","","","","","","","","","","feedback_test","","","","","","","","","","","",""
"678","","f","psychophysics","57","278707","0.0-7.0-0.0-1.0-0.0-0.24","3","3","3","3","2","3","2","2","3","4","4","3","3","4","4","3","3","3","4","3","1","3","3","2","2","2","2","3","3","1","1","0","1","0","0","0","0","0","0","1","0","0","0","1","4","2","2","4","4","3","5","3","5","3","1","678869245659971584","李","265","","","","nonmatch","","","","","","","","","","","","","","key","f","16.663979999999864","768","428","j","false","match","img/ellipse.png","椭圆","椭圆","ALT1_1","prac_ALT1_1","","","","","","","","","","","",""
"null","<span style='color:red; font-size: 70px;'>错误! </span>","null","html-keyboard-response","58","279214","0.0-7.0-0.0-1.0-0.0-1.24","3","3","3","3","2","3","2","2","3","4","4","3","3","4","4","3","3","3","4","3","1","3","3","2","2","2","2","3","3","1","1","0","1","0","0","0","0","0","0","1","0","0","0","1","4","2","2","4","4","3","5","3","5","3","1","678869245659971584","李","265","","","","","","","","","","","","","","","","","","","","","","","","","","","","","","feedback_test","","","","","","","","","","","",""
"965","","j","psychophysics","59","281187","0.0-7.0-0.0-1.0-0.0-0.25","3","3","3","3","2","3","2","2","3","4","4","3","3","4","4","3","3","3","4","3","1","3","3","2","2","2","2","3","3","1","1","0","1","0","0","0","0","0","0","1","0","0","0","1","4","2","2","4","4","3","5","3","5","3","1","678869245659971584","李","265","","","","match","","","","","","","","","","","","","","key","j","16.663350427350622","768","428","f","false","nonmatch","img/ellipse.png","五边","椭圆","ALT1_1","prac_ALT1_1","","","","","","","","","","","",""
"null","<span style='color:red; font-size: 70px;'>错误! </span>","null","html-keyboard-response","60","281703","0.0-7.0-0.0-1.0-0.0-1.25","3","3","3","3","2","3","2","2","3","4","4","3","3","4","4","3","3","3","4","3","1","3","3","2","2","2","2","3","3","1","1","0","1","0","0","0","0","0","0","1","0","0","0","1","4","2","2","4","4","3","5","3","5","3","1","678869245659971584","李","265","","","","","","","","","","","","","","","","","","","","","","","","","","","","","","feedback_test","","","","","","","","","","","",""
"898","","f","psychophysics","61","283605","0.0-7.0-0.0-1.0-0.0-0.26","3","3","3","3","2","3","2","2","3","4","4","3","3","4","4","3","3","3","4","3","1","3","3","2","2","2","2","3","3","1","1","0","1","0","0","0","0","0","0","1","0","0","0","1","4","2","2","4","4","3","5","3","5","3","1","678869245659971584","李","265","","","","nonmatch","","","","","","","","","","","","","","key","f","16.81215178571386","768","428","j","false","match","img/triangle.png","三角","三角","ALT1_1","prac_ALT1_1","","","","","","","","","","","",""
"null","<span style='color:red; font-size: 70px;'>错误! </span>","null","html-keyboard-response","62","284112","0.0-7.0-0.0-1.0-0.0-1.26","3","3","3","3","2","3","2","2","3","4","4","3","3","4","4","3","3","3","4","3","1","3","3","2","2","2","2","3","3","1","1","0","1","0","0","0","0","0","0","1","0","0","0","1","4","2","2","4","4","3","5","3","5","3","1","678869245659971584","李","265","","","","","","","","","","","","","","","","","","","","","","","","","","","","","","feedback_test","","","","","","","","","","","",""
"1134","","j","psychophysics","63","286253","0.0-7.0-0.0-1.0-0.0-0.27","3","3","3","3","2","3","2","2","3","4","4","3","3","4","4","3","3","3","4","3","1","3","3","2","2","2","2","3","3","1","1","0","1","0","0","0","0","0","0","1","0","0","0","1","4","2","2","4","4","3","5","3","5","3","1","678869245659971584","李","265","","","","match","","","","","","","","","","","","","","key","j","16.663338582677213","768","428","f","false","nonmatch","img/triangle.png","菱形","三角","ALT1_1","prac_ALT1_1","","","","","","","","","","","",""
"null","<span style='color:red; font-size: 70px;'>错误! </span>","null","html-keyboard-response","64","286764","0.0-7.0-0.0-1.0-0.0-1.27","3","3","3","3","2","3","2","2","3","4","4","3","3","4","4","3","3","3","4","3","1","3","3","2","2","2","2","3","3","1","1","0","1","0","0","0","0","0","0","1","0","0","0","1","4","2","2","4","4","3","5","3","5","3","1","678869245659971584","李","265","","","","","","","","","","","","","","","","","","","","","","","","","","","","","","feedback_test","","","","","","","","","","","",""
"937","","f","psychophysics","65","288706","0.0-7.0-0.0-1.0-0.0-0.28","3","3","3","3","2","3","2","2","3","4","4","3","3","4","4","3","3","3","4","3","1","3","3","2","2","2","2","3","3","1","1","0","1","0","0","0","0","0","0","1","0","0","0","1","4","2","2","4","4","3","5","3","5","3","1","678869245659971584","李","265","","","","nonmatch","","","","","","","","","","","","","","key","f","16.619350877193234","768","428","f","true","nonmatch","img/diamond.png","椭圆","菱形","ALT1_1","prac_ALT1_1","","","","","","","","","","","",""
"null","<span style='color:GreenYellow; font-size: 70px;'>正确! </span>","null","html-keyboard-response","66","289213","0.0-7.0-0.0-1.0-0.0-1.28","3","3","3","3","2","3","2","2","3","4","4","3","3","4","4","3","3","3","4","3","1","3","3","2","2","2","2","3","3","1","1","0","1","0","0","0","0","0","0","1","0","0","0","1","4","2","2","4","4","3","5","3","5","3","1","678869245659971584","李","265","","","","","","","","","","","","","","","","","","","","","","","","","","","","","","feedback_test","","","","","","","","","","","",""
"778","","f","psychophysics","67","290996","0.0-7.0-0.0-1.0-0.0-0.29","3","3","3","3","2","3","2","2","3","4","4","3","3","4","4","3","3","3","4","3","1","3","3","2","2","2","2","3","3","1","1","0","1","0","0","0","0","0","0","1","0","0","0","1","4","2","2","4","4","3","5","3","5","3","1","678869245659971584","李","265","","","","nonmatch","","","","","","","","","","","","","","key","f","16.66224528301863","768","428","j","false","match","img/triangle.png","三角","三角","ALT1_1","prac_ALT1_1","","","","","","","","","","","",""
"null","<span style='color:red; font-size: 70px;'>错误! </span>","null","html-keyboard-response","68","291512","0.0-7.0-0.0-1.0-0.0-1.29","3","3","3","3","2","3","2","2","3","4","4","3","3","4","4","3","3","3","4","3","1","3","3","2","2","2","2","3","3","1","1","0","1","0","0","0","0","0","0","1","0","0","0","1","4","2","2","4","4","3","5","3","5","3","1","678869245659971584","李","265","","","","","","","","","","","","","","","","","","","","","","","","","","","","","","feedback_test","","","","","","","","","","","",""
"622","","f","psychophysics","69","293141","0.0-7.0-0.0-1.0-0.0-0.30","3","3","3","3","2","3","2","2","3","4","4","3","3","4","4","3","3","3","4","3","1","3","3","2","2","2","2","3","3","1","1","0","1","0","0","0","0","0","0","1","0","0","0","1","4","2","2","4","4","3","5","3","5","3","1","678869245659971584","李","265","","","","nonmatch","","","","","","","","","","","","","","key","f","16.66330927835007","768","428","j","false","match","img/ellipse.png","椭圆","椭圆","ALT1_1","prac_ALT1_1","","","","","","","","","","","",""
"null","<span style='color:red; font-size: 70px;'>错误! </span>","null","html-keyboard-response","70","293654","0.0-7.0-0.0-1.0-0.0-1.30","3","3","3","3","2","3","2","2","3","4","4","3","3","4","4","3","3","3","4","3","1","3","3","2","2","2","2","3","3","1","1","0","1","0","0","0","0","0","0","1","0","0","0","1","4","2","2","4","4","3","5","3","5","3","1","678869245659971584","李","265","","","","","","","","","","","","","","","","","","","","","","","","","","","","","","feedback_test","","","","","","","","","","","",""
"475","","j","psychophysics","71","295137","0.0-7.0-0.0-1.0-0.0-0.31","3","3","3","3","2","3","2","2","3","4","4","3","3","4","4","3","3","3","4","3","1","3","3","2","2","2","2","3","3","1","1","0","1","0","0","0","0","0","0","1","0","0","0","1","4","2","2","4","4","3","5","3","5","3","1","678869245659971584","李","265","","","","match","","","","","","","","","","","","","","key","j","16.664556818181484","768","428","j","true","match","img/diamond.png","菱形","菱形","ALT1_1","prac_ALT1_1","","","","","","","","","","","",""
"null","<span style='color:GreenYellow; font-size: 70px;'>正确! </span>","null","html-keyboard-response","72","295651","0.0-7.0-0.0-1.0-0.0-1.31","3","3","3","3","2","3","2","2","3","4","4","3","3","4","4","3","3","3","4","3","1","3","3","2","2","2","2","3","3","1","1","0","1","0","0","0","0","0","0","1","0","0","0","1","4","2","2","4","4","3","5","3","5","3","1","678869245659971584","李","265","","","","","","","","","","","","","","","","","","","","","","","","","","","","","","feedback_test","","","","","","","","","","","",""
"722","","j","psychophysics","73","297379","0.0-7.0-0.0-1.0-0.0-0.32","3","3","3","3","2","3","2","2","3","4","4","3","3","4","4","3","3","3","4","3","1","3","3","2","2","2","2","3","3","1","1","0","1","0","0","0","0","0","0","1","0","0","0","1","4","2","2","4","4","3","5","3","5","3","1","678869245659971584","李","265","","","","match","","","","","","","","","","","","","","key","j","16.6632376237626","768","428","j","true","match","img/pentagon.png","五边","五边","ALT1_1","prac_ALT1_1","","","","","","","","","","","",""
"null","<span style='color:GreenYellow; font-size: 70px;'>正确! </span>","null","html-keyboard-response","74","297884","0.0-7.0-0.0-1.0-0.0-1.32","3","3","3","3","2","3","2","2","3","4","4","3","3","4","4","3","3","3","4","3","1","3","3","2","2","2","2","3","3","1","1","0","1","0","0","0","0","0","0","1","0","0","0","1","4","2","2","4","4","3","5","3","5","3","1","678869245659971584","李","265","","","","","","","","","","","","","","","","","","","","","","","","","","","","","","feedback_test","","","","","","","","","","","",""
"621","","j","psychophysics","75","299518","0.0-7.0-0.0-1.0-0.0-0.33","3","3","3","3","2","3","2","2","3","4","4","3","3","4","4","3","3","3","4","3","1","3","3","2","2","2","2","3","3","1","1","0","1","0","0","0","0","0","0","1","0","0","0","1","4","2","2","4","4","3","5","3","5","3","1","678869245659971584","李","265","","","","match","","","","","","","","","","","","","","key","j","16.663876288659274","768","428","f","false","nonmatch","img/pentagon.png","三角","五边","ALT1_1","prac_ALT1_1","","","","","","","","","","","",""
"null","<span style='color:red; font-size: 70px;'>错误! </span>","null","html-keyboard-response","76","300021","0.0-7.0-0.0-1.0-0.0-1.33","3","3","3","3","2","3","2","2","3","4","4","3","3","4","4","3","3","3","4","3","1","3","3","2","2","2","2","3","3","1","1","0","1","0","0","0","0","0","0","1","0","0","0","1","4","2","2","4","4","3","5","3","5","3","1","678869245659971584","李","265","","","","","","","","","","","","","","","","","","","","","","","","","","","","","","feedback_test","","","","","","","","","","","",""
"508","","f","psychophysics","77","301539","0.0-7.0-0.0-1.0-0.0-0.34","3","3","3","3","2","3","2","2","3","4","4","3","3","4","4","3","3","3","4","3","1","3","3","2","2","2","2","3","3","1","1","0","1","0","0","0","0","0","0","1","0","0","0","1","4","2","2","4","4","3","5","3","5","3","1","678869245659971584","李","265","","","","nonmatch","","","","","","","","","","","","","","key","f","16.66386666666626","768","428","f","true","nonmatch","img/triangle.png","椭圆","三角","ALT1_1","prac_ALT1_1","","","","","","","","","","","",""
"null","<span style='color:GreenYellow; font-size: 70px;'>正确! </span>","null","html-keyboard-response","78","302051","0.0-7.0-0.0-1.0-0.0-1.34","3","3","3","3","2","3","2","2","3","4","4","3","3","4","4","3","3","3","4","3","1","3","3","2","2","2","2","3","3","1","1","0","1","0","0","0","0","0","0","1","0","0","0","1","4","2","2","4","4","3","5","3","5","3","1","678869245659971584","李","265","","","","","","","","","","","","","","","","","","","","","","","","","","","","","","feedback_test","","","","","","","","","","","",""
"543","","f","psychophysics","79","303605","0.0-7.0-0.0-1.0-0.0-0.35","3","3","3","3","2","3","2","2","3","4","4","3","3","4","4","3","3","3","4","3","1","3","3","2","2","2","2","3","3","1","1","0","1","0","0","0","0","0","0","1","0","0","0","1","4","2","2","4","4","3","5","3","5","3","1","678869245659971584","李","265","","","","nonmatch","","","","","","","","","","","","","","key","f","16.663010869565568","768","428","f","true","nonmatch","img/diamond.png","三角","菱形","ALT1_1","prac_ALT1_1","","","","","","","","","","","",""
"null","<span style='color:GreenYellow; font-size: 70px;'>正确! </span>","null","html-keyboard-response","80","304110","0.0-7.0-0.0-1.0-0.0-1.35","3","3","3","3","2","3","2","2","3","4","4","3","3","4","4","3","3","3","4","3","1","3","3","2","2","2","2","3","3","1","1","0","1","0","0","0","0","0","0","1","0","0","0","1","4","2","2","4","4","3","5","3","5","3","1","678869245659971584","李","265","","","","","","","","","","","","","","","","","","","","","","","","","","","","","","feedback_test","","","","","","","","","","","",""
"723","","f","psychophysics","81","305836","0.0-7.0-0.0-1.0-0.0-0.36","3","3","3","3","2","3","2","2","3","4","4","3","3","4","4","3","3","3","4","3","1","3","3","2","2","2","2","3","3","1","1","0","1","0","0","0","0","0","0","1","0","0","0","1","4","2","2","4","4","3","5","3","5","3","1","678869245659971584","李","265","","","","nonmatch","","","","","","","","","","","","","","key","f","16.664485436893585","768","428","j","false","match","img/diamond.png","菱形","菱形","ALT1_1","prac_ALT1_1","","","","","","","","","","","",""
"null","<span style='color:red; font-size: 70px;'>错误! </span>","null","html-keyboard-response","82","306348","0.0-7.0-0.0-1.0-0.0-1.36","3","3","3","3","2","3","2","2","3","4","4","3","3","4","4","3","3","3","4","3","1","3","3","2","2","2","2","3","3","1","1","0","1","0","0","0","0","0","0","1","0","0","0","1","4","2","2","4","4","3","5","3","5","3","1","678869245659971584","李","265","","","","","","","","","","","","","","","","","","","","","","","","","","","","","","feedback_test","","","","","","","","","","","",""
"460","","f","psychophysics","83","307822","0.0-7.0-0.0-1.0-0.0-0.37","3","3","3","3","2","3","2","2","3","4","4","3","3","4","4","3","3","3","4","3","1","3","3","2","2","2","2","3","3","1","1","0","1","0","0","0","0","0","0","1","0","0","0","1","4","2","2","4","4","3","5","3","5","3","1","678869245659971584","李","265","","","","nonmatch","","","","","","","","","","","","","","key","f","16.664034482758712","768","428","f","true","nonmatch","img/ellipse.png","三角","椭圆","ALT1_1","prac_ALT1_1","","","","","","","","","","","",""
"null","<span style='color:GreenYellow; font-size: 70px;'>正确! </span>","null","html-keyboard-response","84","308325","0.0-7.0-0.0-1.0-0.0-1.37","3","3","3","3","2","3","2","2","3","4","4","3","3","4","4","3","3","3","4","3","1","3","3","2","2","2","2","3","3","1","1","0","1","0","0","0","0","0","0","1","0","0","0","1","4","2","2","4","4","3","5","3","5","3","1","678869245659971584","李","265","","","","","","","","","","","","","","","","","","","","","","","","","","","","","","feedback_test","","","","","","","","","","","",""
"722","","f","psychophysics","85","310051","0.0-7.0-0.0-1.0-0.0-0.38","3","3","3","3","2","3","2","2","3","4","4","3","3","4","4","3","3","3","4","3","1","3","3","2","2","2","2","3","3","1","1","0","1","0","0","0","0","0","0","1","0","0","0","1","4","2","2","4","4","3","5","3","5","3","1","678869245659971584","李","265","","","","nonmatch","","","","","","","","","","","","","","key","f","16.66558415841572","768","428","j","false","match","img/ellipse.png","椭圆","椭圆","ALT1_1","prac_ALT1_1","","","","","","","","","","","",""
"null","<span style='color:red; font-size: 70px;'>错误! </span>","null","html-keyboard-response","86","310561","0.0-7.0-0.0-1.0-0.0-1.38","3","3","3","3","2","3","2","2","3","4","4","3","3","4","4","3","3","3","4","3","1","3","3","2","2","2","2","3","3","1","1","0","1","0","0","0","0","0","0","1","0","0","0","1","4","2","2","4","4","3","5","3","5","3","1","678869245659971584","李","265","","","","","","","","","","","","","","","","","","","","","","","","","","","","","","feedback_test","","","","","","","","","","","",""
"569","","j","psychophysics","87","312133","0.0-7.0-0.0-1.0-0.0-0.39","3","3","3","3","2","3","2","2","3","4","4","3","3","4","4","3","3","3","4","3","1","3","3","2","2","2","2","3","3","1","1","0","1","0","0","0","0","0","0","1","0","0","0","1","4","2","2","4","4","3","5","3","5","3","1","678869245659971584","李","265","","","","match","","","","","","","","","","","","","","key","j","16.665010752687756","768","428","j","true","match","img/triangle.png","三角","三角","ALT1_1","prac_ALT1_1","","","","","","","","","","","",""
"null","<span style='color:GreenYellow; font-size: 70px;'>正确! </span>","null","html-keyboard-response","88","312645","0.0-7.0-0.0-1.0-0.0-1.39","3","3","3","3","2","3","2","2","3","4","4","3","3","4","4","3","3","3","4","3","1","3","3","2","2","2","2","3","3","1","1","0","1","0","0","0","0","0","0","1","0","0","0","1","4","2","2","4","4","3","5","3","5","3","1","678869245659971584","李","265","","","","","","","","","","","","","","","","","","","","","","","","","","","","","","feedback_test","","","","","","","","","","","",""
"657","","j","psychophysics","89","314304","0.0-7.0-0.0-1.0-0.0-0.40","3","3","3","3","2","3","2","2","3","4","4","3","3","4","4","3","3","3","4","3","1","3","3","2","2","2","2","3","3","1","1","0","1","0","0","0","0","0","0","1","0","0","0","1","4","2","2","4","4","3","5","3","5","3","1","678869245659971584","李","265","","","","match","","","","","","","","","","","","","","key","j","16.664153061224486","768","428","f","false","nonmatch","img/ellipse.png","菱形","椭圆","ALT1_1","prac_ALT1_1","","","","","","","","","","","",""
"null","<span style='color:red; font-size: 70px;'>错误! </span>","null","html-keyboard-response","90","314811","0.0-7.0-0.0-1.0-0.0-1.40","3","3","3","3","2","3","2","2","3","4","4","3","3","4","4","3","3","3","4","3","1","3","3","2","2","2","2","3","3","1","1","0","1","0","0","0","0","0","0","1","0","0","0","1","4","2","2","4","4","3","5","3","5","3","1","678869245659971584","李","265","","","","","","","","","","","","","","","","","","","","","","","","","","","","","","feedback_test","","","","","","","","","","","",""
"533","","f","psychophysics","91","316348","0.0-7.0-0.0-1.0-0.0-0.41","3","3","3","3","2","3","2","2","3","4","4","3","3","4","4","3","3","3","4","3","1","3","3","2","2","2","2","3","3","1","1","0","1","0","0","0","0","0","0","1","0","0","0","1","4","2","2","4","4","3","5","3","5","3","1","678869245659971584","李","265","","","","nonmatch","","","","","","","","","","","","","","key","f","16.662752808988607","768","428","f","true","nonmatch","img/pentagon.png","菱形","五边","ALT1_1","prac_ALT1_1","","","","","","","","","","","",""
"null","<span style='color:GreenYellow; font-size: 70px;'>正确! </span>","null","html-keyboard-response","92","316862","0.0-7.0-0.0-1.0-0.0-1.41","3","3","3","3","2","3","2","2","3","4","4","3","3","4","4","3","3","3","4","3","1","3","3","2","2","2","2","3","3","1","1","0","1","0","0","0","0","0","0","1","0","0","0","1","4","2","2","4","4","3","5","3","5","3","1","678869245659971584","李","265","","","","","","","","","","","","","","","","","","","","","","","","","","","","","","feedback_test","","","","","","","","","","","",""
"639","","f","psychophysics","93","318505","0.0-7.0-0.0-1.0-0.0-0.42","3","3","3","3","2","3","2","2","3","4","4","3","3","4","4","3","3","3","4","3","1","3","3","2","2","2","2","3","3","1","1","0","1","0","0","0","0","0","0","1","0","0","0","1","4","2","2","4","4","3","5","3","5","3","1","678869245659971584","李","265","","","","nonmatch","","","","","","","","","","","","","","key","f","16.66453608247444","768","428","f","true","nonmatch","img/diamond.png","五边","菱形","ALT1_1","prac_ALT1_1","","","","","","","","","","","",""
"null","<span style='color:GreenYellow; font-size: 70px;'>正确! </span>","null","html-keyboard-response","94","319016","0.0-7.0-0.0-1.0-0.0-1.42","3","3","3","3","2","3","2","2","3","4","4","3","3","4","4","3","3","3","4","3","1","3","3","2","2","2","2","3","3","1","1","0","1","0","0","0","0","0","0","1","0","0","0","1","4","2","2","4","4","3","5","3","5","3","1","678869245659971584","李","265","","","","","","","","","","","","","","","","","","","","","","","","","","","","","","feedback_test","","","","","","","","","","","",""
"656","","f","psychophysics","95","320685","0.0-7.0-0.0-1.0-0.0-0.43","3","3","3","3","2","3","2","2","3","4","4","3","3","4","4","3","3","3","4","3","1","3","3","2","2","2","2","3","3","1","1","0","1","0","0","0","0","0","0","1","0","0","0","1","4","2","2","4","4","3","5","3","5","3","1","678869245659971584","李","265","","","","nonmatch","","","","","","","","","","","","","","key","f","16.664101010101444","768","428","j","false","match","img/pentagon.png","五边","五边","ALT1_1","prac_ALT1_1","","","","","","","","","","","",""
"null","<span style='color:red; font-size: 70px;'>错误! </span>","null","html-keyboard-response","96","321198","0.0-7.0-0.0-1.0-0.0-1.43","3","3","3","3","2","3","2","2","3","4","4","3","3","4","4","3","3","3","4","3","1","3","3","2","2","2","2","3","3","1","1","0","1","0","0","0","0","0","0","1","0","0","0","1","4","2","2","4","4","3","5","3","5","3","1","678869245659971584","李","265","","","","","","","","","","","","","","","","","","","","","","","","","","","","","","feedback_test","","","","","","","","","","","",""
"471","","j","psychophysics","97","322676","0.0-7.0-0.0-1.0-0.0-0.44","3","3","3","3","2","3","2","2","3","4","4","3","3","4","4","3","3","3","4","3","1","3","3","2","2","2","2","3","3","1","1","0","1","0","0","0","0","0","0","1","0","0","0","1","4","2","2","4","4","3","5","3","5","3","1","678869245659971584","李","265","","","","match","","","","","","","","","","","","","","key","j","16.8573953488376","768","428","f","false","nonmatch","img/triangle.png","五边","三角","ALT1_1","prac_ALT1_1","","","","","","","","","","","",""
"null","<span style='color:red; font-size: 70px;'>错误! </span>","null","html-keyboard-response","98","323189","0.0-7.0-0.0-1.0-0.0-1.44","3","3","3","3","2","3","2","2","3","4","4","3","3","4","4","3","3","3","4","3","1","3","3","2","2","2","2","3","3","1","1","0","1","0","0","0","0","0","0","1","0","0","0","1","4","2","2","4","4","3","5","3","5","3","1","678869245659971584","李","265","","","","","","","","","","","","","","","","","","","","","","","","","","","","","","feedback_test","","","","","","","","","","","",""
"528","","f","psychophysics","99","324718","0.0-7.0-0.0-1.0-0.0-0.45","3","3","3","3","2","3","2","2","3","4","4","3","3","4","4","3","3","3","4","3","1","3","3","2","2","2","2","3","3","1","1","0","1","0","0","0","0","0","0","1","0","0","0","1","4","2","2","4","4","3","5","3","5","3","1","678869245659971584","李","265","","","","nonmatch","","","","","","","","","","","","","","key","f","16.664384615384325","768","428","j","false","match","img/diamond.png","菱形","菱形","ALT1_1","prac_ALT1_1","","","","","","","","","","","",""
"null","<span style='color:red; font-size: 70px;'>错误! </span>","null","html-keyboard-response","100","325229","0.0-7.0-0.0-1.0-0.0-1.45","3","3","3","3","2","3","2","2","3","4","4","3","3","4","4","3","3","3","4","3","1","3","3","2","2","2","2","3","3","1","1","0","1","0","0","0","0","0","0","1","0","0","0","1","4","2","2","4","4","3","5","3","5","3","1","678869245659971584","李","265","","","","","","","","","","","","","","","","","","","","","","","","","","","","","","feedback_test","","","","","","","","","","","",""
"500","","f","psychophysics","101","326731","0.0-7.0-0.0-1.0-0.0-0.46","3","3","3","3","2","3","2","2","3","4","4","3","3","4","4","3","3","3","4","3","1","3","3","2","2","2","2","3","3","1","1","0","1","0","0","0","0","0","0","1","0","0","0","1","4","2","2","4","4","3","5","3","5","3","1","678869245659971584","李","265","","","","nonmatch","","","","","","","","","","","","","","key","f","16.664269662921296","768","428","f","true","nonmatch","img/pentagon.png","椭圆","五边","ALT1_1","prac_ALT1_1","","","","","","","","","","","",""
"null","<span style='color:GreenYellow; font-size: 70px;'>正确! </span>","null","html-keyboard-response","102","327239","0.0-7.0-0.0-1.0-0.0-1.46","3","3","3","3","2","3","2","2","3","4","4","3","3","4","4","3","3","3","4","3","1","3","3","2","2","2","2","3","3","1","1","0","1","0","0","0","0","0","0","1","0","0","0","1","4","2","2","4","4","3","5","3","5","3","1","678869245659971584","李","265","","","","","","","","","","","","","","","","","","","","","","","","","","","","","","feedback_test","","","","","","","","","","","",""
"539","","f","psychophysics","103","328782","0.0-7.0-0.0-1.0-0.0-0.47","3","3","3","3","2","3","2","2","3","4","4","3","3","4","4","3","3","3","4","3","1","3","3","2","2","2","2","3","3","1","1","0","1","0","0","0","0","0","0","1","0","0","0","1","4","2","2","4","4","3","5","3","5","3","1","678869245659971584","李","265","","","","nonmatch","","","","","","","","","","","","","","key","f","16.662869565217356","768","428","j","false","match","img/pentagon.png","五边","五边","ALT1_1","prac_ALT1_1","","","","","","","","","","","",""
"null","<span style='color:red; font-size: 70px;'>错误! </span>","null","html-keyboard-response","104","329286","0.0-7.0-0.0-1.0-0.0-1.47","3","3","3","3","2","3","2","2","3","4","4","3","3","4","4","3","3","3","4","3","1","3","3","2","2","2","2","3","3","1","1","0","1","0","0","0","0","0","0","1","0","0","0","1","4","2","2","4","4","3","5","3","5","3","1","678869245659971584","李","265","","","","","","","","","","","","","","","","","","","","","","","","","","","","","","feedback_test","","","","","","","","","","","",""
"9493","<style>.context{color:white; font-size: 35px; line-height:40px}</style>                            <div><p class='context'>您正确回答了33% 的试次。</p><p class='context'>您的平均反应时为636毫秒。</p><p class='context'>按空格键继续。</p></div>"," ","html-keyboard-response","105","338782","0.0-7.0-0.0-1.0-1.0-0.0","3","3","3","3","2","3","2","2","3","4","4","3","3","4","4","3","3","3","4","3","1","3","3","2","2","2","2","3","3","1","1","0","1","0","0","0","0","0","0","1","0","0","0","1","4","2","2","4","4","3","5","3","5","3","1","678869245659971584","李","265","","","","","","","","","","","","","","","","","","","","","","","","","","","","","","","","","","","","","","","","","",""
"37802","","","instructions","106","376594","0.0-7.0-0.0-1.0-1.0-1.0","3","3","3","3","2","3","2","2","3","4","4","3","3","4","4","3","3","3","4","3","1","3","3","2","2","2","2","3","3","1","1","0","1","0","0","0","0","0","0","1","0","0","0","1","4","2","2","4","4","3","5","3","5","3","1","678869245659971584","李","265","","","","","","","","","","","","","","","","","[{""page_index"":0,""viewing_time"":5165},{""page_index"":1,""viewing_time"":30229},{""page_index"":2,""viewing_time"":2408}]","","","","","","","","","","","","","","","","","","","","","","","","",""
"null","","null","psychophysics","107","378810","0.0-7.0-0.0-1.1-0.1-0.48","3","3","3","3","2","3","2","2","3","4","4","3","3","4","4","3","3","3","4","3","1","3","3","2","2","2","2","3","3","1","1","0","1","0","0","0","0","0","0","1","0","0","0","1","4","2","2","4","4","3","5","3","5","3","1","678869245659971584","李","265","","","","null","","","","","","","","","","","","","","key","null","16.663742424242436","768","428","f","false","nonmatch","img/diamond.png","三角","菱形","ALT1_1","prac_ALT1_1","","","","","","","","","","","",""
"null","<span class='add_' style='color:yellow; font-size: 70px;'> 太慢! </span>","null","html-keyboard-response","108","379318","0.0-7.0-0.0-1.1-0.1-1.48","3","3","3","3","2","3","2","2","3","4","4","3","3","4","4","3","3","3","4","3","1","3","3","2","2","2","2","3","3","1","1","0","1","0","0","0","0","0","0","1","0","0","0","1","4","2","2","4","4","3","5","3","5","3","1","678869245659971584","李","265","","","","","","","","","","","","","","","","","","","","","","","","","","","","","","feedback_test","","","","","","","","","","","",""
"986","","f","psychophysics","109","381305","0.0-7.0-0.0-1.1-0.1-0.49","3","3","3","3","2","3","2","2","3","4","4","3","3","4","4","3","3","3","4","3","1","3","3","2","2","2","2","3","3","1","1","0","1","0","0","0","0","0","0","1","0","0","0","1","4","2","2","4","4","3","5","3","5","3","1","678869245659971584","李","265","","","","nonmatch","","","","","","","","","","","","","","key","f","16.66387179487138","768","428","f","true","nonmatch","img/ellipse.png","三角","椭圆","ALT1_1","prac_ALT1_1","","","","","","","","","","","",""
"null","<span style='color:GreenYellow; font-size: 70px;'>正确! </span>","null","html-keyboard-response","110","381813","0.0-7.0-0.0-1.1-0.1-1.49","3","3","3","3","2","3","2","2","3","4","4","3","3","4","4","3","3","3","4","3","1","3","3","2","2","2","2","3","3","1","1","0","1","0","0","0","0","0","0","1","0","0","0","1","4","2","2","4","4","3","5","3","5","3","1","678869245659971584","李","265","","","","","","","","","","","","","","","","","","","","","","","","","","","","","","feedback_test","","","","","","","","","","","",""
"787","","f","psychophysics","111","383603","0.0-7.0-0.0-1.1-0.1-0.50","3","3","3","3","2","3","2","2","3","4","4","3","3","4","4","3","3","3","4","3","1","3","3","2","2","2","2","3","3","1","1","0","1","0","0","0","0","0","0","1","0","0","0","1","4","2","2","4","4","3","5","3","5","3","1","678869245659971584","李","265","","","","nonmatch","","","","","","","","","","","","","","key","f","16.663047169811282","768","428","f","true","nonmatch","img/pentagon.png","菱形","五边","ALT1_1","prac_ALT1_1","","","","","","","","","","","",""
"null","<span style='color:GreenYellow; font-size: 70px;'>正确! </span>","null","html-keyboard-response","112","384113","0.0-7.0-0.0-1.1-0.1-1.50","3","3","3","3","2","3","2","2","3","4","4","3","3","4","4","3","3","3","4","3","1","3","3","2","2","2","2","3","3","1","1","0","1","0","0","0","0","0","0","1","0","0","0","1","4","2","2","4","4","3","5","3","5","3","1","678869245659971584","李","265","","","","","","","","","","","","","","","","","","","","","","","","","","","","","","feedback_test","","","","","","","","","","","",""
"null","","null","psychophysics","113","386319","0.0-7.0-0.0-1.1-0.1-0.51","3","3","3","3","2","3","2","2","3","4","4","3","3","4","4","3","3","3","4","3","1","3","3","2","2","2","2","3","3","1","1","0","1","0","0","0","0","0","0","1","0","0","0","1","4","2","2","4","4","3","5","3","5","3","1","678869245659971584","李","265","","","","null","","","","","","","","","","","","","","key","null","16.664969465648667","768","428","f","false","nonmatch","img/triangle.png","五边","三角","ALT1_1","prac_ALT1_1","","","","","","","","","","","",""
"null","<span class='add_' style='color:yellow; font-size: 70px;'> 太慢! </span>","null","html-keyboard-response","114","386829","0.0-7.0-0.0-1.1-0.1-1.51","3","3","3","3","2","3","2","2","3","4","4","3","3","4","4","3","3","3","4","3","1","3","3","2","2","2","2","3","3","1","1","0","1","0","0","0","0","0","0","1","0","0","0","1","4","2","2","4","4","3","5","3","5","3","1","678869245659971584","李","265","","","","","","","","","","","","","","","","","","","","","","","","","","","","","","feedback_test","","","","","","","","","","","",""
"752","","f","psychophysics","115","388586","0.0-7.0-0.0-1.1-0.1-0.52","3","3","3","3","2","3","2","2","3","4","4","3","3","4","4","3","3","3","4","3","1","3","3","2","2","2","2","3","3","1","1","0","1","0","0","0","0","0","0","1","0","0","0","1","4","2","2","4","4","3","5","3","5","3","1","678869245659971584","李","265","","","","nonmatch","","","","","","","","","","","","","","key","f","16.66297087378662","768","428","f","true","nonmatch","img/triangle.png","椭圆","三角","ALT1_1","prac_ALT1_1","","","","","","","","","","","",""
"null","<span style='color:GreenYellow; font-size: 70px;'>正确! </span>","null","html-keyboard-response","116","389099","0.0-7.0-0.0-1.1-0.1-1.52","3","3","3","3","2","3","2","2","3","4","4","3","3","4","4","3","3","3","4","3","1","3","3","2","2","2","2","3","3","1","1","0","1","0","0","0","0","0","0","1","0","0","0","1","4","2","2","4","4","3","5","3","5","3","1","678869245659971584","李","265","","","","","","","","","","","","","","","","","","","","","","","","","","","","","","feedback_test","","","","","","","","","","","",""
"741","","f","psychophysics","117","390853","0.0-7.0-0.0-1.1-0.1-0.53","3","3","3","3","2","3","2","2","3","4","4","3","3","4","4","3","3","3","4","3","1","3","3","2","2","2","2","3","3","1","1","0","1","0","0","0","0","0","0","1","0","0","0","1","4","2","2","4","4","3","5","3","5","3","1","678869245659971584","李","265","","","","nonmatch","","","","","","","","","","","","","","key","f","16.827291262136022","768","428","j","false","match","img/triangle.png","三角","三角","ALT1_1","prac_ALT1_1","","","","","","","","","","","",""
"null","<span style='color:red; font-size: 70px;'>错误! </span>","null","html-keyboard-response","118","391360","0.0-7.0-0.0-1.1-0.1-1.53","3","3","3","3","2","3","2","2","3","4","4","3","3","4","4","3","3","3","4","3","1","3","3","2","2","2","2","3","3","1","1","0","1","0","0","0","0","0","0","1","0","0","0","1","4","2","2","4","4","3","5","3","5","3","1","678869245659971584","李","265","","","","","","","","","","","","","","","","","","","","","","","","","","","","","","feedback_test","","","","","","","","","","","",""
"765","","j","psychophysics","119","393128","0.0-7.0-0.0-1.1-0.1-0.54","3","3","3","3","2","3","2","2","3","4","4","3","3","4","4","3","3","3","4","3","1","3","3","2","2","2","2","3","3","1","1","0","1","0","0","0","0","0","0","1","0","0","0","1","4","2","2","4","4","3","5","3","5","3","1","678869245659971584","李","265","","","","match","","","","","","","","","","","","","","key","j","16.662838095238076","768","428","f","false","nonmatch","img/pentagon.png","椭圆","五边","ALT1_1","prac_ALT1_1","","","","","","","","","","","",""
"null","<span style='color:red; font-size: 70px;'>错误! </span>","null","html-keyboard-response","120","393670","0.0-7.0-0.0-1.1-0.1-1.54","3","3","3","3","2","3","2","2","3","4","4","3","3","4","4","3","3","3","4","3","1","3","3","2","2","2","2","3","3","1","1","0","1","0","0","0","0","0","0","1","0","0","0","1","4","2","2","4","4","3","5","3","5","3","1","678869245659971584","李","265","","","","","","","","","","","","","","","","","","","","","","","","","","","","","","feedback_test","","","","","","","","","","","",""
"809","","f","psychophysics","121","395485","0.0-7.0-0.0-1.1-0.1-0.55","3","3","3","3","2","3","2","2","3","4","4","3","3","4","4","3","3","3","4","3","1","3","3","2","2","2","2","3","3","1","1","0","1","0","0","0","0","0","0","1","0","0","0","1","4","2","2","4","4","3","5","3","5","3","1","678869245659971584","李","265","","","","nonmatch","","","","","","","","","","","","","","key","f","16.662879629629227","768","428","j","false","match","img/diamond.png","菱形","菱形","ALT1_1","prac_ALT1_1","","","","","","","","","","","",""
"null","<span style='color:red; font-size: 70px;'>错误! </span>","null","html-keyboard-response","122","395986","0.0-7.0-0.0-1.1-0.1-1.55","3","3","3","3","2","3","2","2","3","4","4","3","3","4","4","3","3","3","4","3","1","3","3","2","2","2","2","3","3","1","1","0","1","0","0","0","0","0","0","1","0","0","0","1","4","2","2","4","4","3","5","3","5","3","1","678869245659971584","李","265","","","","","","","","","","","","","","","","","","","","","","","","","","","","","","feedback_test","","","","","","","","","","","",""
"null","","null","psychophysics","123","398195","0.0-7.0-0.0-1.1-0.1-0.56","3","3","3","3","2","3","2","2","3","4","4","3","3","4","4","3","3","3","4","3","1","3","3","2","2","2","2","3","3","1","1","0","1","0","0","0","0","0","0","1","0","0","0","1","4","2","2","4","4","3","5","3","5","3","1","678869245659971584","李","265","","","","null","","","","","","","","","","","","","","key","null","16.66265648854932","768","428","j","false","match","img/ellipse.png","椭圆","椭圆","ALT1_1","prac_ALT1_1","","","","","","","","","","","",""
"null","<span class='add_' style='color:yellow; font-size: 70px;'> 太慢! </span>","null","html-keyboard-response","124","398699","0.0-7.0-0.0-1.1-0.1-1.56","3","3","3","3","2","3","2","2","3","4","4","3","3","4","4","3","3","3","4","3","1","3","3","2","2","2","2","3","3","1","1","0","1","0","0","0","0","0","0","1","0","0","0","1","4","2","2","4","4","3","5","3","5","3","1","678869245659971584","李","265","","","","","","","","","","","","","","","","","","","","","","","","","","","","","","feedback_test","","","","","","","","","","","",""
"590","","f","psychophysics","125","400300","0.0-7.0-0.0-1.1-0.1-0.57","3","3","3","3","2","3","2","2","3","4","4","3","3","4","4","3","3","3","4","3","1","3","3","2","2","2","2","3","3","1","1","0","1","0","0","0","0","0","0","1","0","0","0","1","4","2","2","4","4","3","5","3","5","3","1","678869245659971584","李","265","","","","nonmatch","","","","","","","","","","","","","","key","f","16.664094736841875","768","428","j","false","match","img/diamond.png","菱形","菱形","ALT1_1","prac_ALT1_1","","","","","","","","","","","",""
"null","<span style='color:red; font-size: 70px;'>错误! </span>","null","html-keyboard-response","126","400811","0.0-7.0-0.0-1.1-0.1-1.57","3","3","3","3","2","3","2","2","3","4","4","3","3","4","4","3","3","3","4","3","1","3","3","2","2","2","2","3","3","1","1","0","1","0","0","0","0","0","0","1","0","0","0","1","4","2","2","4","4","3","5","3","5","3","1","678869245659971584","李","265","","","","","","","","","","","","","","","","","","","","","","","","","","","","","","feedback_test","","","","","","","","","","","",""
"676","","j","psychophysics","127","402492","0.0-7.0-0.0-1.1-0.1-0.58","3","3","3","3","2","3","2","2","3","4","4","3","3","4","4","3","3","3","4","3","1","3","3","2","2","2","2","3","3","1","1","0","1","0","0","0","0","0","0","1","0","0","0","1","4","2","2","4","4","3","5","3","5","3","1","678869245659971584","李","265","","","","match","","","","","","","","","","","","","","key","j","16.66013131313134","768","428","j","true","match","img/triangle.png","三角","三角","ALT1_1","prac_ALT1_1","","","","","","","","","","","",""
"null","<span style='color:GreenYellow; font-size: 70px;'>正确! </span>","null","html-keyboard-response","128","403005","0.0-7.0-0.0-1.1-0.1-1.58","3","3","3","3","2","3","2","2","3","4","4","3","3","4","4","3","3","3","4","3","1","3","3","2","2","2","2","3","3","1","1","0","1","0","0","0","0","0","0","1","0","0","0","1","4","2","2","4","4","3","5","3","5","3","1","678869245659971584","李","265","","","","","","","","","","","","","","","","","","","","","","","","","","","","","","feedback_test","","","","","","","","","","","",""
"612","","j","psychophysics","129","404627","0.0-7.0-0.0-1.1-0.1-0.59","3","3","3","3","2","3","2","2","3","4","4","3","3","4","4","3","3","3","4","3","1","3","3","2","2","2","2","3","3","1","1","0","1","0","0","0","0","0","0","1","0","0","0","1","4","2","2","4","4","3","5","3","5","3","1","678869245659971584","李","265","","","","match","","","","","","","","","","","","","","key","j","16.66878350515437","768","428","f","false","nonmatch","img/pentagon.png","三角","五边","ALT1_1","prac_ALT1_1","","","","","","","","","","","",""
"null","<span style='color:red; font-size: 70px;'>错误! </span>","null","html-keyboard-response","130","405132","0.0-7.0-0.0-1.1-0.1-1.59","3","3","3","3","2","3","2","2","3","4","4","3","3","4","4","3","3","3","4","3","1","3","3","2","2","2","2","3","3","1","1","0","1","0","0","0","0","0","0","1","0","0","0","1","4","2","2","4","4","3","5","3","5","3","1","678869245659971584","李","265","","","","","","","","","","","","","","","","","","","","","","","","","","","","","","feedback_test","","","","","","","","","","","",""
"1028","","f","psychophysics","131","407174","0.0-7.0-0.0-1.1-0.1-0.60","3","3","3","3","2","3","2","2","3","4","4","3","3","4","4","3","3","3","4","3","1","3","3","2","2","2","2","3","3","1","1","0","1","0","0","0","0","0","0","1","0","0","0","1","4","2","2","4","4","3","5","3","5","3","1","678869245659971584","李","265","","","","nonmatch","","","","","","","","","","","","","","key","f","16.658495867768714","768","428","j","false","match","img/pentagon.png","五边","五边","ALT1_1","prac_ALT1_1","","","","","","","","","","","",""
"null","<span style='color:red; font-size: 70px;'>错误! </span>","null","html-keyboard-response","132","407684","0.0-7.0-0.0-1.1-0.1-1.60","3","3","3","3","2","3","2","2","3","4","4","3","3","4","4","3","3","3","4","3","1","3","3","2","2","2","2","3","3","1","1","0","1","0","0","0","0","0","0","1","0","0","0","1","4","2","2","4","4","3","5","3","5","3","1","678869245659971584","李","265","","","","","","","","","","","","","","","","","","","","","","","","","","","","","","feedback_test","","","","","","","","","","","",""
"null","","null","psychophysics","133","409924","0.0-7.0-0.0-1.1-0.1-0.61","3","3","3","3","2","3","2","2","3","4","4","3","3","4","4","3","3","3","4","3","1","3","3","2","2","2","2","3","3","1","1","0","1","0","0","0","0","0","0","1","0","0","0","1","4","2","2","4","4","3","5","3","5","3","1","678869245659971584","李","265","","","","null","","","","","","","","","","","","","","key","null","16.864938461538316","768","428","f","false","nonmatch","img/ellipse.png","菱形","椭圆","ALT1_1","prac_ALT1_1","","","","","","","","","","","",""
"null","<span class='add_' style='color:yellow; font-size: 70px;'> 太慢! </span>","null","html-keyboard-response","134","410426","0.0-7.0-0.0-1.1-0.1-1.61","3","3","3","3","2","3","2","2","3","4","4","3","3","4","4","3","3","3","4","3","1","3","3","2","2","2","2","3","3","1","1","0","1","0","0","0","0","0","0","1","0","0","0","1","4","2","2","4","4","3","5","3","5","3","1","678869245659971584","李","265","","","","","","","","","","","","","","","","","","","","","","","","","","","","","","feedback_test","","","","","","","","","","","",""
"837","","f","psychophysics","135","412276","0.0-7.0-0.0-1.1-0.1-0.62","3","3","3","3","2","3","2","2","3","4","4","3","3","4","4","3","3","3","4","3","1","3","3","2","2","2","2","3","3","1","1","0","1","0","0","0","0","0","0","1","0","0","0","1","4","2","2","4","4","3","5","3","5","3","1","678869245659971584","李","265","","","","nonmatch","","","","","","","","","","","","","","key","f","16.64052727272713","768","428","j","false","match","img/ellipse.png","椭圆","椭圆","ALT1_1","prac_ALT1_1","","","","","","","","","","","",""
"null","<span style='color:red; font-size: 70px;'>错误! </span>","null","html-keyboard-response","136","412794","0.0-7.0-0.0-1.1-0.1-1.62","3","3","3","3","2","3","2","2","3","4","4","3","3","4","4","3","3","3","4","3","1","3","3","2","2","2","2","3","3","1","1","0","1","0","0","0","0","0","0","1","0","0","0","1","4","2","2","4","4","3","5","3","5","3","1","678869245659971584","李","265","","","","","","","","","","","","","","","","","","","","","","","","","","","","","","feedback_test","","","","","","","","","","","",""
"837","","j","psychophysics","137","414635","0.0-7.0-0.0-1.1-0.1-0.63","3","3","3","3","2","3","2","2","3","4","4","3","3","4","4","3","3","3","4","3","1","3","3","2","2","2","2","3","3","1","1","0","1","0","0","0","0","0","0","1","0","0","0","1","4","2","2","4","4","3","5","3","5","3","1","678869245659971584","李","265","","","","match","","","","","","","","","","","","","","key","j","17.139603773584447","768","428","j","true","match","img/triangle.png","三角","三角","ALT1_1","prac_ALT1_1","","","","","","","","","","","",""
"null","<span style='color:GreenYellow; font-size: 70px;'>正确! </span>","null","html-keyboard-response","138","415137","0.0-7.0-0.0-1.1-0.1-1.63","3","3","3","3","2","3","2","2","3","4","4","3","3","4","4","3","3","3","4","3","1","3","3","2","2","2","2","3","3","1","1","0","1","0","0","0","0","0","0","1","0","0","0","1","4","2","2","4","4","3","5","3","5","3","1","678869245659971584","李","265","","","","","","","","","","","","","","","","","","","","","","","","","","","","","","feedback_test","","","","","","","","","","","",""
"901","","f","psychophysics","139","417050","0.0-7.0-0.0-1.1-0.1-0.64","3","3","3","3","2","3","2","2","3","4","4","3","3","4","4","3","3","3","4","3","1","3","3","2","2","2","2","3","3","1","1","0","1","0","0","0","0","0","0","1","0","0","0","1","4","2","2","4","4","3","5","3","5","3","1","678869245659971584","李","265","","","","nonmatch","","","","","","","","","","","","","","key","f","17.598132075471717","768","428","j","false","match","img/ellipse.png","椭圆","椭圆","ALT1_1","prac_ALT1_1","","","","","","","","","","","",""
"null","<span style='color:red; font-size: 70px;'>错误! </span>","null","html-keyboard-response","140","417562","0.0-7.0-0.0-1.1-0.1-1.64","3","3","3","3","2","3","2","2","3","4","4","3","3","4","4","3","3","3","4","3","1","3","3","2","2","2","2","3","3","1","1","0","1","0","0","0","0","0","0","1","0","0","0","1","4","2","2","4","4","3","5","3","5","3","1","678869245659971584","李","265","","","","","","","","","","","","","","","","","","","","","","","","","","","","","","feedback_test","","","","","","","","","","","",""
"814","","j","psychophysics","141","419390","0.0-7.0-0.0-1.1-0.1-0.65","3","3","3","3","2","3","2","2","3","4","4","3","3","4","4","3","3","3","4","3","1","3","3","2","2","2","2","3","3","1","1","0","1","0","0","0","0","0","0","1","0","0","0","1","4","2","2","4","4","3","5","3","5","3","1","678869245659971584","李","265","","","","match","","","","","","","","","","","","","","key","j","17.826881188118374","768","428","f","false","nonmatch","img/diamond.png","五边","菱形","ALT1_1","prac_ALT1_1","","","","","","","","","","","",""
"null","<span style='color:red; font-size: 70px;'>错误! </span>","null","html-keyboard-response","142","419899","0.0-7.0-0.0-1.1-0.1-1.65","3","3","3","3","2","3","2","2","3","4","4","3","3","4","4","3","3","3","4","3","1","3","3","2","2","2","2","3","3","1","1","0","1","0","0","0","0","0","0","1","0","0","0","1","4","2","2","4","4","3","5","3","5","3","1","678869245659971584","李","265","","","","","","","","","","","","","","","","","","","","","","","","","","","","","","feedback_test","","","","","","","","","","","",""
"null","","null","psychophysics","143","422111","0.0-7.0-0.0-1.1-0.1-0.66","3","3","3","3","2","3","2","2","3","4","4","3","3","4","4","3","3","3","4","3","1","3","3","2","2","2","2","3","3","1","1","0","1","0","0","0","0","0","0","1","0","0","0","1","4","2","2","4","4","3","5","3","5","3","1","678869245659971584","李","265","","","","null","","","","","","","","","","","","","","key","null","18.37552100840316","768","428","j","false","match","img/diamond.png","菱形","菱形","ALT1_1","prac_ALT1_1","","","","","","","","","","","",""
"null","<span class='add_' style='color:yellow; font-size: 70px;'> 太慢! </span>","null","html-keyboard-response","144","422626","0.0-7.0-0.0-1.1-0.1-1.66","3","3","3","3","2","3","2","2","3","4","4","3","3","4","4","3","3","3","4","3","1","3","3","2","2","2","2","3","3","1","1","0","1","0","0","0","0","0","0","1","0","0","0","1","4","2","2","4","4","3","5","3","5","3","1","678869245659971584","李","265","","","","","","","","","","","","","","","","","","","","","","","","","","","","","","feedback_test","","","","","","","","","","","",""
"873","","j","psychophysics","145","424504","0.0-7.0-0.0-1.1-0.1-0.67","3","3","3","3","2","3","2","2","3","4","4","3","3","4","4","3","3","3","4","3","1","3","3","2","2","2","2","3","3","1","1","0","1","0","0","0","0","0","0","1","0","0","0","1","4","2","2","4","4","3","5","3","5","3","1","678869245659971584","李","265","","","","match","","","","","","","","","","","","","","key","j","18.820555555556002","768","428","j","true","match","img/pentagon.png","五边","五边","ALT1_1","prac_ALT1_1","","","","","","","","","","","",""
"null","<span style='color:GreenYellow; font-size: 70px;'>正确! </span>","null","html-keyboard-response","146","425013","0.0-7.0-0.0-1.1-0.1-1.67","3","3","3","3","2","3","2","2","3","4","4","3","3","4","4","3","3","3","4","3","1","3","3","2","2","2","2","3","3","1","1","0","1","0","0","0","0","0","0","1","0","0","0","1","4","2","2","4","4","3","5","3","5","3","1","678869245659971584","李","265","","","","","","","","","","","","","","","","","","","","","","","","","","","","","","feedback_test","","","","","","","","","","","",""
"979","","f","psychophysics","147","427000","0.0-7.0-0.0-1.1-0.1-0.68","3","3","3","3","2","3","2","2","3","4","4","3","3","4","4","3","3","3","4","3","1","3","3","2","2","2","2","3","3","1","1","0","1","0","0","0","0","0","0","1","0","0","0","1","4","2","2","4","4","3","5","3","5","3","1","678869245659971584","李","265","","","","nonmatch","","","","","","","","","","","","","","key","f","18.220435185184922","768","428","f","true","nonmatch","img/triangle.png","菱形","三角","ALT1_1","prac_ALT1_1","","","","","","","","","","","",""
"null","<span style='color:GreenYellow; font-size: 70px;'>正确! </span>","null","html-keyboard-response","148","427515","0.0-7.0-0.0-1.1-0.1-1.68","3","3","3","3","2","3","2","2","3","4","4","3","3","4","4","3","3","3","4","3","1","3","3","2","2","2","2","3","3","1","1","0","1","0","0","0","0","0","0","1","0","0","0","1","4","2","2","4","4","3","5","3","5","3","1","678869245659971584","李","265","","","","","","","","","","","","","","","","","","","","","","","","","","","","","","feedback_test","","","","","","","","","","","",""
"870","","j","psychophysics","149","429387","0.0-7.0-0.0-1.1-0.1-0.69","3","3","3","3","2","3","2","2","3","4","4","3","3","4","4","3","3","3","4","3","1","3","3","2","2","2","2","3","3","1","1","0","1","0","0","0","0","0","0","1","0","0","0","1","4","2","2","4","4","3","5","3","5","3","1","678869245659971584","李","265","","","","match","","","","","","","","","","","","","","key","j","19.260531249999985","768","428","j","true","match","img/pentagon.png","五边","五边","ALT1_1","prac_ALT1_1","","","","","","","","","","","",""
"null","<span style='color:GreenYellow; font-size: 70px;'>正确! </span>","null","html-keyboard-response","150","429899","0.0-7.0-0.0-1.1-0.1-1.69","3","3","3","3","2","3","2","2","3","4","4","3","3","4","4","3","3","3","4","3","1","3","3","2","2","2","2","3","3","1","1","0","1","0","0","0","0","0","0","1","0","0","0","1","4","2","2","4","4","3","5","3","5","3","1","678869245659971584","李","265","","","","","","","","","","","","","","","","","","","","","","","","","","","","","","feedback_test","","","","","","","","","","","",""
"785","","f","psychophysics","151","431691","0.0-7.0-0.0-1.1-0.1-0.70","3","3","3","3","2","3","2","2","3","4","4","3","3","4","4","3","3","3","4","3","1","3","3","2","2","2","2","3","3","1","1","0","1","0","0","0","0","0","0","1","0","0","0","1","4","2","2","4","4","3","5","3","5","3","1","678869245659971584","李","265","","","","nonmatch","","","","","","","","","","","","","","key","f","20.010977528089384","768","428","f","true","nonmatch","img/ellipse.png","五边","椭圆","ALT1_1","prac_ALT1_1","","","","","","","","","","","",""
"null","<span style='color:GreenYellow; font-size: 70px;'>正确! </span>","null","html-keyboard-response","152","432206","0.0-7.0-0.0-1.1-0.1-1.70","3","3","3","3","2","3","2","2","3","4","4","3","3","4","4","3","3","3","4","3","1","3","3","2","2","2","2","3","3","1","1","0","1","0","0","0","0","0","0","1","0","0","0","1","4","2","2","4","4","3","5","3","5","3","1","678869245659971584","李","265","","","","","","","","","","","","","","","","","","","","","","","","","","","","","","feedback_test","","","","","","","","","","","",""
"1060","","j","psychophysics","153","434278","0.0-7.0-0.0-1.1-0.1-0.71","3","3","3","3","2","3","2","2","3","4","4","3","3","4","4","3","3","3","4","3","1","3","3","2","2","2","2","3","3","1","1","0","1","0","0","0","0","0","0","1","0","0","0","1","4","2","2","4","4","3","5","3","5","3","1","678869245659971584","李","265","","","","match","","","","","","","","","","","","","","key","j","18.32920720720735","768","428","f","false","nonmatch","img/diamond.png","椭圆","菱形","ALT1_1","prac_ALT1_1","","","","","","","","","","","",""
"null","<span style='color:red; font-size: 70px;'>错误! </span>","null","html-keyboard-response","154","434783","0.0-7.0-0.0-1.1-0.1-1.71","3","3","3","3","2","3","2","2","3","4","4","3","3","4","4","3","3","3","4","3","1","3","3","2","2","2","2","3","3","1","1","0","1","0","0","0","0","0","0","1","0","0","0","1","4","2","2","4","4","3","5","3","5","3","1","678869245659971584","李","265","","","","","","","","","","","","","","","","","","","","","","","","","","","","","","feedback_test","","","","","","","","","","","",""
"1215","","j","psychophysics","155","437010","0.0-7.0-0.0-1.1-0.1-0.72","3","3","3","3","2","3","2","2","3","4","4","3","3","4","4","3","3","3","4","3","1","3","3","2","2","2","2","3","3","1","1","0","1","0","0","0","0","0","0","1","0","0","0","1","4","2","2","4","4","3","5","3","5","3","1","678869245659971584","李","265","","","","match","","","","","","","","","","","","","","key","j","18.936096491227783","768","428","f","false","nonmatch","img/diamond.png","五边","菱形","ALT1_1","prac_ALT1_1","","","","","","","","","","","",""
"null","<span class='add_' style='color:yellow; font-size: 70px;'> 太慢! </span>","null","html-keyboard-response","156","437522","0.0-7.0-0.0-1.1-0.1-1.72","3","3","3","3","2","3","2","2","3","4","4","3","3","4","4","3","3","3","4","3","1","3","3","2","2","2","2","3","3","1","1","0","1","0","0","0","0","0","0","1","0","0","0","1","4","2","2","4","4","3","5","3","5","3","1","678869245659971584","李","265","","","","","","","","","","","","","","","","","","","","","","","","","","","","","","feedback_test","","","","","","","","","","","",""
"845","","f","psychophysics","157","439385","0.0-7.0-0.0-1.1-0.1-0.73","3","3","3","3","2","3","2","2","3","4","4","3","3","4","4","3","3","3","4","3","1","3","3","2","2","2","2","3","3","1","1","0","1","0","0","0","0","0","0","1","0","0","0","1","4","2","2","4","4","3","5","3","5","3","1","678869245659971584","李","265","","","","nonmatch","","","","","","","","","","","","","","key","f","18.8718367346939","768","428","f","true","nonmatch","img/ellipse.png","菱形","椭圆","ALT1_1","prac_ALT1_1","","","","","","","","","","","",""
"null","<span style='color:GreenYellow; font-size: 70px;'>正确! </span>","null","html-keyboard-response","158","439895","0.0-7.0-0.0-1.1-0.1-1.73","3","3","3","3","2","3","2","2","3","4","4","3","3","4","4","3","3","3","4","3","1","3","3","2","2","2","2","3","3","1","1","0","1","0","0","0","0","0","0","1","0","0","0","1","4","2","2","4","4","3","5","3","5","3","1","678869245659971584","李","265","","","","","","","","","","","","","","","","","","","","","","","","","","","","","","feedback_test","","","","","","","","","","","",""
"796","","f","psychophysics","159","441700","0.0-7.0-0.0-1.1-0.1-0.74","3","3","3","3","2","3","2","2","3","4","4","3","3","4","4","3","3","3","4","3","1","3","3","2","2","2","2","3","3","1","1","0","1","0","0","0","0","0","0","1","0","0","0","1","4","2","2","4","4","3","5","3","5","3","1","678869245659971584","李","265","","","","nonmatch","","","","","","","","","","","","","","key","f","19.108086021505645","768","428","j","false","match","img/pentagon.png","五边","五边","ALT1_1","prac_ALT1_1","","","","","","","","","","","",""
"null","<span style='color:red; font-size: 70px;'>错误! </span>","null","html-keyboard-response","160","442211","0.0-7.0-0.0-1.1-0.1-1.74","3","3","3","3","2","3","2","2","3","4","4","3","3","4","4","3","3","3","4","3","1","3","3","2","2","2","2","3","3","1","1","0","1","0","0","0","0","0","0","1","0","0","0","1","4","2","2","4","4","3","5","3","5","3","1","678869245659971584","李","265","","","","","","","","","","","","","","","","","","","","","","","","","","","","","","feedback_test","","","","","","","","","","","",""
"null","","null","psychophysics","161","444453","0.0-7.0-0.0-1.1-0.1-0.75","3","3","3","3","2","3","2","2","3","4","4","3","3","4","4","3","3","3","4","3","1","3","3","2","2","2","2","3","3","1","1","0","1","0","0","0","0","0","0","1","0","0","0","1","4","2","2","4","4","3","5","3","5","3","1","678869245659971584","李","265","","","","null","","","","","","","","","","","","","","key","null","17.118359375000182","768","428","f","false","nonmatch","img/diamond.png","椭圆","菱形","ALT1_1","prac_ALT1_1","","","","","","","","","","","",""
"null","<span class='add_' style='color:yellow; font-size: 70px;'> 太慢! </span>","null","html-keyboard-response","162","444967","0.0-7.0-0.0-1.1-0.1-1.75","3","3","3","3","2","3","2","2","3","4","4","3","3","4","4","3","3","3","4","3","1","3","3","2","2","2","2","3","3","1","1","0","1","0","0","0","0","0","0","1","0","0","0","1","4","2","2","4","4","3","5","3","5","3","1","678869245659971584","李","265","","","","","","","","","","","","","","","","","","","","","","","","","","","","","","feedback_test","","","","","","","","","","","",""
"938","","j","psychophysics","163","446911","0.0-7.0-0.0-1.1-0.1-0.76","3","3","3","3","2","3","2","2","3","4","4","3","3","4","4","3","3","3","4","3","1","3","3","2","2","2","2","3","3","1","1","0","1","0","0","0","0","0","0","1","0","0","0","1","4","2","2","4","4","3","5","3","5","3","1","678869245659971584","李","265","","","","match","","","","","","","","","","","","","","key","j","17.300590909090932","768","428","j","true","match","img/ellipse.png","椭圆","椭圆","ALT1_1","prac_ALT1_1","","","","","","","","","","","",""
"null","<span style='color:GreenYellow; font-size: 70px;'>正确! </span>","null","html-keyboard-response","164","447428","0.0-7.0-0.0-1.1-0.1-1.76","3","3","3","3","2","3","2","2","3","4","4","3","3","4","4","3","3","3","4","3","1","3","3","2","2","2","2","3","3","1","1","0","1","0","0","0","0","0","0","1","0","0","0","1","4","2","2","4","4","3","5","3","5","3","1","678869245659971584","李","265","","","","","","","","","","","","","","","","","","","","","","","","","","","","","","feedback_test","","","","","","","","","","","",""
"729","","j","psychophysics","165","449161","0.0-7.0-0.0-1.1-0.1-0.77","3","3","3","3","2","3","2","2","3","4","4","3","3","4","4","3","3","3","4","3","1","3","3","2","2","2","2","3","3","1","1","0","1","0","0","0","0","0","0","1","0","0","0","1","4","2","2","4","4","3","5","3","5","3","1","678869245659971584","李","265","","","","match","","","","","","","","","","","","","","key","j","16.754245098038833","768","428","j","true","match","img/ellipse.png","椭圆","椭圆","ALT1_1","prac_ALT1_1","","","","","","","","","","","",""
"null","<span style='color:GreenYellow; font-size: 70px;'>正确! </span>","null","html-keyboard-response","166","449674","0.0-7.0-0.0-1.1-0.1-1.77","3","3","3","3","2","3","2","2","3","4","4","3","3","4","4","3","3","3","4","3","1","3","3","2","2","2","2","3","3","1","1","0","1","0","0","0","0","0","0","1","0","0","0","1","4","2","2","4","4","3","5","3","5","3","1","678869245659971584","李","265","","","","","","","","","","","","","","","","","","","","","","","","","","","","","","feedback_test","","","","","","","","","","","",""
"993","","j","psychophysics","167","451680","0.0-7.0-0.0-1.1-0.1-0.78","3","3","3","3","2","3","2","2","3","4","4","3","3","4","4","3","3","3","4","3","1","3","3","2","2","2","2","3","3","1","1","0","1","0","0","0","0","0","0","1","0","0","0","1","4","2","2","4","4","3","5","3","5","3","1","678869245659971584","李","265","","","","match","","","","","","","","","","","","","","key","j","16.765169491525246","768","428","f","false","nonmatch","img/pentagon.png","菱形","五边","ALT1_1","prac_ALT1_1","","","","","","","","","","","",""
"null","<span style='color:red; font-size: 70px;'>错误! </span>","null","html-keyboard-response","168","452190","0.0-7.0-0.0-1.1-0.1-1.78","3","3","3","3","2","3","2","2","3","4","4","3","3","4","4","3","3","3","4","3","1","3","3","2","2","2","2","3","3","1","1","0","1","0","0","0","0","0","0","1","0","0","0","1","4","2","2","4","4","3","5","3","5","3","1","678869245659971584","李","265","","","","","","","","","","","","","","","","","","","","","","","","","","","","","","feedback_test","","","","","","","","","","","",""
"1023","","f","psychophysics","169","454224","0.0-7.0-0.0-1.1-0.1-0.79","3","3","3","3","2","3","2","2","3","4","4","3","3","4","4","3","3","3","4","3","1","3","3","2","2","2","2","3","3","1","1","0","1","0","0","0","0","0","0","1","0","0","0","1","4","2","2","4","4","3","5","3","5","3","1","678869245659971584","李","265","","","","nonmatch","","","","","","","","","","","","","","key","f","16.858858333333533","768","428","f","true","nonmatch","img/ellipse.png","三角","椭圆","ALT1_1","prac_ALT1_1","","","","","","","","","","","",""
"null","<span style='color:GreenYellow; font-size: 70px;'>正确! </span>","null","html-keyboard-response","170","454732","0.0-7.0-0.0-1.1-0.1-1.79","3","3","3","3","2","3","2","2","3","4","4","3","3","4","4","3","3","3","4","3","1","3","3","2","2","2","2","3","3","1","1","0","1","0","0","0","0","0","0","1","0","0","0","1","4","2","2","4","4","3","5","3","5","3","1","678869245659971584","李","265","","","","","","","","","","","","","","","","","","","","","","","","","","","","","","feedback_test","","","","","","","","","","","",""
"949","","j","psychophysics","171","456685","0.0-7.0-0.0-1.1-0.1-0.80","3","3","3","3","2","3","2","2","3","4","4","3","3","4","4","3","3","3","4","3","1","3","3","2","2","2","2","3","3","1","1","0","1","0","0","0","0","0","0","1","0","0","0","1","4","2","2","4","4","3","5","3","5","3","1","678869245659971584","李","265","","","","match","","","","","","","","","","","","","","key","j","16.640103448275678","768","428","j","true","match","img/ellipse.png","椭圆","椭圆","ALT1_1","prac_ALT1_1","","","","","","","","","","","",""
"null","<span style='color:GreenYellow; font-size: 70px;'>正确! </span>","null","html-keyboard-response","172","457201","0.0-7.0-0.0-1.1-0.1-1.80","3","3","3","3","2","3","2","2","3","4","4","3","3","4","4","3","3","3","4","3","1","3","3","2","2","2","2","3","3","1","1","0","1","0","0","0","0","0","0","1","0","0","0","1","4","2","2","4","4","3","5","3","5","3","1","678869245659971584","李","265","","","","","","","","","","","","","","","","","","","","","","","","","","","","","","feedback_test","","","","","","","","","","","",""
"1090","","f","psychophysics","173","459301","0.0-7.0-0.0-1.1-0.1-0.81","3","3","3","3","2","3","2","2","3","4","4","3","3","4","4","3","3","3","4","3","1","3","3","2","2","2","2","3","3","1","1","0","1","0","0","0","0","0","0","1","0","0","0","1","4","2","2","4","4","3","5","3","5","3","1","678869245659971584","李","265","","","","nonmatch","","","","","","","","","","","","","","key","f","16.75335245901627","768","428","f","true","nonmatch","img/pentagon.png","椭圆","五边","ALT1_1","prac_ALT1_1","","","","","","","","","","","",""
"null","<span style='color:GreenYellow; font-size: 70px;'>正确! </span>","null","html-keyboard-response","174","459811","0.0-7.0-0.0-1.1-0.1-1.81","3","3","3","3","2","3","2","2","3","4","4","3","3","4","4","3","3","3","4","3","1","3","3","2","2","2","2","3","3","1","1","0","1","0","0","0","0","0","0","1","0","0","0","1","4","2","2","4","4","3","5","3","5","3","1","678869245659971584","李","265","","","","","","","","","","","","","","","","","","","","","","","","","","","","","","feedback_test","","","","","","","","","","","",""
"1066","","j","psychophysics","175","461882","0.0-7.0-0.0-1.1-0.1-0.82","3","3","3","3","2","3","2","2","3","4","4","3","3","4","4","3","3","3","4","3","1","3","3","2","2","2","2","3","3","1","1","0","1","0","0","0","0","0","0","1","0","0","0","1","4","2","2","4","4","3","5","3","5","3","1","678869245659971584","李","265","","","","match","","","","","","","","","","","","","","key","j","16.647000000000045","768","428","j","true","match","img/diamond.png","菱形","菱形","ALT1_1","prac_ALT1_1","","","","","","","","","","","",""
"null","<span style='color:GreenYellow; font-size: 70px;'>正确! </span>","null","html-keyboard-response","176","462393","0.0-7.0-0.0-1.1-0.1-1.82","3","3","3","3","2","3","2","2","3","4","4","3","3","4","4","3","3","3","4","3","1","3","3","2","2","2","2","3","3","1","1","0","1","0","0","0","0","0","0","1","0","0","0","1","4","2","2","4","4","3","5","3","5","3","1","678869245659971584","李","265","","","","","","","","","","","","","","","","","","","","","","","","","","","","","","feedback_test","","","","","","","","","","","",""
"955","","j","psychophysics","177","464355","0.0-7.0-0.0-1.1-0.1-0.83","3","3","3","3","2","3","2","2","3","4","4","3","3","4","4","3","3","3","4","3","1","3","3","2","2","2","2","3","3","1","1","0","1","0","0","0","0","0","0","1","0","0","0","1","4","2","2","4","4","3","5","3","5","3","1","678869245659971584","李","265","","","","match","","","","","","","","","","","","","","key","j","16.6569914529911","768","428","j","true","match","img/pentagon.png","五边","五边","ALT1_1","prac_ALT1_1","","","","","","","","","","","",""
"null","<span style='color:GreenYellow; font-size: 70px;'>正确! </span>","null","html-keyboard-response","178","464857","0.0-7.0-0.0-1.1-0.1-1.83","3","3","3","3","2","3","2","2","3","4","4","3","3","4","4","3","3","3","4","3","1","3","3","2","2","2","2","3","3","1","1","0","1","0","0","0","0","0","0","1","0","0","0","1","4","2","2","4","4","3","5","3","5","3","1","678869245659971584","李","265","","","","","","","","","","","","","","","","","","","","","","","","","","","","","","feedback_test","","","","","","","","","","","",""
"812","","f","psychophysics","179","466684","0.0-7.0-0.0-1.1-0.1-0.84","3","3","3","3","2","3","2","2","3","4","4","3","3","4","4","3","3","3","4","3","1","3","3","2","2","2","2","3","3","1","1","0","1","0","0","0","0","0","0","1","0","0","0","1","4","2","2","4","4","3","5","3","5","3","1","678869245659971584","李","265","","","","nonmatch","","","","","","","","","","","","","","key","f","16.66130841121504","768","428","f","true","nonmatch","img/ellipse.png","五边","椭圆","ALT1_1","prac_ALT1_1","","","","","","","","","","","",""
"null","<span style='color:GreenYellow; font-size: 70px;'>正确! </span>","null","html-keyboard-response","180","467196","0.0-7.0-0.0-1.1-0.1-1.84","3","3","3","3","2","3","2","2","3","4","4","3","3","4","4","3","3","3","4","3","1","3","3","2","2","2","2","3","3","1","1","0","1","0","0","0","0","0","0","1","0","0","0","1","4","2","2","4","4","3","5","3","5","3","1","678869245659971584","李","265","","","","","","","","","","","","","","","","","","","","","","","","","","","","","","feedback_test","","","","","","","","","","","",""
"834","","j","psychophysics","181","469033","0.0-7.0-0.0-1.1-0.1-0.85","3","3","3","3","2","3","2","2","3","4","4","3","3","4","4","3","3","3","4","3","1","3","3","2","2","2","2","3","3","1","1","0","1","0","0","0","0","0","0","1","0","0","0","1","4","2","2","4","4","3","5","3","5","3","1","678869245659971584","李","265","","","","match","","","","","","","","","","","","","","key","j","16.65679816513775","768","428","j","true","match","img/diamond.png","菱形","菱形","ALT1_1","prac_ALT1_1","","","","","","","","","","","",""
