"rt","stimulus","response","trial_type","trial_index","time_elapsed","internal_node_id","ses_1","ses_2","ses_3","ses_4","ses_5","ses_6","ses_7","ses_8","ses_9","ses_10","coreself_1","coreself_2","coreself_3","coreself_4","coreself_5","coreself_6","coreself_7","coreself_8","coreself_9","coreself_10","SGPS_1","SGPS_2","SGPS_3","SGPS_4","SGPS_5","SGPS_6","SGPS_7","SGPS_8","SGPS_9","NPI1","NPI2","NPI3","NPI4","NPI5","NPI6","NPI7","NPI8","NPI9","NPI10","NPI11","NPI12","NPI13","NPI14","NPI15","hsns_1","hsns_2","hsns_3","hsns_4","hsns_5","trap1","hsns_6","hsns_7","hsns_8","hsns_9","hsns_10","subj_idx","friend_name","ParticipantID","value","success","user_agent","responses","item_order","radio_event_ids","radio_event_times","key_event_times","mouse_event_times","straightlining","zigzagging","honeypot","timeout","failed_images","failed_audio","failed_video","version_attrib2","version_target2","correct","IAT","screen_id","task_id","RT","condition","word","varname","summary","version_attrib","version_target","time_stamp","view_history","response_type","key_press","avg_frame_time","center_x","center_y","correct_response","identity","Image","question_order","correct_answer","trap1_item"
"1657","
   <p><div style = ""color: white;font-size:25px;"">您好，欢迎参加本次实验。</div> </p>
   <p><div style = ""color: white;font-size:25px;"">为充分保障您的权利，请确保您已经知晓并同意《参与实验同意书》以及《数据公开知情同意书》。</div></p>
   <p><div style = ""color: white;font-size:25px;"">如果您未见过上述内容，请咨询实验员。</div></p>
   <p><div style = ""color: white;font-size:25px;"">如果您选择继续实验，则表示您已经清楚两份知情同意书的内容并同意。</div></p>
   <p><div style = ""color: pink;font-size:30px;"">请确保您记得day0的实验编号，您将在本次实验输入该编号，若您忘记，请咨询实验员后作答。</div></p>
   <p><div style = ""color: lightblue;font-size:25px;"">请您尽可能认真地作答，我们将依据您在各问卷和按键任务中的作答质量发放报酬。</div></p>
   <p> <div style = ""color: green;font-size:25px;""><按空格键至下页></div> </p>
   "," ","html-keyboard-response","0","1659","0.0-0.0","3","4","3","3","3","4","3","2","4","4","5","4","4","4","5","5","4","4","4","4","5","4","4","4","4","4","4","5","4","1","0","1","1","0","0","0","0","0","1","1","0","0","0","1","5","4","4","1","4","3","2","4","5","4","2","720327574219128832","赵","445","","","","","","","","","","","","","","","","","","","","","","","","","","","","","","","","","","","","","","","","","",""
"","","","call-function","1","1660","0.0-1.0-0.0","3","4","3","3","3","4","3","2","4","4","5","4","4","4","5","5","4","4","4","4","5","4","4","4","4","4","4","5","4","1","0","1","1","0","0","0","0","0","1","1","0","0","0","1","5","4","4","1","4","3","2","4","5","4","2","720327574219128832","赵","445","","","","","","","","","","","","","","","","","","","","","","","","","","","","","","","","","","","","","","","","","",""
"19266","","{""friend_name"":""赵"",""ParticipantID"":""445""}","survey-html-form","2","20927","0.0-1.0-1.0","3","4","3","3","3","4","3","2","4","4","5","4","4","4","5","5","4","4","4","4","5","4","4","4","4","4","4","5","4","1","0","1","1","0","0","0","0","0","1","1","0","0","0","1","5","4","4","1","4","3","2","4","5","4","2","720327574219128832","赵","445","","","","","","","","","","","","","","","","","","","","","","","","","","","","","","","","","","","","","","","","","",""
"","","","fullscreen","3","23064","0.0-2.0","3","4","3","3","3","4","3","2","4","4","5","4","4","4","5","5","4","4","4","4","5","4","4","4","4","4","4","5","4","1","0","1","1","0","0","0","0","0","1","1","0","0","0","1","5","4","4","1","4","3","2","4","5","4","2","720327574219128832","赵","445","","true","{}","","","","","","","","","","","","","","","","","","","","","","","","","","","","","","","","","","","","","","",""
"26237.400000035763","","{""Q01"":""3"",""Q02"":""4"",""Q03"":""3"",""Q04"":""3"",""Q05"":""3"",""Q06"":""4"",""Q07"":""3"",""Q08"":""2"",""Q09"":""4"",""Q10"":""4""}","survey-template","4","49305","0.0-3.0","3","4","3","3","3","4","3","2","4","4","5","4","4","4","5","5","4","4","4","4","5","4","4","4","4","4","4","5","4","1","0","1","1","0","0","0","0","0","1","1","0","0","0","1","5","4","4","1","4","3","2","4","5","4","2","720327574219128832","赵","445","","","","{""Q01"":""3"",""Q02"":""4"",""Q03"":""3"",""Q04"":""3"",""Q05"":""3"",""Q06"":""4"",""Q07"":""3"",""Q08"":""2"",""Q09"":""4"",""Q10"":""4""}","[0,1,2,3,4,5,6,7,8,9]","[""Q01"",""Q02"",""Q04"",""Q03"",""Q05"",""Q06"",""Q07"",""Q07"",""Q08"",""Q09"",""Q10""]","[11115.800000011921,12067.600000023842,14900,16203.400000035763,17323.100000023842,19233,20091.400000035763,20659.700000047684,21475.100000023842,23165.400000035763,24243.100000023842]","[]","[10611.800000011921,11115.800000011921,12067.600000023842,13803.400000035763,14900,15675.5,16203.400000035763,17323.100000023842,18523.80000001192,18771,19233,20091.400000035763,20659.700000047684,21475.100000023842,23165.400000035763,24243.100000023842,26235.700000047684]","0.4","0.4444444444444444","0","","","","","","","","","","","","","","","","","","","","","","","","","","","","","",""
"21615.5","","{""Q01"":""5"",""Q02"":""4"",""Q03"":""4"",""Q04"":""4"",""Q05"":""5"",""Q06"":""5"",""Q07"":""4"",""Q08"":""4"",""Q09"":""4"",""Q10"":""4""}","survey-template","5","70928","0.0-4.0","3","4","3","3","3","4","3","2","4","4","5","4","4","4","5","5","4","4","4","4","5","4","4","4","4","4","4","5","4","1","0","1","1","0","0","0","0","0","1","1","0","0","0","1","5","4","4","1","4","3","2","4","5","4","2","720327574219128832","赵","445","","","","{""Q01"":""5"",""Q02"":""4"",""Q03"":""4"",""Q04"":""4"",""Q05"":""5"",""Q06"":""5"",""Q07"":""4"",""Q08"":""4"",""Q09"":""4"",""Q10"":""4""}","[0,1,2,3,4,5,6,7,8,9]","[""Q01"",""Q02"",""Q03"",""Q03"",""Q04"",""Q05"",""Q06"",""Q07"",""Q08"",""Q09"",""Q10""]","[1669.699999988079,3334.300000011921,5950.600000023842,6702.399999976158,8062,10022.100000023842,11510.5,13230,14822,16669.899999976158,18173.899999976158]","[]","[1669.699999988079,3054.300000011921,3334.300000011921,4325.600000023842,5014.100000023842,5950.600000023842,6702.399999976158,8062,9791.5,10022.100000023842,11237.600000023842,11510.5,13230,14822,16669.899999976158,18173.899999976158,21614]","0.5","0.1111111111111111","0","","","","","","","","","","","","","","","","","","","","","","","","","","","","","",""
"","","","preload","6","71693","0.0-5.0","3","4","3","3","3","4","3","2","4","4","5","4","4","4","5","5","4","4","4","4","5","4","4","4","4","4","4","5","4","1","0","1","1","0","0","0","0","0","1","1","0","0","0","1","5","4","4","1","4","3","2","4","5","4","2","720327574219128832","赵","445","","true","","","","","","","","","","","false","[]","[]","[]","","","","","","","","","","","","","","","","","","","","","","","","","",""
"15391","
    <h3>词语分类任务</h3>
    <p>在接下来的任务中，你需要对一系列词语进行分类。<p/>
    请先熟悉这些词语，这有利于你完成接下来的任务。</p>
    <table align=""center"" border=1 cellpadding=3 cellspacing=0>
    <tr> <th>类别</th> <th>词语</th> </tr>
    <tr> <td>&emsp;积极&emsp;</td> <td>&emsp;高尚、诚信、善良、君子、廉正、正直&emsp;</td> </tr>
    <tr> <td>&emsp;消极&emsp;</td> <td>&emsp;缺德、卑鄙、不孝、不仁、小人、黑心&emsp;</td> </tr>
    <tr> <td>&emsp;自我&emsp;</td> <td>&emsp;我、我的、自己、自己的、本人、本人的&emsp;</td> </tr>
    <tr> <td>&emsp;他人&emsp;</td> <td>&emsp;他、他的、别人、别人的、他人、他人的&emsp;</td> </tr>
    </table><br/>","0","html-button-response","7","87086","0.0-6.0-1.0-0.0","3","4","3","3","3","4","3","2","4","4","5","4","4","4","5","5","4","4","4","4","5","4","4","4","4","4","4","5","4","1","0","1","1","0","0","0","0","0","1","1","0","0","0","1","5","4","4","1","4","3","2","4","5","4","2","720327574219128832","赵","445","","","","","","","","","","","","","","","","","1","1","","","","","","","","","","","","","","","","","","","","","","","",""
"7027","
    <div class=""tag-bottom""><p>
    —— 任务1：对“自我”词和“他人”词分类 ——<p/>
    不同词语会出现在屏幕中央，类别标签将始终显示在屏幕上方<p/>   
    <span style=""color:#FFD866""><b>请根据上方标签的提示，尽可能正确并且快速地做出按键反应</b></span><p/>
    当按键错误时屏幕中会出现<span style=""color:red""> X </span>，需要按另一个键纠正才能继续<br/><p/>
    请把双手食指分别放在键盘的“E”键和“I”键上<p/>
    按<空格键>开始
    </p></div>"," ","html-keyboard-response","8","94116","0.0-6.0-1.0-1.0","3","4","3","3","3","4","3","2","4","4","5","4","4","4","5","5","4","4","4","4","5","4","4","4","4","4","4","5","4","1","0","1","1","0","0","0","0","0","1","1","0","0","0","1","5","4","4","1","4","3","2","4","5","4","2","720327574219128832","赵","445","","","","","","","","","","","","","","","","","","","","","","","","","","","","","","","","","","","","","","","","","",""
"null","","null","html-keyboard-response","9","94367","0.0-6.0-1.0-2.0-0.0","3","4","3","3","3","4","3","2","4","4","5","4","4","4","5","5","4","4","4","4","5","4","4","4","4","4","4","5","4","1","0","1","1","0","0","0","0","0","1","1","0","0","0","1","5","4","4","1","4","3","2","4","5","4","2","720327574219128832","赵","445","","","","","","","","","","","","","","","","","","","","","","","","","","","","","","","","","","","","","","","","","",""
"728","<p style=""color:rgb(150, 250, 100); font-size: 35px;"">自己的</p>","e","categorize-html","10","95099","0.0-6.0-1.0-2.0-1.0","3","4","3","3","3","4","3","2","4","4","5","4","4","4","5","5","4","4","4","4","5","4","4","4","4","4","4","5","4","1","0","1","1","0","0","0","0","0","1","1","0","0","0","1","5","4","4","1","4","3","2","4","5","4","2","720327574219128832","赵","445","","","","","","","","","","","","","","","","","","","true","11","1","moral","728","self","自己的","","","","","","","","","","","","","","","","",""
"null","","null","html-keyboard-response","11","95350","0.0-6.0-1.0-2.0-0.1","3","4","3","3","3","4","3","2","4","4","5","4","4","4","5","5","4","4","4","4","5","4","4","4","4","4","4","5","4","1","0","1","1","0","0","0","0","0","1","1","0","0","0","1","5","4","4","1","4","3","2","4","5","4","2","720327574219128832","赵","445","","","","","","","","","","","","","","","","","","","","","","","","","","","","","","","","","","","","","","","","","",""
"585","<p style=""color:rgb(150, 250, 100); font-size: 35px;"">别人的</p>","i","categorize-html","12","95937","0.0-6.0-1.0-2.0-1.1","3","4","3","3","3","4","3","2","4","4","5","4","4","4","5","5","4","4","4","4","5","4","4","4","4","4","4","5","4","1","0","1","1","0","0","0","0","0","1","1","0","0","0","1","5","4","4","1","4","3","2","4","5","4","2","720327574219128832","赵","445","","","","","","","","","","","","","","","","","","","true","11","1","moral","585","other","别人的","","","","","","","","","","","","","","","","",""
"null","","null","html-keyboard-response","13","96189","0.0-6.0-1.0-2.0-0.2","3","4","3","3","3","4","3","2","4","4","5","4","4","4","5","5","4","4","4","4","5","4","4","4","4","4","4","5","4","1","0","1","1","0","0","0","0","0","1","1","0","0","0","1","5","4","4","1","4","3","2","4","5","4","2","720327574219128832","赵","445","","","","","","","","","","","","","","","","","","","","","","","","","","","","","","","","","","","","","","","","","",""
"932","<p style=""color:rgb(150, 250, 100); font-size: 35px;"">本人的</p>","e","categorize-html","14","97123","0.0-6.0-1.0-2.0-1.2","3","4","3","3","3","4","3","2","4","4","5","4","4","4","5","5","4","4","4","4","5","4","4","4","4","4","4","5","4","1","0","1","1","0","0","0","0","0","1","1","0","0","0","1","5","4","4","1","4","3","2","4","5","4","2","720327574219128832","赵","445","","","","","","","","","","","","","","","","","","","true","11","1","moral","932","self","本人的","","","","","","","","","","","","","","","","",""
"null","","null","html-keyboard-response","15","97374","0.0-6.0-1.0-2.0-0.3","3","4","3","3","3","4","3","2","4","4","5","4","4","4","5","5","4","4","4","4","5","4","4","4","4","4","4","5","4","1","0","1","1","0","0","0","0","0","1","1","0","0","0","1","5","4","4","1","4","3","2","4","5","4","2","720327574219128832","赵","445","","","","","","","","","","","","","","","","","","","","","","","","","","","","","","","","","","","","","","","","","",""
"511","<p style=""color:rgb(150, 250, 100); font-size: 35px;"">别人</p>","i","categorize-html","16","97887","0.0-6.0-1.0-2.0-1.3","3","4","3","3","3","4","3","2","4","4","5","4","4","4","5","5","4","4","4","4","5","4","4","4","4","4","4","5","4","1","0","1","1","0","0","0","0","0","1","1","0","0","0","1","5","4","4","1","4","3","2","4","5","4","2","720327574219128832","赵","445","","","","","","","","","","","","","","","","","","","true","11","1","moral","511","other","别人","","","","","","","","","","","","","","","","",""
"null","","null","html-keyboard-response","17","98138","0.0-6.0-1.0-2.0-0.4","3","4","3","3","3","4","3","2","4","4","5","4","4","4","5","5","4","4","4","4","5","4","4","4","4","4","4","5","4","1","0","1","1","0","0","0","0","0","1","1","0","0","0","1","5","4","4","1","4","3","2","4","5","4","2","720327574219128832","赵","445","","","","","","","","","","","","","","","","","","","","","","","","","","","","","","","","","","","","","","","","","",""
"567","<p style=""color:rgb(150, 250, 100); font-size: 35px;"">他人的</p>","i","categorize-html","18","98707","0.0-6.0-1.0-2.0-1.4","3","4","3","3","3","4","3","2","4","4","5","4","4","4","5","5","4","4","4","4","5","4","4","4","4","4","4","5","4","1","0","1","1","0","0","0","0","0","1","1","0","0","0","1","5","4","4","1","4","3","2","4","5","4","2","720327574219128832","赵","445","","","","","","","","","","","","","","","","","","","true","11","1","moral","567","other","他人的","","","","","","","","","","","","","","","","",""
"null","","null","html-keyboard-response","19","98961","0.0-6.0-1.0-2.0-0.5","3","4","3","3","3","4","3","2","4","4","5","4","4","4","5","5","4","4","4","4","5","4","4","4","4","4","4","5","4","1","0","1","1","0","0","0","0","0","1","1","0","0","0","1","5","4","4","1","4","3","2","4","5","4","2","720327574219128832","赵","445","","","","","","","","","","","","","","","","","","","","","","","","","","","","","","","","","","","","","","","","","",""
"479","<p style=""color:rgb(150, 250, 100); font-size: 35px;"">我</p>","e","categorize-html","20","99442","0.0-6.0-1.0-2.0-1.5","3","4","3","3","3","4","3","2","4","4","5","4","4","4","5","5","4","4","4","4","5","4","4","4","4","4","4","5","4","1","0","1","1","0","0","0","0","0","1","1","0","0","0","1","5","4","4","1","4","3","2","4","5","4","2","720327574219128832","赵","445","","","","","","","","","","","","","","","","","","","true","11","1","moral","479","self","我","","","","","","","","","","","","","","","","",""
"null","","null","html-keyboard-response","21","99693","0.0-6.0-1.0-2.0-0.6","3","4","3","3","3","4","3","2","4","4","5","4","4","4","5","5","4","4","4","4","5","4","4","4","4","4","4","5","4","1","0","1","1","0","0","0","0","0","1","1","0","0","0","1","5","4","4","1","4","3","2","4","5","4","2","720327574219128832","赵","445","","","","","","","","","","","","","","","","","","","","","","","","","","","","","","","","","","","","","","","","","",""
"531","<p style=""color:rgb(150, 250, 100); font-size: 35px;"">他人</p>","i","categorize-html","22","100226","0.0-6.0-1.0-2.0-1.6","3","4","3","3","3","4","3","2","4","4","5","4","4","4","5","5","4","4","4","4","5","4","4","4","4","4","4","5","4","1","0","1","1","0","0","0","0","0","1","1","0","0","0","1","5","4","4","1","4","3","2","4","5","4","2","720327574219128832","赵","445","","","","","","","","","","","","","","","","","","","true","11","1","moral","531","other","他人","","","","","","","","","","","","","","","","",""
"null","","null","html-keyboard-response","23","100478","0.0-6.0-1.0-2.0-0.7","3","4","3","3","3","4","3","2","4","4","5","4","4","4","5","5","4","4","4","4","5","4","4","4","4","4","4","5","4","1","0","1","1","0","0","0","0","0","1","1","0","0","0","1","5","4","4","1","4","3","2","4","5","4","2","720327574219128832","赵","445","","","","","","","","","","","","","","","","","","","","","","","","","","","","","","","","","","","","","","","","","",""
"688","<p style=""color:rgb(150, 250, 100); font-size: 35px;"">自己</p>","e","categorize-html","24","101168","0.0-6.0-1.0-2.0-1.7","3","4","3","3","3","4","3","2","4","4","5","4","4","4","5","5","4","4","4","4","5","4","4","4","4","4","4","5","4","1","0","1","1","0","0","0","0","0","1","1","0","0","0","1","5","4","4","1","4","3","2","4","5","4","2","720327574219128832","赵","445","","","","","","","","","","","","","","","","","","","true","11","1","moral","688","self","自己","","","","","","","","","","","","","","","","",""
"null","","null","html-keyboard-response","25","101429","0.0-6.0-1.0-2.0-0.8","3","4","3","3","3","4","3","2","4","4","5","4","4","4","5","5","4","4","4","4","5","4","4","4","4","4","4","5","4","1","0","1","1","0","0","0","0","0","1","1","0","0","0","1","5","4","4","1","4","3","2","4","5","4","2","720327574219128832","赵","445","","","","","","","","","","","","","","","","","","","","","","","","","","","","","","","","","","","","","","","","","",""
"482","<p style=""color:rgb(150, 250, 100); font-size: 35px;"">他的</p>","i","categorize-html","26","101913","0.0-6.0-1.0-2.0-1.8","3","4","3","3","3","4","3","2","4","4","5","4","4","4","5","5","4","4","4","4","5","4","4","4","4","4","4","5","4","1","0","1","1","0","0","0","0","0","1","1","0","0","0","1","5","4","4","1","4","3","2","4","5","4","2","720327574219128832","赵","445","","","","","","","","","","","","","","","","","","","true","11","1","moral","482","other","他的","","","","","","","","","","","","","","","","",""
"null","","null","html-keyboard-response","27","102165","0.0-6.0-1.0-2.0-0.9","3","4","3","3","3","4","3","2","4","4","5","4","4","4","5","5","4","4","4","4","5","4","4","4","4","4","4","5","4","1","0","1","1","0","0","0","0","0","1","1","0","0","0","1","5","4","4","1","4","3","2","4","5","4","2","720327574219128832","赵","445","","","","","","","","","","","","","","","","","","","","","","","","","","","","","","","","","","","","","","","","","",""
"720","<p style=""color:rgb(150, 250, 100); font-size: 35px;"">我的</p>","e","categorize-html","28","102888","0.0-6.0-1.0-2.0-1.9","3","4","3","3","3","4","3","2","4","4","5","4","4","4","5","5","4","4","4","4","5","4","4","4","4","4","4","5","4","1","0","1","1","0","0","0","0","0","1","1","0","0","0","1","5","4","4","1","4","3","2","4","5","4","2","720327574219128832","赵","445","","","","","","","","","","","","","","","","","","","true","11","1","moral","720","self","我的","","","","","","","","","","","","","","","","",""
"null","","null","html-keyboard-response","29","103139","0.0-6.0-1.0-2.0-0.10","3","4","3","3","3","4","3","2","4","4","5","4","4","4","5","5","4","4","4","4","5","4","4","4","4","4","4","5","4","1","0","1","1","0","0","0","0","0","1","1","0","0","0","1","5","4","4","1","4","3","2","4","5","4","2","720327574219128832","赵","445","","","","","","","","","","","","","","","","","","","","","","","","","","","","","","","","","","","","","","","","","",""
"624","<p style=""color:rgb(150, 250, 100); font-size: 35px;"">本人</p>","e","categorize-html","30","103765","0.0-6.0-1.0-2.0-1.10","3","4","3","3","3","4","3","2","4","4","5","4","4","4","5","5","4","4","4","4","5","4","4","4","4","4","4","5","4","1","0","1","1","0","0","0","0","0","1","1","0","0","0","1","5","4","4","1","4","3","2","4","5","4","2","720327574219128832","赵","445","","","","","","","","","","","","","","","","","","","true","11","1","moral","624","self","本人","","","","","","","","","","","","","","","","",""
"null","","null","html-keyboard-response","31","104016","0.0-6.0-1.0-2.0-0.11","3","4","3","3","3","4","3","2","4","4","5","4","4","4","5","5","4","4","4","4","5","4","4","4","4","4","4","5","4","1","0","1","1","0","0","0","0","0","1","1","0","0","0","1","5","4","4","1","4","3","2","4","5","4","2","720327574219128832","赵","445","","","","","","","","","","","","","","","","","","","","","","","","","","","","","","","","","","","","","","","","","",""
"512","<p style=""color:rgb(150, 250, 100); font-size: 35px;"">他</p>","i","categorize-html","32","104531","0.0-6.0-1.0-2.0-1.11","3","4","3","3","3","4","3","2","4","4","5","4","4","4","5","5","4","4","4","4","5","4","4","4","4","4","4","5","4","1","0","1","1","0","0","0","0","0","1","1","0","0","0","1","5","4","4","1","4","3","2","4","5","4","2","720327574219128832","赵","445","","","","","","","","","","","","","","","","","","","true","11","1","moral","512","other","他","","","","","","","","","","","","","","","","",""
"6785","
    <div class=""tag-bottom""><p>
    —— 任务2：对“积极”词和“消极”词分类 ——<p/>   
    <span style=""color:#78DCE8""><b>注意上方，类别标签和需要分类的词语都已经改变</b></span><p/>
    <span style=""color:#FFD866""><b>请根据上方标签的提示，尽可能正确并且快速地做出按键反应</b></span><p/>
    当按键错误时屏幕中会出现<span style=""color:red""> X </span>，需要按另一个键纠正才能继续<br/><p/>
    请把双手食指分别放在键盘的“E”键和“I”键上<p/>
    按<空格键>开始
    </p></div>"," ","html-keyboard-response","33","111316","0.0-6.0-1.0-3.0","3","4","3","3","3","4","3","2","4","4","5","4","4","4","5","5","4","4","4","4","5","4","4","4","4","4","4","5","4","1","0","1","1","0","0","0","0","0","1","1","0","0","0","1","5","4","4","1","4","3","2","4","5","4","2","720327574219128832","赵","445","","","","","","","","","","","","","","","","","","","","","","","","","","","","","","","","","","","","","","","","","",""
"null","","null","html-keyboard-response","34","111567","0.0-6.0-1.0-4.0-0.0","3","4","3","3","3","4","3","2","4","4","5","4","4","4","5","5","4","4","4","4","5","4","4","4","4","4","4","5","4","1","0","1","1","0","0","0","0","0","1","1","0","0","0","1","5","4","4","1","4","3","2","4","5","4","2","720327574219128832","赵","445","","","","","","","","","","","","","","","","","","","","","","","","","","","","","","","","","","","","","","","","","",""
"1353","<p style=""color:white; font-size: 35px;"">小人</p>","i","categorize-html","35","112923","0.0-6.0-1.0-4.0-1.0","3","4","3","3","3","4","3","2","4","4","5","4","4","4","5","5","4","4","4","4","5","4","4","4","4","4","4","5","4","1","0","1","1","0","0","0","0","0","1","1","0","0","0","1","5","4","4","1","4","3","2","4","5","4","2","720327574219128832","赵","445","","","","","","","","","","","","","","","","","","","true","12","2","moral","1353","negative","小人","","","","","","","","","","","","","","","","",""
"null","","null","html-keyboard-response","36","113174","0.0-6.0-1.0-4.0-0.1","3","4","3","3","3","4","3","2","4","4","5","4","4","4","5","5","4","4","4","4","5","4","4","4","4","4","4","5","4","1","0","1","1","0","0","0","0","0","1","1","0","0","0","1","5","4","4","1","4","3","2","4","5","4","2","720327574219128832","赵","445","","","","","","","","","","","","","","","","","","","","","","","","","","","","","","","","","","","","","","","","","",""
"623","<p style=""color:white; font-size: 35px;"">黑心</p>","i","categorize-html","37","113798","0.0-6.0-1.0-4.0-1.1","3","4","3","3","3","4","3","2","4","4","5","4","4","4","5","5","4","4","4","4","5","4","4","4","4","4","4","5","4","1","0","1","1","0","0","0","0","0","1","1","0","0","0","1","5","4","4","1","4","3","2","4","5","4","2","720327574219128832","赵","445","","","","","","","","","","","","","","","","","","","true","12","2","moral","623","negative","黑心","","","","","","","","","","","","","","","","",""
"null","","null","html-keyboard-response","38","114057","0.0-6.0-1.0-4.0-0.2","3","4","3","3","3","4","3","2","4","4","5","4","4","4","5","5","4","4","4","4","5","4","4","4","4","4","4","5","4","1","0","1","1","0","0","0","0","0","1","1","0","0","0","1","5","4","4","1","4","3","2","4","5","4","2","720327574219128832","赵","445","","","","","","","","","","","","","","","","","","","","","","","","","","","","","","","","","","","","","","","","","",""
"567","<p style=""color:white; font-size: 35px;"">缺德</p>","i","categorize-html","39","114626","0.0-6.0-1.0-4.0-1.2","3","4","3","3","3","4","3","2","4","4","5","4","4","4","5","5","4","4","4","4","5","4","4","4","4","4","4","5","4","1","0","1","1","0","0","0","0","0","1","1","0","0","0","1","5","4","4","1","4","3","2","4","5","4","2","720327574219128832","赵","445","","","","","","","","","","","","","","","","","","","true","12","2","moral","567","negative","缺德","","","","","","","","","","","","","","","","",""
"null","","null","html-keyboard-response","40","114878","0.0-6.0-1.0-4.0-0.3","3","4","3","3","3","4","3","2","4","4","5","4","4","4","5","5","4","4","4","4","5","4","4","4","4","4","4","5","4","1","0","1","1","0","0","0","0","0","1","1","0","0","0","1","5","4","4","1","4","3","2","4","5","4","2","720327574219128832","赵","445","","","","","","","","","","","","","","","","","","","","","","","","","","","","","","","","","","","","","","","","","",""
"689","<p style=""color:white; font-size: 35px;"">诚信</p>","e","categorize-html","41","115569","0.0-6.0-1.0-4.0-1.3","3","4","3","3","3","4","3","2","4","4","5","4","4","4","5","5","4","4","4","4","5","4","4","4","4","4","4","5","4","1","0","1","1","0","0","0","0","0","1","1","0","0","0","1","5","4","4","1","4","3","2","4","5","4","2","720327574219128832","赵","445","","","","","","","","","","","","","","","","","","","true","12","2","moral","689","positive","诚信","","","","","","","","","","","","","","","","",""
"null","","null","html-keyboard-response","42","115820","0.0-6.0-1.0-4.0-0.4","3","4","3","3","3","4","3","2","4","4","5","4","4","4","5","5","4","4","4","4","5","4","4","4","4","4","4","5","4","1","0","1","1","0","0","0","0","0","1","1","0","0","0","1","5","4","4","1","4","3","2","4","5","4","2","720327574219128832","赵","445","","","","","","","","","","","","","","","","","","","","","","","","","","","","","","","","","","","","","","","","","",""
"523","<p style=""color:white; font-size: 35px;"">高尚</p>","e","categorize-html","43","116344","0.0-6.0-1.0-4.0-1.4","3","4","3","3","3","4","3","2","4","4","5","4","4","4","5","5","4","4","4","4","5","4","4","4","4","4","4","5","4","1","0","1","1","0","0","0","0","0","1","1","0","0","0","1","5","4","4","1","4","3","2","4","5","4","2","720327574219128832","赵","445","","","","","","","","","","","","","","","","","","","true","12","2","moral","523","positive","高尚","","","","","","","","","","","","","","","","",""
"null","","null","html-keyboard-response","44","116595","0.0-6.0-1.0-4.0-0.5","3","4","3","3","3","4","3","2","4","4","5","4","4","4","5","5","4","4","4","4","5","4","4","4","4","4","4","5","4","1","0","1","1","0","0","0","0","0","1","1","0","0","0","1","5","4","4","1","4","3","2","4","5","4","2","720327574219128832","赵","445","","","","","","","","","","","","","","","","","","","","","","","","","","","","","","","","","","","","","","","","","",""
"606","<p style=""color:white; font-size: 35px;"">君子</p>","e","categorize-html","45","117203","0.0-6.0-1.0-4.0-1.5","3","4","3","3","3","4","3","2","4","4","5","4","4","4","5","5","4","4","4","4","5","4","4","4","4","4","4","5","4","1","0","1","1","0","0","0","0","0","1","1","0","0","0","1","5","4","4","1","4","3","2","4","5","4","2","720327574219128832","赵","445","","","","","","","","","","","","","","","","","","","true","12","2","moral","606","positive","君子","","","","","","","","","","","","","","","","",""
"null","","null","html-keyboard-response","46","117454","0.0-6.0-1.0-4.0-0.6","3","4","3","3","3","4","3","2","4","4","5","4","4","4","5","5","4","4","4","4","5","4","4","4","4","4","4","5","4","1","0","1","1","0","0","0","0","0","1","1","0","0","0","1","5","4","4","1","4","3","2","4","5","4","2","720327574219128832","赵","445","","","","","","","","","","","","","","","","","","","","","","","","","","","","","","","","","","","","","","","","","",""
"823","<p style=""color:white; font-size: 35px;"">廉正</p>","e","categorize-html","47","118279","0.0-6.0-1.0-4.0-1.6","3","4","3","3","3","4","3","2","4","4","5","4","4","4","5","5","4","4","4","4","5","4","4","4","4","4","4","5","4","1","0","1","1","0","0","0","0","0","1","1","0","0","0","1","5","4","4","1","4","3","2","4","5","4","2","720327574219128832","赵","445","","","","","","","","","","","","","","","","","","","true","12","2","moral","823","positive","廉正","","","","","","","","","","","","","","","","",""
"null","","null","html-keyboard-response","48","118530","0.0-6.0-1.0-4.0-0.7","3","4","3","3","3","4","3","2","4","4","5","4","4","4","5","5","4","4","4","4","5","4","4","4","4","4","4","5","4","1","0","1","1","0","0","0","0","0","1","1","0","0","0","1","5","4","4","1","4","3","2","4","5","4","2","720327574219128832","赵","445","","","","","","","","","","","","","","","","","","","","","","","","","","","","","","","","","","","","","","","","","",""
"630","<p style=""color:white; font-size: 35px;"">善良</p>","e","categorize-html","49","119162","0.0-6.0-1.0-4.0-1.7","3","4","3","3","3","4","3","2","4","4","5","4","4","4","5","5","4","4","4","4","5","4","4","4","4","4","4","5","4","1","0","1","1","0","0","0","0","0","1","1","0","0","0","1","5","4","4","1","4","3","2","4","5","4","2","720327574219128832","赵","445","","","","","","","","","","","","","","","","","","","true","12","2","moral","630","positive","善良","","","","","","","","","","","","","","","","",""
"null","","null","html-keyboard-response","50","119413","0.0-6.0-1.0-4.0-0.8","3","4","3","3","3","4","3","2","4","4","5","4","4","4","5","5","4","4","4","4","5","4","4","4","4","4","4","5","4","1","0","1","1","0","0","0","0","0","1","1","0","0","0","1","5","4","4","1","4","3","2","4","5","4","2","720327574219128832","赵","445","","","","","","","","","","","","","","","","","","","","","","","","","","","","","","","","","","","","","","","","","",""
"787","<p style=""color:white; font-size: 35px;"">正直</p>","e","categorize-html","51","120202","0.0-6.0-1.0-4.0-1.8","3","4","3","3","3","4","3","2","4","4","5","4","4","4","5","5","4","4","4","4","5","4","4","4","4","4","4","5","4","1","0","1","1","0","0","0","0","0","1","1","0","0","0","1","5","4","4","1","4","3","2","4","5","4","2","720327574219128832","赵","445","","","","","","","","","","","","","","","","","","","true","12","2","moral","787","positive","正直","","","","","","","","","","","","","","","","",""
"null","","null","html-keyboard-response","52","120454","0.0-6.0-1.0-4.0-0.9","3","4","3","3","3","4","3","2","4","4","5","4","4","4","5","5","4","4","4","4","5","4","4","4","4","4","4","5","4","1","0","1","1","0","0","0","0","0","1","1","0","0","0","1","5","4","4","1","4","3","2","4","5","4","2","720327574219128832","赵","445","","","","","","","","","","","","","","","","","","","","","","","","","","","","","","","","","","","","","","","","","",""
"506","<p style=""color:white; font-size: 35px;"">不仁</p>","i","categorize-html","53","120962","0.0-6.0-1.0-4.0-1.9","3","4","3","3","3","4","3","2","4","4","5","4","4","4","5","5","4","4","4","4","5","4","4","4","4","4","4","5","4","1","0","1","1","0","0","0","0","0","1","1","0","0","0","1","5","4","4","1","4","3","2","4","5","4","2","720327574219128832","赵","445","","","","","","","","","","","","","","","","","","","true","12","2","moral","506","negative","不仁","","","","","","","","","","","","","","","","",""
"null","","null","html-keyboard-response","54","121213","0.0-6.0-1.0-4.0-0.10","3","4","3","3","3","4","3","2","4","4","5","4","4","4","5","5","4","4","4","4","5","4","4","4","4","4","4","5","4","1","0","1","1","0","0","0","0","0","1","1","0","0","0","1","5","4","4","1","4","3","2","4","5","4","2","720327574219128832","赵","445","","","","","","","","","","","","","","","","","","","","","","","","","","","","","","","","","","","","","","","","","",""
"535","<p style=""color:white; font-size: 35px;"">不孝</p>","i","categorize-html","55","121749","0.0-6.0-1.0-4.0-1.10","3","4","3","3","3","4","3","2","4","4","5","4","4","4","5","5","4","4","4","4","5","4","4","4","4","4","4","5","4","1","0","1","1","0","0","0","0","0","1","1","0","0","0","1","5","4","4","1","4","3","2","4","5","4","2","720327574219128832","赵","445","","","","","","","","","","","","","","","","","","","true","12","2","moral","535","negative","不孝","","","","","","","","","","","","","","","","",""
"null","","null","html-keyboard-response","56","122001","0.0-6.0-1.0-4.0-0.11","3","4","3","3","3","4","3","2","4","4","5","4","4","4","5","5","4","4","4","4","5","4","4","4","4","4","4","5","4","1","0","1","1","0","0","0","0","0","1","1","0","0","0","1","5","4","4","1","4","3","2","4","5","4","2","720327574219128832","赵","445","","","","","","","","","","","","","","","","","","","","","","","","","","","","","","","","","","","","","","","","","",""
"697","<p style=""color:white; font-size: 35px;"">卑鄙</p>","i","categorize-html","57","122700","0.0-6.0-1.0-4.0-1.11","3","4","3","3","3","4","3","2","4","4","5","4","4","4","5","5","4","4","4","4","5","4","4","4","4","4","4","5","4","1","0","1","1","0","0","0","0","0","1","1","0","0","0","1","5","4","4","1","4","3","2","4","5","4","2","720327574219128832","赵","445","","","","","","","","","","","","","","","","","","","true","12","2","moral","697","negative","卑鄙","","","","","","","","","","","","","","","","",""
"3206","
    <div class=""tag-bottom""><p>
    —— 任务3：对“自我/积极”词和“他人/消极”词分类 ——<p/>
    <span style=""color:#78DCE8""><b>注意上方，之前的四类词语将混合在一起交替呈现</b></span><p/>
    <span style=""color:#FFD866""><b>请根据上方标签的提示，尽可能正确并且快速地做出按键反应</b></span><p/>
    当按键错误时屏幕中会出现<span style=""color:red""> X </span>，需要按另一个键纠正才能继续<br/><p/>
    请把双手食指分别放在键盘的“E”键和“I”键上<p/>
    按<空格键>开始
    </p></div>"," ","html-keyboard-response","58","125907","0.0-6.0-1.0-5.0","3","4","3","3","3","4","3","2","4","4","5","4","4","4","5","5","4","4","4","4","5","4","4","4","4","4","4","5","4","1","0","1","1","0","0","0","0","0","1","1","0","0","0","1","5","4","4","1","4","3","2","4","5","4","2","720327574219128832","赵","445","","","","","","","","","","","","","","","","","","","","","","","","","","","","","","","","","","","","","","","","","",""
"null","","null","html-keyboard-response","59","126171","0.0-6.0-1.0-6.0-0.0","3","4","3","3","3","4","3","2","4","4","5","4","4","4","5","5","4","4","4","4","5","4","4","4","4","4","4","5","4","1","0","1","1","0","0","0","0","0","1","1","0","0","0","1","5","4","4","1","4","3","2","4","5","4","2","720327574219128832","赵","445","","","","","","","","","","","","","","","","","","","","","","","","","","","","","","","","","","","","","","","","","",""
"673","<p style=""color:rgb(150, 250, 100); font-size: 35px;"">别人</p>","i","categorize-html","60","126846","0.0-6.0-1.0-6.0-1.0","3","4","3","3","3","4","3","2","4","4","5","4","4","4","5","5","4","4","4","4","5","4","4","4","4","4","4","5","4","1","0","1","1","0","0","0","0","0","1","1","0","0","0","1","5","4","4","1","4","3","2","4","5","4","2","720327574219128832","赵","445","","","","","","","","","","","","","","","","","","","true","13","3","moral","673","other","别人","","","","","","","","","","","","","","","","",""
"null","","null","html-keyboard-response","61","127099","0.0-6.0-1.0-6.0-0.1","3","4","3","3","3","4","3","2","4","4","5","4","4","4","5","5","4","4","4","4","5","4","4","4","4","4","4","5","4","1","0","1","1","0","0","0","0","0","1","1","0","0","0","1","5","4","4","1","4","3","2","4","5","4","2","720327574219128832","赵","445","","","","","","","","","","","","","","","","","","","","","","","","","","","","","","","","","","","","","","","","","",""
"627","<p style=""color:white; font-size: 35px;"">不孝</p>","i","categorize-html","62","127727","0.0-6.0-1.0-6.0-1.1","3","4","3","3","3","4","3","2","4","4","5","4","4","4","5","5","4","4","4","4","5","4","4","4","4","4","4","5","4","1","0","1","1","0","0","0","0","0","1","1","0","0","0","1","5","4","4","1","4","3","2","4","5","4","2","720327574219128832","赵","445","","","","","","","","","","","","","","","","","","","true","13","3","moral","627","negative","不孝","","","","","","","","","","","","","","","","",""
"null","","null","html-keyboard-response","63","127980","0.0-6.0-1.0-6.0-0.2","3","4","3","3","3","4","3","2","4","4","5","4","4","4","5","5","4","4","4","4","5","4","4","4","4","4","4","5","4","1","0","1","1","0","0","0","0","0","1","1","0","0","0","1","5","4","4","1","4","3","2","4","5","4","2","720327574219128832","赵","445","","","","","","","","","","","","","","","","","","","","","","","","","","","","","","","","","","","","","","","","","",""
"548","<p style=""color:rgb(150, 250, 100); font-size: 35px;"">自己的</p>","e","categorize-html","64","128529","0.0-6.0-1.0-6.0-1.2","3","4","3","3","3","4","3","2","4","4","5","4","4","4","5","5","4","4","4","4","5","4","4","4","4","4","4","5","4","1","0","1","1","0","0","0","0","0","1","1","0","0","0","1","5","4","4","1","4","3","2","4","5","4","2","720327574219128832","赵","445","","","","","","","","","","","","","","","","","","","true","13","3","moral","548","self","自己的","","","","","","","","","","","","","","","","",""
"null","","null","html-keyboard-response","65","128780","0.0-6.0-1.0-6.0-0.3","3","4","3","3","3","4","3","2","4","4","5","4","4","4","5","5","4","4","4","4","5","4","4","4","4","4","4","5","4","1","0","1","1","0","0","0","0","0","1","1","0","0","0","1","5","4","4","1","4","3","2","4","5","4","2","720327574219128832","赵","445","","","","","","","","","","","","","","","","","","","","","","","","","","","","","","","","","","","","","","","","","",""
"555","<p style=""color:white; font-size: 35px;"">诚信</p>","e","categorize-html","66","129338","0.0-6.0-1.0-6.0-1.3","3","4","3","3","3","4","3","2","4","4","5","4","4","4","5","5","4","4","4","4","5","4","4","4","4","4","4","5","4","1","0","1","1","0","0","0","0","0","1","1","0","0","0","1","5","4","4","1","4","3","2","4","5","4","2","720327574219128832","赵","445","","","","","","","","","","","","","","","","","","","true","13","3","moral","555","positive","诚信","","","","","","","","","","","","","","","","",""
"null","","null","html-keyboard-response","67","129592","0.0-6.0-1.0-6.0-0.4","3","4","3","3","3","4","3","2","4","4","5","4","4","4","5","5","4","4","4","4","5","4","4","4","4","4","4","5","4","1","0","1","1","0","0","0","0","0","1","1","0","0","0","1","5","4","4","1","4","3","2","4","5","4","2","720327574219128832","赵","445","","","","","","","","","","","","","","","","","","","","","","","","","","","","","","","","","","","","","","","","","",""
"580","<p style=""color:rgb(150, 250, 100); font-size: 35px;"">我</p>","e","categorize-html","68","130174","0.0-6.0-1.0-6.0-1.4","3","4","3","3","3","4","3","2","4","4","5","4","4","4","5","5","4","4","4","4","5","4","4","4","4","4","4","5","4","1","0","1","1","0","0","0","0","0","1","1","0","0","0","1","5","4","4","1","4","3","2","4","5","4","2","720327574219128832","赵","445","","","","","","","","","","","","","","","","","","","true","13","3","moral","580","self","我","","","","","","","","","","","","","","","","",""
"null","","null","html-keyboard-response","69","130425","0.0-6.0-1.0-6.0-0.5","3","4","3","3","3","4","3","2","4","4","5","4","4","4","5","5","4","4","4","4","5","4","4","4","4","4","4","5","4","1","0","1","1","0","0","0","0","0","1","1","0","0","0","1","5","4","4","1","4","3","2","4","5","4","2","720327574219128832","赵","445","","","","","","","","","","","","","","","","","","","","","","","","","","","","","","","","","","","","","","","","","",""
"715","<p style=""color:white; font-size: 35px;"">善良</p>","e","categorize-html","70","131142","0.0-6.0-1.0-6.0-1.5","3","4","3","3","3","4","3","2","4","4","5","4","4","4","5","5","4","4","4","4","5","4","4","4","4","4","4","5","4","1","0","1","1","0","0","0","0","0","1","1","0","0","0","1","5","4","4","1","4","3","2","4","5","4","2","720327574219128832","赵","445","","","","","","","","","","","","","","","","","","","true","13","3","moral","715","positive","善良","","","","","","","","","","","","","","","","",""
"null","","null","html-keyboard-response","71","131394","0.0-6.0-1.0-6.0-0.6","3","4","3","3","3","4","3","2","4","4","5","4","4","4","5","5","4","4","4","4","5","4","4","4","4","4","4","5","4","1","0","1","1","0","0","0","0","0","1","1","0","0","0","1","5","4","4","1","4","3","2","4","5","4","2","720327574219128832","赵","445","","","","","","","","","","","","","","","","","","","","","","","","","","","","","","","","","","","","","","","","","",""
"542","<p style=""color:rgb(150, 250, 100); font-size: 35px;"">他人的</p>","i","categorize-html","72","131938","0.0-6.0-1.0-6.0-1.6","3","4","3","3","3","4","3","2","4","4","5","4","4","4","5","5","4","4","4","4","5","4","4","4","4","4","4","5","4","1","0","1","1","0","0","0","0","0","1","1","0","0","0","1","5","4","4","1","4","3","2","4","5","4","2","720327574219128832","赵","445","","","","","","","","","","","","","","","","","","","true","13","3","moral","542","other","他人的","","","","","","","","","","","","","","","","",""
"null","","null","html-keyboard-response","73","132190","0.0-6.0-1.0-6.0-0.7","3","4","3","3","3","4","3","2","4","4","5","4","4","4","5","5","4","4","4","4","5","4","4","4","4","4","4","5","4","1","0","1","1","0","0","0","0","0","1","1","0","0","0","1","5","4","4","1","4","3","2","4","5","4","2","720327574219128832","赵","445","","","","","","","","","","","","","","","","","","","","","","","","","","","","","","","","","","","","","","","","","",""
"515","<p style=""color:white; font-size: 35px;"">不仁</p>","i","categorize-html","74","132707","0.0-6.0-1.0-6.0-1.7","3","4","3","3","3","4","3","2","4","4","5","4","4","4","5","5","4","4","4","4","5","4","4","4","4","4","4","5","4","1","0","1","1","0","0","0","0","0","1","1","0","0","0","1","5","4","4","1","4","3","2","4","5","4","2","720327574219128832","赵","445","","","","","","","","","","","","","","","","","","","true","13","3","moral","515","negative","不仁","","","","","","","","","","","","","","","","",""
"null","","null","html-keyboard-response","75","132968","0.0-6.0-1.0-6.0-0.8","3","4","3","3","3","4","3","2","4","4","5","4","4","4","5","5","4","4","4","4","5","4","4","4","4","4","4","5","4","1","0","1","1","0","0","0","0","0","1","1","0","0","0","1","5","4","4","1","4","3","2","4","5","4","2","720327574219128832","赵","445","","","","","","","","","","","","","","","","","","","","","","","","","","","","","","","","","","","","","","","","","",""
"586","<p style=""color:rgb(150, 250, 100); font-size: 35px;"">本人的</p>","e","categorize-html","76","133557","0.0-6.0-1.0-6.0-1.8","3","4","3","3","3","4","3","2","4","4","5","4","4","4","5","5","4","4","4","4","5","4","4","4","4","4","4","5","4","1","0","1","1","0","0","0","0","0","1","1","0","0","0","1","5","4","4","1","4","3","2","4","5","4","2","720327574219128832","赵","445","","","","","","","","","","","","","","","","","","","true","13","3","moral","586","self","本人的","","","","","","","","","","","","","","","","",""
"null","","null","html-keyboard-response","77","133809","0.0-6.0-1.0-6.0-0.9","3","4","3","3","3","4","3","2","4","4","5","4","4","4","5","5","4","4","4","4","5","4","4","4","4","4","4","5","4","1","0","1","1","0","0","0","0","0","1","1","0","0","0","1","5","4","4","1","4","3","2","4","5","4","2","720327574219128832","赵","445","","","","","","","","","","","","","","","","","","","","","","","","","","","","","","","","","","","","","","","","","",""
"633","<p style=""color:white; font-size: 35px;"">廉正</p>","e","categorize-html","78","134444","0.0-6.0-1.0-6.0-1.9","3","4","3","3","3","4","3","2","4","4","5","4","4","4","5","5","4","4","4","4","5","4","4","4","4","4","4","5","4","1","0","1","1","0","0","0","0","0","1","1","0","0","0","1","5","4","4","1","4","3","2","4","5","4","2","720327574219128832","赵","445","","","","","","","","","","","","","","","","","","","true","13","3","moral","633","positive","廉正","","","","","","","","","","","","","","","","",""
"null","","null","html-keyboard-response","79","134695","0.0-6.0-1.0-6.0-0.10","3","4","3","3","3","4","3","2","4","4","5","4","4","4","5","5","4","4","4","4","5","4","4","4","4","4","4","5","4","1","0","1","1","0","0","0","0","0","1","1","0","0","0","1","5","4","4","1","4","3","2","4","5","4","2","720327574219128832","赵","445","","","","","","","","","","","","","","","","","","","","","","","","","","","","","","","","","","","","","","","","","",""
"589","<p style=""color:rgb(150, 250, 100); font-size: 35px;"">别人的</p>","i","categorize-html","80","135286","0.0-6.0-1.0-6.0-1.10","3","4","3","3","3","4","3","2","4","4","5","4","4","4","5","5","4","4","4","4","5","4","4","4","4","4","4","5","4","1","0","1","1","0","0","0","0","0","1","1","0","0","0","1","5","4","4","1","4","3","2","4","5","4","2","720327574219128832","赵","445","","","","","","","","","","","","","","","","","","","true","13","3","moral","589","other","别人的","","","","","","","","","","","","","","","","",""
"null","","null","html-keyboard-response","81","135538","0.0-6.0-1.0-6.0-0.11","3","4","3","3","3","4","3","2","4","4","5","4","4","4","5","5","4","4","4","4","5","4","4","4","4","4","4","5","4","1","0","1","1","0","0","0","0","0","1","1","0","0","0","1","5","4","4","1","4","3","2","4","5","4","2","720327574219128832","赵","445","","","","","","","","","","","","","","","","","","","","","","","","","","","","","","","","","","","","","","","","","",""
"541","<p style=""color:white; font-size: 35px;"">缺德</p>","i","categorize-html","82","136081","0.0-6.0-1.0-6.0-1.11","3","4","3","3","3","4","3","2","4","4","5","4","4","4","5","5","4","4","4","4","5","4","4","4","4","4","4","5","4","1","0","1","1","0","0","0","0","0","1","1","0","0","0","1","5","4","4","1","4","3","2","4","5","4","2","720327574219128832","赵","445","","","","","","","","","","","","","","","","","","","true","13","3","moral","541","negative","缺德","","","","","","","","","","","","","","","","",""
"null","","null","html-keyboard-response","83","136332","0.0-6.0-1.0-6.0-0.12","3","4","3","3","3","4","3","2","4","4","5","4","4","4","5","5","4","4","4","4","5","4","4","4","4","4","4","5","4","1","0","1","1","0","0","0","0","0","1","1","0","0","0","1","5","4","4","1","4","3","2","4","5","4","2","720327574219128832","赵","445","","","","","","","","","","","","","","","","","","","","","","","","","","","","","","","","","","","","","","","","","",""
"599","<p style=""color:rgb(150, 250, 100); font-size: 35px;"">我的</p>","e","categorize-html","84","136934","0.0-6.0-1.0-6.0-1.12","3","4","3","3","3","4","3","2","4","4","5","4","4","4","5","5","4","4","4","4","5","4","4","4","4","4","4","5","4","1","0","1","1","0","0","0","0","0","1","1","0","0","0","1","5","4","4","1","4","3","2","4","5","4","2","720327574219128832","赵","445","","","","","","","","","","","","","","","","","","","true","13","3","moral","599","self","我的","","","","","","","","","","","","","","","","",""
"null","","null","html-keyboard-response","85","137186","0.0-6.0-1.0-6.0-0.13","3","4","3","3","3","4","3","2","4","4","5","4","4","4","5","5","4","4","4","4","5","4","4","4","4","4","4","5","4","1","0","1","1","0","0","0","0","0","1","1","0","0","0","1","5","4","4","1","4","3","2","4","5","4","2","720327574219128832","赵","445","","","","","","","","","","","","","","","","","","","","","","","","","","","","","","","","","","","","","","","","","",""
"645","<p style=""color:white; font-size: 35px;"">高尚</p>","e","categorize-html","86","137833","0.0-6.0-1.0-6.0-1.13","3","4","3","3","3","4","3","2","4","4","5","4","4","4","5","5","4","4","4","4","5","4","4","4","4","4","4","5","4","1","0","1","1","0","0","0","0","0","1","1","0","0","0","1","5","4","4","1","4","3","2","4","5","4","2","720327574219128832","赵","445","","","","","","","","","","","","","","","","","","","true","13","3","moral","645","positive","高尚","","","","","","","","","","","","","","","","",""
"null","","null","html-keyboard-response","87","138084","0.0-6.0-1.0-6.0-0.14","3","4","3","3","3","4","3","2","4","4","5","4","4","4","5","5","4","4","4","4","5","4","4","4","4","4","4","5","4","1","0","1","1","0","0","0","0","0","1","1","0","0","0","1","5","4","4","1","4","3","2","4","5","4","2","720327574219128832","赵","445","","","","","","","","","","","","","","","","","","","","","","","","","","","","","","","","","","","","","","","","","",""
"579","<p style=""color:rgb(150, 250, 100); font-size: 35px;"">他</p>","i","categorize-html","88","138665","0.0-6.0-1.0-6.0-1.14","3","4","3","3","3","4","3","2","4","4","5","4","4","4","5","5","4","4","4","4","5","4","4","4","4","4","4","5","4","1","0","1","1","0","0","0","0","0","1","1","0","0","0","1","5","4","4","1","4","3","2","4","5","4","2","720327574219128832","赵","445","","","","","","","","","","","","","","","","","","","true","13","3","moral","579","other","他","","","","","","","","","","","","","","","","",""
"null","","null","html-keyboard-response","89","138916","0.0-6.0-1.0-6.0-0.15","3","4","3","3","3","4","3","2","4","4","5","4","4","4","5","5","4","4","4","4","5","4","4","4","4","4","4","5","4","1","0","1","1","0","0","0","0","0","1","1","0","0","0","1","5","4","4","1","4","3","2","4","5","4","2","720327574219128832","赵","445","","","","","","","","","","","","","","","","","","","","","","","","","","","","","","","","","","","","","","","","","",""
"677","<p style=""color:white; font-size: 35px;"">小人</p>","i","categorize-html","90","139595","0.0-6.0-1.0-6.0-1.15","3","4","3","3","3","4","3","2","4","4","5","4","4","4","5","5","4","4","4","4","5","4","4","4","4","4","4","5","4","1","0","1","1","0","0","0","0","0","1","1","0","0","0","1","5","4","4","1","4","3","2","4","5","4","2","720327574219128832","赵","445","","","","","","","","","","","","","","","","","","","true","13","3","moral","677","negative","小人","","","","","","","","","","","","","","","","",""
"null","","null","html-keyboard-response","91","139846","0.0-6.0-1.0-6.0-0.16","3","4","3","3","3","4","3","2","4","4","5","4","4","4","5","5","4","4","4","4","5","4","4","4","4","4","4","5","4","1","0","1","1","0","0","0","0","0","1","1","0","0","0","1","5","4","4","1","4","3","2","4","5","4","2","720327574219128832","赵","445","","","","","","","","","","","","","","","","","","","","","","","","","","","","","","","","","","","","","","","","","",""
"733","<p style=""color:rgb(150, 250, 100); font-size: 35px;"">他人</p>","i","categorize-html","92","140582","0.0-6.0-1.0-6.0-1.16","3","4","3","3","3","4","3","2","4","4","5","4","4","4","5","5","4","4","4","4","5","4","4","4","4","4","4","5","4","1","0","1","1","0","0","0","0","0","1","1","0","0","0","1","5","4","4","1","4","3","2","4","5","4","2","720327574219128832","赵","445","","","","","","","","","","","","","","","","","","","true","13","3","moral","733","other","他人","","","","","","","","","","","","","","","","",""
"null","","null","html-keyboard-response","93","140833","0.0-6.0-1.0-6.0-0.17","3","4","3","3","3","4","3","2","4","4","5","4","4","4","5","5","4","4","4","4","5","4","4","4","4","4","4","5","4","1","0","1","1","0","0","0","0","0","1","1","0","0","0","1","5","4","4","1","4","3","2","4","5","4","2","720327574219128832","赵","445","","","","","","","","","","","","","","","","","","","","","","","","","","","","","","","","","","","","","","","","","",""
"600","<p style=""color:white; font-size: 35px;"">黑心</p>","i","categorize-html","94","141435","0.0-6.0-1.0-6.0-1.17","3","4","3","3","3","4","3","2","4","4","5","4","4","4","5","5","4","4","4","4","5","4","4","4","4","4","4","5","4","1","0","1","1","0","0","0","0","0","1","1","0","0","0","1","5","4","4","1","4","3","2","4","5","4","2","720327574219128832","赵","445","","","","","","","","","","","","","","","","","","","true","13","3","moral","600","negative","黑心","","","","","","","","","","","","","","","","",""
"null","","null","html-keyboard-response","95","141687","0.0-6.0-1.0-6.0-0.18","3","4","3","3","3","4","3","2","4","4","5","4","4","4","5","5","4","4","4","4","5","4","4","4","4","4","4","5","4","1","0","1","1","0","0","0","0","0","1","1","0","0","0","1","5","4","4","1","4","3","2","4","5","4","2","720327574219128832","赵","445","","","","","","","","","","","","","","","","","","","","","","","","","","","","","","","","","","","","","","","","","",""
"679","<p style=""color:rgb(150, 250, 100); font-size: 35px;"">本人</p>","e","categorize-html","96","142368","0.0-6.0-1.0-6.0-1.18","3","4","3","3","3","4","3","2","4","4","5","4","4","4","5","5","4","4","4","4","5","4","4","4","4","4","4","5","4","1","0","1","1","0","0","0","0","0","1","1","0","0","0","1","5","4","4","1","4","3","2","4","5","4","2","720327574219128832","赵","445","","","","","","","","","","","","","","","","","","","true","13","3","moral","679","self","本人","","","","","","","","","","","","","","","","",""
"null","","null","html-keyboard-response","97","142619","0.0-6.0-1.0-6.0-0.19","3","4","3","3","3","4","3","2","4","4","5","4","4","4","5","5","4","4","4","4","5","4","4","4","4","4","4","5","4","1","0","1","1","0","0","0","0","0","1","1","0","0","0","1","5","4","4","1","4","3","2","4","5","4","2","720327574219128832","赵","445","","","","","","","","","","","","","","","","","","","","","","","","","","","","","","","","","","","","","","","","","",""
"662","<p style=""color:white; font-size: 35px;"">正直</p>","e","categorize-html","98","143283","0.0-6.0-1.0-6.0-1.19","3","4","3","3","3","4","3","2","4","4","5","4","4","4","5","5","4","4","4","4","5","4","4","4","4","4","4","5","4","1","0","1","1","0","0","0","0","0","1","1","0","0","0","1","5","4","4","1","4","3","2","4","5","4","2","720327574219128832","赵","445","","","","","","","","","","","","","","","","","","","true","13","3","moral","662","positive","正直","","","","","","","","","","","","","","","","",""
"null","","null","html-keyboard-response","99","143534","0.0-6.0-1.0-6.0-0.20","3","4","3","3","3","4","3","2","4","4","5","4","4","4","5","5","4","4","4","4","5","4","4","4","4","4","4","5","4","1","0","1","1","0","0","0","0","0","1","1","0","0","0","1","5","4","4","1","4","3","2","4","5","4","2","720327574219128832","赵","445","","","","","","","","","","","","","","","","","","","","","","","","","","","","","","","","","","","","","","","","","",""
"601","<p style=""color:rgb(150, 250, 100); font-size: 35px;"">他的</p>","i","categorize-html","100","144137","0.0-6.0-1.0-6.0-1.20","3","4","3","3","3","4","3","2","4","4","5","4","4","4","5","5","4","4","4","4","5","4","4","4","4","4","4","5","4","1","0","1","1","0","0","0","0","0","1","1","0","0","0","1","5","4","4","1","4","3","2","4","5","4","2","720327574219128832","赵","445","","","","","","","","","","","","","","","","","","","true","13","3","moral","601","other","他的","","","","","","","","","","","","","","","","",""
"null","","null","html-keyboard-response","101","144389","0.0-6.0-1.0-6.0-0.21","3","4","3","3","3","4","3","2","4","4","5","4","4","4","5","5","4","4","4","4","5","4","4","4","4","4","4","5","4","1","0","1","1","0","0","0","0","0","1","1","0","0","0","1","5","4","4","1","4","3","2","4","5","4","2","720327574219128832","赵","445","","","","","","","","","","","","","","","","","","","","","","","","","","","","","","","","","","","","","","","","","",""
"1094","<p style=""color:white; font-size: 35px;"">君子</p>","e","categorize-html","102","145484","0.0-6.0-1.0-6.0-1.21","3","4","3","3","3","4","3","2","4","4","5","4","4","4","5","5","4","4","4","4","5","4","4","4","4","4","4","5","4","1","0","1","1","0","0","0","0","0","1","1","0","0","0","1","5","4","4","1","4","3","2","4","5","4","2","720327574219128832","赵","445","","","","","","","","","","","","","","","","","","","true","13","3","moral","1094","positive","君子","","","","","","","","","","","","","","","","",""
"null","","null","html-keyboard-response","103","145736","0.0-6.0-1.0-6.0-0.22","3","4","3","3","3","4","3","2","4","4","5","4","4","4","5","5","4","4","4","4","5","4","4","4","4","4","4","5","4","1","0","1","1","0","0","0","0","0","1","1","0","0","0","1","5","4","4","1","4","3","2","4","5","4","2","720327574219128832","赵","445","","","","","","","","","","","","","","","","","","","","","","","","","","","","","","","","","","","","","","","","","",""
"736","<p style=""color:rgb(150, 250, 100); font-size: 35px;"">自己</p>","e","categorize-html","104","146474","0.0-6.0-1.0-6.0-1.22","3","4","3","3","3","4","3","2","4","4","5","4","4","4","5","5","4","4","4","4","5","4","4","4","4","4","4","5","4","1","0","1","1","0","0","0","0","0","1","1","0","0","0","1","5","4","4","1","4","3","2","4","5","4","2","720327574219128832","赵","445","","","","","","","","","","","","","","","","","","","true","13","3","moral","736","self","自己","","","","","","","","","","","","","","","","",""
"null","","null","html-keyboard-response","105","146725","0.0-6.0-1.0-6.0-0.23","3","4","3","3","3","4","3","2","4","4","5","4","4","4","5","5","4","4","4","4","5","4","4","4","4","4","4","5","4","1","0","1","1","0","0","0","0","0","1","1","0","0","0","1","5","4","4","1","4","3","2","4","5","4","2","720327574219128832","赵","445","","","","","","","","","","","","","","","","","","","","","","","","","","","","","","","","","","","","","","","","","",""
"549","<p style=""color:white; font-size: 35px;"">卑鄙</p>","i","categorize-html","106","147276","0.0-6.0-1.0-6.0-1.23","3","4","3","3","3","4","3","2","4","4","5","4","4","4","5","5","4","4","4","4","5","4","4","4","4","4","4","5","4","1","0","1","1","0","0","0","0","0","1","1","0","0","0","1","5","4","4","1","4","3","2","4","5","4","2","720327574219128832","赵","445","","","","","","","","","","","","","","","","","","","true","13","3","moral","549","negative","卑鄙","","","","","","","","","","","","","","","","",""
"11491","
    <div class=""tag-bottom""><p>
    —— 任务4：对“自我/积极”词和“他人/消极”词分类 ——<p/>
    <span style=""color:#78DCE8""><b>与刚才的任务完全相同，请再次对这四类词语分类</b></span><p/>
    <span style=""color:#FFD866""><b>请根据上方标签的提示，尽可能正确并且快速地做出按键反应</b></span><p/>
    当按键错误时屏幕中会出现<span style=""color:red""> X </span>，需要按另一个键纠正才能继续<br/><p/>
    请把双手食指分别放在键盘的“E”键和“I”键上<p/>
    按<空格键>开始
    </p></div>"," ","html-keyboard-response","107","158767","0.0-6.0-1.0-7.0","3","4","3","3","3","4","3","2","4","4","5","4","4","4","5","5","4","4","4","4","5","4","4","4","4","4","4","5","4","1","0","1","1","0","0","0","0","0","1","1","0","0","0","1","5","4","4","1","4","3","2","4","5","4","2","720327574219128832","赵","445","","","","","","","","","","","","","","","","","","","","","","","","","","","","","","","","","","","","","","","","","",""
"null","","null","html-keyboard-response","108","159019","0.0-6.0-1.0-8.0-0.0","3","4","3","3","3","4","3","2","4","4","5","4","4","4","5","5","4","4","4","4","5","4","4","4","4","4","4","5","4","1","0","1","1","0","0","0","0","0","1","1","0","0","0","1","5","4","4","1","4","3","2","4","5","4","2","720327574219128832","赵","445","","","","","","","","","","","","","","","","","","","","","","","","","","","","","","","","","","","","","","","","","",""
"695","<p style=""color:rgb(150, 250, 100); font-size: 35px;"">别人</p>","i","categorize-html","109","159716","0.0-6.0-1.0-8.0-1.0","3","4","3","3","3","4","3","2","4","4","5","4","4","4","5","5","4","4","4","4","5","4","4","4","4","4","4","5","4","1","0","1","1","0","0","0","0","0","1","1","0","0","0","1","5","4","4","1","4","3","2","4","5","4","2","720327574219128832","赵","445","","","","","","","","","","","","","","","","","","","true","14","4","moral","695","other","别人","","","","","","","","","","","","","","","","",""
"null","","null","html-keyboard-response","110","159967","0.0-6.0-1.0-8.0-0.1","3","4","3","3","3","4","3","2","4","4","5","4","4","4","5","5","4","4","4","4","5","4","4","4","4","4","4","5","4","1","0","1","1","0","0","0","0","0","1","1","0","0","0","1","5","4","4","1","4","3","2","4","5","4","2","720327574219128832","赵","445","","","","","","","","","","","","","","","","","","","","","","","","","","","","","","","","","","","","","","","","","",""
"782","<p style=""color:white; font-size: 35px;"">正直</p>","e","categorize-html","111","160752","0.0-6.0-1.0-8.0-1.1","3","4","3","3","3","4","3","2","4","4","5","4","4","4","5","5","4","4","4","4","5","4","4","4","4","4","4","5","4","1","0","1","1","0","0","0","0","0","1","1","0","0","0","1","5","4","4","1","4","3","2","4","5","4","2","720327574219128832","赵","445","","","","","","","","","","","","","","","","","","","true","14","4","moral","782","positive","正直","","","","","","","","","","","","","","","","",""
"null","","null","html-keyboard-response","112","161003","0.0-6.0-1.0-8.0-0.2","3","4","3","3","3","4","3","2","4","4","5","4","4","4","5","5","4","4","4","4","5","4","4","4","4","4","4","5","4","1","0","1","1","0","0","0","0","0","1","1","0","0","0","1","5","4","4","1","4","3","2","4","5","4","2","720327574219128832","赵","445","","","","","","","","","","","","","","","","","","","","","","","","","","","","","","","","","","","","","","","","","",""
"1326","<p style=""color:rgb(150, 250, 100); font-size: 35px;"">本人的</p>","e","categorize-html","113","162330","0.0-6.0-1.0-8.0-1.2","3","4","3","3","3","4","3","2","4","4","5","4","4","4","5","5","4","4","4","4","5","4","4","4","4","4","4","5","4","1","0","1","1","0","0","0","0","0","1","1","0","0","0","1","5","4","4","1","4","3","2","4","5","4","2","720327574219128832","赵","445","","","","","","","","","","","","","","","","","","","true","14","4","moral","1326","self","本人的","","","","","","","","","","","","","","","","",""
"null","","null","html-keyboard-response","114","162581","0.0-6.0-1.0-8.0-0.3","3","4","3","3","3","4","3","2","4","4","5","4","4","4","5","5","4","4","4","4","5","4","4","4","4","4","4","5","4","1","0","1","1","0","0","0","0","0","1","1","0","0","0","1","5","4","4","1","4","3","2","4","5","4","2","720327574219128832","赵","445","","","","","","","","","","","","","","","","","","","","","","","","","","","","","","","","","","","","","","","","","",""
"1372","<p style=""color:white; font-size: 35px;"">卑鄙</p>","i","categorize-html","115","163956","0.0-6.0-1.0-8.0-1.3","3","4","3","3","3","4","3","2","4","4","5","4","4","4","5","5","4","4","4","4","5","4","4","4","4","4","4","5","4","1","0","1","1","0","0","0","0","0","1","1","0","0","0","1","5","4","4","1","4","3","2","4","5","4","2","720327574219128832","赵","445","","","","","","","","","","","","","","","","","","","true","14","4","moral","1372","negative","卑鄙","","","","","","","","","","","","","","","","",""
"null","","null","html-keyboard-response","116","164207","0.0-6.0-1.0-8.0-0.4","3","4","3","3","3","4","3","2","4","4","5","4","4","4","5","5","4","4","4","4","5","4","4","4","4","4","4","5","4","1","0","1","1","0","0","0","0","0","1","1","0","0","0","1","5","4","4","1","4","3","2","4","5","4","2","720327574219128832","赵","445","","","","","","","","","","","","","","","","","","","","","","","","","","","","","","","","","","","","","","","","","",""
"1705","<p style=""color:rgb(150, 250, 100); font-size: 35px;"">本人</p>","e","categorize-html","117","165914","0.0-6.0-1.0-8.0-1.4","3","4","3","3","3","4","3","2","4","4","5","4","4","4","5","5","4","4","4","4","5","4","4","4","4","4","4","5","4","1","0","1","1","0","0","0","0","0","1","1","0","0","0","1","5","4","4","1","4","3","2","4","5","4","2","720327574219128832","赵","445","","","","","","","","","","","","","","","","","","","true","14","4","moral","1705","self","本人","","","","","","","","","","","","","","","","",""
"null","","null","html-keyboard-response","118","166166","0.0-6.0-1.0-8.0-0.5","3","4","3","3","3","4","3","2","4","4","5","4","4","4","5","5","4","4","4","4","5","4","4","4","4","4","4","5","4","1","0","1","1","0","0","0","0","0","1","1","0","0","0","1","5","4","4","1","4","3","2","4","5","4","2","720327574219128832","赵","445","","","","","","","","","","","","","","","","","","","","","","","","","","","","","","","","","","","","","","","","","",""
"1476","<p style=""color:white; font-size: 35px;"">诚信</p>","e","categorize-html","119","167644","0.0-6.0-1.0-8.0-1.5","3","4","3","3","3","4","3","2","4","4","5","4","4","4","5","5","4","4","4","4","5","4","4","4","4","4","4","5","4","1","0","1","1","0","0","0","0","0","1","1","0","0","0","1","5","4","4","1","4","3","2","4","5","4","2","720327574219128832","赵","445","","","","","","","","","","","","","","","","","","","true","14","4","moral","1476","positive","诚信","","","","","","","","","","","","","","","","",""
"null","","null","html-keyboard-response","120","167896","0.0-6.0-1.0-8.0-0.6","3","4","3","3","3","4","3","2","4","4","5","4","4","4","5","5","4","4","4","4","5","4","4","4","4","4","4","5","4","1","0","1","1","0","0","0","0","0","1","1","0","0","0","1","5","4","4","1","4","3","2","4","5","4","2","720327574219128832","赵","445","","","","","","","","","","","","","","","","","","","","","","","","","","","","","","","","","","","","","","","","","",""
"1359","<p style=""color:rgb(150, 250, 100); font-size: 35px;"">他</p>","i","categorize-html","121","169257","0.0-6.0-1.0-8.0-1.6","3","4","3","3","3","4","3","2","4","4","5","4","4","4","5","5","4","4","4","4","5","4","4","4","4","4","4","5","4","1","0","1","1","0","0","0","0","0","1","1","0","0","0","1","5","4","4","1","4","3","2","4","5","4","2","720327574219128832","赵","445","","","","","","","","","","","","","","","","","","","true","14","4","moral","1359","other","他","","","","","","","","","","","","","","","","",""
"null","","null","html-keyboard-response","122","169512","0.0-6.0-1.0-8.0-0.7","3","4","3","3","3","4","3","2","4","4","5","4","4","4","5","5","4","4","4","4","5","4","4","4","4","4","4","5","4","1","0","1","1","0","0","0","0","0","1","1","0","0","0","1","5","4","4","1","4","3","2","4","5","4","2","720327574219128832","赵","445","","","","","","","","","","","","","","","","","","","","","","","","","","","","","","","","","","","","","","","","","",""
"1156","<p style=""color:white; font-size: 35px;"">缺德</p>","i","categorize-html","123","170670","0.0-6.0-1.0-8.0-1.7","3","4","3","3","3","4","3","2","4","4","5","4","4","4","5","5","4","4","4","4","5","4","4","4","4","4","4","5","4","1","0","1","1","0","0","0","0","0","1","1","0","0","0","1","5","4","4","1","4","3","2","4","5","4","2","720327574219128832","赵","445","","","","","","","","","","","","","","","","","","","true","14","4","moral","1156","negative","缺德","","","","","","","","","","","","","","","","",""
"null","","null","html-keyboard-response","124","170922","0.0-6.0-1.0-8.0-0.8","3","4","3","3","3","4","3","2","4","4","5","4","4","4","5","5","4","4","4","4","5","4","4","4","4","4","4","5","4","1","0","1","1","0","0","0","0","0","1","1","0","0","0","1","5","4","4","1","4","3","2","4","5","4","2","720327574219128832","赵","445","","","","","","","","","","","","","","","","","","","","","","","","","","","","","","","","","","","","","","","","","",""
"1202","<p style=""color:rgb(150, 250, 100); font-size: 35px;"">别人的</p>","i","categorize-html","125","172126","0.0-6.0-1.0-8.0-1.8","3","4","3","3","3","4","3","2","4","4","5","4","4","4","5","5","4","4","4","4","5","4","4","4","4","4","4","5","4","1","0","1","1","0","0","0","0","0","1","1","0","0","0","1","5","4","4","1","4","3","2","4","5","4","2","720327574219128832","赵","445","","","","","","","","","","","","","","","","","","","true","14","4","moral","1202","other","别人的","","","","","","","","","","","","","","","","",""
"null","","null","html-keyboard-response","126","172379","0.0-6.0-1.0-8.0-0.9","3","4","3","3","3","4","3","2","4","4","5","4","4","4","5","5","4","4","4","4","5","4","4","4","4","4","4","5","4","1","0","1","1","0","0","0","0","0","1","1","0","0","0","1","5","4","4","1","4","3","2","4","5","4","2","720327574219128832","赵","445","","","","","","","","","","","","","","","","","","","","","","","","","","","","","","","","","","","","","","","","","",""
"1015","<p style=""color:white; font-size: 35px;"">黑心</p>","i","categorize-html","127","173396","0.0-6.0-1.0-8.0-1.9","3","4","3","3","3","4","3","2","4","4","5","4","4","4","5","5","4","4","4","4","5","4","4","4","4","4","4","5","4","1","0","1","1","0","0","0","0","0","1","1","0","0","0","1","5","4","4","1","4","3","2","4","5","4","2","720327574219128832","赵","445","","","","","","","","","","","","","","","","","","","true","14","4","moral","1015","negative","黑心","","","","","","","","","","","","","","","","",""
"null","","null","html-keyboard-response","128","173648","0.0-6.0-1.0-8.0-0.10","3","4","3","3","3","4","3","2","4","4","5","4","4","4","5","5","4","4","4","4","5","4","4","4","4","4","4","5","4","1","0","1","1","0","0","0","0","0","1","1","0","0","0","1","5","4","4","1","4","3","2","4","5","4","2","720327574219128832","赵","445","","","","","","","","","","","","","","","","","","","","","","","","","","","","","","","","","","","","","","","","","",""
"1026","<p style=""color:rgb(150, 250, 100); font-size: 35px;"">自己的</p>","e","categorize-html","129","174677","0.0-6.0-1.0-8.0-1.10","3","4","3","3","3","4","3","2","4","4","5","4","4","4","5","5","4","4","4","4","5","4","4","4","4","4","4","5","4","1","0","1","1","0","0","0","0","0","1","1","0","0","0","1","5","4","4","1","4","3","2","4","5","4","2","720327574219128832","赵","445","","","","","","","","","","","","","","","","","","","true","14","4","moral","1026","self","自己的","","","","","","","","","","","","","","","","",""
"null","","null","html-keyboard-response","130","174929","0.0-6.0-1.0-8.0-0.11","3","4","3","3","3","4","3","2","4","4","5","4","4","4","5","5","4","4","4","4","5","4","4","4","4","4","4","5","4","1","0","1","1","0","0","0","0","0","1","1","0","0","0","1","5","4","4","1","4","3","2","4","5","4","2","720327574219128832","赵","445","","","","","","","","","","","","","","","","","","","","","","","","","","","","","","","","","","","","","","","","","",""
"1296","<p style=""color:white; font-size: 35px;"">君子</p>","e","categorize-html","131","176227","0.0-6.0-1.0-8.0-1.11","3","4","3","3","3","4","3","2","4","4","5","4","4","4","5","5","4","4","4","4","5","4","4","4","4","4","4","5","4","1","0","1","1","0","0","0","0","0","1","1","0","0","0","1","5","4","4","1","4","3","2","4","5","4","2","720327574219128832","赵","445","","","","","","","","","","","","","","","","","","","true","14","4","moral","1296","positive","君子","","","","","","","","","","","","","","","","",""
"null","","null","html-keyboard-response","132","176484","0.0-6.0-1.0-8.0-0.12","3","4","3","3","3","4","3","2","4","4","5","4","4","4","5","5","4","4","4","4","5","4","4","4","4","4","4","5","4","1","0","1","1","0","0","0","0","0","1","1","0","0","0","1","5","4","4","1","4","3","2","4","5","4","2","720327574219128832","赵","445","","","","","","","","","","","","","","","","","","","","","","","","","","","","","","","","","","","","","","","","","",""
"1173","<p style=""color:rgb(150, 250, 100); font-size: 35px;"">我的</p>","e","categorize-html","133","177659","0.0-6.0-1.0-8.0-1.12","3","4","3","3","3","4","3","2","4","4","5","4","4","4","5","5","4","4","4","4","5","4","4","4","4","4","4","5","4","1","0","1","1","0","0","0","0","0","1","1","0","0","0","1","5","4","4","1","4","3","2","4","5","4","2","720327574219128832","赵","445","","","","","","","","","","","","","","","","","","","true","14","4","moral","1173","self","我的","","","","","","","","","","","","","","","","",""
"null","","null","html-keyboard-response","134","177910","0.0-6.0-1.0-8.0-0.13","3","4","3","3","3","4","3","2","4","4","5","4","4","4","5","5","4","4","4","4","5","4","4","4","4","4","4","5","4","1","0","1","1","0","0","0","0","0","1","1","0","0","0","1","5","4","4","1","4","3","2","4","5","4","2","720327574219128832","赵","445","","","","","","","","","","","","","","","","","","","","","","","","","","","","","","","","","","","","","","","","","",""
"889","<p style=""color:white; font-size: 35px;"">不仁</p>","i","categorize-html","135","178801","0.0-6.0-1.0-8.0-1.13","3","4","3","3","3","4","3","2","4","4","5","4","4","4","5","5","4","4","4","4","5","4","4","4","4","4","4","5","4","1","0","1","1","0","0","0","0","0","1","1","0","0","0","1","5","4","4","1","4","3","2","4","5","4","2","720327574219128832","赵","445","","","","","","","","","","","","","","","","","","","true","14","4","moral","889","negative","不仁","","","","","","","","","","","","","","","","",""
"null","","null","html-keyboard-response","136","179053","0.0-6.0-1.0-8.0-0.14","3","4","3","3","3","4","3","2","4","4","5","4","4","4","5","5","4","4","4","4","5","4","4","4","4","4","4","5","4","1","0","1","1","0","0","0","0","0","1","1","0","0","0","1","5","4","4","1","4","3","2","4","5","4","2","720327574219128832","赵","445","","","","","","","","","","","","","","","","","","","","","","","","","","","","","","","","","","","","","","","","","",""
"952","<p style=""color:rgb(150, 250, 100); font-size: 35px;"">他</p>","i","categorize-html","137","180007","0.0-6.0-1.0-8.0-1.14","3","4","3","3","3","4","3","2","4","4","5","4","4","4","5","5","4","4","4","4","5","4","4","4","4","4","4","5","4","1","0","1","1","0","0","0","0","0","1","1","0","0","0","1","5","4","4","1","4","3","2","4","5","4","2","720327574219128832","赵","445","","","","","","","","","","","","","","","","","","","true","14","4","moral","952","other","他","","","","","","","","","","","","","","","","",""
"null","","null","html-keyboard-response","138","180259","0.0-6.0-1.0-8.0-0.15","3","4","3","3","3","4","3","2","4","4","5","4","4","4","5","5","4","4","4","4","5","4","4","4","4","4","4","5","4","1","0","1","1","0","0","0","0","0","1","1","0","0","0","1","5","4","4","1","4","3","2","4","5","4","2","720327574219128832","赵","445","","","","","","","","","","","","","","","","","","","","","","","","","","","","","","","","","","","","","","","","","",""
"837","<p style=""color:white; font-size: 35px;"">诚信</p>","e","categorize-html","139","181098","0.0-6.0-1.0-8.0-1.15","3","4","3","3","3","4","3","2","4","4","5","4","4","4","5","5","4","4","4","4","5","4","4","4","4","4","4","5","4","1","0","1","1","0","0","0","0","0","1","1","0","0","0","1","5","4","4","1","4","3","2","4","5","4","2","720327574219128832","赵","445","","","","","","","","","","","","","","","","","","","true","14","4","moral","837","positive","诚信","","","","","","","","","","","","","","","","",""
"null","","null","html-keyboard-response","140","181349","0.0-6.0-1.0-8.0-0.16","3","4","3","3","3","4","3","2","4","4","5","4","4","4","5","5","4","4","4","4","5","4","4","4","4","4","4","5","4","1","0","1","1","0","0","0","0","0","1","1","0","0","0","1","5","4","4","1","4","3","2","4","5","4","2","720327574219128832","赵","445","","","","","","","","","","","","","","","","","","","","","","","","","","","","","","","","","","","","","","","","","",""
"1031","<p style=""color:rgb(150, 250, 100); font-size: 35px;"">自己</p>","e","categorize-html","141","182383","0.0-6.0-1.0-8.0-1.16","3","4","3","3","3","4","3","2","4","4","5","4","4","4","5","5","4","4","4","4","5","4","4","4","4","4","4","5","4","1","0","1","1","0","0","0","0","0","1","1","0","0","0","1","5","4","4","1","4","3","2","4","5","4","2","720327574219128832","赵","445","","","","","","","","","","","","","","","","","","","true","14","4","moral","1031","self","自己","","","","","","","","","","","","","","","","",""
"null","","null","html-keyboard-response","142","182634","0.0-6.0-1.0-8.0-0.17","3","4","3","3","3","4","3","2","4","4","5","4","4","4","5","5","4","4","4","4","5","4","4","4","4","4","4","5","4","1","0","1","1","0","0","0","0","0","1","1","0","0","0","1","5","4","4","1","4","3","2","4","5","4","2","720327574219128832","赵","445","","","","","","","","","","","","","","","","","","","","","","","","","","","","","","","","","","","","","","","","","",""
"1516","<p style=""color:white; font-size: 35px;"">廉正</p>","e","categorize-html","143","184153","0.0-6.0-1.0-8.0-1.17","3","4","3","3","3","4","3","2","4","4","5","4","4","4","5","5","4","4","4","4","5","4","4","4","4","4","4","5","4","1","0","1","1","0","0","0","0","0","1","1","0","0","0","1","5","4","4","1","4","3","2","4","5","4","2","720327574219128832","赵","445","","","","","","","","","","","","","","","","","","","true","14","4","moral","1516","positive","廉正","","","","","","","","","","","","","","","","",""
"null","","null","html-keyboard-response","144","184403","0.0-6.0-1.0-8.0-0.18","3","4","3","3","3","4","3","2","4","4","5","4","4","4","5","5","4","4","4","4","5","4","4","4","4","4","4","5","4","1","0","1","1","0","0","0","0","0","1","1","0","0","0","1","5","4","4","1","4","3","2","4","5","4","2","720327574219128832","赵","445","","","","","","","","","","","","","","","","","","","","","","","","","","","","","","","","","","","","","","","","","",""
"889","<p style=""color:rgb(150, 250, 100); font-size: 35px;"">他人</p>","i","categorize-html","145","185295","0.0-6.0-1.0-8.0-1.18","3","4","3","3","3","4","3","2","4","4","5","4","4","4","5","5","4","4","4","4","5","4","4","4","4","4","4","5","4","1","0","1","1","0","0","0","0","0","1","1","0","0","0","1","5","4","4","1","4","3","2","4","5","4","2","720327574219128832","赵","445","","","","","","","","","","","","","","","","","","","true","14","4","moral","889","other","他人","","","","","","","","","","","","","","","","",""
"null","","null","html-keyboard-response","146","185546","0.0-6.0-1.0-8.0-0.19","3","4","3","3","3","4","3","2","4","4","5","4","4","4","5","5","4","4","4","4","5","4","4","4","4","4","4","5","4","1","0","1","1","0","0","0","0","0","1","1","0","0","0","1","5","4","4","1","4","3","2","4","5","4","2","720327574219128832","赵","445","","","","","","","","","","","","","","","","","","","","","","","","","","","","","","","","","","","","","","","","","",""
"973","<p style=""color:white; font-size: 35px;"">不孝</p>","i","categorize-html","147","186522","0.0-6.0-1.0-8.0-1.19","3","4","3","3","3","4","3","2","4","4","5","4","4","4","5","5","4","4","4","4","5","4","4","4","4","4","4","5","4","1","0","1","1","0","0","0","0","0","1","1","0","0","0","1","5","4","4","1","4","3","2","4","5","4","2","720327574219128832","赵","445","","","","","","","","","","","","","","","","","","","true","14","4","moral","973","negative","不孝","","","","","","","","","","","","","","","","",""
"null","","null","html-keyboard-response","148","186773","0.0-6.0-1.0-8.0-0.20","3","4","3","3","3","4","3","2","4","4","5","4","4","4","5","5","4","4","4","4","5","4","4","4","4","4","4","5","4","1","0","1","1","0","0","0","0","0","1","1","0","0","0","1","5","4","4","1","4","3","2","4","5","4","2","720327574219128832","赵","445","","","","","","","","","","","","","","","","","","","","","","","","","","","","","","","","","","","","","","","","","",""
"1072","<p style=""color:rgb(150, 250, 100); font-size: 35px;"">我</p>","e","categorize-html","149","187847","0.0-6.0-1.0-8.0-1.20","3","4","3","3","3","4","3","2","4","4","5","4","4","4","5","5","4","4","4","4","5","4","4","4","4","4","4","5","4","1","0","1","1","0","0","0","0","0","1","1","0","0","0","1","5","4","4","1","4","3","2","4","5","4","2","720327574219128832","赵","445","","","","","","","","","","","","","","","","","","","true","14","4","moral","1072","self","我","","","","","","","","","","","","","","","","",""
"null","","null","html-keyboard-response","150","188098","0.0-6.0-1.0-8.0-0.21","3","4","3","3","3","4","3","2","4","4","5","4","4","4","5","5","4","4","4","4","5","4","4","4","4","4","4","5","4","1","0","1","1","0","0","0","0","0","1","1","0","0","0","1","5","4","4","1","4","3","2","4","5","4","2","720327574219128832","赵","445","","","","","","","","","","","","","","","","","","","","","","","","","","","","","","","","","","","","","","","","","",""
"801","<p style=""color:white; font-size: 35px;"">黑心</p>","i","categorize-html","151","188902","0.0-6.0-1.0-8.0-1.21","3","4","3","3","3","4","3","2","4","4","5","4","4","4","5","5","4","4","4","4","5","4","4","4","4","4","4","5","4","1","0","1","1","0","0","0","0","0","1","1","0","0","0","1","5","4","4","1","4","3","2","4","5","4","2","720327574219128832","赵","445","","","","","","","","","","","","","","","","","","","true","14","4","moral","801","negative","黑心","","","","","","","","","","","","","","","","",""
"null","","null","html-keyboard-response","152","189154","0.0-6.0-1.0-8.0-0.22","3","4","3","3","3","4","3","2","4","4","5","4","4","4","5","5","4","4","4","4","5","4","4","4","4","4","4","5","4","1","0","1","1","0","0","0","0","0","1","1","0","0","0","1","5","4","4","1","4","3","2","4","5","4","2","720327574219128832","赵","445","","","","","","","","","","","","","","","","","","","","","","","","","","","","","","","","","","","","","","","","","",""
"1073","<p style=""color:rgb(150, 250, 100); font-size: 35px;"">他的</p>","i","categorize-html","153","190229","0.0-6.0-1.0-8.0-1.22","3","4","3","3","3","4","3","2","4","4","5","4","4","4","5","5","4","4","4","4","5","4","4","4","4","4","4","5","4","1","0","1","1","0","0","0","0","0","1","1","0","0","0","1","5","4","4","1","4","3","2","4","5","4","2","720327574219128832","赵","445","","","","","","","","","","","","","","","","","","","true","14","4","moral","1073","other","他的","","","","","","","","","","","","","","","","",""
"null","","null","html-keyboard-response","154","190480","0.0-6.0-1.0-8.0-0.23","3","4","3","3","3","4","3","2","4","4","5","4","4","4","5","5","4","4","4","4","5","4","4","4","4","4","4","5","4","1","0","1","1","0","0","0","0","0","1","1","0","0","0","1","5","4","4","1","4","3","2","4","5","4","2","720327574219128832","赵","445","","","","","","","","","","","","","","","","","","","","","","","","","","","","","","","","","","","","","","","","","",""
"989","<p style=""color:white; font-size: 35px;"">高尚</p>","e","categorize-html","155","191472","0.0-6.0-1.0-8.0-1.23","3","4","3","3","3","4","3","2","4","4","5","4","4","4","5","5","4","4","4","4","5","4","4","4","4","4","4","5","4","1","0","1","1","0","0","0","0","0","1","1","0","0","0","1","5","4","4","1","4","3","2","4","5","4","2","720327574219128832","赵","445","","","","","","","","","","","","","","","","","","","true","14","4","moral","989","positive","高尚","","","","","","","","","","","","","","","","",""
"null","","null","html-keyboard-response","156","191724","0.0-6.0-1.0-8.0-0.24","3","4","3","3","3","4","3","2","4","4","5","4","4","4","5","5","4","4","4","4","5","4","4","4","4","4","4","5","4","1","0","1","1","0","0","0","0","0","1","1","0","0","0","1","5","4","4","1","4","3","2","4","5","4","2","720327574219128832","赵","445","","","","","","","","","","","","","","","","","","","","","","","","","","","","","","","","","","","","","","","","","",""
"1019","<p style=""color:rgb(150, 250, 100); font-size: 35px;"">本人的</p>","e","categorize-html","157","192746","0.0-6.0-1.0-8.0-1.24","3","4","3","3","3","4","3","2","4","4","5","4","4","4","5","5","4","4","4","4","5","4","4","4","4","4","4","5","4","1","0","1","1","0","0","0","0","0","1","1","0","0","0","1","5","4","4","1","4","3","2","4","5","4","2","720327574219128832","赵","445","","","","","","","","","","","","","","","","","","","true","14","4","moral","1019","self","本人的","","","","","","","","","","","","","","","","",""
"null","","null","html-keyboard-response","158","192997","0.0-6.0-1.0-8.0-0.25","3","4","3","3","3","4","3","2","4","4","5","4","4","4","5","5","4","4","4","4","5","4","4","4","4","4","4","5","4","1","0","1","1","0","0","0","0","0","1","1","0","0","0","1","5","4","4","1","4","3","2","4","5","4","2","720327574219128832","赵","445","","","","","","","","","","","","","","","","","","","","","","","","","","","","","","","","","","","","","","","","","",""
"791","<p style=""color:white; font-size: 35px;"">不仁</p>","i","categorize-html","159","193791","0.0-6.0-1.0-8.0-1.25","3","4","3","3","3","4","3","2","4","4","5","4","4","4","5","5","4","4","4","4","5","4","4","4","4","4","4","5","4","1","0","1","1","0","0","0","0","0","1","1","0","0","0","1","5","4","4","1","4","3","2","4","5","4","2","720327574219128832","赵","445","","","","","","","","","","","","","","","","","","","true","14","4","moral","791","negative","不仁","","","","","","","","","","","","","","","","",""
"null","","null","html-keyboard-response","160","194042","0.0-6.0-1.0-8.0-0.26","3","4","3","3","3","4","3","2","4","4","5","4","4","4","5","5","4","4","4","4","5","4","4","4","4","4","4","5","4","1","0","1","1","0","0","0","0","0","1","1","0","0","0","1","5","4","4","1","4","3","2","4","5","4","2","720327574219128832","赵","445","","","","","","","","","","","","","","","","","","","","","","","","","","","","","","","","","","","","","","","","","",""
"997","<p style=""color:rgb(150, 250, 100); font-size: 35px;"">别人的</p>","i","categorize-html","161","195041","0.0-6.0-1.0-8.0-1.26","3","4","3","3","3","4","3","2","4","4","5","4","4","4","5","5","4","4","4","4","5","4","4","4","4","4","4","5","4","1","0","1","1","0","0","0","0","0","1","1","0","0","0","1","5","4","4","1","4","3","2","4","5","4","2","720327574219128832","赵","445","","","","","","","","","","","","","","","","","","","true","14","4","moral","997","other","别人的","","","","","","","","","","","","","","","","",""
"null","","null","html-keyboard-response","162","195293","0.0-6.0-1.0-8.0-0.27","3","4","3","3","3","4","3","2","4","4","5","4","4","4","5","5","4","4","4","4","5","4","4","4","4","4","4","5","4","1","0","1","1","0","0","0","0","0","1","1","0","0","0","1","5","4","4","1","4","3","2","4","5","4","2","720327574219128832","赵","445","","","","","","","","","","","","","","","","","","","","","","","","","","","","","","","","","","","","","","","","","",""
"928","<p style=""color:white; font-size: 35px;"">廉正</p>","e","categorize-html","163","196223","0.0-6.0-1.0-8.0-1.27","3","4","3","3","3","4","3","2","4","4","5","4","4","4","5","5","4","4","4","4","5","4","4","4","4","4","4","5","4","1","0","1","1","0","0","0","0","0","1","1","0","0","0","1","5","4","4","1","4","3","2","4","5","4","2","720327574219128832","赵","445","","","","","","","","","","","","","","","","","","","true","14","4","moral","928","positive","廉正","","","","","","","","","","","","","","","","",""
"null","","null","html-keyboard-response","164","196475","0.0-6.0-1.0-8.0-0.28","3","4","3","3","3","4","3","2","4","4","5","4","4","4","5","5","4","4","4","4","5","4","4","4","4","4","4","5","4","1","0","1","1","0","0","0","0","0","1","1","0","0","0","1","5","4","4","1","4","3","2","4","5","4","2","720327574219128832","赵","445","","","","","","","","","","","","","","","","","","","","","","","","","","","","","","","","","","","","","","","","","",""
"1072","<p style=""color:rgb(150, 250, 100); font-size: 35px;"">他的</p>","i","categorize-html","165","197550","0.0-6.0-1.0-8.0-1.28","3","4","3","3","3","4","3","2","4","4","5","4","4","4","5","5","4","4","4","4","5","4","4","4","4","4","4","5","4","1","0","1","1","0","0","0","0","0","1","1","0","0","0","1","5","4","4","1","4","3","2","4","5","4","2","720327574219128832","赵","445","","","","","","","","","","","","","","","","","","","true","14","4","moral","1072","other","他的","","","","","","","","","","","","","","","","",""
"null","","null","html-keyboard-response","166","197801","0.0-6.0-1.0-8.0-0.29","3","4","3","3","3","4","3","2","4","4","5","4","4","4","5","5","4","4","4","4","5","4","4","4","4","4","4","5","4","1","0","1","1","0","0","0","0","0","1","1","0","0","0","1","5","4","4","1","4","3","2","4","5","4","2","720327574219128832","赵","445","","","","","","","","","","","","","","","","","","","","","","","","","","","","","","","","","","","","","","","","","",""
"1024","<p style=""color:white; font-size: 35px;"">卑鄙</p>","i","categorize-html","167","198827","0.0-6.0-1.0-8.0-1.29","3","4","3","3","3","4","3","2","4","4","5","4","4","4","5","5","4","4","4","4","5","4","4","4","4","4","4","5","4","1","0","1","1","0","0","0","0","0","1","1","0","0","0","1","5","4","4","1","4","3","2","4","5","4","2","720327574219128832","赵","445","","","","","","","","","","","","","","","","","","","true","14","4","moral","1024","negative","卑鄙","","","","","","","","","","","","","","","","",""
"null","","null","html-keyboard-response","168","199092","0.0-6.0-1.0-8.0-0.30","3","4","3","3","3","4","3","2","4","4","5","4","4","4","5","5","4","4","4","4","5","4","4","4","4","4","4","5","4","1","0","1","1","0","0","0","0","0","1","1","0","0","0","1","5","4","4","1","4","3","2","4","5","4","2","720327574219128832","赵","445","","","","","","","","","","","","","","","","","","","","","","","","","","","","","","","","","","","","","","","","","",""
"2577","<p style=""color:rgb(150, 250, 100); font-size: 35px;"">我的</p>","e","categorize-html","169","201672","0.0-6.0-1.0-8.0-1.30","3","4","3","3","3","4","3","2","4","4","5","4","4","4","5","5","4","4","4","4","5","4","4","4","4","4","4","5","4","1","0","1","1","0","0","0","0","0","1","1","0","0","0","1","5","4","4","1","4","3","2","4","5","4","2","720327574219128832","赵","445","","","","","","","","","","","","","","","","","","","true","14","4","moral","2577","self","我的","","","","","","","","","","","","","","","","",""
"null","","null","html-keyboard-response","170","201923","0.0-6.0-1.0-8.0-0.31","3","4","3","3","3","4","3","2","4","4","5","4","4","4","5","5","4","4","4","4","5","4","4","4","4","4","4","5","4","1","0","1","1","0","0","0","0","0","1","1","0","0","0","1","5","4","4","1","4","3","2","4","5","4","2","720327574219128832","赵","445","","","","","","","","","","","","","","","","","","","","","","","","","","","","","","","","","","","","","","","","","",""
"1084","<p style=""color:white; font-size: 35px;"">善良</p>","e","categorize-html","171","203008","0.0-6.0-1.0-8.0-1.31","3","4","3","3","3","4","3","2","4","4","5","4","4","4","5","5","4","4","4","4","5","4","4","4","4","4","4","5","4","1","0","1","1","0","0","0","0","0","1","1","0","0","0","1","5","4","4","1","4","3","2","4","5","4","2","720327574219128832","赵","445","","","","","","","","","","","","","","","","","","","true","14","4","moral","1084","positive","善良","","","","","","","","","","","","","","","","",""
"null","","null","html-keyboard-response","172","203260","0.0-6.0-1.0-8.0-0.32","3","4","3","3","3","4","3","2","4","4","5","4","4","4","5","5","4","4","4","4","5","4","4","4","4","4","4","5","4","1","0","1","1","0","0","0","0","0","1","1","0","0","0","1","5","4","4","1","4","3","2","4","5","4","2","720327574219128832","赵","445","","","","","","","","","","","","","","","","","","","","","","","","","","","","","","","","","","","","","","","","","",""
"818","<p style=""color:rgb(150, 250, 100); font-size: 35px;"">他人的</p>","i","categorize-html","173","204080","0.0-6.0-1.0-8.0-1.32","3","4","3","3","3","4","3","2","4","4","5","4","4","4","5","5","4","4","4","4","5","4","4","4","4","4","4","5","4","1","0","1","1","0","0","0","0","0","1","1","0","0","0","1","5","4","4","1","4","3","2","4","5","4","2","720327574219128832","赵","445","","","","","","","","","","","","","","","","","","","true","14","4","moral","818","other","他人的","","","","","","","","","","","","","","","","",""
"null","","null","html-keyboard-response","174","204332","0.0-6.0-1.0-8.0-0.33","3","4","3","3","3","4","3","2","4","4","5","4","4","4","5","5","4","4","4","4","5","4","4","4","4","4","4","5","4","1","0","1","1","0","0","0","0","0","1","1","0","0","0","1","5","4","4","1","4","3","2","4","5","4","2","720327574219128832","赵","445","","","","","","","","","","","","","","","","","","","","","","","","","","","","","","","","","","","","","","","","","",""
"1442","<p style=""color:white; font-size: 35px;"">君子</p>","e","categorize-html","175","205775","0.0-6.0-1.0-8.0-1.33","3","4","3","3","3","4","3","2","4","4","5","4","4","4","5","5","4","4","4","4","5","4","4","4","4","4","4","5","4","1","0","1","1","0","0","0","0","0","1","1","0","0","0","1","5","4","4","1","4","3","2","4","5","4","2","720327574219128832","赵","445","","","","","","","","","","","","","","","","","","","true","14","4","moral","1442","positive","君子","","","","","","","","","","","","","","","","",""
"null","","null","html-keyboard-response","176","206027","0.0-6.0-1.0-8.0-0.34","3","4","3","3","3","4","3","2","4","4","5","4","4","4","5","5","4","4","4","4","5","4","4","4","4","4","4","5","4","1","0","1","1","0","0","0","0","0","1","1","0","0","0","1","5","4","4","1","4","3","2","4","5","4","2","720327574219128832","赵","445","","","","","","","","","","","","","","","","","","","","","","","","","","","","","","","","","","","","","","","","","",""
"1130","<p style=""color:rgb(150, 250, 100); font-size: 35px;"">我</p>","e","categorize-html","177","207159","0.0-6.0-1.0-8.0-1.34","3","4","3","3","3","4","3","2","4","4","5","4","4","4","5","5","4","4","4","4","5","4","4","4","4","4","4","5","4","1","0","1","1","0","0","0","0","0","1","1","0","0","0","1","5","4","4","1","4","3","2","4","5","4","2","720327574219128832","赵","445","","","","","","","","","","","","","","","","","","","true","14","4","moral","1130","self","我","","","","","","","","","","","","","","","","",""
"null","","null","html-keyboard-response","178","207410","0.0-6.0-1.0-8.0-0.35","3","4","3","3","3","4","3","2","4","4","5","4","4","4","5","5","4","4","4","4","5","4","4","4","4","4","4","5","4","1","0","1","1","0","0","0","0","0","1","1","0","0","0","1","5","4","4","1","4","3","2","4","5","4","2","720327574219128832","赵","445","","","","","","","","","","","","","","","","","","","","","","","","","","","","","","","","","","","","","","","","","",""
"785","<p style=""color:white; font-size: 35px;"">不孝</p>","i","categorize-html","179","208197","0.0-6.0-1.0-8.0-1.35","3","4","3","3","3","4","3","2","4","4","5","4","4","4","5","5","4","4","4","4","5","4","4","4","4","4","4","5","4","1","0","1","1","0","0","0","0","0","1","1","0","0","0","1","5","4","4","1","4","3","2","4","5","4","2","720327574219128832","赵","445","","","","","","","","","","","","","","","","","","","true","14","4","moral","785","negative","不孝","","","","","","","","","","","","","","","","",""
"null","","null","html-keyboard-response","180","208449","0.0-6.0-1.0-8.0-0.36","3","4","3","3","3","4","3","2","4","4","5","4","4","4","5","5","4","4","4","4","5","4","4","4","4","4","4","5","4","1","0","1","1","0","0","0","0","0","1","1","0","0","0","1","5","4","4","1","4","3","2","4","5","4","2","720327574219128832","赵","445","","","","","","","","","","","","","","","","","","","","","","","","","","","","","","","","","","","","","","","","","",""
"985","<p style=""color:rgb(150, 250, 100); font-size: 35px;"">自己</p>","e","categorize-html","181","209437","0.0-6.0-1.0-8.0-1.36","3","4","3","3","3","4","3","2","4","4","5","4","4","4","5","5","4","4","4","4","5","4","4","4","4","4","4","5","4","1","0","1","1","0","0","0","0","0","1","1","0","0","0","1","5","4","4","1","4","3","2","4","5","4","2","720327574219128832","赵","445","","","","","","","","","","","","","","","","","","","true","14","4","moral","985","self","自己","","","","","","","","","","","","","","","","",""
"null","","null","html-keyboard-response","182","209688","0.0-6.0-1.0-8.0-0.37","3","4","3","3","3","4","3","2","4","4","5","4","4","4","5","5","4","4","4","4","5","4","4","4","4","4","4","5","4","1","0","1","1","0","0","0","0","0","1","1","0","0","0","1","5","4","4","1","4","3","2","4","5","4","2","720327574219128832","赵","445","","","","","","","","","","","","","","","","","","","","","","","","","","","","","","","","","","","","","","","","","",""
"1153","<p style=""color:white; font-size: 35px;"">善良</p>","e","categorize-html","183","210844","0.0-6.0-1.0-8.0-1.37","3","4","3","3","3","4","3","2","4","4","5","4","4","4","5","5","4","4","4","4","5","4","4","4","4","4","4","5","4","1","0","1","1","0","0","0","0","0","1","1","0","0","0","1","5","4","4","1","4","3","2","4","5","4","2","720327574219128832","赵","445","","","","","","","","","","","","","","","","","","","true","14","4","moral","1153","positive","善良","","","","","","","","","","","","","","","","",""
"null","","null","html-keyboard-response","184","211095","0.0-6.0-1.0-8.0-0.38","3","4","3","3","3","4","3","2","4","4","5","4","4","4","5","5","4","4","4","4","5","4","4","4","4","4","4","5","4","1","0","1","1","0","0","0","0","0","1","1","0","0","0","1","5","4","4","1","4","3","2","4","5","4","2","720327574219128832","赵","445","","","","","","","","","","","","","","","","","","","","","","","","","","","","","","","","","","","","","","","","","",""
"773","<p style=""color:rgb(150, 250, 100); font-size: 35px;"">别人</p>","i","categorize-html","185","211871","0.0-6.0-1.0-8.0-1.38","3","4","3","3","3","4","3","2","4","4","5","4","4","4","5","5","4","4","4","4","5","4","4","4","4","4","4","5","4","1","0","1","1","0","0","0","0","0","1","1","0","0","0","1","5","4","4","1","4","3","2","4","5","4","2","720327574219128832","赵","445","","","","","","","","","","","","","","","","","","","true","14","4","moral","773","other","别人","","","","","","","","","","","","","","","","",""
"null","","null","html-keyboard-response","186","212122","0.0-6.0-1.0-8.0-0.39","3","4","3","3","3","4","3","2","4","4","5","4","4","4","5","5","4","4","4","4","5","4","4","4","4","4","4","5","4","1","0","1","1","0","0","0","0","0","1","1","0","0","0","1","5","4","4","1","4","3","2","4","5","4","2","720327574219128832","赵","445","","","","","","","","","","","","","","","","","","","","","","","","","","","","","","","","","","","","","","","","","",""
"1174","<p style=""color:white; font-size: 35px;"">小人</p>","i","categorize-html","187","213298","0.0-6.0-1.0-8.0-1.39","3","4","3","3","3","4","3","2","4","4","5","4","4","4","5","5","4","4","4","4","5","4","4","4","4","4","4","5","4","1","0","1","1","0","0","0","0","0","1","1","0","0","0","1","5","4","4","1","4","3","2","4","5","4","2","720327574219128832","赵","445","","","","","","","","","","","","","","","","","","","true","14","4","moral","1174","negative","小人","","","","","","","","","","","","","","","","",""
"null","","null","html-keyboard-response","188","213549","0.0-6.0-1.0-8.0-0.40","3","4","3","3","3","4","3","2","4","4","5","4","4","4","5","5","4","4","4","4","5","4","4","4","4","4","4","5","4","1","0","1","1","0","0","0","0","0","1","1","0","0","0","1","5","4","4","1","4","3","2","4","5","4","2","720327574219128832","赵","445","","","","","","","","","","","","","","","","","","","","","","","","","","","","","","","","","","","","","","","","","",""
"1036","<p style=""color:rgb(150, 250, 100); font-size: 35px;"">本人</p>","e","categorize-html","189","214588","0.0-6.0-1.0-8.0-1.40","3","4","3","3","3","4","3","2","4","4","5","4","4","4","5","5","4","4","4","4","5","4","4","4","4","4","4","5","4","1","0","1","1","0","0","0","0","0","1","1","0","0","0","1","5","4","4","1","4","3","2","4","5","4","2","720327574219128832","赵","445","","","","","","","","","","","","","","","","","","","true","14","4","moral","1036","self","本人","","","","","","","","","","","","","","","","",""
"null","","null","html-keyboard-response","190","214840","0.0-6.0-1.0-8.0-0.41","3","4","3","3","3","4","3","2","4","4","5","4","4","4","5","5","4","4","4","4","5","4","4","4","4","4","4","5","4","1","0","1","1","0","0","0","0","0","1","1","0","0","0","1","5","4","4","1","4","3","2","4","5","4","2","720327574219128832","赵","445","","","","","","","","","","","","","","","","","","","","","","","","","","","","","","","","","","","","","","","","","",""
"1216","<p style=""color:white; font-size: 35px;"">缺德</p>","i","categorize-html","191","216058","0.0-6.0-1.0-8.0-1.41","3","4","3","3","3","4","3","2","4","4","5","4","4","4","5","5","4","4","4","4","5","4","4","4","4","4","4","5","4","1","0","1","1","0","0","0","0","0","1","1","0","0","0","1","5","4","4","1","4","3","2","4","5","4","2","720327574219128832","赵","445","","","","","","","","","","","","","","","","","","","true","14","4","moral","1216","negative","缺德","","","","","","","","","","","","","","","","",""
"null","","null","html-keyboard-response","192","216310","0.0-6.0-1.0-8.0-0.42","3","4","3","3","3","4","3","2","4","4","5","4","4","4","5","5","4","4","4","4","5","4","4","4","4","4","4","5","4","1","0","1","1","0","0","0","0","0","1","1","0","0","0","1","5","4","4","1","4","3","2","4","5","4","2","720327574219128832","赵","445","","","","","","","","","","","","","","","","","","","","","","","","","","","","","","","","","","","","","","","","","",""
