"rt","stimulus","response","trial_type","trial_index","time_elapsed","internal_node_id","ses_1","ses_2","ses_3","ses_4","ses_5","ses_6","ses_7","ses_8","ses_9","ses_10","coreself_1","coreself_2","coreself_3","coreself_4","coreself_5","coreself_6","coreself_7","coreself_8","coreself_9","coreself_10","SGPS_1","SGPS_2","SGPS_3","SGPS_4","SGPS_5","SGPS_6","SGPS_7","SGPS_8","SGPS_9","NPI1","NPI2","NPI3","NPI4","NPI5","NPI6","NPI7","NPI8","NPI9","NPI10","NPI11","NPI12","NPI13","NPI14","NPI15","hsns_1","hsns_2","hsns_3","hsns_4","hsns_5","trap1","hsns_6","hsns_7","hsns_8","hsns_9","hsns_10","subj_idx","friend_name","ParticipantID","value","success","user_agent","responses","item_order","radio_event_ids","radio_event_times","key_event_times","mouse_event_times","straightlining","zigzagging","honeypot","timeout","failed_images","failed_audio","failed_video","version_attrib2","version_target2","correct","IAT","screen_id","task_id","RT","condition","word","varname","summary","version_attrib","version_target","time_stamp","view_history","response_type","key_press","avg_frame_time","center_x","center_y","correct_response","identity","Image","question_order","correct_answer","trap1_item"
"2179","
   <p><div style = ""color: white;font-size:25px;"">您好，欢迎参加本次实验。</div> </p>
   <p><div style = ""color: white;font-size:25px;"">为充分保障您的权利，请确保您已经知晓并同意《参与实验同意书》以及《数据公开知情同意书》。</div></p>
   <p><div style = ""color: white;font-size:25px;"">如果您未见过上述内容，请咨询实验员。</div></p>
   <p><div style = ""color: white;font-size:25px;"">如果您选择继续实验，则表示您已经清楚两份知情同意书的内容并同意。</div></p>
   <p><div style = ""color: pink;font-size:30px;"">请确保您记得day0的实验编号，您将在本次实验输入该编号，若您忘记，请咨询实验员后作答。</div></p>
   <p><div style = ""color: lightblue;font-size:25px;"">请您尽可能认真地作答，我们将依据您在各问卷和按键任务中的作答质量发放报酬。</div></p>
   <p> <div style = ""color: green;font-size:25px;""><按空格键至下页></div> </p>
   "," ","html-keyboard-response","0","2181","0.0-0.0","2","3","2","2","2","2","2","1","2","2","2","2","2","2","2","2","2","2","2","2","4","4","4","3","4","3","4","4","3","1","0","1","1","0","0","1","1","0","1","1","0","1","0","1","3","4","4","4","4","1","3","3","3","2","2","757590139374669825","孙","403","","","","","","","","","","","","","","","","","","","","","","","","","","","","","","","","","","","","","","","","","",""
"","","","call-function","1","2181","0.0-1.0-0.0","2","3","2","2","2","2","2","1","2","2","2","2","2","2","2","2","2","2","2","2","4","4","4","3","4","3","4","4","3","1","0","1","1","0","0","1","1","0","1","1","0","1","0","1","3","4","4","4","4","1","3","3","3","2","2","757590139374669825","孙","403","","","","","","","","","","","","","","","","","","","","","","","","","","","","","","","","","","","","","","","","","",""
"23783","","{""friend_name"":""孙"",""ParticipantID"":""403""}","survey-html-form","2","25965","0.0-1.0-1.0","2","3","2","2","2","2","2","1","2","2","2","2","2","2","2","2","2","2","2","2","4","4","4","3","4","3","4","4","3","1","0","1","1","0","0","1","1","0","1","1","0","1","0","1","3","4","4","4","4","1","3","3","3","2","2","757590139374669825","孙","403","","","","","","","","","","","","","","","","","","","","","","","","","","","","","","","","","","","","","","","","","",""
"","","","fullscreen","3","27129","0.0-2.0","2","3","2","2","2","2","2","1","2","2","2","2","2","2","2","2","2","2","2","2","4","4","4","3","4","3","4","4","3","1","0","1","1","0","0","1","1","0","1","1","0","1","0","1","3","4","4","4","4","1","3","3","3","2","2","757590139374669825","孙","403","","true","{}","","","","","","","","","","","","","","","","","","","","","","","","","","","","","","","","","","","","","","",""
"13875.20000000298","","{""Q01"":""2"",""Q02"":""3"",""Q03"":""2"",""Q04"":""2"",""Q05"":""2"",""Q06"":""2"",""Q07"":""2"",""Q08"":""1"",""Q09"":""2"",""Q10"":""2""}","survey-template","4","41006","0.0-3.0","2","3","2","2","2","2","2","1","2","2","2","2","2","2","2","2","2","2","2","2","4","4","4","3","4","3","4","4","3","1","0","1","1","0","0","1","1","0","1","1","0","1","0","1","3","4","4","4","4","1","3","3","3","2","2","757590139374669825","孙","403","","","","{""Q01"":""2"",""Q02"":""3"",""Q03"":""2"",""Q04"":""2"",""Q05"":""2"",""Q06"":""2"",""Q07"":""2"",""Q08"":""1"",""Q09"":""2"",""Q10"":""2""}","[0,1,2,3,4,5,6,7,8,9]","[""Q01"",""Q02"",""Q03"",""Q04"",""Q05"",""Q06"",""Q07"",""Q08"",""Q09"",""Q10""]","[1890.9000000022352,3082.800000000745,4298.70000000298,5594.60000000149,6706.60000000149,9706.70000000298,10370.800000000745,11354.900000002235,12274.5,13186.60000000149]","[]","[1890.9000000022352,3082.800000000745,4298.70000000298,5594.60000000149,6706.60000000149,7755,8970.70000000298,9706.70000000298,10370.800000000745,11354.900000002235,12274.5,13186.60000000149,13874.5]","0.5","0.5555555555555556","0","","","","","","","","","","","","","","","","","","","","","","","","","","","","","",""
"22341.400000002235","","{""Q01"":""2"",""Q02"":""2"",""Q03"":""2"",""Q04"":""2"",""Q05"":""2"",""Q06"":""2"",""Q07"":""2"",""Q08"":""2"",""Q09"":""2"",""Q10"":""2""}","survey-template","5","63351","0.0-4.0","2","3","2","2","2","2","2","1","2","2","2","2","2","2","2","2","2","2","2","2","4","4","4","3","4","3","4","4","3","1","0","1","1","0","0","1","1","0","1","1","0","1","0","1","3","4","4","4","4","1","3","3","3","2","2","757590139374669825","孙","403","","","","{""Q01"":""2"",""Q02"":""2"",""Q03"":""2"",""Q04"":""2"",""Q05"":""2"",""Q06"":""2"",""Q07"":""2"",""Q08"":""2"",""Q09"":""2"",""Q10"":""2""}","[0,1,2,3,4,5,6,7,8,9]","[""Q01"",""Q02"",""Q03"",""Q04"",""Q05"",""Q06"",""Q07"",""Q08"",""Q09"",""Q10""]","[4683.199999999255,5787.5,7011.400000002235,8403.199999999255,9763.300000000745,10963.300000000745,12187.300000000745,16955.300000000745,19003.400000002235,20323.400000002235]","[]","[4683.199999999255,5787.5,7011.400000002235,8403.199999999255,9763.300000000745,10963.300000000745,12187.300000000745,15635.300000000745,16955.300000000745,19003.400000002235,20323.400000002235,22340.699999999255]","0.6","0","0","","","","","","","","","","","","","","","","","","","","","","","","","","","","","",""
"","","","preload","6","65389","0.0-5.0","2","3","2","2","2","2","2","1","2","2","2","2","2","2","2","2","2","2","2","2","4","4","4","3","4","3","4","4","3","1","0","1","1","0","0","1","1","0","1","1","0","1","0","1","3","4","4","4","4","1","3","3","3","2","2","757590139374669825","孙","403","","true","","","","","","","","","","","false","[]","[]","[]","","","","","","","","","","","","","","","","","","","","","","","","","",""
"32678","
    <h3>词语分类任务</h3>
    <p>在接下来的任务中，你需要对一系列词语进行分类。<p/>
    请先熟悉这些词语，这有利于你完成接下来的任务。</p>
    <table align=""center"" border=1 cellpadding=3 cellspacing=0>
    <tr> <th>类别</th> <th>词语</th> </tr>
    <tr> <td>&emsp;积极&emsp;</td> <td>&emsp;高尚、诚信、善良、君子、廉正、正直&emsp;</td> </tr>
    <tr> <td>&emsp;消极&emsp;</td> <td>&emsp;缺德、卑鄙、不孝、不仁、小人、黑心&emsp;</td> </tr>
    <tr> <td>&emsp;自我&emsp;</td> <td>&emsp;我、我的、自己、自己的、本人、本人的&emsp;</td> </tr>
    <tr> <td>&emsp;他人&emsp;</td> <td>&emsp;他、他的、别人、别人的、他人、他人的&emsp;</td> </tr>
    </table><br/>","0","html-button-response","7","98069","0.0-6.0-1.0-0.0","2","3","2","2","2","2","2","1","2","2","2","2","2","2","2","2","2","2","2","2","4","4","4","3","4","3","4","4","3","1","0","1","1","0","0","1","1","0","1","1","0","1","0","1","3","4","4","4","4","1","3","3","3","2","2","757590139374669825","孙","403","","","","","","","","","","","","","","","","","1","1","","","","","","","","","","","","","","","","","","","","","","","",""
"28062","
    <div class=""tag-bottom""><p>
    —— 任务1：对“自我”词和“他人”词分类 ——<p/>
    不同词语会出现在屏幕中央，类别标签将始终显示在屏幕上方<p/>   
    <span style=""color:#FFD866""><b>请根据上方标签的提示，尽可能正确并且快速地做出按键反应</b></span><p/>
    当按键错误时屏幕中会出现<span style=""color:red""> X </span>，需要按另一个键纠正才能继续<br/><p/>
    请把双手食指分别放在键盘的“E”键和“I”键上<p/>
    按<空格键>开始
    </p></div>"," ","html-keyboard-response","8","126132","0.0-6.0-1.0-1.0","2","3","2","2","2","2","2","1","2","2","2","2","2","2","2","2","2","2","2","2","4","4","4","3","4","3","4","4","3","1","0","1","1","0","0","1","1","0","1","1","0","1","0","1","3","4","4","4","4","1","3","3","3","2","2","757590139374669825","孙","403","","","","","","","","","","","","","","","","","","","","","","","","","","","","","","","","","","","","","","","","","",""
"null","","null","html-keyboard-response","9","126387","0.0-6.0-1.0-2.0-0.0","2","3","2","2","2","2","2","1","2","2","2","2","2","2","2","2","2","2","2","2","4","4","4","3","4","3","4","4","3","1","0","1","1","0","0","1","1","0","1","1","0","1","0","1","3","4","4","4","4","1","3","3","3","2","2","757590139374669825","孙","403","","","","","","","","","","","","","","","","","","","","","","","","","","","","","","","","","","","","","","","","","",""
"889","<p style=""color:rgb(150, 250, 100); font-size: 35px;"">他的</p>","e","categorize-html","10","127676","0.0-6.0-1.0-2.0-1.0","2","3","2","2","2","2","2","1","2","2","2","2","2","2","2","2","2","2","2","2","4","4","4","3","4","3","4","4","3","1","0","1","1","0","0","1","1","0","1","1","0","1","0","1","3","4","4","4","4","1","3","3","3","2","2","757590139374669825","孙","403","","","","","","","","","","","","","","","","","","","false","11","1","moral","889","other","他的","","","","","","","","","","","","","","","","",""
"null","","null","html-keyboard-response","11","127944","0.0-6.0-1.0-2.0-0.1","2","3","2","2","2","2","2","1","2","2","2","2","2","2","2","2","2","2","2","2","4","4","4","3","4","3","4","4","3","1","0","1","1","0","0","1","1","0","1","1","0","1","0","1","3","4","4","4","4","1","3","3","3","2","2","757590139374669825","孙","403","","","","","","","","","","","","","","","","","","","","","","","","","","","","","","","","","","","","","","","","","",""
"579","<p style=""color:rgb(150, 250, 100); font-size: 35px;"">本人的</p>","e","categorize-html","12","128525","0.0-6.0-1.0-2.0-1.1","2","3","2","2","2","2","2","1","2","2","2","2","2","2","2","2","2","2","2","2","4","4","4","3","4","3","4","4","3","1","0","1","1","0","0","1","1","0","1","1","0","1","0","1","3","4","4","4","4","1","3","3","3","2","2","757590139374669825","孙","403","","","","","","","","","","","","","","","","","","","true","11","1","moral","579","self","本人的","","","","","","","","","","","","","","","","",""
"null","","null","html-keyboard-response","13","128779","0.0-6.0-1.0-2.0-0.2","2","3","2","2","2","2","2","1","2","2","2","2","2","2","2","2","2","2","2","2","4","4","4","3","4","3","4","4","3","1","0","1","1","0","0","1","1","0","1","1","0","1","0","1","3","4","4","4","4","1","3","3","3","2","2","757590139374669825","孙","403","","","","","","","","","","","","","","","","","","","","","","","","","","","","","","","","","","","","","","","","","",""
"465","<p style=""color:rgb(150, 250, 100); font-size: 35px;"">他人的</p>","i","categorize-html","14","129245","0.0-6.0-1.0-2.0-1.2","2","3","2","2","2","2","2","1","2","2","2","2","2","2","2","2","2","2","2","2","4","4","4","3","4","3","4","4","3","1","0","1","1","0","0","1","1","0","1","1","0","1","0","1","3","4","4","4","4","1","3","3","3","2","2","757590139374669825","孙","403","","","","","","","","","","","","","","","","","","","true","11","1","moral","465","other","他人的","","","","","","","","","","","","","","","","",""
"null","","null","html-keyboard-response","15","129500","0.0-6.0-1.0-2.0-0.3","2","3","2","2","2","2","2","1","2","2","2","2","2","2","2","2","2","2","2","2","4","4","4","3","4","3","4","4","3","1","0","1","1","0","0","1","1","0","1","1","0","1","0","1","3","4","4","4","4","1","3","3","3","2","2","757590139374669825","孙","403","","","","","","","","","","","","","","","","","","","","","","","","","","","","","","","","","","","","","","","","","",""
"624","<p style=""color:rgb(150, 250, 100); font-size: 35px;"">别人</p>","i","categorize-html","16","130125","0.0-6.0-1.0-2.0-1.3","2","3","2","2","2","2","2","1","2","2","2","2","2","2","2","2","2","2","2","2","4","4","4","3","4","3","4","4","3","1","0","1","1","0","0","1","1","0","1","1","0","1","0","1","3","4","4","4","4","1","3","3","3","2","2","757590139374669825","孙","403","","","","","","","","","","","","","","","","","","","true","11","1","moral","624","other","别人","","","","","","","","","","","","","","","","",""
"null","","null","html-keyboard-response","17","130379","0.0-6.0-1.0-2.0-0.4","2","3","2","2","2","2","2","1","2","2","2","2","2","2","2","2","2","2","2","2","4","4","4","3","4","3","4","4","3","1","0","1","1","0","0","1","1","0","1","1","0","1","0","1","3","4","4","4","4","1","3","3","3","2","2","757590139374669825","孙","403","","","","","","","","","","","","","","","","","","","","","","","","","","","","","","","","","","","","","","","","","",""
"416","<p style=""color:rgb(150, 250, 100); font-size: 35px;"">他人</p>","i","categorize-html","18","130797","0.0-6.0-1.0-2.0-1.4","2","3","2","2","2","2","2","1","2","2","2","2","2","2","2","2","2","2","2","2","4","4","4","3","4","3","4","4","3","1","0","1","1","0","0","1","1","0","1","1","0","1","0","1","3","4","4","4","4","1","3","3","3","2","2","757590139374669825","孙","403","","","","","","","","","","","","","","","","","","","true","11","1","moral","416","other","他人","","","","","","","","","","","","","","","","",""
"null","","null","html-keyboard-response","19","131051","0.0-6.0-1.0-2.0-0.5","2","3","2","2","2","2","2","1","2","2","2","2","2","2","2","2","2","2","2","2","4","4","4","3","4","3","4","4","3","1","0","1","1","0","0","1","1","0","1","1","0","1","0","1","3","4","4","4","4","1","3","3","3","2","2","757590139374669825","孙","403","","","","","","","","","","","","","","","","","","","","","","","","","","","","","","","","","","","","","","","","","",""
"442","<p style=""color:rgb(150, 250, 100); font-size: 35px;"">我</p>","e","categorize-html","20","131494","0.0-6.0-1.0-2.0-1.5","2","3","2","2","2","2","2","1","2","2","2","2","2","2","2","2","2","2","2","2","4","4","4","3","4","3","4","4","3","1","0","1","1","0","0","1","1","0","1","1","0","1","0","1","3","4","4","4","4","1","3","3","3","2","2","757590139374669825","孙","403","","","","","","","","","","","","","","","","","","","true","11","1","moral","442","self","我","","","","","","","","","","","","","","","","",""
"null","","null","html-keyboard-response","21","131747","0.0-6.0-1.0-2.0-0.6","2","3","2","2","2","2","2","1","2","2","2","2","2","2","2","2","2","2","2","2","4","4","4","3","4","3","4","4","3","1","0","1","1","0","0","1","1","0","1","1","0","1","0","1","3","4","4","4","4","1","3","3","3","2","2","757590139374669825","孙","403","","","","","","","","","","","","","","","","","","","","","","","","","","","","","","","","","","","","","","","","","",""
"400","<p style=""color:rgb(150, 250, 100); font-size: 35px;"">我的</p>","e","categorize-html","22","132149","0.0-6.0-1.0-2.0-1.6","2","3","2","2","2","2","2","1","2","2","2","2","2","2","2","2","2","2","2","2","4","4","4","3","4","3","4","4","3","1","0","1","1","0","0","1","1","0","1","1","0","1","0","1","3","4","4","4","4","1","3","3","3","2","2","757590139374669825","孙","403","","","","","","","","","","","","","","","","","","","true","11","1","moral","400","self","我的","","","","","","","","","","","","","","","","",""
"null","","null","html-keyboard-response","23","132403","0.0-6.0-1.0-2.0-0.7","2","3","2","2","2","2","2","1","2","2","2","2","2","2","2","2","2","2","2","2","4","4","4","3","4","3","4","4","3","1","0","1","1","0","0","1","1","0","1","1","0","1","0","1","3","4","4","4","4","1","3","3","3","2","2","757590139374669825","孙","403","","","","","","","","","","","","","","","","","","","","","","","","","","","","","","","","","","","","","","","","","",""
"569","<p style=""color:rgb(150, 250, 100); font-size: 35px;"">自己的</p>","e","categorize-html","24","132973","0.0-6.0-1.0-2.0-1.7","2","3","2","2","2","2","2","1","2","2","2","2","2","2","2","2","2","2","2","2","4","4","4","3","4","3","4","4","3","1","0","1","1","0","0","1","1","0","1","1","0","1","0","1","3","4","4","4","4","1","3","3","3","2","2","757590139374669825","孙","403","","","","","","","","","","","","","","","","","","","true","11","1","moral","569","self","自己的","","","","","","","","","","","","","","","","",""
"null","","null","html-keyboard-response","25","133227","0.0-6.0-1.0-2.0-0.8","2","3","2","2","2","2","2","1","2","2","2","2","2","2","2","2","2","2","2","2","4","4","4","3","4","3","4","4","3","1","0","1","1","0","0","1","1","0","1","1","0","1","0","1","3","4","4","4","4","1","3","3","3","2","2","757590139374669825","孙","403","","","","","","","","","","","","","","","","","","","","","","","","","","","","","","","","","","","","","","","","","",""
"504","<p style=""color:rgb(150, 250, 100); font-size: 35px;"">本人</p>","e","categorize-html","26","133733","0.0-6.0-1.0-2.0-1.8","2","3","2","2","2","2","2","1","2","2","2","2","2","2","2","2","2","2","2","2","4","4","4","3","4","3","4","4","3","1","0","1","1","0","0","1","1","0","1","1","0","1","0","1","3","4","4","4","4","1","3","3","3","2","2","757590139374669825","孙","403","","","","","","","","","","","","","","","","","","","true","11","1","moral","504","self","本人","","","","","","","","","","","","","","","","",""
"null","","null","html-keyboard-response","27","133987","0.0-6.0-1.0-2.0-0.9","2","3","2","2","2","2","2","1","2","2","2","2","2","2","2","2","2","2","2","2","4","4","4","3","4","3","4","4","3","1","0","1","1","0","0","1","1","0","1","1","0","1","0","1","3","4","4","4","4","1","3","3","3","2","2","757590139374669825","孙","403","","","","","","","","","","","","","","","","","","","","","","","","","","","","","","","","","","","","","","","","","",""
"464","<p style=""color:rgb(150, 250, 100); font-size: 35px;"">自己</p>","e","categorize-html","28","134453","0.0-6.0-1.0-2.0-1.9","2","3","2","2","2","2","2","1","2","2","2","2","2","2","2","2","2","2","2","2","4","4","4","3","4","3","4","4","3","1","0","1","1","0","0","1","1","0","1","1","0","1","0","1","3","4","4","4","4","1","3","3","3","2","2","757590139374669825","孙","403","","","","","","","","","","","","","","","","","","","true","11","1","moral","464","self","自己","","","","","","","","","","","","","","","","",""
"null","","null","html-keyboard-response","29","134707","0.0-6.0-1.0-2.0-0.10","2","3","2","2","2","2","2","1","2","2","2","2","2","2","2","2","2","2","2","2","4","4","4","3","4","3","4","4","3","1","0","1","1","0","0","1","1","0","1","1","0","1","0","1","3","4","4","4","4","1","3","3","3","2","2","757590139374669825","孙","403","","","","","","","","","","","","","","","","","","","","","","","","","","","","","","","","","","","","","","","","","",""
"488","<p style=""color:rgb(150, 250, 100); font-size: 35px;"">他</p>","i","categorize-html","30","135197","0.0-6.0-1.0-2.0-1.10","2","3","2","2","2","2","2","1","2","2","2","2","2","2","2","2","2","2","2","2","4","4","4","3","4","3","4","4","3","1","0","1","1","0","0","1","1","0","1","1","0","1","0","1","3","4","4","4","4","1","3","3","3","2","2","757590139374669825","孙","403","","","","","","","","","","","","","","","","","","","true","11","1","moral","488","other","他","","","","","","","","","","","","","","","","",""
"null","","null","html-keyboard-response","31","135452","0.0-6.0-1.0-2.0-0.11","2","3","2","2","2","2","2","1","2","2","2","2","2","2","2","2","2","2","2","2","4","4","4","3","4","3","4","4","3","1","0","1","1","0","0","1","1","0","1","1","0","1","0","1","3","4","4","4","4","1","3","3","3","2","2","757590139374669825","孙","403","","","","","","","","","","","","","","","","","","","","","","","","","","","","","","","","","","","","","","","","","",""
"711","<p style=""color:rgb(150, 250, 100); font-size: 35px;"">别人的</p>","i","categorize-html","32","136165","0.0-6.0-1.0-2.0-1.11","2","3","2","2","2","2","2","1","2","2","2","2","2","2","2","2","2","2","2","2","4","4","4","3","4","3","4","4","3","1","0","1","1","0","0","1","1","0","1","1","0","1","0","1","3","4","4","4","4","1","3","3","3","2","2","757590139374669825","孙","403","","","","","","","","","","","","","","","","","","","true","11","1","moral","711","other","别人的","","","","","","","","","","","","","","","","",""
"799","
    <div class=""tag-bottom""><p>
    —— 任务2：对“积极”词和“消极”词分类 ——<p/>   
    <span style=""color:#78DCE8""><b>注意上方，类别标签和需要分类的词语都已经改变</b></span><p/>
    <span style=""color:#FFD866""><b>请根据上方标签的提示，尽可能正确并且快速地做出按键反应</b></span><p/>
    当按键错误时屏幕中会出现<span style=""color:red""> X </span>，需要按另一个键纠正才能继续<br/><p/>
    请把双手食指分别放在键盘的“E”键和“I”键上<p/>
    按<空格键>开始
    </p></div>"," ","html-keyboard-response","33","136964","0.0-6.0-1.0-3.0","2","3","2","2","2","2","2","1","2","2","2","2","2","2","2","2","2","2","2","2","4","4","4","3","4","3","4","4","3","1","0","1","1","0","0","1","1","0","1","1","0","1","0","1","3","4","4","4","4","1","3","3","3","2","2","757590139374669825","孙","403","","","","","","","","","","","","","","","","","","","","","","","","","","","","","","","","","","","","","","","","","",""
"null","","null","html-keyboard-response","34","137219","0.0-6.0-1.0-4.0-0.0","2","3","2","2","2","2","2","1","2","2","2","2","2","2","2","2","2","2","2","2","4","4","4","3","4","3","4","4","3","1","0","1","1","0","0","1","1","0","1","1","0","1","0","1","3","4","4","4","4","1","3","3","3","2","2","757590139374669825","孙","403","","","","","","","","","","","","","","","","","","","","","","","","","","","","","","","","","","","","","","","","","",""
"1241","<p style=""color:white; font-size: 35px;"">高尚</p>","e","categorize-html","35","138461","0.0-6.0-1.0-4.0-1.0","2","3","2","2","2","2","2","1","2","2","2","2","2","2","2","2","2","2","2","2","4","4","4","3","4","3","4","4","3","1","0","1","1","0","0","1","1","0","1","1","0","1","0","1","3","4","4","4","4","1","3","3","3","2","2","757590139374669825","孙","403","","","","","","","","","","","","","","","","","","","true","12","2","moral","1241","positive","高尚","","","","","","","","","","","","","","","","",""
"null","","null","html-keyboard-response","36","138715","0.0-6.0-1.0-4.0-0.1","2","3","2","2","2","2","2","1","2","2","2","2","2","2","2","2","2","2","2","2","4","4","4","3","4","3","4","4","3","1","0","1","1","0","0","1","1","0","1","1","0","1","0","1","3","4","4","4","4","1","3","3","3","2","2","757590139374669825","孙","403","","","","","","","","","","","","","","","","","","","","","","","","","","","","","","","","","","","","","","","","","",""
"664","<p style=""color:white; font-size: 35px;"">善良</p>","e","categorize-html","37","139380","0.0-6.0-1.0-4.0-1.1","2","3","2","2","2","2","2","1","2","2","2","2","2","2","2","2","2","2","2","2","4","4","4","3","4","3","4","4","3","1","0","1","1","0","0","1","1","0","1","1","0","1","0","1","3","4","4","4","4","1","3","3","3","2","2","757590139374669825","孙","403","","","","","","","","","","","","","","","","","","","true","12","2","moral","664","positive","善良","","","","","","","","","","","","","","","","",""
"null","","null","html-keyboard-response","38","139635","0.0-6.0-1.0-4.0-0.2","2","3","2","2","2","2","2","1","2","2","2","2","2","2","2","2","2","2","2","2","4","4","4","3","4","3","4","4","3","1","0","1","1","0","0","1","1","0","1","1","0","1","0","1","3","4","4","4","4","1","3","3","3","2","2","757590139374669825","孙","403","","","","","","","","","","","","","","","","","","","","","","","","","","","","","","","","","","","","","","","","","",""
"529","<p style=""color:white; font-size: 35px;"">缺德</p>","i","categorize-html","39","140166","0.0-6.0-1.0-4.0-1.2","2","3","2","2","2","2","2","1","2","2","2","2","2","2","2","2","2","2","2","2","4","4","4","3","4","3","4","4","3","1","0","1","1","0","0","1","1","0","1","1","0","1","0","1","3","4","4","4","4","1","3","3","3","2","2","757590139374669825","孙","403","","","","","","","","","","","","","","","","","","","true","12","2","moral","529","negative","缺德","","","","","","","","","","","","","","","","",""
"null","","null","html-keyboard-response","40","140419","0.0-6.0-1.0-4.0-0.3","2","3","2","2","2","2","2","1","2","2","2","2","2","2","2","2","2","2","2","2","4","4","4","3","4","3","4","4","3","1","0","1","1","0","0","1","1","0","1","1","0","1","0","1","3","4","4","4","4","1","3","3","3","2","2","757590139374669825","孙","403","","","","","","","","","","","","","","","","","","","","","","","","","","","","","","","","","","","","","","","","","",""
"616","<p style=""color:white; font-size: 35px;"">正直</p>","e","categorize-html","41","141036","0.0-6.0-1.0-4.0-1.3","2","3","2","2","2","2","2","1","2","2","2","2","2","2","2","2","2","2","2","2","4","4","4","3","4","3","4","4","3","1","0","1","1","0","0","1","1","0","1","1","0","1","0","1","3","4","4","4","4","1","3","3","3","2","2","757590139374669825","孙","403","","","","","","","","","","","","","","","","","","","true","12","2","moral","616","positive","正直","","","","","","","","","","","","","","","","",""
"null","","null","html-keyboard-response","42","141291","0.0-6.0-1.0-4.0-0.4","2","3","2","2","2","2","2","1","2","2","2","2","2","2","2","2","2","2","2","2","4","4","4","3","4","3","4","4","3","1","0","1","1","0","0","1","1","0","1","1","0","1","0","1","3","4","4","4","4","1","3","3","3","2","2","757590139374669825","孙","403","","","","","","","","","","","","","","","","","","","","","","","","","","","","","","","","","","","","","","","","","",""
"674","<p style=""color:white; font-size: 35px;"">不孝</p>","i","categorize-html","43","141966","0.0-6.0-1.0-4.0-1.4","2","3","2","2","2","2","2","1","2","2","2","2","2","2","2","2","2","2","2","2","4","4","4","3","4","3","4","4","3","1","0","1","1","0","0","1","1","0","1","1","0","1","0","1","3","4","4","4","4","1","3","3","3","2","2","757590139374669825","孙","403","","","","","","","","","","","","","","","","","","","true","12","2","moral","674","negative","不孝","","","","","","","","","","","","","","","","",""
"null","","null","html-keyboard-response","44","142219","0.0-6.0-1.0-4.0-0.5","2","3","2","2","2","2","2","1","2","2","2","2","2","2","2","2","2","2","2","2","4","4","4","3","4","3","4","4","3","1","0","1","1","0","0","1","1","0","1","1","0","1","0","1","3","4","4","4","4","1","3","3","3","2","2","757590139374669825","孙","403","","","","","","","","","","","","","","","","","","","","","","","","","","","","","","","","","","","","","","","","","",""
"544","<p style=""color:white; font-size: 35px;"">卑鄙</p>","i","categorize-html","45","142764","0.0-6.0-1.0-4.0-1.5","2","3","2","2","2","2","2","1","2","2","2","2","2","2","2","2","2","2","2","2","4","4","4","3","4","3","4","4","3","1","0","1","1","0","0","1","1","0","1","1","0","1","0","1","3","4","4","4","4","1","3","3","3","2","2","757590139374669825","孙","403","","","","","","","","","","","","","","","","","","","true","12","2","moral","544","negative","卑鄙","","","","","","","","","","","","","","","","",""
"null","","null","html-keyboard-response","46","143019","0.0-6.0-1.0-4.0-0.6","2","3","2","2","2","2","2","1","2","2","2","2","2","2","2","2","2","2","2","2","4","4","4","3","4","3","4","4","3","1","0","1","1","0","0","1","1","0","1","1","0","1","0","1","3","4","4","4","4","1","3","3","3","2","2","757590139374669825","孙","403","","","","","","","","","","","","","","","","","","","","","","","","","","","","","","","","","","","","","","","","","",""
"640","<p style=""color:white; font-size: 35px;"">君子</p>","e","categorize-html","47","143661","0.0-6.0-1.0-4.0-1.6","2","3","2","2","2","2","2","1","2","2","2","2","2","2","2","2","2","2","2","2","4","4","4","3","4","3","4","4","3","1","0","1","1","0","0","1","1","0","1","1","0","1","0","1","3","4","4","4","4","1","3","3","3","2","2","757590139374669825","孙","403","","","","","","","","","","","","","","","","","","","true","12","2","moral","640","positive","君子","","","","","","","","","","","","","","","","",""
"null","","null","html-keyboard-response","48","143923","0.0-6.0-1.0-4.0-0.7","2","3","2","2","2","2","2","1","2","2","2","2","2","2","2","2","2","2","2","2","4","4","4","3","4","3","4","4","3","1","0","1","1","0","0","1","1","0","1","1","0","1","0","1","3","4","4","4","4","1","3","3","3","2","2","757590139374669825","孙","403","","","","","","","","","","","","","","","","","","","","","","","","","","","","","","","","","","","","","","","","","",""
"480","<p style=""color:white; font-size: 35px;"">诚信</p>","e","categorize-html","49","144405","0.0-6.0-1.0-4.0-1.7","2","3","2","2","2","2","2","1","2","2","2","2","2","2","2","2","2","2","2","2","4","4","4","3","4","3","4","4","3","1","0","1","1","0","0","1","1","0","1","1","0","1","0","1","3","4","4","4","4","1","3","3","3","2","2","757590139374669825","孙","403","","","","","","","","","","","","","","","","","","","true","12","2","moral","480","positive","诚信","","","","","","","","","","","","","","","","",""
"null","","null","html-keyboard-response","50","144659","0.0-6.0-1.0-4.0-0.8","2","3","2","2","2","2","2","1","2","2","2","2","2","2","2","2","2","2","2","2","4","4","4","3","4","3","4","4","3","1","0","1","1","0","0","1","1","0","1","1","0","1","0","1","3","4","4","4","4","1","3","3","3","2","2","757590139374669825","孙","403","","","","","","","","","","","","","","","","","","","","","","","","","","","","","","","","","","","","","","","","","",""
"632","<p style=""color:white; font-size: 35px;"">黑心</p>","i","categorize-html","51","145293","0.0-6.0-1.0-4.0-1.8","2","3","2","2","2","2","2","1","2","2","2","2","2","2","2","2","2","2","2","2","4","4","4","3","4","3","4","4","3","1","0","1","1","0","0","1","1","0","1","1","0","1","0","1","3","4","4","4","4","1","3","3","3","2","2","757590139374669825","孙","403","","","","","","","","","","","","","","","","","","","true","12","2","moral","632","negative","黑心","","","","","","","","","","","","","","","","",""
"null","","null","html-keyboard-response","52","145547","0.0-6.0-1.0-4.0-0.9","2","3","2","2","2","2","2","1","2","2","2","2","2","2","2","2","2","2","2","2","4","4","4","3","4","3","4","4","3","1","0","1","1","0","0","1","1","0","1","1","0","1","0","1","3","4","4","4","4","1","3","3","3","2","2","757590139374669825","孙","403","","","","","","","","","","","","","","","","","","","","","","","","","","","","","","","","","","","","","","","","","",""
"528","<p style=""color:white; font-size: 35px;"">小人</p>","i","categorize-html","53","146077","0.0-6.0-1.0-4.0-1.9","2","3","2","2","2","2","2","1","2","2","2","2","2","2","2","2","2","2","2","2","4","4","4","3","4","3","4","4","3","1","0","1","1","0","0","1","1","0","1","1","0","1","0","1","3","4","4","4","4","1","3","3","3","2","2","757590139374669825","孙","403","","","","","","","","","","","","","","","","","","","true","12","2","moral","528","negative","小人","","","","","","","","","","","","","","","","",""
"null","","null","html-keyboard-response","54","146331","0.0-6.0-1.0-4.0-0.10","2","3","2","2","2","2","2","1","2","2","2","2","2","2","2","2","2","2","2","2","4","4","4","3","4","3","4","4","3","1","0","1","1","0","0","1","1","0","1","1","0","1","0","1","3","4","4","4","4","1","3","3","3","2","2","757590139374669825","孙","403","","","","","","","","","","","","","","","","","","","","","","","","","","","","","","","","","","","","","","","","","",""
"560","<p style=""color:white; font-size: 35px;"">不仁</p>","i","categorize-html","55","146892","0.0-6.0-1.0-4.0-1.10","2","3","2","2","2","2","2","1","2","2","2","2","2","2","2","2","2","2","2","2","4","4","4","3","4","3","4","4","3","1","0","1","1","0","0","1","1","0","1","1","0","1","0","1","3","4","4","4","4","1","3","3","3","2","2","757590139374669825","孙","403","","","","","","","","","","","","","","","","","","","true","12","2","moral","560","negative","不仁","","","","","","","","","","","","","","","","",""
"null","","null","html-keyboard-response","56","147147","0.0-6.0-1.0-4.0-0.11","2","3","2","2","2","2","2","1","2","2","2","2","2","2","2","2","2","2","2","2","4","4","4","3","4","3","4","4","3","1","0","1","1","0","0","1","1","0","1","1","0","1","0","1","3","4","4","4","4","1","3","3","3","2","2","757590139374669825","孙","403","","","","","","","","","","","","","","","","","","","","","","","","","","","","","","","","","","","","","","","","","",""
"696","<p style=""color:white; font-size: 35px;"">廉正</p>","e","categorize-html","57","147844","0.0-6.0-1.0-4.0-1.11","2","3","2","2","2","2","2","1","2","2","2","2","2","2","2","2","2","2","2","2","4","4","4","3","4","3","4","4","3","1","0","1","1","0","0","1","1","0","1","1","0","1","0","1","3","4","4","4","4","1","3","3","3","2","2","757590139374669825","孙","403","","","","","","","","","","","","","","","","","","","true","12","2","moral","696","positive","廉正","","","","","","","","","","","","","","","","",""
"799","
    <div class=""tag-bottom""><p>
    —— 任务3：对“自我/积极”词和“他人/消极”词分类 ——<p/>
    <span style=""color:#78DCE8""><b>注意上方，之前的四类词语将混合在一起交替呈现</b></span><p/>
    <span style=""color:#FFD866""><b>请根据上方标签的提示，尽可能正确并且快速地做出按键反应</b></span><p/>
    当按键错误时屏幕中会出现<span style=""color:red""> X </span>，需要按另一个键纠正才能继续<br/><p/>
    请把双手食指分别放在键盘的“E”键和“I”键上<p/>
    按<空格键>开始
    </p></div>"," ","html-keyboard-response","58","148644","0.0-6.0-1.0-5.0","2","3","2","2","2","2","2","1","2","2","2","2","2","2","2","2","2","2","2","2","4","4","4","3","4","3","4","4","3","1","0","1","1","0","0","1","1","0","1","1","0","1","0","1","3","4","4","4","4","1","3","3","3","2","2","757590139374669825","孙","403","","","","","","","","","","","","","","","","","","","","","","","","","","","","","","","","","","","","","","","","","",""
"null","","null","html-keyboard-response","59","148899","0.0-6.0-1.0-6.0-0.0","2","3","2","2","2","2","2","1","2","2","2","2","2","2","2","2","2","2","2","2","4","4","4","3","4","3","4","4","3","1","0","1","1","0","0","1","1","0","1","1","0","1","0","1","3","4","4","4","4","1","3","3","3","2","2","757590139374669825","孙","403","","","","","","","","","","","","","","","","","","","","","","","","","","","","","","","","","","","","","","","","","",""
"1008","<p style=""color:rgb(150, 250, 100); font-size: 35px;"">别人</p>","i","categorize-html","60","149909","0.0-6.0-1.0-6.0-1.0","2","3","2","2","2","2","2","1","2","2","2","2","2","2","2","2","2","2","2","2","4","4","4","3","4","3","4","4","3","1","0","1","1","0","0","1","1","0","1","1","0","1","0","1","3","4","4","4","4","1","3","3","3","2","2","757590139374669825","孙","403","","","","","","","","","","","","","","","","","","","true","13","3","moral","1008","other","别人","","","","","","","","","","","","","","","","",""
"null","","null","html-keyboard-response","61","150163","0.0-6.0-1.0-6.0-0.1","2","3","2","2","2","2","2","1","2","2","2","2","2","2","2","2","2","2","2","2","4","4","4","3","4","3","4","4","3","1","0","1","1","0","0","1","1","0","1","1","0","1","0","1","3","4","4","4","4","1","3","3","3","2","2","757590139374669825","孙","403","","","","","","","","","","","","","","","","","","","","","","","","","","","","","","","","","","","","","","","","","",""
"680","<p style=""color:white; font-size: 35px;"">君子</p>","e","categorize-html","62","150845","0.0-6.0-1.0-6.0-1.1","2","3","2","2","2","2","2","1","2","2","2","2","2","2","2","2","2","2","2","2","4","4","4","3","4","3","4","4","3","1","0","1","1","0","0","1","1","0","1","1","0","1","0","1","3","4","4","4","4","1","3","3","3","2","2","757590139374669825","孙","403","","","","","","","","","","","","","","","","","","","true","13","3","moral","680","positive","君子","","","","","","","","","","","","","","","","",""
"null","","null","html-keyboard-response","63","151099","0.0-6.0-1.0-6.0-0.2","2","3","2","2","2","2","2","1","2","2","2","2","2","2","2","2","2","2","2","2","4","4","4","3","4","3","4","4","3","1","0","1","1","0","0","1","1","0","1","1","0","1","0","1","3","4","4","4","4","1","3","3","3","2","2","757590139374669825","孙","403","","","","","","","","","","","","","","","","","","","","","","","","","","","","","","","","","","","","","","","","","",""
"752","<p style=""color:rgb(150, 250, 100); font-size: 35px;"">本人</p>","e","categorize-html","64","151852","0.0-6.0-1.0-6.0-1.2","2","3","2","2","2","2","2","1","2","2","2","2","2","2","2","2","2","2","2","2","4","4","4","3","4","3","4","4","3","1","0","1","1","0","0","1","1","0","1","1","0","1","0","1","3","4","4","4","4","1","3","3","3","2","2","757590139374669825","孙","403","","","","","","","","","","","","","","","","","","","true","13","3","moral","752","self","本人","","","","","","","","","","","","","","","","",""
"null","","null","html-keyboard-response","65","152107","0.0-6.0-1.0-6.0-0.3","2","3","2","2","2","2","2","1","2","2","2","2","2","2","2","2","2","2","2","2","4","4","4","3","4","3","4","4","3","1","0","1","1","0","0","1","1","0","1","1","0","1","0","1","3","4","4","4","4","1","3","3","3","2","2","757590139374669825","孙","403","","","","","","","","","","","","","","","","","","","","","","","","","","","","","","","","","","","","","","","","","",""
"736","<p style=""color:white; font-size: 35px;"">小人</p>","i","categorize-html","66","152844","0.0-6.0-1.0-6.0-1.3","2","3","2","2","2","2","2","1","2","2","2","2","2","2","2","2","2","2","2","2","4","4","4","3","4","3","4","4","3","1","0","1","1","0","0","1","1","0","1","1","0","1","0","1","3","4","4","4","4","1","3","3","3","2","2","757590139374669825","孙","403","","","","","","","","","","","","","","","","","","","true","13","3","moral","736","negative","小人","","","","","","","","","","","","","","","","",""
"null","","null","html-keyboard-response","67","153099","0.0-6.0-1.0-6.0-0.4","2","3","2","2","2","2","2","1","2","2","2","2","2","2","2","2","2","2","2","2","4","4","4","3","4","3","4","4","3","1","0","1","1","0","0","1","1","0","1","1","0","1","0","1","3","4","4","4","4","1","3","3","3","2","2","757590139374669825","孙","403","","","","","","","","","","","","","","","","","","","","","","","","","","","","","","","","","","","","","","","","","",""
"736","<p style=""color:rgb(150, 250, 100); font-size: 35px;"">本人的</p>","e","categorize-html","68","153837","0.0-6.0-1.0-6.0-1.4","2","3","2","2","2","2","2","1","2","2","2","2","2","2","2","2","2","2","2","2","4","4","4","3","4","3","4","4","3","1","0","1","1","0","0","1","1","0","1","1","0","1","0","1","3","4","4","4","4","1","3","3","3","2","2","757590139374669825","孙","403","","","","","","","","","","","","","","","","","","","true","13","3","moral","736","self","本人的","","","","","","","","","","","","","","","","",""
"null","","null","html-keyboard-response","69","154091","0.0-6.0-1.0-6.0-0.5","2","3","2","2","2","2","2","1","2","2","2","2","2","2","2","2","2","2","2","2","4","4","4","3","4","3","4","4","3","1","0","1","1","0","0","1","1","0","1","1","0","1","0","1","3","4","4","4","4","1","3","3","3","2","2","757590139374669825","孙","403","","","","","","","","","","","","","","","","","","","","","","","","","","","","","","","","","","","","","","","","","",""
"648","<p style=""color:white; font-size: 35px;"">不仁</p>","i","categorize-html","70","154741","0.0-6.0-1.0-6.0-1.5","2","3","2","2","2","2","2","1","2","2","2","2","2","2","2","2","2","2","2","2","4","4","4","3","4","3","4","4","3","1","0","1","1","0","0","1","1","0","1","1","0","1","0","1","3","4","4","4","4","1","3","3","3","2","2","757590139374669825","孙","403","","","","","","","","","","","","","","","","","","","true","13","3","moral","648","negative","不仁","","","","","","","","","","","","","","","","",""
"null","","null","html-keyboard-response","71","154994","0.0-6.0-1.0-6.0-0.6","2","3","2","2","2","2","2","1","2","2","2","2","2","2","2","2","2","2","2","2","4","4","4","3","4","3","4","4","3","1","0","1","1","0","0","1","1","0","1","1","0","1","0","1","3","4","4","4","4","1","3","3","3","2","2","757590139374669825","孙","403","","","","","","","","","","","","","","","","","","","","","","","","","","","","","","","","","","","","","","","","","",""
"585","<p style=""color:rgb(150, 250, 100); font-size: 35px;"">别人的</p>","i","categorize-html","72","155580","0.0-6.0-1.0-6.0-1.6","2","3","2","2","2","2","2","1","2","2","2","2","2","2","2","2","2","2","2","2","4","4","4","3","4","3","4","4","3","1","0","1","1","0","0","1","1","0","1","1","0","1","0","1","3","4","4","4","4","1","3","3","3","2","2","757590139374669825","孙","403","","","","","","","","","","","","","","","","","","","true","13","3","moral","585","other","别人的","","","","","","","","","","","","","","","","",""
"null","","null","html-keyboard-response","73","155835","0.0-6.0-1.0-6.0-0.7","2","3","2","2","2","2","2","1","2","2","2","2","2","2","2","2","2","2","2","2","4","4","4","3","4","3","4","4","3","1","0","1","1","0","0","1","1","0","1","1","0","1","0","1","3","4","4","4","4","1","3","3","3","2","2","757590139374669825","孙","403","","","","","","","","","","","","","","","","","","","","","","","","","","","","","","","","","","","","","","","","","",""
"648","<p style=""color:white; font-size: 35px;"">善良</p>","e","categorize-html","74","156485","0.0-6.0-1.0-6.0-1.7","2","3","2","2","2","2","2","1","2","2","2","2","2","2","2","2","2","2","2","2","4","4","4","3","4","3","4","4","3","1","0","1","1","0","0","1","1","0","1","1","0","1","0","1","3","4","4","4","4","1","3","3","3","2","2","757590139374669825","孙","403","","","","","","","","","","","","","","","","","","","true","13","3","moral","648","positive","善良","","","","","","","","","","","","","","","","",""
"null","","null","html-keyboard-response","75","156739","0.0-6.0-1.0-6.0-0.8","2","3","2","2","2","2","2","1","2","2","2","2","2","2","2","2","2","2","2","2","4","4","4","3","4","3","4","4","3","1","0","1","1","0","0","1","1","0","1","1","0","1","0","1","3","4","4","4","4","1","3","3","3","2","2","757590139374669825","孙","403","","","","","","","","","","","","","","","","","","","","","","","","","","","","","","","","","","","","","","","","","",""
"489","<p style=""color:rgb(150, 250, 100); font-size: 35px;"">我的</p>","e","categorize-html","76","157229","0.0-6.0-1.0-6.0-1.8","2","3","2","2","2","2","2","1","2","2","2","2","2","2","2","2","2","2","2","2","4","4","4","3","4","3","4","4","3","1","0","1","1","0","0","1","1","0","1","1","0","1","0","1","3","4","4","4","4","1","3","3","3","2","2","757590139374669825","孙","403","","","","","","","","","","","","","","","","","","","true","13","3","moral","489","self","我的","","","","","","","","","","","","","","","","",""
"null","","null","html-keyboard-response","77","157483","0.0-6.0-1.0-6.0-0.9","2","3","2","2","2","2","2","1","2","2","2","2","2","2","2","2","2","2","2","2","4","4","4","3","4","3","4","4","3","1","0","1","1","0","0","1","1","0","1","1","0","1","0","1","3","4","4","4","4","1","3","3","3","2","2","757590139374669825","孙","403","","","","","","","","","","","","","","","","","","","","","","","","","","","","","","","","","","","","","","","","","",""
"673","<p style=""color:white; font-size: 35px;"">高尚</p>","e","categorize-html","78","158158","0.0-6.0-1.0-6.0-1.9","2","3","2","2","2","2","2","1","2","2","2","2","2","2","2","2","2","2","2","2","4","4","4","3","4","3","4","4","3","1","0","1","1","0","0","1","1","0","1","1","0","1","0","1","3","4","4","4","4","1","3","3","3","2","2","757590139374669825","孙","403","","","","","","","","","","","","","","","","","","","true","13","3","moral","673","positive","高尚","","","","","","","","","","","","","","","","",""
"null","","null","html-keyboard-response","79","158411","0.0-6.0-1.0-6.0-0.10","2","3","2","2","2","2","2","1","2","2","2","2","2","2","2","2","2","2","2","2","4","4","4","3","4","3","4","4","3","1","0","1","1","0","0","1","1","0","1","1","0","1","0","1","3","4","4","4","4","1","3","3","3","2","2","757590139374669825","孙","403","","","","","","","","","","","","","","","","","","","","","","","","","","","","","","","","","","","","","","","","","",""
"512","<p style=""color:rgb(150, 250, 100); font-size: 35px;"">他的</p>","i","categorize-html","80","158925","0.0-6.0-1.0-6.0-1.10","2","3","2","2","2","2","2","1","2","2","2","2","2","2","2","2","2","2","2","2","4","4","4","3","4","3","4","4","3","1","0","1","1","0","0","1","1","0","1","1","0","1","0","1","3","4","4","4","4","1","3","3","3","2","2","757590139374669825","孙","403","","","","","","","","","","","","","","","","","","","true","13","3","moral","512","other","他的","","","","","","","","","","","","","","","","",""
"null","","null","html-keyboard-response","81","159178","0.0-6.0-1.0-6.0-0.11","2","3","2","2","2","2","2","1","2","2","2","2","2","2","2","2","2","2","2","2","4","4","4","3","4","3","4","4","3","1","0","1","1","0","0","1","1","0","1","1","0","1","0","1","3","4","4","4","4","1","3","3","3","2","2","757590139374669825","孙","403","","","","","","","","","","","","","","","","","","","","","","","","","","","","","","","","","","","","","","","","","",""
"521","<p style=""color:white; font-size: 35px;"">黑心</p>","i","categorize-html","82","159700","0.0-6.0-1.0-6.0-1.11","2","3","2","2","2","2","2","1","2","2","2","2","2","2","2","2","2","2","2","2","4","4","4","3","4","3","4","4","3","1","0","1","1","0","0","1","1","0","1","1","0","1","0","1","3","4","4","4","4","1","3","3","3","2","2","757590139374669825","孙","403","","","","","","","","","","","","","","","","","","","true","13","3","moral","521","negative","黑心","","","","","","","","","","","","","","","","",""
"null","","null","html-keyboard-response","83","159955","0.0-6.0-1.0-6.0-0.12","2","3","2","2","2","2","2","1","2","2","2","2","2","2","2","2","2","2","2","2","4","4","4","3","4","3","4","4","3","1","0","1","1","0","0","1","1","0","1","1","0","1","0","1","3","4","4","4","4","1","3","3","3","2","2","757590139374669825","孙","403","","","","","","","","","","","","","","","","","","","","","","","","","","","","","","","","","","","","","","","","","",""
"504","<p style=""color:rgb(150, 250, 100); font-size: 35px;"">他</p>","i","categorize-html","84","160461","0.0-6.0-1.0-6.0-1.12","2","3","2","2","2","2","2","1","2","2","2","2","2","2","2","2","2","2","2","2","4","4","4","3","4","3","4","4","3","1","0","1","1","0","0","1","1","0","1","1","0","1","0","1","3","4","4","4","4","1","3","3","3","2","2","757590139374669825","孙","403","","","","","","","","","","","","","","","","","","","true","13","3","moral","504","other","他","","","","","","","","","","","","","","","","",""
"null","","null","html-keyboard-response","85","160714","0.0-6.0-1.0-6.0-0.13","2","3","2","2","2","2","2","1","2","2","2","2","2","2","2","2","2","2","2","2","4","4","4","3","4","3","4","4","3","1","0","1","1","0","0","1","1","0","1","1","0","1","0","1","3","4","4","4","4","1","3","3","3","2","2","757590139374669825","孙","403","","","","","","","","","","","","","","","","","","","","","","","","","","","","","","","","","","","","","","","","","",""
"665","<p style=""color:white; font-size: 35px;"">廉正</p>","e","categorize-html","86","161380","0.0-6.0-1.0-6.0-1.13","2","3","2","2","2","2","2","1","2","2","2","2","2","2","2","2","2","2","2","2","4","4","4","3","4","3","4","4","3","1","0","1","1","0","0","1","1","0","1","1","0","1","0","1","3","4","4","4","4","1","3","3","3","2","2","757590139374669825","孙","403","","","","","","","","","","","","","","","","","","","true","13","3","moral","665","positive","廉正","","","","","","","","","","","","","","","","",""
"null","","null","html-keyboard-response","87","161635","0.0-6.0-1.0-6.0-0.14","2","3","2","2","2","2","2","1","2","2","2","2","2","2","2","2","2","2","2","2","4","4","4","3","4","3","4","4","3","1","0","1","1","0","0","1","1","0","1","1","0","1","0","1","3","4","4","4","4","1","3","3","3","2","2","757590139374669825","孙","403","","","","","","","","","","","","","","","","","","","","","","","","","","","","","","","","","","","","","","","","","",""
"472","<p style=""color:rgb(150, 250, 100); font-size: 35px;"">自己的</p>","e","categorize-html","88","162109","0.0-6.0-1.0-6.0-1.14","2","3","2","2","2","2","2","1","2","2","2","2","2","2","2","2","2","2","2","2","4","4","4","3","4","3","4","4","3","1","0","1","1","0","0","1","1","0","1","1","0","1","0","1","3","4","4","4","4","1","3","3","3","2","2","757590139374669825","孙","403","","","","","","","","","","","","","","","","","","","true","13","3","moral","472","self","自己的","","","","","","","","","","","","","","","","",""
"null","","null","html-keyboard-response","89","162363","0.0-6.0-1.0-6.0-0.15","2","3","2","2","2","2","2","1","2","2","2","2","2","2","2","2","2","2","2","2","4","4","4","3","4","3","4","4","3","1","0","1","1","0","0","1","1","0","1","1","0","1","0","1","3","4","4","4","4","1","3","3","3","2","2","757590139374669825","孙","403","","","","","","","","","","","","","","","","","","","","","","","","","","","","","","","","","","","","","","","","","",""
"569","<p style=""color:white; font-size: 35px;"">缺德</p>","i","categorize-html","90","162933","0.0-6.0-1.0-6.0-1.15","2","3","2","2","2","2","2","1","2","2","2","2","2","2","2","2","2","2","2","2","4","4","4","3","4","3","4","4","3","1","0","1","1","0","0","1","1","0","1","1","0","1","0","1","3","4","4","4","4","1","3","3","3","2","2","757590139374669825","孙","403","","","","","","","","","","","","","","","","","","","true","13","3","moral","569","negative","缺德","","","","","","","","","","","","","","","","",""
"null","","null","html-keyboard-response","91","163187","0.0-6.0-1.0-6.0-0.16","2","3","2","2","2","2","2","1","2","2","2","2","2","2","2","2","2","2","2","2","4","4","4","3","4","3","4","4","3","1","0","1","1","0","0","1","1","0","1","1","0","1","0","1","3","4","4","4","4","1","3","3","3","2","2","757590139374669825","孙","403","","","","","","","","","","","","","","","","","","","","","","","","","","","","","","","","","","","","","","","","","",""
"562","<p style=""color:rgb(150, 250, 100); font-size: 35px;"">他人</p>","i","categorize-html","92","163750","0.0-6.0-1.0-6.0-1.16","2","3","2","2","2","2","2","1","2","2","2","2","2","2","2","2","2","2","2","2","4","4","4","3","4","3","4","4","3","1","0","1","1","0","0","1","1","0","1","1","0","1","0","1","3","4","4","4","4","1","3","3","3","2","2","757590139374669825","孙","403","","","","","","","","","","","","","","","","","","","true","13","3","moral","562","other","他人","","","","","","","","","","","","","","","","",""
"null","","null","html-keyboard-response","93","164003","0.0-6.0-1.0-6.0-0.17","2","3","2","2","2","2","2","1","2","2","2","2","2","2","2","2","2","2","2","2","4","4","4","3","4","3","4","4","3","1","0","1","1","0","0","1","1","0","1","1","0","1","0","1","3","4","4","4","4","1","3","3","3","2","2","757590139374669825","孙","403","","","","","","","","","","","","","","","","","","","","","","","","","","","","","","","","","","","","","","","","","",""
"576","<p style=""color:white; font-size: 35px;"">正直</p>","e","categorize-html","94","164580","0.0-6.0-1.0-6.0-1.17","2","3","2","2","2","2","2","1","2","2","2","2","2","2","2","2","2","2","2","2","4","4","4","3","4","3","4","4","3","1","0","1","1","0","0","1","1","0","1","1","0","1","0","1","3","4","4","4","4","1","3","3","3","2","2","757590139374669825","孙","403","","","","","","","","","","","","","","","","","","","true","13","3","moral","576","positive","正直","","","","","","","","","","","","","","","","",""
"null","","null","html-keyboard-response","95","164835","0.0-6.0-1.0-6.0-0.18","2","3","2","2","2","2","2","1","2","2","2","2","2","2","2","2","2","2","2","2","4","4","4","3","4","3","4","4","3","1","0","1","1","0","0","1","1","0","1","1","0","1","0","1","3","4","4","4","4","1","3","3","3","2","2","757590139374669825","孙","403","","","","","","","","","","","","","","","","","","","","","","","","","","","","","","","","","","","","","","","","","",""
"593","<p style=""color:rgb(150, 250, 100); font-size: 35px;"">自己</p>","e","categorize-html","96","165430","0.0-6.0-1.0-6.0-1.18","2","3","2","2","2","2","2","1","2","2","2","2","2","2","2","2","2","2","2","2","4","4","4","3","4","3","4","4","3","1","0","1","1","0","0","1","1","0","1","1","0","1","0","1","3","4","4","4","4","1","3","3","3","2","2","757590139374669825","孙","403","","","","","","","","","","","","","","","","","","","true","13","3","moral","593","self","自己","","","","","","","","","","","","","","","","",""
"null","","null","html-keyboard-response","97","165683","0.0-6.0-1.0-6.0-0.19","2","3","2","2","2","2","2","1","2","2","2","2","2","2","2","2","2","2","2","2","4","4","4","3","4","3","4","4","3","1","0","1","1","0","0","1","1","0","1","1","0","1","0","1","3","4","4","4","4","1","3","3","3","2","2","757590139374669825","孙","403","","","","","","","","","","","","","","","","","","","","","","","","","","","","","","","","","","","","","","","","","",""
"577","<p style=""color:white; font-size: 35px;"">卑鄙</p>","i","categorize-html","98","166261","0.0-6.0-1.0-6.0-1.19","2","3","2","2","2","2","2","1","2","2","2","2","2","2","2","2","2","2","2","2","4","4","4","3","4","3","4","4","3","1","0","1","1","0","0","1","1","0","1","1","0","1","0","1","3","4","4","4","4","1","3","3","3","2","2","757590139374669825","孙","403","","","","","","","","","","","","","","","","","","","true","13","3","moral","577","negative","卑鄙","","","","","","","","","","","","","","","","",""
"null","","null","html-keyboard-response","99","166515","0.0-6.0-1.0-6.0-0.20","2","3","2","2","2","2","2","1","2","2","2","2","2","2","2","2","2","2","2","2","4","4","4","3","4","3","4","4","3","1","0","1","1","0","0","1","1","0","1","1","0","1","0","1","3","4","4","4","4","1","3","3","3","2","2","757590139374669825","孙","403","","","","","","","","","","","","","","","","","","","","","","","","","","","","","","","","","","","","","","","","","",""
"537","<p style=""color:rgb(150, 250, 100); font-size: 35px;"">我</p>","e","categorize-html","100","167053","0.0-6.0-1.0-6.0-1.20","2","3","2","2","2","2","2","1","2","2","2","2","2","2","2","2","2","2","2","2","4","4","4","3","4","3","4","4","3","1","0","1","1","0","0","1","1","0","1","1","0","1","0","1","3","4","4","4","4","1","3","3","3","2","2","757590139374669825","孙","403","","","","","","","","","","","","","","","","","","","true","13","3","moral","537","self","我","","","","","","","","","","","","","","","","",""
"null","","null","html-keyboard-response","101","167306","0.0-6.0-1.0-6.0-0.21","2","3","2","2","2","2","2","1","2","2","2","2","2","2","2","2","2","2","2","2","4","4","4","3","4","3","4","4","3","1","0","1","1","0","0","1","1","0","1","1","0","1","0","1","3","4","4","4","4","1","3","3","3","2","2","757590139374669825","孙","403","","","","","","","","","","","","","","","","","","","","","","","","","","","","","","","","","","","","","","","","","",""
"641","<p style=""color:white; font-size: 35px;"">诚信</p>","e","categorize-html","102","167949","0.0-6.0-1.0-6.0-1.21","2","3","2","2","2","2","2","1","2","2","2","2","2","2","2","2","2","2","2","2","4","4","4","3","4","3","4","4","3","1","0","1","1","0","0","1","1","0","1","1","0","1","0","1","3","4","4","4","4","1","3","3","3","2","2","757590139374669825","孙","403","","","","","","","","","","","","","","","","","","","true","13","3","moral","641","positive","诚信","","","","","","","","","","","","","","","","",""
"null","","null","html-keyboard-response","103","168203","0.0-6.0-1.0-6.0-0.22","2","3","2","2","2","2","2","1","2","2","2","2","2","2","2","2","2","2","2","2","4","4","4","3","4","3","4","4","3","1","0","1","1","0","0","1","1","0","1","1","0","1","0","1","3","4","4","4","4","1","3","3","3","2","2","757590139374669825","孙","403","","","","","","","","","","","","","","","","","","","","","","","","","","","","","","","","","","","","","","","","","",""
"513","<p style=""color:rgb(150, 250, 100); font-size: 35px;"">他人的</p>","i","categorize-html","104","168717","0.0-6.0-1.0-6.0-1.22","2","3","2","2","2","2","2","1","2","2","2","2","2","2","2","2","2","2","2","2","4","4","4","3","4","3","4","4","3","1","0","1","1","0","0","1","1","0","1","1","0","1","0","1","3","4","4","4","4","1","3","3","3","2","2","757590139374669825","孙","403","","","","","","","","","","","","","","","","","","","true","13","3","moral","513","other","他人的","","","","","","","","","","","","","","","","",""
"null","","null","html-keyboard-response","105","168971","0.0-6.0-1.0-6.0-0.23","2","3","2","2","2","2","2","1","2","2","2","2","2","2","2","2","2","2","2","2","4","4","4","3","4","3","4","4","3","1","0","1","1","0","0","1","1","0","1","1","0","1","0","1","3","4","4","4","4","1","3","3","3","2","2","757590139374669825","孙","403","","","","","","","","","","","","","","","","","","","","","","","","","","","","","","","","","","","","","","","","","",""
"489","<p style=""color:white; font-size: 35px;"">不孝</p>","i","categorize-html","106","169461","0.0-6.0-1.0-6.0-1.23","2","3","2","2","2","2","2","1","2","2","2","2","2","2","2","2","2","2","2","2","4","4","4","3","4","3","4","4","3","1","0","1","1","0","0","1","1","0","1","1","0","1","0","1","3","4","4","4","4","1","3","3","3","2","2","757590139374669825","孙","403","","","","","","","","","","","","","","","","","","","true","13","3","moral","489","negative","不孝","","","","","","","","","","","","","","","","",""
"656","
    <div class=""tag-bottom""><p>
    —— 任务4：对“自我/积极”词和“他人/消极”词分类 ——<p/>
    <span style=""color:#78DCE8""><b>与刚才的任务完全相同，请再次对这四类词语分类</b></span><p/>
    <span style=""color:#FFD866""><b>请根据上方标签的提示，尽可能正确并且快速地做出按键反应</b></span><p/>
    当按键错误时屏幕中会出现<span style=""color:red""> X </span>，需要按另一个键纠正才能继续<br/><p/>
    请把双手食指分别放在键盘的“E”键和“I”键上<p/>
    按<空格键>开始
    </p></div>"," ","html-keyboard-response","107","170117","0.0-6.0-1.0-7.0","2","3","2","2","2","2","2","1","2","2","2","2","2","2","2","2","2","2","2","2","4","4","4","3","4","3","4","4","3","1","0","1","1","0","0","1","1","0","1","1","0","1","0","1","3","4","4","4","4","1","3","3","3","2","2","757590139374669825","孙","403","","","","","","","","","","","","","","","","","","","","","","","","","","","","","","","","","","","","","","","","","",""
"null","","null","html-keyboard-response","108","170371","0.0-6.0-1.0-8.0-0.0","2","3","2","2","2","2","2","1","2","2","2","2","2","2","2","2","2","2","2","2","4","4","4","3","4","3","4","4","3","1","0","1","1","0","0","1","1","0","1","1","0","1","0","1","3","4","4","4","4","1","3","3","3","2","2","757590139374669825","孙","403","","","","","","","","","","","","","","","","","","","","","","","","","","","","","","","","","","","","","","","","","",""
"776","<p style=""color:rgb(150, 250, 100); font-size: 35px;"">别人的</p>","i","categorize-html","109","171149","0.0-6.0-1.0-8.0-1.0","2","3","2","2","2","2","2","1","2","2","2","2","2","2","2","2","2","2","2","2","4","4","4","3","4","3","4","4","3","1","0","1","1","0","0","1","1","0","1","1","0","1","0","1","3","4","4","4","4","1","3","3","3","2","2","757590139374669825","孙","403","","","","","","","","","","","","","","","","","","","true","14","4","moral","776","other","别人的","","","","","","","","","","","","","","","","",""
"null","","null","html-keyboard-response","110","171403","0.0-6.0-1.0-8.0-0.1","2","3","2","2","2","2","2","1","2","2","2","2","2","2","2","2","2","2","2","2","4","4","4","3","4","3","4","4","3","1","0","1","1","0","0","1","1","0","1","1","0","1","0","1","3","4","4","4","4","1","3","3","3","2","2","757590139374669825","孙","403","","","","","","","","","","","","","","","","","","","","","","","","","","","","","","","","","","","","","","","","","",""
"657","<p style=""color:white; font-size: 35px;"">黑心</p>","i","categorize-html","111","172061","0.0-6.0-1.0-8.0-1.1","2","3","2","2","2","2","2","1","2","2","2","2","2","2","2","2","2","2","2","2","4","4","4","3","4","3","4","4","3","1","0","1","1","0","0","1","1","0","1","1","0","1","0","1","3","4","4","4","4","1","3","3","3","2","2","757590139374669825","孙","403","","","","","","","","","","","","","","","","","","","true","14","4","moral","657","negative","黑心","","","","","","","","","","","","","","","","",""
"null","","null","html-keyboard-response","112","172317","0.0-6.0-1.0-8.0-0.2","2","3","2","2","2","2","2","1","2","2","2","2","2","2","2","2","2","2","2","2","4","4","4","3","4","3","4","4","3","1","0","1","1","0","0","1","1","0","1","1","0","1","0","1","3","4","4","4","4","1","3","3","3","2","2","757590139374669825","孙","403","","","","","","","","","","","","","","","","","","","","","","","","","","","","","","","","","","","","","","","","","",""
"487","<p style=""color:rgb(150, 250, 100); font-size: 35px;"">我的</p>","e","categorize-html","113","172805","0.0-6.0-1.0-8.0-1.2","2","3","2","2","2","2","2","1","2","2","2","2","2","2","2","2","2","2","2","2","4","4","4","3","4","3","4","4","3","1","0","1","1","0","0","1","1","0","1","1","0","1","0","1","3","4","4","4","4","1","3","3","3","2","2","757590139374669825","孙","403","","","","","","","","","","","","","","","","","","","true","14","4","moral","487","self","我的","","","","","","","","","","","","","","","","",""
"null","","null","html-keyboard-response","114","173059","0.0-6.0-1.0-8.0-0.3","2","3","2","2","2","2","2","1","2","2","2","2","2","2","2","2","2","2","2","2","4","4","4","3","4","3","4","4","3","1","0","1","1","0","0","1","1","0","1","1","0","1","0","1","3","4","4","4","4","1","3","3","3","2","2","757590139374669825","孙","403","","","","","","","","","","","","","","","","","","","","","","","","","","","","","","","","","","","","","","","","","",""
"433","<p style=""color:white; font-size: 35px;"">正直</p>","e","categorize-html","115","173493","0.0-6.0-1.0-8.0-1.3","2","3","2","2","2","2","2","1","2","2","2","2","2","2","2","2","2","2","2","2","4","4","4","3","4","3","4","4","3","1","0","1","1","0","0","1","1","0","1","1","0","1","0","1","3","4","4","4","4","1","3","3","3","2","2","757590139374669825","孙","403","","","","","","","","","","","","","","","","","","","true","14","4","moral","433","positive","正直","","","","","","","","","","","","","","","","",""
"null","","null","html-keyboard-response","116","173747","0.0-6.0-1.0-8.0-0.4","2","3","2","2","2","2","2","1","2","2","2","2","2","2","2","2","2","2","2","2","4","4","4","3","4","3","4","4","3","1","0","1","1","0","0","1","1","0","1","1","0","1","0","1","3","4","4","4","4","1","3","3","3","2","2","757590139374669825","孙","403","","","","","","","","","","","","","","","","","","","","","","","","","","","","","","","","","","","","","","","","","",""
"481","<p style=""color:rgb(150, 250, 100); font-size: 35px;"">我</p>","e","categorize-html","117","174229","0.0-6.0-1.0-8.0-1.4","2","3","2","2","2","2","2","1","2","2","2","2","2","2","2","2","2","2","2","2","4","4","4","3","4","3","4","4","3","1","0","1","1","0","0","1","1","0","1","1","0","1","0","1","3","4","4","4","4","1","3","3","3","2","2","757590139374669825","孙","403","","","","","","","","","","","","","","","","","","","true","14","4","moral","481","self","我","","","","","","","","","","","","","","","","",""
"null","","null","html-keyboard-response","118","174483","0.0-6.0-1.0-8.0-0.5","2","3","2","2","2","2","2","1","2","2","2","2","2","2","2","2","2","2","2","2","4","4","4","3","4","3","4","4","3","1","0","1","1","0","0","1","1","0","1","1","0","1","0","1","3","4","4","4","4","1","3","3","3","2","2","757590139374669825","孙","403","","","","","","","","","","","","","","","","","","","","","","","","","","","","","","","","","","","","","","","","","",""
"585","<p style=""color:white; font-size: 35px;"">高尚</p>","e","categorize-html","119","175069","0.0-6.0-1.0-8.0-1.5","2","3","2","2","2","2","2","1","2","2","2","2","2","2","2","2","2","2","2","2","4","4","4","3","4","3","4","4","3","1","0","1","1","0","0","1","1","0","1","1","0","1","0","1","3","4","4","4","4","1","3","3","3","2","2","757590139374669825","孙","403","","","","","","","","","","","","","","","","","","","true","14","4","moral","585","positive","高尚","","","","","","","","","","","","","","","","",""
"null","","null","html-keyboard-response","120","175323","0.0-6.0-1.0-8.0-0.6","2","3","2","2","2","2","2","1","2","2","2","2","2","2","2","2","2","2","2","2","4","4","4","3","4","3","4","4","3","1","0","1","1","0","0","1","1","0","1","1","0","1","0","1","3","4","4","4","4","1","3","3","3","2","2","757590139374669825","孙","403","","","","","","","","","","","","","","","","","","","","","","","","","","","","","","","","","","","","","","","","","",""
"513","<p style=""color:rgb(150, 250, 100); font-size: 35px;"">他人的</p>","i","categorize-html","121","175837","0.0-6.0-1.0-8.0-1.6","2","3","2","2","2","2","2","1","2","2","2","2","2","2","2","2","2","2","2","2","4","4","4","3","4","3","4","4","3","1","0","1","1","0","0","1","1","0","1","1","0","1","0","1","3","4","4","4","4","1","3","3","3","2","2","757590139374669825","孙","403","","","","","","","","","","","","","","","","","","","true","14","4","moral","513","other","他人的","","","","","","","","","","","","","","","","",""
"null","","null","html-keyboard-response","122","176091","0.0-6.0-1.0-8.0-0.7","2","3","2","2","2","2","2","1","2","2","2","2","2","2","2","2","2","2","2","2","4","4","4","3","4","3","4","4","3","1","0","1","1","0","0","1","1","0","1","1","0","1","0","1","3","4","4","4","4","1","3","3","3","2","2","757590139374669825","孙","403","","","","","","","","","","","","","","","","","","","","","","","","","","","","","","","","","","","","","","","","","",""
"497","<p style=""color:white; font-size: 35px;"">小人</p>","i","categorize-html","123","176589","0.0-6.0-1.0-8.0-1.7","2","3","2","2","2","2","2","1","2","2","2","2","2","2","2","2","2","2","2","2","4","4","4","3","4","3","4","4","3","1","0","1","1","0","0","1","1","0","1","1","0","1","0","1","3","4","4","4","4","1","3","3","3","2","2","757590139374669825","孙","403","","","","","","","","","","","","","","","","","","","true","14","4","moral","497","negative","小人","","","","","","","","","","","","","","","","",""
"null","","null","html-keyboard-response","124","176843","0.0-6.0-1.0-8.0-0.8","2","3","2","2","2","2","2","1","2","2","2","2","2","2","2","2","2","2","2","2","4","4","4","3","4","3","4","4","3","1","0","1","1","0","0","1","1","0","1","1","0","1","0","1","3","4","4","4","4","1","3","3","3","2","2","757590139374669825","孙","403","","","","","","","","","","","","","","","","","","","","","","","","","","","","","","","","","","","","","","","","","",""
"521","<p style=""color:rgb(150, 250, 100); font-size: 35px;"">他</p>","i","categorize-html","125","177365","0.0-6.0-1.0-8.0-1.8","2","3","2","2","2","2","2","1","2","2","2","2","2","2","2","2","2","2","2","2","4","4","4","3","4","3","4","4","3","1","0","1","1","0","0","1","1","0","1","1","0","1","0","1","3","4","4","4","4","1","3","3","3","2","2","757590139374669825","孙","403","","","","","","","","","","","","","","","","","","","true","14","4","moral","521","other","他","","","","","","","","","","","","","","","","",""
"null","","null","html-keyboard-response","126","177619","0.0-6.0-1.0-8.0-0.9","2","3","2","2","2","2","2","1","2","2","2","2","2","2","2","2","2","2","2","2","4","4","4","3","4","3","4","4","3","1","0","1","1","0","0","1","1","0","1","1","0","1","0","1","3","4","4","4","4","1","3","3","3","2","2","757590139374669825","孙","403","","","","","","","","","","","","","","","","","","","","","","","","","","","","","","","","","","","","","","","","","",""
"625","<p style=""color:white; font-size: 35px;"">廉正</p>","e","categorize-html","127","178245","0.0-6.0-1.0-8.0-1.9","2","3","2","2","2","2","2","1","2","2","2","2","2","2","2","2","2","2","2","2","4","4","4","3","4","3","4","4","3","1","0","1","1","0","0","1","1","0","1","1","0","1","0","1","3","4","4","4","4","1","3","3","3","2","2","757590139374669825","孙","403","","","","","","","","","","","","","","","","","","","true","14","4","moral","625","positive","廉正","","","","","","","","","","","","","","","","",""
"null","","null","html-keyboard-response","128","178507","0.0-6.0-1.0-8.0-0.10","2","3","2","2","2","2","2","1","2","2","2","2","2","2","2","2","2","2","2","2","4","4","4","3","4","3","4","4","3","1","0","1","1","0","0","1","1","0","1","1","0","1","0","1","3","4","4","4","4","1","3","3","3","2","2","757590139374669825","孙","403","","","","","","","","","","","","","","","","","","","","","","","","","","","","","","","","","","","","","","","","","",""
"513","<p style=""color:rgb(150, 250, 100); font-size: 35px;"">本人的</p>","e","categorize-html","129","179021","0.0-6.0-1.0-8.0-1.10","2","3","2","2","2","2","2","1","2","2","2","2","2","2","2","2","2","2","2","2","4","4","4","3","4","3","4","4","3","1","0","1","1","0","0","1","1","0","1","1","0","1","0","1","3","4","4","4","4","1","3","3","3","2","2","757590139374669825","孙","403","","","","","","","","","","","","","","","","","","","true","14","4","moral","513","self","本人的","","","","","","","","","","","","","","","","",""
"null","","null","html-keyboard-response","130","179276","0.0-6.0-1.0-8.0-0.11","2","3","2","2","2","2","2","1","2","2","2","2","2","2","2","2","2","2","2","2","4","4","4","3","4","3","4","4","3","1","0","1","1","0","0","1","1","0","1","1","0","1","0","1","3","4","4","4","4","1","3","3","3","2","2","757590139374669825","孙","403","","","","","","","","","","","","","","","","","","","","","","","","","","","","","","","","","","","","","","","","","",""
"568","<p style=""color:white; font-size: 35px;"">缺德</p>","i","categorize-html","131","179845","0.0-6.0-1.0-8.0-1.11","2","3","2","2","2","2","2","1","2","2","2","2","2","2","2","2","2","2","2","2","4","4","4","3","4","3","4","4","3","1","0","1","1","0","0","1","1","0","1","1","0","1","0","1","3","4","4","4","4","1","3","3","3","2","2","757590139374669825","孙","403","","","","","","","","","","","","","","","","","","","true","14","4","moral","568","negative","缺德","","","","","","","","","","","","","","","","",""
"null","","null","html-keyboard-response","132","180100","0.0-6.0-1.0-8.0-0.12","2","3","2","2","2","2","2","1","2","2","2","2","2","2","2","2","2","2","2","2","4","4","4","3","4","3","4","4","3","1","0","1","1","0","0","1","1","0","1","1","0","1","0","1","3","4","4","4","4","1","3","3","3","2","2","757590139374669825","孙","403","","","","","","","","","","","","","","","","","","","","","","","","","","","","","","","","","","","","","","","","","",""
"937","<p style=""color:rgb(150, 250, 100); font-size: 35px;"">他人</p>","i","categorize-html","133","181038","0.0-6.0-1.0-8.0-1.12","2","3","2","2","2","2","2","1","2","2","2","2","2","2","2","2","2","2","2","2","4","4","4","3","4","3","4","4","3","1","0","1","1","0","0","1","1","0","1","1","0","1","0","1","3","4","4","4","4","1","3","3","3","2","2","757590139374669825","孙","403","","","","","","","","","","","","","","","","","","","true","14","4","moral","937","other","他人","","","","","","","","","","","","","","","","",""
"null","","null","html-keyboard-response","134","181291","0.0-6.0-1.0-8.0-0.13","2","3","2","2","2","2","2","1","2","2","2","2","2","2","2","2","2","2","2","2","4","4","4","3","4","3","4","4","3","1","0","1","1","0","0","1","1","0","1","1","0","1","0","1","3","4","4","4","4","1","3","3","3","2","2","757590139374669825","孙","403","","","","","","","","","","","","","","","","","","","","","","","","","","","","","","","","","","","","","","","","","",""
"585","<p style=""color:white; font-size: 35px;"">卑鄙</p>","i","categorize-html","135","181877","0.0-6.0-1.0-8.0-1.13","2","3","2","2","2","2","2","1","2","2","2","2","2","2","2","2","2","2","2","2","4","4","4","3","4","3","4","4","3","1","0","1","1","0","0","1","1","0","1","1","0","1","0","1","3","4","4","4","4","1","3","3","3","2","2","757590139374669825","孙","403","","","","","","","","","","","","","","","","","","","true","14","4","moral","585","negative","卑鄙","","","","","","","","","","","","","","","","",""
"null","","null","html-keyboard-response","136","182132","0.0-6.0-1.0-8.0-0.14","2","3","2","2","2","2","2","1","2","2","2","2","2","2","2","2","2","2","2","2","4","4","4","3","4","3","4","4","3","1","0","1","1","0","0","1","1","0","1","1","0","1","0","1","3","4","4","4","4","1","3","3","3","2","2","757590139374669825","孙","403","","","","","","","","","","","","","","","","","","","","","","","","","","","","","","","","","","","","","","","","","",""
"528","<p style=""color:rgb(150, 250, 100); font-size: 35px;"">自己</p>","e","categorize-html","137","182661","0.0-6.0-1.0-8.0-1.14","2","3","2","2","2","2","2","1","2","2","2","2","2","2","2","2","2","2","2","2","4","4","4","3","4","3","4","4","3","1","0","1","1","0","0","1","1","0","1","1","0","1","0","1","3","4","4","4","4","1","3","3","3","2","2","757590139374669825","孙","403","","","","","","","","","","","","","","","","","","","true","14","4","moral","528","self","自己","","","","","","","","","","","","","","","","",""
"null","","null","html-keyboard-response","138","182926","0.0-6.0-1.0-8.0-0.15","2","3","2","2","2","2","2","1","2","2","2","2","2","2","2","2","2","2","2","2","4","4","4","3","4","3","4","4","3","1","0","1","1","0","0","1","1","0","1","1","0","1","0","1","3","4","4","4","4","1","3","3","3","2","2","757590139374669825","孙","403","","","","","","","","","","","","","","","","","","","","","","","","","","","","","","","","","","","","","","","","","",""
"493","<p style=""color:white; font-size: 35px;"">正直</p>","e","categorize-html","139","183421","0.0-6.0-1.0-8.0-1.15","2","3","2","2","2","2","2","1","2","2","2","2","2","2","2","2","2","2","2","2","4","4","4","3","4","3","4","4","3","1","0","1","1","0","0","1","1","0","1","1","0","1","0","1","3","4","4","4","4","1","3","3","3","2","2","757590139374669825","孙","403","","","","","","","","","","","","","","","","","","","true","14","4","moral","493","positive","正直","","","","","","","","","","","","","","","","",""
"null","","null","html-keyboard-response","140","183676","0.0-6.0-1.0-8.0-0.16","2","3","2","2","2","2","2","1","2","2","2","2","2","2","2","2","2","2","2","2","4","4","4","3","4","3","4","4","3","1","0","1","1","0","0","1","1","0","1","1","0","1","0","1","3","4","4","4","4","1","3","3","3","2","2","757590139374669825","孙","403","","","","","","","","","","","","","","","","","","","","","","","","","","","","","","","","","","","","","","","","","",""
"560","<p style=""color:rgb(150, 250, 100); font-size: 35px;"">本人</p>","e","categorize-html","141","184237","0.0-6.0-1.0-8.0-1.16","2","3","2","2","2","2","2","1","2","2","2","2","2","2","2","2","2","2","2","2","4","4","4","3","4","3","4","4","3","1","0","1","1","0","0","1","1","0","1","1","0","1","0","1","3","4","4","4","4","1","3","3","3","2","2","757590139374669825","孙","403","","","","","","","","","","","","","","","","","","","true","14","4","moral","560","self","本人","","","","","","","","","","","","","","","","",""
"null","","null","html-keyboard-response","142","184491","0.0-6.0-1.0-8.0-0.17","2","3","2","2","2","2","2","1","2","2","2","2","2","2","2","2","2","2","2","2","4","4","4","3","4","3","4","4","3","1","0","1","1","0","0","1","1","0","1","1","0","1","0","1","3","4","4","4","4","1","3","3","3","2","2","757590139374669825","孙","403","","","","","","","","","","","","","","","","","","","","","","","","","","","","","","","","","","","","","","","","","",""
"569","<p style=""color:white; font-size: 35px;"">君子</p>","e","categorize-html","143","185061","0.0-6.0-1.0-8.0-1.17","2","3","2","2","2","2","2","1","2","2","2","2","2","2","2","2","2","2","2","2","4","4","4","3","4","3","4","4","3","1","0","1","1","0","0","1","1","0","1","1","0","1","0","1","3","4","4","4","4","1","3","3","3","2","2","757590139374669825","孙","403","","","","","","","","","","","","","","","","","","","true","14","4","moral","569","positive","君子","","","","","","","","","","","","","","","","",""
"null","","null","html-keyboard-response","144","185316","0.0-6.0-1.0-8.0-0.18","2","3","2","2","2","2","2","1","2","2","2","2","2","2","2","2","2","2","2","2","4","4","4","3","4","3","4","4","3","1","0","1","1","0","0","1","1","0","1","1","0","1","0","1","3","4","4","4","4","1","3","3","3","2","2","757590139374669825","孙","403","","","","","","","","","","","","","","","","","","","","","","","","","","","","","","","","","","","","","","","","","",""
"616","<p style=""color:rgb(150, 250, 100); font-size: 35px;"">别人的</p>","i","categorize-html","145","185933","0.0-6.0-1.0-8.0-1.18","2","3","2","2","2","2","2","1","2","2","2","2","2","2","2","2","2","2","2","2","4","4","4","3","4","3","4","4","3","1","0","1","1","0","0","1","1","0","1","1","0","1","0","1","3","4","4","4","4","1","3","3","3","2","2","757590139374669825","孙","403","","","","","","","","","","","","","","","","","","","true","14","4","moral","616","other","别人的","","","","","","","","","","","","","","","","",""
"null","","null","html-keyboard-response","146","186187","0.0-6.0-1.0-8.0-0.19","2","3","2","2","2","2","2","1","2","2","2","2","2","2","2","2","2","2","2","2","4","4","4","3","4","3","4","4","3","1","0","1","1","0","0","1","1","0","1","1","0","1","0","1","3","4","4","4","4","1","3","3","3","2","2","757590139374669825","孙","403","","","","","","","","","","","","","","","","","","","","","","","","","","","","","","","","","","","","","","","","","",""
"545","<p style=""color:white; font-size: 35px;"">卑鄙</p>","i","categorize-html","147","186733","0.0-6.0-1.0-8.0-1.19","2","3","2","2","2","2","2","1","2","2","2","2","2","2","2","2","2","2","2","2","4","4","4","3","4","3","4","4","3","1","0","1","1","0","0","1","1","0","1","1","0","1","0","1","3","4","4","4","4","1","3","3","3","2","2","757590139374669825","孙","403","","","","","","","","","","","","","","","","","","","true","14","4","moral","545","negative","卑鄙","","","","","","","","","","","","","","","","",""
"null","","null","html-keyboard-response","148","186988","0.0-6.0-1.0-8.0-0.20","2","3","2","2","2","2","2","1","2","2","2","2","2","2","2","2","2","2","2","2","4","4","4","3","4","3","4","4","3","1","0","1","1","0","0","1","1","0","1","1","0","1","0","1","3","4","4","4","4","1","3","3","3","2","2","757590139374669825","孙","403","","","","","","","","","","","","","","","","","","","","","","","","","","","","","","","","","","","","","","","","","",""
"832","<p style=""color:rgb(150, 250, 100); font-size: 35px;"">他</p>","i","categorize-html","149","187821","0.0-6.0-1.0-8.0-1.20","2","3","2","2","2","2","2","1","2","2","2","2","2","2","2","2","2","2","2","2","4","4","4","3","4","3","4","4","3","1","0","1","1","0","0","1","1","0","1","1","0","1","0","1","3","4","4","4","4","1","3","3","3","2","2","757590139374669825","孙","403","","","","","","","","","","","","","","","","","","","true","14","4","moral","832","other","他","","","","","","","","","","","","","","","","",""
"null","","null","html-keyboard-response","150","188075","0.0-6.0-1.0-8.0-0.21","2","3","2","2","2","2","2","1","2","2","2","2","2","2","2","2","2","2","2","2","4","4","4","3","4","3","4","4","3","1","0","1","1","0","0","1","1","0","1","1","0","1","0","1","3","4","4","4","4","1","3","3","3","2","2","757590139374669825","孙","403","","","","","","","","","","","","","","","","","","","","","","","","","","","","","","","","","","","","","","","","","",""
"497","<p style=""color:white; font-size: 35px;"">小人</p>","i","categorize-html","151","188573","0.0-6.0-1.0-8.0-1.21","2","3","2","2","2","2","2","1","2","2","2","2","2","2","2","2","2","2","2","2","4","4","4","3","4","3","4","4","3","1","0","1","1","0","0","1","1","0","1","1","0","1","0","1","3","4","4","4","4","1","3","3","3","2","2","757590139374669825","孙","403","","","","","","","","","","","","","","","","","","","true","14","4","moral","497","negative","小人","","","","","","","","","","","","","","","","",""
"null","","null","html-keyboard-response","152","188827","0.0-6.0-1.0-8.0-0.22","2","3","2","2","2","2","2","1","2","2","2","2","2","2","2","2","2","2","2","2","4","4","4","3","4","3","4","4","3","1","0","1","1","0","0","1","1","0","1","1","0","1","0","1","3","4","4","4","4","1","3","3","3","2","2","757590139374669825","孙","403","","","","","","","","","","","","","","","","","","","","","","","","","","","","","","","","","","","","","","","","","",""
"513","<p style=""color:rgb(150, 250, 100); font-size: 35px;"">自己的</p>","e","categorize-html","153","189341","0.0-6.0-1.0-8.0-1.22","2","3","2","2","2","2","2","1","2","2","2","2","2","2","2","2","2","2","2","2","4","4","4","3","4","3","4","4","3","1","0","1","1","0","0","1","1","0","1","1","0","1","0","1","3","4","4","4","4","1","3","3","3","2","2","757590139374669825","孙","403","","","","","","","","","","","","","","","","","","","true","14","4","moral","513","self","自己的","","","","","","","","","","","","","","","","",""
"null","","null","html-keyboard-response","154","189596","0.0-6.0-1.0-8.0-0.23","2","3","2","2","2","2","2","1","2","2","2","2","2","2","2","2","2","2","2","2","4","4","4","3","4","3","4","4","3","1","0","1","1","0","0","1","1","0","1","1","0","1","0","1","3","4","4","4","4","1","3","3","3","2","2","757590139374669825","孙","403","","","","","","","","","","","","","","","","","","","","","","","","","","","","","","","","","","","","","","","","","",""
"416","<p style=""color:white; font-size: 35px;"">善良</p>","e","categorize-html","155","190013","0.0-6.0-1.0-8.0-1.23","2","3","2","2","2","2","2","1","2","2","2","2","2","2","2","2","2","2","2","2","4","4","4","3","4","3","4","4","3","1","0","1","1","0","0","1","1","0","1","1","0","1","0","1","3","4","4","4","4","1","3","3","3","2","2","757590139374669825","孙","403","","","","","","","","","","","","","","","","","","","true","14","4","moral","416","positive","善良","","","","","","","","","","","","","","","","",""
"null","","null","html-keyboard-response","156","190268","0.0-6.0-1.0-8.0-0.24","2","3","2","2","2","2","2","1","2","2","2","2","2","2","2","2","2","2","2","2","4","4","4","3","4","3","4","4","3","1","0","1","1","0","0","1","1","0","1","1","0","1","0","1","3","4","4","4","4","1","3","3","3","2","2","757590139374669825","孙","403","","","","","","","","","","","","","","","","","","","","","","","","","","","","","","","","","","","","","","","","","",""
"464","<p style=""color:rgb(150, 250, 100); font-size: 35px;"">我</p>","e","categorize-html","157","190733","0.0-6.0-1.0-8.0-1.24","2","3","2","2","2","2","2","1","2","2","2","2","2","2","2","2","2","2","2","2","4","4","4","3","4","3","4","4","3","1","0","1","1","0","0","1","1","0","1","1","0","1","0","1","3","4","4","4","4","1","3","3","3","2","2","757590139374669825","孙","403","","","","","","","","","","","","","","","","","","","true","14","4","moral","464","self","我","","","","","","","","","","","","","","","","",""
"null","","null","html-keyboard-response","158","190988","0.0-6.0-1.0-8.0-0.25","2","3","2","2","2","2","2","1","2","2","2","2","2","2","2","2","2","2","2","2","4","4","4","3","4","3","4","4","3","1","0","1","1","0","0","1","1","0","1","1","0","1","0","1","3","4","4","4","4","1","3","3","3","2","2","757590139374669825","孙","403","","","","","","","","","","","","","","","","","","","","","","","","","","","","","","","","","","","","","","","","","",""
"648","<p style=""color:white; font-size: 35px;"">不仁</p>","i","categorize-html","159","191637","0.0-6.0-1.0-8.0-1.25","2","3","2","2","2","2","2","1","2","2","2","2","2","2","2","2","2","2","2","2","4","4","4","3","4","3","4","4","3","1","0","1","1","0","0","1","1","0","1","1","0","1","0","1","3","4","4","4","4","1","3","3","3","2","2","757590139374669825","孙","403","","","","","","","","","","","","","","","","","","","true","14","4","moral","648","negative","不仁","","","","","","","","","","","","","","","","",""
"null","","null","html-keyboard-response","160","191892","0.0-6.0-1.0-8.0-0.26","2","3","2","2","2","2","2","1","2","2","2","2","2","2","2","2","2","2","2","2","4","4","4","3","4","3","4","4","3","1","0","1","1","0","0","1","1","0","1","1","0","1","0","1","3","4","4","4","4","1","3","3","3","2","2","757590139374669825","孙","403","","","","","","","","","","","","","","","","","","","","","","","","","","","","","","","","","","","","","","","","","",""
"424","<p style=""color:rgb(150, 250, 100); font-size: 35px;"">他的</p>","i","categorize-html","161","192317","0.0-6.0-1.0-8.0-1.26","2","3","2","2","2","2","2","1","2","2","2","2","2","2","2","2","2","2","2","2","4","4","4","3","4","3","4","4","3","1","0","1","1","0","0","1","1","0","1","1","0","1","0","1","3","4","4","4","4","1","3","3","3","2","2","757590139374669825","孙","403","","","","","","","","","","","","","","","","","","","true","14","4","moral","424","other","他的","","","","","","","","","","","","","","","","",""
"null","","null","html-keyboard-response","162","192571","0.0-6.0-1.0-8.0-0.27","2","3","2","2","2","2","2","1","2","2","2","2","2","2","2","2","2","2","2","2","4","4","4","3","4","3","4","4","3","1","0","1","1","0","0","1","1","0","1","1","0","1","0","1","3","4","4","4","4","1","3","3","3","2","2","757590139374669825","孙","403","","","","","","","","","","","","","","","","","","","","","","","","","","","","","","","","","","","","","","","","","",""
"585","<p style=""color:white; font-size: 35px;"">君子</p>","e","categorize-html","163","193157","0.0-6.0-1.0-8.0-1.27","2","3","2","2","2","2","2","1","2","2","2","2","2","2","2","2","2","2","2","2","4","4","4","3","4","3","4","4","3","1","0","1","1","0","0","1","1","0","1","1","0","1","0","1","3","4","4","4","4","1","3","3","3","2","2","757590139374669825","孙","403","","","","","","","","","","","","","","","","","","","true","14","4","moral","585","positive","君子","","","","","","","","","","","","","","","","",""
"null","","null","html-keyboard-response","164","193412","0.0-6.0-1.0-8.0-0.28","2","3","2","2","2","2","2","1","2","2","2","2","2","2","2","2","2","2","2","2","4","4","4","3","4","3","4","4","3","1","0","1","1","0","0","1","1","0","1","1","0","1","0","1","3","4","4","4","4","1","3","3","3","2","2","757590139374669825","孙","403","","","","","","","","","","","","","","","","","","","","","","","","","","","","","","","","","","","","","","","","","",""
"400","<p style=""color:rgb(150, 250, 100); font-size: 35px;"">本人的</p>","e","categorize-html","165","193813","0.0-6.0-1.0-8.0-1.28","2","3","2","2","2","2","2","1","2","2","2","2","2","2","2","2","2","2","2","2","4","4","4","3","4","3","4","4","3","1","0","1","1","0","0","1","1","0","1","1","0","1","0","1","3","4","4","4","4","1","3","3","3","2","2","757590139374669825","孙","403","","","","","","","","","","","","","","","","","","","true","14","4","moral","400","self","本人的","","","","","","","","","","","","","","","","",""
"null","","null","html-keyboard-response","166","194068","0.0-6.0-1.0-8.0-0.29","2","3","2","2","2","2","2","1","2","2","2","2","2","2","2","2","2","2","2","2","4","4","4","3","4","3","4","4","3","1","0","1","1","0","0","1","1","0","1","1","0","1","0","1","3","4","4","4","4","1","3","3","3","2","2","757590139374669825","孙","403","","","","","","","","","","","","","","","","","","","","","","","","","","","","","","","","","","","","","","","","","",""
"592","<p style=""color:white; font-size: 35px;"">不仁</p>","i","categorize-html","167","194661","0.0-6.0-1.0-8.0-1.29","2","3","2","2","2","2","2","1","2","2","2","2","2","2","2","2","2","2","2","2","4","4","4","3","4","3","4","4","3","1","0","1","1","0","0","1","1","0","1","1","0","1","0","1","3","4","4","4","4","1","3","3","3","2","2","757590139374669825","孙","403","","","","","","","","","","","","","","","","","","","true","14","4","moral","592","negative","不仁","","","","","","","","","","","","","","","","",""
"null","","null","html-keyboard-response","168","194924","0.0-6.0-1.0-8.0-0.30","2","3","2","2","2","2","2","1","2","2","2","2","2","2","2","2","2","2","2","2","4","4","4","3","4","3","4","4","3","1","0","1","1","0","0","1","1","0","1","1","0","1","0","1","3","4","4","4","4","1","3","3","3","2","2","757590139374669825","孙","403","","","","","","","","","","","","","","","","","","","","","","","","","","","","","","","","","","","","","","","","","",""
"504","<p style=""color:rgb(150, 250, 100); font-size: 35px;"">他人的</p>","i","categorize-html","169","195429","0.0-6.0-1.0-8.0-1.30","2","3","2","2","2","2","2","1","2","2","2","2","2","2","2","2","2","2","2","2","4","4","4","3","4","3","4","4","3","1","0","1","1","0","0","1","1","0","1","1","0","1","0","1","3","4","4","4","4","1","3","3","3","2","2","757590139374669825","孙","403","","","","","","","","","","","","","","","","","","","true","14","4","moral","504","other","他人的","","","","","","","","","","","","","","","","",""
"null","","null","html-keyboard-response","170","195684","0.0-6.0-1.0-8.0-0.31","2","3","2","2","2","2","2","1","2","2","2","2","2","2","2","2","2","2","2","2","4","4","4","3","4","3","4","4","3","1","0","1","1","0","0","1","1","0","1","1","0","1","0","1","3","4","4","4","4","1","3","3","3","2","2","757590139374669825","孙","403","","","","","","","","","","","","","","","","","","","","","","","","","","","","","","","","","","","","","","","","","",""
"576","<p style=""color:white; font-size: 35px;"">善良</p>","e","categorize-html","171","196261","0.0-6.0-1.0-8.0-1.31","2","3","2","2","2","2","2","1","2","2","2","2","2","2","2","2","2","2","2","2","4","4","4","3","4","3","4","4","3","1","0","1","1","0","0","1","1","0","1","1","0","1","0","1","3","4","4","4","4","1","3","3","3","2","2","757590139374669825","孙","403","","","","","","","","","","","","","","","","","","","true","14","4","moral","576","positive","善良","","","","","","","","","","","","","","","","",""
"null","","null","html-keyboard-response","172","196515","0.0-6.0-1.0-8.0-0.32","2","3","2","2","2","2","2","1","2","2","2","2","2","2","2","2","2","2","2","2","4","4","4","3","4","3","4","4","3","1","0","1","1","0","0","1","1","0","1","1","0","1","0","1","3","4","4","4","4","1","3","3","3","2","2","757590139374669825","孙","403","","","","","","","","","","","","","","","","","","","","","","","","","","","","","","","","","","","","","","","","","",""
"520","<p style=""color:rgb(150, 250, 100); font-size: 35px;"">他人</p>","i","categorize-html","173","197037","0.0-6.0-1.0-8.0-1.32","2","3","2","2","2","2","2","1","2","2","2","2","2","2","2","2","2","2","2","2","4","4","4","3","4","3","4","4","3","1","0","1","1","0","0","1","1","0","1","1","0","1","0","1","3","4","4","4","4","1","3","3","3","2","2","757590139374669825","孙","403","","","","","","","","","","","","","","","","","","","true","14","4","moral","520","other","他人","","","","","","","","","","","","","","","","",""
"null","","null","html-keyboard-response","174","197292","0.0-6.0-1.0-8.0-0.33","2","3","2","2","2","2","2","1","2","2","2","2","2","2","2","2","2","2","2","2","4","4","4","3","4","3","4","4","3","1","0","1","1","0","0","1","1","0","1","1","0","1","0","1","3","4","4","4","4","1","3","3","3","2","2","757590139374669825","孙","403","","","","","","","","","","","","","","","","","","","","","","","","","","","","","","","","","","","","","","","","","",""
"536","<p style=""color:white; font-size: 35px;"">诚信</p>","e","categorize-html","175","197829","0.0-6.0-1.0-8.0-1.33","2","3","2","2","2","2","2","1","2","2","2","2","2","2","2","2","2","2","2","2","4","4","4","3","4","3","4","4","3","1","0","1","1","0","0","1","1","0","1","1","0","1","0","1","3","4","4","4","4","1","3","3","3","2","2","757590139374669825","孙","403","","","","","","","","","","","","","","","","","","","true","14","4","moral","536","positive","诚信","","","","","","","","","","","","","","","","",""
"null","","null","html-keyboard-response","176","198083","0.0-6.0-1.0-8.0-0.34","2","3","2","2","2","2","2","1","2","2","2","2","2","2","2","2","2","2","2","2","4","4","4","3","4","3","4","4","3","1","0","1","1","0","0","1","1","0","1","1","0","1","0","1","3","4","4","4","4","1","3","3","3","2","2","757590139374669825","孙","403","","","","","","","","","","","","","","","","","","","","","","","","","","","","","","","","","","","","","","","","","",""
"545","<p style=""color:rgb(150, 250, 100); font-size: 35px;"">本人</p>","e","categorize-html","177","198629","0.0-6.0-1.0-8.0-1.34","2","3","2","2","2","2","2","1","2","2","2","2","2","2","2","2","2","2","2","2","4","4","4","3","4","3","4","4","3","1","0","1","1","0","0","1","1","0","1","1","0","1","0","1","3","4","4","4","4","1","3","3","3","2","2","757590139374669825","孙","403","","","","","","","","","","","","","","","","","","","true","14","4","moral","545","self","本人","","","","","","","","","","","","","","","","",""
"null","","null","html-keyboard-response","178","198883","0.0-6.0-1.0-8.0-0.35","2","3","2","2","2","2","2","1","2","2","2","2","2","2","2","2","2","2","2","2","4","4","4","3","4","3","4","4","3","1","0","1","1","0","0","1","1","0","1","1","0","1","0","1","3","4","4","4","4","1","3","3","3","2","2","757590139374669825","孙","403","","","","","","","","","","","","","","","","","","","","","","","","","","","","","","","","","","","","","","","","","",""
"561","<p style=""color:white; font-size: 35px;"">不孝</p>","i","categorize-html","179","199445","0.0-6.0-1.0-8.0-1.35","2","3","2","2","2","2","2","1","2","2","2","2","2","2","2","2","2","2","2","2","4","4","4","3","4","3","4","4","3","1","0","1","1","0","0","1","1","0","1","1","0","1","0","1","3","4","4","4","4","1","3","3","3","2","2","757590139374669825","孙","403","","","","","","","","","","","","","","","","","","","true","14","4","moral","561","negative","不孝","","","","","","","","","","","","","","","","",""
"null","","null","html-keyboard-response","180","199700","0.0-6.0-1.0-8.0-0.36","2","3","2","2","2","2","2","1","2","2","2","2","2","2","2","2","2","2","2","2","4","4","4","3","4","3","4","4","3","1","0","1","1","0","0","1","1","0","1","1","0","1","0","1","3","4","4","4","4","1","3","3","3","2","2","757590139374669825","孙","403","","","","","","","","","","","","","","","","","","","","","","","","","","","","","","","","","","","","","","","","","",""
"488","<p style=""color:rgb(150, 250, 100); font-size: 35px;"">别人</p>","i","categorize-html","181","200189","0.0-6.0-1.0-8.0-1.36","2","3","2","2","2","2","2","1","2","2","2","2","2","2","2","2","2","2","2","2","4","4","4","3","4","3","4","4","3","1","0","1","1","0","0","1","1","0","1","1","0","1","0","1","3","4","4","4","4","1","3","3","3","2","2","757590139374669825","孙","403","","","","","","","","","","","","","","","","","","","true","14","4","moral","488","other","别人","","","","","","","","","","","","","","","","",""
"null","","null","html-keyboard-response","182","200444","0.0-6.0-1.0-8.0-0.37","2","3","2","2","2","2","2","1","2","2","2","2","2","2","2","2","2","2","2","2","4","4","4","3","4","3","4","4","3","1","0","1","1","0","0","1","1","0","1","1","0","1","0","1","3","4","4","4","4","1","3","3","3","2","2","757590139374669825","孙","403","","","","","","","","","","","","","","","","","","","","","","","","","","","","","","","","","","","","","","","","","",""
"600","<p style=""color:white; font-size: 35px;"">诚信</p>","e","categorize-html","183","201045","0.0-6.0-1.0-8.0-1.37","2","3","2","2","2","2","2","1","2","2","2","2","2","2","2","2","2","2","2","2","4","4","4","3","4","3","4","4","3","1","0","1","1","0","0","1","1","0","1","1","0","1","0","1","3","4","4","4","4","1","3","3","3","2","2","757590139374669825","孙","403","","","","","","","","","","","","","","","","","","","true","14","4","moral","600","positive","诚信","","","","","","","","","","","","","","","","",""
"null","","null","html-keyboard-response","184","201299","0.0-6.0-1.0-8.0-0.38","2","3","2","2","2","2","2","1","2","2","2","2","2","2","2","2","2","2","2","2","4","4","4","3","4","3","4","4","3","1","0","1","1","0","0","1","1","0","1","1","0","1","0","1","3","4","4","4","4","1","3","3","3","2","2","757590139374669825","孙","403","","","","","","","","","","","","","","","","","","","","","","","","","","","","","","","","","","","","","","","","","",""
"552","<p style=""color:rgb(150, 250, 100); font-size: 35px;"">我的</p>","e","categorize-html","185","201853","0.0-6.0-1.0-8.0-1.38","2","3","2","2","2","2","2","1","2","2","2","2","2","2","2","2","2","2","2","2","4","4","4","3","4","3","4","4","3","1","0","1","1","0","0","1","1","0","1","1","0","1","0","1","3","4","4","4","4","1","3","3","3","2","2","757590139374669825","孙","403","","","","","","","","","","","","","","","","","","","true","14","4","moral","552","self","我的","","","","","","","","","","","","","","","","",""
"null","","null","html-keyboard-response","186","202108","0.0-6.0-1.0-8.0-0.39","2","3","2","2","2","2","2","1","2","2","2","2","2","2","2","2","2","2","2","2","4","4","4","3","4","3","4","4","3","1","0","1","1","0","0","1","1","0","1","1","0","1","0","1","3","4","4","4","4","1","3","3","3","2","2","757590139374669825","孙","403","","","","","","","","","","","","","","","","","","","","","","","","","","","","","","","","","","","","","","","","","",""
"520","<p style=""color:white; font-size: 35px;"">不孝</p>","i","categorize-html","187","202629","0.0-6.0-1.0-8.0-1.39","2","3","2","2","2","2","2","1","2","2","2","2","2","2","2","2","2","2","2","2","4","4","4","3","4","3","4","4","3","1","0","1","1","0","0","1","1","0","1","1","0","1","0","1","3","4","4","4","4","1","3","3","3","2","2","757590139374669825","孙","403","","","","","","","","","","","","","","","","","","","true","14","4","moral","520","negative","不孝","","","","","","","","","","","","","","","","",""
"null","","null","html-keyboard-response","188","202883","0.0-6.0-1.0-8.0-0.40","2","3","2","2","2","2","2","1","2","2","2","2","2","2","2","2","2","2","2","2","4","4","4","3","4","3","4","4","3","1","0","1","1","0","0","1","1","0","1","1","0","1","0","1","3","4","4","4","4","1","3","3","3","2","2","757590139374669825","孙","403","","","","","","","","","","","","","","","","","","","","","","","","","","","","","","","","","","","","","","","","","",""
"545","<p style=""color:rgb(150, 250, 100); font-size: 35px;"">别人</p>","i","categorize-html","189","203429","0.0-6.0-1.0-8.0-1.40","2","3","2","2","2","2","2","1","2","2","2","2","2","2","2","2","2","2","2","2","4","4","4","3","4","3","4","4","3","1","0","1","1","0","0","1","1","0","1","1","0","1","0","1","3","4","4","4","4","1","3","3","3","2","2","757590139374669825","孙","403","","","","","","","","","","","","","","","","","","","true","14","4","moral","545","other","别人","","","","","","","","","","","","","","","","",""
"null","","null","html-keyboard-response","190","203684","0.0-6.0-1.0-8.0-0.41","2","3","2","2","2","2","2","1","2","2","2","2","2","2","2","2","2","2","2","2","4","4","4","3","4","3","4","4","3","1","0","1","1","0","0","1","1","0","1","1","0","1","0","1","3","4","4","4","4","1","3","3","3","2","2","757590139374669825","孙","403","","","","","","","","","","","","","","","","","","","","","","","","","","","","","","","","","","","","","","","","","",""
"616","<p style=""color:white; font-size: 35px;"">廉正</p>","e","categorize-html","191","204301","0.0-6.0-1.0-8.0-1.41","2","3","2","2","2","2","2","1","2","2","2","2","2","2","2","2","2","2","2","2","4","4","4","3","4","3","4","4","3","1","0","1","1","0","0","1","1","0","1","1","0","1","0","1","3","4","4","4","4","1","3","3","3","2","2","757590139374669825","孙","403","","","","","","","","","","","","","","","","","","","true","14","4","moral","616","positive","廉正","","","","","","","","","","","","","","","","",""
"null","","null","html-keyboard-response","192","204557","0.0-6.0-1.0-8.0-0.42","2","3","2","2","2","2","2","1","2","2","2","2","2","2","2","2","2","2","2","2","4","4","4","3","4","3","4","4","3","1","0","1","1","0","0","1","1","0","1","1","0","1","0","1","3","4","4","4","4","1","3","3","3","2","2","757590139374669825","孙","403","","","","","","","","","","","","","","","","","","","","","","","","","","","","","","","","","","","","","","","","","",""
"511","<p style=""color:rgb(150, 250, 100); font-size: 35px;"">自己</p>","e","categorize-html","193","205069","0.0-6.0-1.0-8.0-1.42","2","3","2","2","2","2","2","1","2","2","2","2","2","2","2","2","2","2","2","2","4","4","4","3","4","3","4","4","3","1","0","1","1","0","0","1","1","0","1","1","0","1","0","1","3","4","4","4","4","1","3","3","3","2","2","757590139374669825","孙","403","","","","","","","","","","","","","","","","","","","true","14","4","moral","511","self","自己","","","","","","","","","","","","","","","","",""
