"rt","stimulus","response","trial_type","trial_index","time_elapsed","internal_node_id","ses_1","ses_2","ses_3","ses_4","ses_5","ses_6","ses_7","ses_8","ses_9","ses_10","coreself_1","coreself_2","coreself_3","coreself_4","coreself_5","coreself_6","coreself_7","coreself_8","coreself_9","coreself_10","SGPS_1","SGPS_2","SGPS_3","SGPS_4","SGPS_5","SGPS_6","SGPS_7","SGPS_8","SGPS_9","NPI1","NPI2","NPI3","NPI4","NPI5","NPI6","NPI7","NPI8","NPI9","NPI10","NPI11","NPI12","NPI13","NPI14","NPI15","hsns_1","hsns_2","hsns_3","hsns_4","hsns_5","trap1","hsns_6","hsns_7","hsns_8","hsns_9","hsns_10","subj_idx","friend_name","ParticipantID","value","success","user_agent","responses","item_order","radio_event_ids","radio_event_times","key_event_times","mouse_event_times","straightlining","zigzagging","honeypot","timeout","failed_images","failed_audio","failed_video","view_history","response_type","key_press","avg_frame_time","center_x","center_y","correct_response","correct","identity","Image","word","condition","task_id","screen_id","time_stamp","version_attrib","version_target","IAT","RT","varname","summary","version_attrib2","version_target2","question_order","correct_answer","trap1_item"
"4978","
   <p><div style = ""color: white;font-size:25px;"">您好，欢迎参加本次实验。</div> </p>
   <p><div style = ""color: white;font-size:25px;"">为充分保障您的权利，请确保您已经知晓并同意《参与实验同意书》以及《数据公开知情同意书》。</div></p>
   <p><div style = ""color: white;font-size:25px;"">如果您未见过上述内容，请咨询实验员。</div></p>
   <p><div style = ""color: white;font-size:25px;"">如果您选择继续实验，则表示您已经清楚两份知情同意书的内容并同意。</div></p>
   <p><div style = ""color: pink;font-size:30px;"">请确保您记得day0的实验编号，您将在本次实验输入该编号，若您忘记，请咨询实验员后作答。</div></p>
   <p><div style = ""color: lightblue;font-size:25px;"">请您尽可能认真地作答，我们将依据您在各问卷和按键任务中的作答质量发放报酬。</div></p>
   <p> <div style = ""color: green;font-size:25px;""><按空格键至下页></div> </p>
   "," ","html-keyboard-response","0","4980","0.0-0.0","4","3","4","3","3","3","3","3","3","3","4","4","1","4","4","4","4","3","4","5","4","3","3","4","4","3","4","3","3","1","0","1","1","0","1","1","0","0","1","1","1","0","0","1","5","3","4","1","3","2","2","4","3","2","2","746367844434055169","张","587","","","","","","","","","","","","","","","","","","","","","","","","","","","","","","","","","","","","","","","","","",""
"","","","call-function","1","4980","0.0-1.0-0.0","4","3","4","3","3","3","3","3","3","3","4","4","1","4","4","4","4","3","4","5","4","3","3","4","4","3","4","3","3","1","0","1","1","0","1","1","0","0","1","1","1","0","0","1","5","3","4","1","3","2","2","4","3","2","2","746367844434055169","张","587","","","","","","","","","","","","","","","","","","","","","","","","","","","","","","","","","","","","","","","","","",""
"50957","","{""friend_name"":""张"",""ParticipantID"":""587""}","survey-html-form","2","55938","0.0-1.0-1.0","4","3","4","3","3","3","3","3","3","3","4","4","1","4","4","4","4","3","4","5","4","3","3","4","4","3","4","3","3","1","0","1","1","0","1","1","0","0","1","1","1","0","0","1","5","3","4","1","3","2","2","4","3","2","2","746367844434055169","张","587","","","","","","","","","","","","","","","","","","","","","","","","","","","","","","","","","","","","","","","","","",""
"","","","fullscreen","3","57072","0.0-2.0","4","3","4","3","3","3","3","3","3","3","4","4","1","4","4","4","4","3","4","5","4","3","3","4","4","3","4","3","3","1","0","1","1","0","1","1","0","0","1","1","1","0","0","1","5","3","4","1","3","2","2","4","3","2","2","746367844434055169","张","587","","true","{}","","","","","","","","","","","","","","","","","","","","","","","","","","","","","","","","","","","","","","",""
"24203.600000023842","","{""Q01"":""4"",""Q02"":""3"",""Q03"":""4"",""Q04"":""3"",""Q05"":""3"",""Q06"":""3"",""Q07"":""3"",""Q08"":""3"",""Q09"":""3"",""Q10"":""3""}","survey-template","4","81277","0.0-3.0","4","3","4","3","3","3","3","3","3","3","4","4","1","4","4","4","4","3","4","5","4","3","3","4","4","3","4","3","3","1","0","1","1","0","1","1","0","0","1","1","1","0","0","1","5","3","4","1","3","2","2","4","3","2","2","746367844434055169","张","587","","","","{""Q01"":""4"",""Q02"":""3"",""Q03"":""4"",""Q04"":""3"",""Q05"":""3"",""Q06"":""3"",""Q07"":""3"",""Q08"":""3"",""Q09"":""3"",""Q10"":""3""}","[0,1,2,3,4,5,6,7,8,9]","[""Q01"",""Q02"",""Q03"",""Q04"",""Q05"",""Q06"",""Q07"",""Q08"",""Q09"",""Q10""]","[4421.600000023842,5981.300000011921,8459.600000023842,9303.40000000596,12075.100000023842,13893.200000017881,17121.30000001192,18213.30000001192,21319.100000023842,23267.100000023842]","[]","[4421.600000023842,5981.300000011921,7387.600000023842,8459.600000023842,9303.40000000596,10599.600000023842,11075.5,12075.100000023842,13893.200000017881,15617.100000023842,17121.30000001192,18213.30000001192,21319.100000023842,22295.600000023842,23267.100000023842,24202.90000000596]","0.4","0.4444444444444444","0","","","","","","","","","","","","","","","","","","","","","","","","","","","","","",""
"30164.30000001192","","{""Q01"":""4"",""Q02"":""4"",""Q03"":""1"",""Q04"":""4"",""Q05"":""4"",""Q06"":""4"",""Q07"":""4"",""Q08"":""3"",""Q09"":""4"",""Q10"":""5""}","survey-template","5","111445","0.0-4.0","4","3","4","3","3","3","3","3","3","3","4","4","1","4","4","4","4","3","4","5","4","3","3","4","4","3","4","3","3","1","0","1","1","0","1","1","0","0","1","1","1","0","0","1","5","3","4","1","3","2","2","4","3","2","2","746367844434055169","张","587","","","","{""Q01"":""4"",""Q02"":""4"",""Q03"":""1"",""Q04"":""4"",""Q05"":""4"",""Q06"":""4"",""Q07"":""4"",""Q08"":""3"",""Q09"":""4"",""Q10"":""5""}","[0,1,2,3,4,5,6,7,8,9]","[""Q01"",""Q01"",""Q02"",""Q03"",""Q04"",""Q05"",""Q06"",""Q07"",""Q08"",""Q09"",""Q10"",""Q03""]","[4226.100000023842,5533.9000000059605,7914.100000023842,11403.40000000596,12764.100000023842,14599.5,16155.800000011921,17779.80000001192,20145.30000001192,22061.600000023842,23909.5,28359.600000023842]","[]","[4226.100000023842,5533.9000000059605,7914.100000023842,10278.200000017881,11403.40000000596,12764.100000023842,14599.5,16155.800000011921,17779.80000001192,19309.600000023842,20145.30000001192,22061.600000023842,23409.70000001788,23909.5,27791.5,28359.600000023842,30163.40000000596]","0.4","0.3333333333333333","0","","","","","","","","","","","","","","","","","","","","","","","","","","","","","",""
"","","","preload","6","111867","0.0-5.0","4","3","4","3","3","3","3","3","3","3","4","4","1","4","4","4","4","3","4","5","4","3","3","4","4","3","4","3","3","1","0","1","1","0","1","1","0","0","1","1","1","0","0","1","5","3","4","1","3","2","2","4","3","2","2","746367844434055169","张","587","","true","","","","","","","","","","","false","[]","[]","[]","","","","","","","","","","","","","","","","","","","","","","","","","",""
"2922","","","instructions","7","114790","0.0-6.0","4","3","4","3","3","3","3","3","3","3","4","4","1","4","4","4","4","3","4","5","4","3","3","4","4","3","4","3","3","1","0","1","1","0","1","1","0","0","1","1","1","0","0","1","5","3","4","1","3","2","2","4","3","2","2","746367844434055169","张","587","","","","","","","","","","","","","","","","","[{""page_index"":0,""viewing_time"":2922}]","","","","","","","","","","","","","","","","","","","","","","","","",""
"8465","","","instructions","8","123255","0.0-7.0-1.0-0.0","4","3","4","3","3","3","3","3","3","3","4","4","1","4","4","4","4","3","4","5","4","3","3","4","4","3","4","3","3","1","0","1","1","0","1","1","0","0","1","1","1","0","0","1","5","3","4","1","3","2","2","4","3","2","2","746367844434055169","张","587","","","","","","","","","","","","","","","","","[{""page_index"":0,""viewing_time"":2707},{""page_index"":1,""viewing_time"":4226},{""page_index"":2,""viewing_time"":1532}]","","","","","","","","","","","","","","","","","","","","","","","","",""
"1038","","f","psychophysics","9","125296","0.0-7.0-1.0-1.0-0.0-0.0","4","3","4","3","3","3","3","3","3","3","4","4","1","4","4","4","4","3","4","5","4","3","3","4","4","3","4","3","3","1","0","1","1","0","1","1","0","0","1","1","1","0","0","1","5","3","4","1","3","2","2","4","3","2","2","746367844434055169","张","587","","","","nonmatch","","","","","","","","","","","","","","key","f","16.66721311475417","853.3333333333334","476","f","true","nonmatch","img/diamond.png","圆形","菱形","ALT1_2","prac_ALT1_2","","","","","","","","","","","",""
"null","<span style='color:GreenYellow; font-size: 70px;'>正确! </span>","null","html-keyboard-response","10","125797","0.0-7.0-1.0-1.0-0.0-1.0","4","3","4","3","3","3","3","3","3","3","4","4","1","4","4","4","4","3","4","5","4","3","3","4","4","3","4","3","3","1","0","1","1","0","1","1","0","0","1","1","1","0","0","1","5","3","4","1","3","2","2","4","3","2","2","746367844434055169","张","587","","","","","","","","","","","","","","","","","","","","","","","","","","","","","","feedback_test","","","","","","","","","","","",""
"559","","f","psychophysics","11","127356","0.0-7.0-1.0-1.0-0.0-0.1","4","3","4","3","3","3","3","3","3","3","4","4","1","4","4","4","4","3","4","5","4","3","3","4","4","3","4","3","3","1","0","1","1","0","1","1","0","0","1","1","1","0","0","1","5","3","4","1","3","2","2","4","3","2","2","746367844434055169","张","587","","","","nonmatch","","","","","","","","","","","","","","key","f","16.66630434782612","853.3333333333334","476","f","true","nonmatch","img/diamond.png","五边","菱形","ALT1_2","prac_ALT1_2","","","","","","","","","","","",""
"null","<span style='color:GreenYellow; font-size: 70px;'>正确! </span>","null","html-keyboard-response","12","127857","0.0-7.0-1.0-1.0-0.0-1.1","4","3","4","3","3","3","3","3","3","3","4","4","1","4","4","4","4","3","4","5","4","3","3","4","4","3","4","3","3","1","0","1","1","0","1","1","0","0","1","1","1","0","0","1","5","3","4","1","3","2","2","4","3","2","2","746367844434055169","张","587","","","","","","","","","","","","","","","","","","","","","","","","","","","","","","feedback_test","","","","","","","","","","","",""
"520","","f","psychophysics","13","129379","0.0-7.0-1.0-1.0-0.0-0.2","4","3","4","3","3","3","3","3","3","3","4","4","1","4","4","4","4","3","4","5","4","3","3","4","4","3","4","3","3","1","0","1","1","0","1","1","0","0","1","1","1","0","0","1","5","3","4","1","3","2","2","4","3","2","2","746367844434055169","张","587","","","","nonmatch","","","","","","","","","","","","","","key","f","16.66373626373636","853.3333333333334","476","f","true","nonmatch","img/circle.png","菱形","圆形","ALT1_2","prac_ALT1_2","","","","","","","","","","","",""
"null","<span style='color:GreenYellow; font-size: 70px;'>正确! </span>","null","html-keyboard-response","14","129880","0.0-7.0-1.0-1.0-0.0-1.2","4","3","4","3","3","3","3","3","3","3","4","4","1","4","4","4","4","3","4","5","4","3","3","4","4","3","4","3","3","1","0","1","1","0","1","1","0","0","1","1","1","0","0","1","5","3","4","1","3","2","2","4","3","2","2","746367844434055169","张","587","","","","","","","","","","","","","","","","","","","","","","","","","","","","","","feedback_test","","","","","","","","","","","",""
"501","","f","psychophysics","15","131384","0.0-7.0-1.0-1.0-0.0-0.3","4","3","4","3","3","3","3","3","3","3","4","4","1","4","4","4","4","3","4","5","4","3","3","4","4","3","4","3","3","1","0","1","1","0","1","1","0","0","1","1","1","0","0","1","5","3","4","1","3","2","2","4","3","2","2","746367844434055169","张","587","","","","nonmatch","","","","","","","","","","","","","","key","f","16.66741573033734","853.3333333333334","476","f","true","nonmatch","img/square.png","五边","方形","ALT1_2","prac_ALT1_2","","","","","","","","","","","",""
"null","<span style='color:GreenYellow; font-size: 70px;'>正确! </span>","null","html-keyboard-response","16","131885","0.0-7.0-1.0-1.0-0.0-1.3","4","3","4","3","3","3","3","3","3","3","4","4","1","4","4","4","4","3","4","5","4","3","3","4","4","3","4","3","3","1","0","1","1","0","1","1","0","0","1","1","1","0","0","1","5","3","4","1","3","2","2","4","3","2","2","746367844434055169","张","587","","","","","","","","","","","","","","","","","","","","","","","","","","","","","","feedback_test","","","","","","","","","","","",""
"502","","j","psychophysics","17","133388","0.0-7.0-1.0-1.0-0.0-0.4","4","3","4","3","3","3","3","3","3","3","4","4","1","4","4","4","4","3","4","5","4","3","3","4","4","3","4","3","3","1","0","1","1","0","1","1","0","0","1","1","1","0","0","1","5","3","4","1","3","2","2","4","3","2","2","746367844434055169","张","587","","","","match","","","","","","","","","","","","","","key","j","16.665168539325972","853.3333333333334","476","j","true","match","img/square.png","方形","方形","ALT1_2","prac_ALT1_2","","","","","","","","","","","",""
"null","<span style='color:GreenYellow; font-size: 70px;'>正确! </span>","null","html-keyboard-response","18","133890","0.0-7.0-1.0-1.0-0.0-1.4","4","3","4","3","3","3","3","3","3","3","4","4","1","4","4","4","4","3","4","5","4","3","3","4","4","3","4","3","3","1","0","1","1","0","1","1","0","0","1","1","1","0","0","1","5","3","4","1","3","2","2","4","3","2","2","746367844434055169","张","587","","","","","","","","","","","","","","","","","","","","","","","","","","","","","","feedback_test","","","","","","","","","","","",""
"548","","j","psychophysics","19","135440","0.0-7.0-1.0-1.0-0.0-0.5","4","3","4","3","3","3","3","3","3","3","4","4","1","4","4","4","4","3","4","5","4","3","3","4","4","3","4","3","3","1","0","1","1","0","1","1","0","0","1","1","1","0","0","1","5","3","4","1","3","2","2","4","3","2","2","746367844434055169","张","587","","","","match","","","","","","","","","","","","","","key","j","16.66630434782596","853.3333333333334","476","j","true","match","img/pentagon.png","五边","五边","ALT1_2","prac_ALT1_2","","","","","","","","","","","",""
"null","<span style='color:GreenYellow; font-size: 70px;'>正确! </span>","null","html-keyboard-response","20","135941","0.0-7.0-1.0-1.0-0.0-1.5","4","3","4","3","3","3","3","3","3","3","4","4","1","4","4","4","4","3","4","5","4","3","3","4","4","3","4","3","3","1","0","1","1","0","1","1","0","0","1","1","1","0","0","1","5","3","4","1","3","2","2","4","3","2","2","746367844434055169","张","587","","","","","","","","","","","","","","","","","","","","","","","","","","","","","","feedback_test","","","","","","","","","","","",""
"550","","f","psychophysics","21","137492","0.0-7.0-1.0-1.0-0.0-0.6","4","3","4","3","3","3","3","3","3","3","4","4","1","4","4","4","4","3","4","5","4","3","3","4","4","3","4","3","3","1","0","1","1","0","1","1","0","0","1","1","1","0","0","1","5","3","4","1","3","2","2","4","3","2","2","746367844434055169","张","587","","","","nonmatch","","","","","","","","","","","","","","key","f","16.665217391304157","853.3333333333334","476","f","true","nonmatch","img/diamond.png","方形","菱形","ALT1_2","prac_ALT1_2","","","","","","","","","","","",""
"null","<span style='color:GreenYellow; font-size: 70px;'>正确! </span>","null","html-keyboard-response","22","137993","0.0-7.0-1.0-1.0-0.0-1.6","4","3","4","3","3","3","3","3","3","3","4","4","1","4","4","4","4","3","4","5","4","3","3","4","4","3","4","3","3","1","0","1","1","0","1","1","0","0","1","1","1","0","0","1","5","3","4","1","3","2","2","4","3","2","2","746367844434055169","张","587","","","","","","","","","","","","","","","","","","","","","","","","","","","","","","feedback_test","","","","","","","","","","","",""
"457","","j","psychophysics","23","139451","0.0-7.0-1.0-1.0-0.0-0.7","4","3","4","3","3","3","3","3","3","3","4","4","1","4","4","4","4","3","4","5","4","3","3","4","4","3","4","3","3","1","0","1","1","0","1","1","0","0","1","1","1","0","0","1","5","3","4","1","3","2","2","4","3","2","2","746367844434055169","张","587","","","","match","","","","","","","","","","","","","","key","j","16.665116279069903","853.3333333333334","476","j","true","match","img/square.png","方形","方形","ALT1_2","prac_ALT1_2","","","","","","","","","","","",""
"null","<span style='color:GreenYellow; font-size: 70px;'>正确! </span>","null","html-keyboard-response","24","139952","0.0-7.0-1.0-1.0-0.0-1.7","4","3","4","3","3","3","3","3","3","3","4","4","1","4","4","4","4","3","4","5","4","3","3","4","4","3","4","3","3","1","0","1","1","0","1","1","0","0","1","1","1","0","0","1","5","3","4","1","3","2","2","4","3","2","2","746367844434055169","张","587","","","","","","","","","","","","","","","","","","","","","","","","","","","","","","feedback_test","","","","","","","","","","","",""
"518","","j","psychophysics","25","141473","0.0-7.0-1.0-1.0-0.0-0.8","4","3","4","3","3","3","3","3","3","3","4","4","1","4","4","4","4","3","4","5","4","3","3","4","4","3","4","3","3","1","0","1","1","0","1","1","0","0","1","1","1","0","0","1","5","3","4","1","3","2","2","4","3","2","2","746367844434055169","张","587","","","","match","","","","","","","","","","","","","","key","j","16.66888888888902","853.3333333333334","476","j","true","match","img/diamond.png","菱形","菱形","ALT1_2","prac_ALT1_2","","","","","","","","","","","",""
"null","<span style='color:GreenYellow; font-size: 70px;'>正确! </span>","null","html-keyboard-response","26","141975","0.0-7.0-1.0-1.0-0.0-1.8","4","3","4","3","3","3","3","3","3","3","4","4","1","4","4","4","4","3","4","5","4","3","3","4","4","3","4","3","3","1","0","1","1","0","1","1","0","0","1","1","1","0","0","1","5","3","4","1","3","2","2","4","3","2","2","746367844434055169","张","587","","","","","","","","","","","","","","","","","","","","","","","","","","","","","","feedback_test","","","","","","","","","","","",""
"517","","f","psychophysics","27","143493","0.0-7.0-1.0-1.0-0.0-0.9","4","3","4","3","3","3","3","3","3","3","4","4","1","4","4","4","4","3","4","5","4","3","3","4","4","3","4","3","3","1","0","1","1","0","1","1","0","0","1","1","1","0","0","1","5","3","4","1","3","2","2","4","3","2","2","746367844434055169","张","587","","","","nonmatch","","","","","","","","","","","","","","key","f","16.661797752808923","853.3333333333334","476","j","false","match","img/circle.png","圆形","圆形","ALT1_2","prac_ALT1_2","","","","","","","","","","","",""
"null","<span style='color:red; font-size: 70px;'>错误! </span>","null","html-keyboard-response","28","143994","0.0-7.0-1.0-1.0-0.0-1.9","4","3","4","3","3","3","3","3","3","3","4","4","1","4","4","4","4","3","4","5","4","3","3","4","4","3","4","3","3","1","0","1","1","0","1","1","0","0","1","1","1","0","0","1","5","3","4","1","3","2","2","4","3","2","2","746367844434055169","张","587","","","","","","","","","","","","","","","","","","","","","","","","","","","","","","feedback_test","","","","","","","","","","","",""
"515","","j","psychophysics","29","145511","0.0-7.0-1.0-1.0-0.0-0.10","4","3","4","3","3","3","3","3","3","3","4","4","1","4","4","4","4","3","4","5","4","3","3","4","4","3","4","3","3","1","0","1","1","0","1","1","0","0","1","1","1","0","0","1","5","3","4","1","3","2","2","4","3","2","2","746367844434055169","张","587","","","","match","","","","","","","","","","","","","","key","j","16.665555555555493","853.3333333333334","476","f","false","nonmatch","img/pentagon.png","方形","五边","ALT1_2","prac_ALT1_2","","","","","","","","","","","",""
"null","<span style='color:red; font-size: 70px;'>错误! </span>","null","html-keyboard-response","30","146013","0.0-7.0-1.0-1.0-0.0-1.10","4","3","4","3","3","3","3","3","3","3","4","4","1","4","4","4","4","3","4","5","4","3","3","4","4","3","4","3","3","1","0","1","1","0","1","1","0","0","1","1","1","0","0","1","5","3","4","1","3","2","2","4","3","2","2","746367844434055169","张","587","","","","","","","","","","","","","","","","","","","","","","","","","","","","","","feedback_test","","","","","","","","","","","",""
"503","","j","psychophysics","31","147517","0.0-7.0-1.0-1.0-0.0-0.11","4","3","4","3","3","3","3","3","3","3","4","4","1","4","4","4","4","3","4","5","4","3","3","4","4","3","4","3","3","1","0","1","1","0","1","1","0","0","1","1","1","0","0","1","5","3","4","1","3","2","2","4","3","2","2","746367844434055169","张","587","","","","match","","","","","","","","","","","","","","key","j","16.66629213483133","853.3333333333334","476","j","true","match","img/pentagon.png","五边","五边","ALT1_2","prac_ALT1_2","","","","","","","","","","","",""
"null","<span style='color:GreenYellow; font-size: 70px;'>正确! </span>","null","html-keyboard-response","32","148018","0.0-7.0-1.0-1.0-0.0-1.11","4","3","4","3","3","3","3","3","3","3","4","4","1","4","4","4","4","3","4","5","4","3","3","4","4","3","4","3","3","1","0","1","1","0","1","1","0","0","1","1","1","0","0","1","5","3","4","1","3","2","2","4","3","2","2","746367844434055169","张","587","","","","","","","","","","","","","","","","","","","","","","","","","","","","","","feedback_test","","","","","","","","","","","",""
"457","","j","psychophysics","33","149477","0.0-7.0-1.0-1.0-0.0-0.12","4","3","4","3","3","3","3","3","3","3","4","4","1","4","4","4","4","3","4","5","4","3","3","4","4","3","4","3","3","1","0","1","1","0","1","1","0","0","1","1","1","0","0","1","5","3","4","1","3","2","2","4","3","2","2","746367844434055169","张","587","","","","match","","","","","","","","","","","","","","key","j","16.66436781609182","853.3333333333334","476","j","true","match","img/square.png","方形","方形","ALT1_2","prac_ALT1_2","","","","","","","","","","","",""
"null","<span style='color:GreenYellow; font-size: 70px;'>正确! </span>","null","html-keyboard-response","34","149978","0.0-7.0-1.0-1.0-0.0-1.12","4","3","4","3","3","3","3","3","3","3","4","4","1","4","4","4","4","3","4","5","4","3","3","4","4","3","4","3","3","1","0","1","1","0","1","1","0","0","1","1","1","0","0","1","5","3","4","1","3","2","2","4","3","2","2","746367844434055169","张","587","","","","","","","","","","","","","","","","","","","","","","","","","","","","","","feedback_test","","","","","","","","","","","",""
"488","","f","psychophysics","35","151468","0.0-7.0-1.0-1.0-0.0-0.13","4","3","4","3","3","3","3","3","3","3","4","4","1","4","4","4","4","3","4","5","4","3","3","4","4","3","4","3","3","1","0","1","1","0","1","1","0","0","1","1","1","0","0","1","5","3","4","1","3","2","2","4","3","2","2","746367844434055169","张","587","","","","nonmatch","","","","","","","","","","","","","","key","f","16.667045454545256","853.3333333333334","476","f","true","nonmatch","img/square.png","菱形","方形","ALT1_2","prac_ALT1_2","","","","","","","","","","","",""
"null","<span style='color:GreenYellow; font-size: 70px;'>正确! </span>","null","html-keyboard-response","36","151969","0.0-7.0-1.0-1.0-0.0-1.13","4","3","4","3","3","3","3","3","3","3","4","4","1","4","4","4","4","3","4","5","4","3","3","4","4","3","4","3","3","1","0","1","1","0","1","1","0","0","1","1","1","0","0","1","5","3","4","1","3","2","2","4","3","2","2","746367844434055169","张","587","","","","","","","","","","","","","","","","","","","","","","","","","","","","","","feedback_test","","","","","","","","","","","",""
"521","","f","psychophysics","37","153492","0.0-7.0-1.0-1.0-0.0-0.14","4","3","4","3","3","3","3","3","3","3","4","4","1","4","4","4","4","3","4","5","4","3","3","4","4","3","4","3","3","1","0","1","1","0","1","1","0","0","1","1","1","0","0","1","5","3","4","1","3","2","2","4","3","2","2","746367844434055169","张","587","","","","nonmatch","","","","","","","","","","","","","","key","f","16.666666666666668","853.3333333333334","476","f","true","nonmatch","img/pentagon.png","圆形","五边","ALT1_2","prac_ALT1_2","","","","","","","","","","","",""
"null","<span style='color:GreenYellow; font-size: 70px;'>正确! </span>","null","html-keyboard-response","38","153994","0.0-7.0-1.0-1.0-0.0-1.14","4","3","4","3","3","3","3","3","3","3","4","4","1","4","4","4","4","3","4","5","4","3","3","4","4","3","4","3","3","1","0","1","1","0","1","1","0","0","1","1","1","0","0","1","5","3","4","1","3","2","2","4","3","2","2","746367844434055169","张","587","","","","","","","","","","","","","","","","","","","","","","","","","","","","","","feedback_test","","","","","","","","","","","",""
"535","","j","psychophysics","39","155530","0.0-7.0-1.0-1.0-0.0-0.15","4","3","4","3","3","3","3","3","3","3","4","4","1","4","4","4","4","3","4","5","4","3","3","4","4","3","4","3","3","1","0","1","1","0","1","1","0","0","1","1","1","0","0","1","5","3","4","1","3","2","2","4","3","2","2","746367844434055169","张","587","","","","match","","","","","","","","","","","","","","key","j","16.664835164835164","853.3333333333334","476","f","false","nonmatch","img/pentagon.png","菱形","五边","ALT1_2","prac_ALT1_2","","","","","","","","","","","",""
"null","<span style='color:red; font-size: 70px;'>错误! </span>","null","html-keyboard-response","40","156040","0.0-7.0-1.0-1.0-0.0-1.15","4","3","4","3","3","3","3","3","3","3","4","4","1","4","4","4","4","3","4","5","4","3","3","4","4","3","4","3","3","1","0","1","1","0","1","1","0","0","1","1","1","0","0","1","5","3","4","1","3","2","2","4","3","2","2","746367844434055169","张","587","","","","","","","","","","","","","","","","","","","","","","","","","","","","","","feedback_test","","","","","","","","","","","",""
"516","","j","psychophysics","41","157558","0.0-7.0-1.0-1.0-0.0-0.16","4","3","4","3","3","3","3","3","3","3","4","4","1","4","4","4","4","3","4","5","4","3","3","4","4","3","4","3","3","1","0","1","1","0","1","1","0","0","1","1","1","0","0","1","5","3","4","1","3","2","2","4","3","2","2","746367844434055169","张","587","","","","match","","","","","","","","","","","","","","key","j","16.66777777777752","853.3333333333334","476","j","true","match","img/circle.png","圆形","圆形","ALT1_2","prac_ALT1_2","","","","","","","","","","","",""
"null","<span style='color:GreenYellow; font-size: 70px;'>正确! </span>","null","html-keyboard-response","42","158059","0.0-7.0-1.0-1.0-0.0-1.16","4","3","4","3","3","3","3","3","3","3","4","4","1","4","4","4","4","3","4","5","4","3","3","4","4","3","4","3","3","1","0","1","1","0","1","1","0","0","1","1","1","0","0","1","5","3","4","1","3","2","2","4","3","2","2","746367844434055169","张","587","","","","","","","","","","","","","","","","","","","","","","","","","","","","","","feedback_test","","","","","","","","","","","",""
"539","","j","psychophysics","43","159600","0.0-7.0-1.0-1.0-0.0-0.17","4","3","4","3","3","3","3","3","3","3","4","4","1","4","4","4","4","3","4","5","4","3","3","4","4","3","4","3","3","1","0","1","1","0","1","1","0","0","1","1","1","0","0","1","5","3","4","1","3","2","2","4","3","2","2","746367844434055169","张","587","","","","match","","","","","","","","","","","","","","key","j","16.66593406593413","853.3333333333334","476","j","true","match","img/pentagon.png","五边","五边","ALT1_2","prac_ALT1_2","","","","","","","","","","","",""
"null","<span style='color:GreenYellow; font-size: 70px;'>正确! </span>","null","html-keyboard-response","44","160100","0.0-7.0-1.0-1.0-0.0-1.17","4","3","4","3","3","3","3","3","3","3","4","4","1","4","4","4","4","3","4","5","4","3","3","4","4","3","4","3","3","1","0","1","1","0","1","1","0","0","1","1","1","0","0","1","5","3","4","1","3","2","2","4","3","2","2","746367844434055169","张","587","","","","","","","","","","","","","","","","","","","","","","","","","","","","","","feedback_test","","","","","","","","","","","",""
"592","","j","psychophysics","45","161694","0.0-7.0-1.0-1.0-0.0-0.18","4","3","4","3","3","3","3","3","3","3","4","4","1","4","4","4","4","3","4","5","4","3","3","4","4","3","4","3","3","1","0","1","1","0","1","1","0","0","1","1","1","0","0","1","5","3","4","1","3","2","2","4","3","2","2","746367844434055169","张","587","","","","match","","","","","","","","","","","","","","key","j","16.66736842105257","853.3333333333334","476","j","true","match","img/diamond.png","菱形","菱形","ALT1_2","prac_ALT1_2","","","","","","","","","","","",""
"null","<span style='color:GreenYellow; font-size: 70px;'>正确! </span>","null","html-keyboard-response","46","162195","0.0-7.0-1.0-1.0-0.0-1.18","4","3","4","3","3","3","3","3","3","3","4","4","1","4","4","4","4","3","4","5","4","3","3","4","4","3","4","3","3","1","0","1","1","0","1","1","0","0","1","1","1","0","0","1","5","3","4","1","3","2","2","4","3","2","2","746367844434055169","张","587","","","","","","","","","","","","","","","","","","","","","","","","","","","","","","feedback_test","","","","","","","","","","","",""
"519","","f","psychophysics","47","163716","0.0-7.0-1.0-1.0-0.0-0.19","4","3","4","3","3","3","3","3","3","3","4","4","1","4","4","4","4","3","4","5","4","3","3","4","4","3","4","3","3","1","0","1","1","0","1","1","0","0","1","1","1","0","0","1","5","3","4","1","3","2","2","4","3","2","2","746367844434055169","张","587","","","","nonmatch","","","","","","","","","","","","","","key","f","16.666666666666668","853.3333333333334","476","j","false","match","img/diamond.png","菱形","菱形","ALT1_2","prac_ALT1_2","","","","","","","","","","","",""
"null","<span style='color:red; font-size: 70px;'>错误! </span>","null","html-keyboard-response","48","164217","0.0-7.0-1.0-1.0-0.0-1.19","4","3","4","3","3","3","3","3","3","3","4","4","1","4","4","4","4","3","4","5","4","3","3","4","4","3","4","3","3","1","0","1","1","0","1","1","0","0","1","1","1","0","0","1","5","3","4","1","3","2","2","4","3","2","2","746367844434055169","张","587","","","","","","","","","","","","","","","","","","","","","","","","","","","","","","feedback_test","","","","","","","","","","","",""
"578","","f","psychophysics","49","165796","0.0-7.0-1.0-1.0-0.0-0.20","4","3","4","3","3","3","3","3","3","3","4","4","1","4","4","4","4","3","4","5","4","3","3","4","4","3","4","3","3","1","0","1","1","0","1","1","0","0","1","1","1","0","0","1","5","3","4","1","3","2","2","4","3","2","2","746367844434055169","张","587","","","","nonmatch","","","","","","","","","","","","","","key","f","16.668085106382854","853.3333333333334","476","f","true","nonmatch","img/square.png","圆形","方形","ALT1_2","prac_ALT1_2","","","","","","","","","","","",""
"null","<span style='color:GreenYellow; font-size: 70px;'>正确! </span>","null","html-keyboard-response","50","166297","0.0-7.0-1.0-1.0-0.0-1.20","4","3","4","3","3","3","3","3","3","3","4","4","1","4","4","4","4","3","4","5","4","3","3","4","4","3","4","3","3","1","0","1","1","0","1","1","0","0","1","1","1","0","0","1","5","3","4","1","3","2","2","4","3","2","2","746367844434055169","张","587","","","","","","","","","","","","","","","","","","","","","","","","","","","","","","feedback_test","","","","","","","","","","","",""
"538","","j","psychophysics","51","167836","0.0-7.0-1.0-1.0-0.0-0.21","4","3","4","3","3","3","3","3","3","3","4","4","1","4","4","4","4","3","4","5","4","3","3","4","4","3","4","3","3","1","0","1","1","0","1","1","0","0","1","1","1","0","0","1","5","3","4","1","3","2","2","4","3","2","2","746367844434055169","张","587","","","","match","","","","","","","","","","","","","","key","j","16.664835164835164","853.3333333333334","476","j","true","match","img/circle.png","圆形","圆形","ALT1_2","prac_ALT1_2","","","","","","","","","","","",""
"null","<span style='color:GreenYellow; font-size: 70px;'>正确! </span>","null","html-keyboard-response","52","168337","0.0-7.0-1.0-1.0-0.0-1.21","4","3","4","3","3","3","3","3","3","3","4","4","1","4","4","4","4","3","4","5","4","3","3","4","4","3","4","3","3","1","0","1","1","0","1","1","0","0","1","1","1","0","0","1","5","3","4","1","3","2","2","4","3","2","2","746367844434055169","张","587","","","","","","","","","","","","","","","","","","","","","","","","","","","","","","feedback_test","","","","","","","","","","","",""
"583","","f","psychophysics","53","169922","0.0-7.0-1.0-1.0-0.0-0.22","4","3","4","3","3","3","3","3","3","3","4","4","1","4","4","4","4","3","4","5","4","3","3","4","4","3","4","3","3","1","0","1","1","0","1","1","0","0","1","1","1","0","0","1","5","3","4","1","3","2","2","4","3","2","2","746367844434055169","张","587","","","","nonmatch","","","","","","","","","","","","","","key","f","16.665957446808264","853.3333333333334","476","f","true","nonmatch","img/circle.png","方形","圆形","ALT1_2","prac_ALT1_2","","","","","","","","","","","",""
"null","<span style='color:GreenYellow; font-size: 70px;'>正确! </span>","null","html-keyboard-response","54","170422","0.0-7.0-1.0-1.0-0.0-1.22","4","3","4","3","3","3","3","3","3","3","4","4","1","4","4","4","4","3","4","5","4","3","3","4","4","3","4","3","3","1","0","1","1","0","1","1","0","0","1","1","1","0","0","1","5","3","4","1","3","2","2","4","3","2","2","746367844434055169","张","587","","","","","","","","","","","","","","","","","","","","","","","","","","","","","","feedback_test","","","","","","","","","","","",""
"576","","f","psychophysics","55","172000","0.0-7.0-1.0-1.0-0.0-0.23","4","3","4","3","3","3","3","3","3","3","4","4","1","4","4","4","4","3","4","5","4","3","3","4","4","3","4","3","3","1","0","1","1","0","1","1","0","0","1","1","1","0","0","1","5","3","4","1","3","2","2","4","3","2","2","746367844434055169","张","587","","","","nonmatch","","","","","","","","","","","","","","key","f","16.664893617021278","853.3333333333334","476","f","true","nonmatch","img/circle.png","五边","圆形","ALT1_2","prac_ALT1_2","","","","","","","","","","","",""
"null","<span style='color:GreenYellow; font-size: 70px;'>正确! </span>","null","html-keyboard-response","56","172502","0.0-7.0-1.0-1.0-0.0-1.23","4","3","4","3","3","3","3","3","3","3","4","4","1","4","4","4","4","3","4","5","4","3","3","4","4","3","4","3","3","1","0","1","1","0","1","1","0","0","1","1","1","0","0","1","5","3","4","1","3","2","2","4","3","2","2","746367844434055169","张","587","","","","","","","","","","","","","","","","","","","","","","","","","","","","","","feedback_test","","","","","","","","","","","",""
"587","","f","psychophysics","57","174092","0.0-7.0-1.0-1.0-0.0-0.24","4","3","4","3","3","3","3","3","3","3","4","4","1","4","4","4","4","3","4","5","4","3","3","4","4","3","4","3","3","1","0","1","1","0","1","1","0","0","1","1","1","0","0","1","5","3","4","1","3","2","2","4","3","2","2","746367844434055169","张","587","","","","nonmatch","","","","","","","","","","","","","","key","f","16.66631578947356","853.3333333333334","476","f","true","nonmatch","img/pentagon.png","圆形","五边","ALT1_2","prac_ALT1_2","","","","","","","","","","","",""
"null","<span style='color:GreenYellow; font-size: 70px;'>正确! </span>","null","html-keyboard-response","58","174593","0.0-7.0-1.0-1.0-0.0-1.24","4","3","4","3","3","3","3","3","3","3","4","4","1","4","4","4","4","3","4","5","4","3","3","4","4","3","4","3","3","1","0","1","1","0","1","1","0","0","1","1","1","0","0","1","5","3","4","1","3","2","2","4","3","2","2","746367844434055169","张","587","","","","","","","","","","","","","","","","","","","","","","","","","","","","","","feedback_test","","","","","","","","","","","",""
"581","","j","psychophysics","59","176176","0.0-7.0-1.0-1.0-0.0-0.25","4","3","4","3","3","3","3","3","3","3","4","4","1","4","4","4","4","3","4","5","4","3","3","4","4","3","4","3","3","1","0","1","1","0","1","1","0","0","1","1","1","0","0","1","5","3","4","1","3","2","2","4","3","2","2","746367844434055169","张","587","","","","match","","","","","","","","","","","","","","key","j","16.665957446808573","853.3333333333334","476","j","true","match","img/pentagon.png","五边","五边","ALT1_2","prac_ALT1_2","","","","","","","","","","","",""
"null","<span style='color:GreenYellow; font-size: 70px;'>正确! </span>","null","html-keyboard-response","60","176677","0.0-7.0-1.0-1.0-0.0-1.25","4","3","4","3","3","3","3","3","3","3","4","4","1","4","4","4","4","3","4","5","4","3","3","4","4","3","4","3","3","1","0","1","1","0","1","1","0","0","1","1","1","0","0","1","5","3","4","1","3","2","2","4","3","2","2","746367844434055169","张","587","","","","","","","","","","","","","","","","","","","","","","","","","","","","","","feedback_test","","","","","","","","","","","",""
"594","","j","psychophysics","61","178272","0.0-7.0-1.0-1.0-0.0-0.26","4","3","4","3","3","3","3","3","3","3","4","4","1","4","4","4","4","3","4","5","4","3","3","4","4","3","4","3","3","1","0","1","1","0","1","1","0","0","1","1","1","0","0","1","5","3","4","1","3","2","2","4","3","2","2","746367844434055169","张","587","","","","match","","","","","","","","","","","","","","key","j","16.664893617021278","853.3333333333334","476","j","true","match","img/diamond.png","菱形","菱形","ALT1_2","prac_ALT1_2","","","","","","","","","","","",""
"null","<span style='color:GreenYellow; font-size: 70px;'>正确! </span>","null","html-keyboard-response","62","178773","0.0-7.0-1.0-1.0-0.0-1.26","4","3","4","3","3","3","3","3","3","3","4","4","1","4","4","4","4","3","4","5","4","3","3","4","4","3","4","3","3","1","0","1","1","0","1","1","0","0","1","1","1","0","0","1","5","3","4","1","3","2","2","4","3","2","2","746367844434055169","张","587","","","","","","","","","","","","","","","","","","","","","","","","","","","","","","feedback_test","","","","","","","","","","","",""
"545","","f","psychophysics","63","180320","0.0-7.0-1.0-1.0-0.0-0.27","4","3","4","3","3","3","3","3","3","3","4","4","1","4","4","4","4","3","4","5","4","3","3","4","4","3","4","3","3","1","0","1","1","0","1","1","0","0","1","1","1","0","0","1","5","3","4","1","3","2","2","4","3","2","2","746367844434055169","张","587","","","","nonmatch","","","","","","","","","","","","","","key","f","16.660439560439304","853.3333333333334","476","f","true","nonmatch","img/square.png","菱形","方形","ALT1_2","prac_ALT1_2","","","","","","","","","","","",""
"null","<span style='color:GreenYellow; font-size: 70px;'>正确! </span>","null","html-keyboard-response","64","180821","0.0-7.0-1.0-1.0-0.0-1.27","4","3","4","3","3","3","3","3","3","3","4","4","1","4","4","4","4","3","4","5","4","3","3","4","4","3","4","3","3","1","0","1","1","0","1","1","0","0","1","1","1","0","0","1","5","3","4","1","3","2","2","4","3","2","2","746367844434055169","张","587","","","","","","","","","","","","","","","","","","","","","","","","","","","","","","feedback_test","","","","","","","","","","","",""
"566","","f","psychophysics","65","182388","0.0-7.0-1.0-1.0-0.0-0.28","4","3","4","3","3","3","3","3","3","3","4","4","1","4","4","4","4","3","4","5","4","3","3","4","4","3","4","3","3","1","0","1","1","0","1","1","0","0","1","1","1","0","0","1","5","3","4","1","3","2","2","4","3","2","2","746367844434055169","张","587","","","","nonmatch","","","","","","","","","","","","","","key","f","16.664516129032133","853.3333333333334","476","f","true","nonmatch","img/diamond.png","五边","菱形","ALT1_2","prac_ALT1_2","","","","","","","","","","","",""
"null","<span style='color:GreenYellow; font-size: 70px;'>正确! </span>","null","html-keyboard-response","66","182890","0.0-7.0-1.0-1.0-0.0-1.28","4","3","4","3","3","3","3","3","3","3","4","4","1","4","4","4","4","3","4","5","4","3","3","4","4","3","4","3","3","1","0","1","1","0","1","1","0","0","1","1","1","0","0","1","5","3","4","1","3","2","2","4","3","2","2","746367844434055169","张","587","","","","","","","","","","","","","","","","","","","","","","","","","","","","","","feedback_test","","","","","","","","","","","",""
"873","","f","psychophysics","67","184764","0.0-7.0-1.0-1.0-0.0-0.29","4","3","4","3","3","3","3","3","3","3","4","4","1","4","4","4","4","3","4","5","4","3","3","4","4","3","4","3","3","1","0","1","1","0","1","1","0","0","1","1","1","0","0","1","5","3","4","1","3","2","2","4","3","2","2","746367844434055169","张","587","","","","nonmatch","","","","","","","","","","","","","","key","f","16.6522522522522","853.3333333333334","476","f","true","nonmatch","img/pentagon.png","方形","五边","ALT1_2","prac_ALT1_2","","","","","","","","","","","",""
"null","<span style='color:GreenYellow; font-size: 70px;'>正确! </span>","null","html-keyboard-response","68","185265","0.0-7.0-1.0-1.0-0.0-1.29","4","3","4","3","3","3","3","3","3","3","4","4","1","4","4","4","4","3","4","5","4","3","3","4","4","3","4","3","3","1","0","1","1","0","1","1","0","0","1","1","1","0","0","1","5","3","4","1","3","2","2","4","3","2","2","746367844434055169","张","587","","","","","","","","","","","","","","","","","","","","","","","","","","","","","","feedback_test","","","","","","","","","","","",""
"554","","j","psychophysics","69","186820","0.0-7.0-1.0-1.0-0.0-0.30","4","3","4","3","3","3","3","3","3","3","4","4","1","4","4","4","4","3","4","5","4","3","3","4","4","3","4","3","3","1","0","1","1","0","1","1","0","0","1","1","1","0","0","1","5","3","4","1","3","2","2","4","3","2","2","746367844434055169","张","587","","","","match","","","","","","","","","","","","","","key","j","16.66630434782596","853.3333333333334","476","j","true","match","img/circle.png","圆形","圆形","ALT1_2","prac_ALT1_2","","","","","","","","","","","",""
"null","<span style='color:GreenYellow; font-size: 70px;'>正确! </span>","null","html-keyboard-response","70","187321","0.0-7.0-1.0-1.0-0.0-1.30","4","3","4","3","3","3","3","3","3","3","4","4","1","4","4","4","4","3","4","5","4","3","3","4","4","3","4","3","3","1","0","1","1","0","1","1","0","0","1","1","1","0","0","1","5","3","4","1","3","2","2","4","3","2","2","746367844434055169","张","587","","","","","","","","","","","","","","","","","","","","","","","","","","","","","","feedback_test","","","","","","","","","","","",""
"885","","f","psychophysics","71","189208","0.0-7.0-1.0-1.0-0.0-0.31","4","3","4","3","3","3","3","3","3","3","4","4","1","4","4","4","4","3","4","5","4","3","3","4","4","3","4","3","3","1","0","1","1","0","1","1","0","0","1","1","1","0","0","1","5","3","4","1","3","2","2","4","3","2","2","746367844434055169","张","587","","","","nonmatch","","","","","","","","","","","","","","key","f","16.666371681415825","853.3333333333334","476","f","true","nonmatch","img/diamond.png","方形","菱形","ALT1_2","prac_ALT1_2","","","","","","","","","","","",""
"null","<span style='color:GreenYellow; font-size: 70px;'>正确! </span>","null","html-keyboard-response","72","189710","0.0-7.0-1.0-1.0-0.0-1.31","4","3","4","3","3","3","3","3","3","3","4","4","1","4","4","4","4","3","4","5","4","3","3","4","4","3","4","3","3","1","0","1","1","0","1","1","0","0","1","1","1","0","0","1","5","3","4","1","3","2","2","4","3","2","2","746367844434055169","张","587","","","","","","","","","","","","","","","","","","","","","","","","","","","","","","feedback_test","","","","","","","","","","","",""
"541","","f","psychophysics","73","191252","0.0-7.0-1.0-1.0-0.0-0.32","4","3","4","3","3","3","3","3","3","3","4","4","1","4","4","4","4","3","4","5","4","3","3","4","4","3","4","3","3","1","0","1","1","0","1","1","0","0","1","1","1","0","0","1","5","3","4","1","3","2","2","4","3","2","2","746367844434055169","张","587","","","","nonmatch","","","","","","","","","","","","","","key","f","16.66593406593413","853.3333333333334","476","f","true","nonmatch","img/square.png","圆形","方形","ALT1_2","prac_ALT1_2","","","","","","","","","","","",""
"null","<span style='color:GreenYellow; font-size: 70px;'>正确! </span>","null","html-keyboard-response","74","191753","0.0-7.0-1.0-1.0-0.0-1.32","4","3","4","3","3","3","3","3","3","3","4","4","1","4","4","4","4","3","4","5","4","3","3","4","4","3","4","3","3","1","0","1","1","0","1","1","0","0","1","1","1","0","0","1","5","3","4","1","3","2","2","4","3","2","2","746367844434055169","张","587","","","","","","","","","","","","","","","","","","","","","","","","","","","","","","feedback_test","","","","","","","","","","","",""
"657","","f","psychophysics","75","193412","0.0-7.0-1.0-1.0-0.0-0.33","4","3","4","3","3","3","3","3","3","3","4","4","1","4","4","4","4","3","4","5","4","3","3","4","4","3","4","3","3","1","0","1","1","0","1","1","0","0","1","1","1","0","0","1","5","3","4","1","3","2","2","4","3","2","2","746367844434055169","张","587","","","","nonmatch","","","","","","","","","","","","","","key","f","16.6656565656568","853.3333333333334","476","f","true","nonmatch","img/circle.png","菱形","圆形","ALT1_2","prac_ALT1_2","","","","","","","","","","","",""
"null","<span style='color:GreenYellow; font-size: 70px;'>正确! </span>","null","html-keyboard-response","76","193912","0.0-7.0-1.0-1.0-0.0-1.33","4","3","4","3","3","3","3","3","3","3","4","4","1","4","4","4","4","3","4","5","4","3","3","4","4","3","4","3","3","1","0","1","1","0","1","1","0","0","1","1","1","0","0","1","5","3","4","1","3","2","2","4","3","2","2","746367844434055169","张","587","","","","","","","","","","","","","","","","","","","","","","","","","","","","","","feedback_test","","","","","","","","","","","",""
"674","","j","psychophysics","77","195588","0.0-7.0-1.0-1.0-0.0-0.34","4","3","4","3","3","3","3","3","3","3","4","4","1","4","4","4","4","3","4","5","4","3","3","4","4","3","4","3","3","1","0","1","1","0","1","1","0","0","1","1","1","0","0","1","5","3","4","1","3","2","2","4","3","2","2","746367844434055169","张","587","","","","match","","","","","","","","","","","","","","key","j","16.66464646464664","853.3333333333334","476","j","true","match","img/square.png","方形","方形","ALT1_2","prac_ALT1_2","","","","","","","","","","","",""
"null","<span style='color:GreenYellow; font-size: 70px;'>正确! </span>","null","html-keyboard-response","78","196089","0.0-7.0-1.0-1.0-0.0-1.34","4","3","4","3","3","3","3","3","3","3","4","4","1","4","4","4","4","3","4","5","4","3","3","4","4","3","4","3","3","1","0","1","1","0","1","1","0","0","1","1","1","0","0","1","5","3","4","1","3","2","2","4","3","2","2","746367844434055169","张","587","","","","","","","","","","","","","","","","","","","","","","","","","","","","","","feedback_test","","","","","","","","","","","",""
"569","","j","psychophysics","79","197660","0.0-7.0-1.0-1.0-0.0-0.35","4","3","4","3","3","3","3","3","3","3","4","4","1","4","4","4","4","3","4","5","4","3","3","4","4","3","4","3","3","1","0","1","1","0","1","1","0","0","1","1","1","0","0","1","5","3","4","1","3","2","2","4","3","2","2","746367844434055169","张","587","","","","match","","","","","","","","","","","","","","key","j","16.664893617021278","853.3333333333334","476","j","true","match","img/circle.png","圆形","圆形","ALT1_2","prac_ALT1_2","","","","","","","","","","","",""
"null","<span style='color:GreenYellow; font-size: 70px;'>正确! </span>","null","html-keyboard-response","80","198160","0.0-7.0-1.0-1.0-0.0-1.35","4","3","4","3","3","3","3","3","3","3","4","4","1","4","4","4","4","3","4","5","4","3","3","4","4","3","4","3","3","1","0","1","1","0","1","1","0","0","1","1","1","0","0","1","5","3","4","1","3","2","2","4","3","2","2","746367844434055169","张","587","","","","","","","","","","","","","","","","","","","","","","","","","","","","","","feedback_test","","","","","","","","","","","",""
"555","","f","psychophysics","81","199716","0.0-7.0-1.0-1.0-0.0-0.36","4","3","4","3","3","3","3","3","3","3","4","4","1","4","4","4","4","3","4","5","4","3","3","4","4","3","4","3","3","1","0","1","1","0","1","1","0","0","1","1","1","0","0","1","5","3","4","1","3","2","2","4","3","2","2","746367844434055169","张","587","","","","nonmatch","","","","","","","","","","","","","","key","f","16.66630434782596","853.3333333333334","476","j","false","match","img/pentagon.png","五边","五边","ALT1_2","prac_ALT1_2","","","","","","","","","","","",""
"null","<span style='color:red; font-size: 70px;'>错误! </span>","null","html-keyboard-response","82","200216","0.0-7.0-1.0-1.0-0.0-1.36","4","3","4","3","3","3","3","3","3","3","4","4","1","4","4","4","4","3","4","5","4","3","3","4","4","3","4","3","3","1","0","1","1","0","1","1","0","0","1","1","1","0","0","1","5","3","4","1","3","2","2","4","3","2","2","746367844434055169","张","587","","","","","","","","","","","","","","","","","","","","","","","","","","","","","","feedback_test","","","","","","","","","","","",""
"598","","j","psychophysics","83","201816","0.0-7.0-1.0-1.0-0.0-0.37","4","3","4","3","3","3","3","3","3","3","4","4","1","4","4","4","4","3","4","5","4","3","3","4","4","3","4","3","3","1","0","1","1","0","1","1","0","0","1","1","1","0","0","1","5","3","4","1","3","2","2","4","3","2","2","746367844434055169","张","587","","","","match","","","","","","","","","","","","","","key","j","16.66315789473684","853.3333333333334","476","j","true","match","img/diamond.png","菱形","菱形","ALT1_2","prac_ALT1_2","","","","","","","","","","","",""
"null","<span style='color:GreenYellow; font-size: 70px;'>正确! </span>","null","html-keyboard-response","84","202316","0.0-7.0-1.0-1.0-0.0-1.37","4","3","4","3","3","3","3","3","3","3","4","4","1","4","4","4","4","3","4","5","4","3","3","4","4","3","4","3","3","1","0","1","1","0","1","1","0","0","1","1","1","0","0","1","5","3","4","1","3","2","2","4","3","2","2","746367844434055169","张","587","","","","","","","","","","","","","","","","","","","","","","","","","","","","","","feedback_test","","","","","","","","","","","",""
"539","","j","psychophysics","85","203856","0.0-7.0-1.0-1.0-0.0-0.38","4","3","4","3","3","3","3","3","3","3","4","4","1","4","4","4","4","3","4","5","4","3","3","4","4","3","4","3","3","1","0","1","1","0","1","1","0","0","1","1","1","0","0","1","5","3","4","1","3","2","2","4","3","2","2","746367844434055169","张","587","","","","match","","","","","","","","","","","","","","key","j","16.667032967033094","853.3333333333334","476","j","true","match","img/square.png","方形","方形","ALT1_2","prac_ALT1_2","","","","","","","","","","","",""
"null","<span style='color:GreenYellow; font-size: 70px;'>正确! </span>","null","html-keyboard-response","86","204358","0.0-7.0-1.0-1.0-0.0-1.38","4","3","4","3","3","3","3","3","3","3","4","4","1","4","4","4","4","3","4","5","4","3","3","4","4","3","4","3","3","1","0","1","1","0","1","1","0","0","1","1","1","0","0","1","5","3","4","1","3","2","2","4","3","2","2","746367844434055169","张","587","","","","","","","","","","","","","","","","","","","","","","","","","","","","","","feedback_test","","","","","","","","","","","",""
"648","","j","psychophysics","87","206008","0.0-7.0-1.0-1.0-0.0-0.39","4","3","4","3","3","3","3","3","3","3","4","4","1","4","4","4","4","3","4","5","4","3","3","4","4","3","4","3","3","1","0","1","1","0","1","1","0","0","1","1","1","0","0","1","5","3","4","1","3","2","2","4","3","2","2","746367844434055169","张","587","","","","match","","","","","","","","","","","","","","key","j","16.666326530612423","853.3333333333334","476","j","true","match","img/square.png","方形","方形","ALT1_2","prac_ALT1_2","","","","","","","","","","","",""
"null","<span style='color:GreenYellow; font-size: 70px;'>正确! </span>","null","html-keyboard-response","88","206508","0.0-7.0-1.0-1.0-0.0-1.39","4","3","4","3","3","3","3","3","3","3","4","4","1","4","4","4","4","3","4","5","4","3","3","4","4","3","4","3","3","1","0","1","1","0","1","1","0","0","1","1","1","0","0","1","5","3","4","1","3","2","2","4","3","2","2","746367844434055169","张","587","","","","","","","","","","","","","","","","","","","","","","","","","","","","","","feedback_test","","","","","","","","","","","",""
"514","","f","psychophysics","89","208023","0.0-7.0-1.0-1.0-0.0-0.40","4","3","4","3","3","3","3","3","3","3","4","4","1","4","4","4","4","3","4","5","4","3","3","4","4","3","4","3","3","1","0","1","1","0","1","1","0","0","1","1","1","0","0","1","5","3","4","1","3","2","2","4","3","2","2","746367844434055169","张","587","","","","nonmatch","","","","","","","","","","","","","","key","f","16.665555555555816","853.3333333333334","476","f","true","nonmatch","img/circle.png","五边","圆形","ALT1_2","prac_ALT1_2","","","","","","","","","","","",""
"null","<span style='color:GreenYellow; font-size: 70px;'>正确! </span>","null","html-keyboard-response","90","208524","0.0-7.0-1.0-1.0-0.0-1.40","4","3","4","3","3","3","3","3","3","3","4","4","1","4","4","4","4","3","4","5","4","3","3","4","4","3","4","3","3","1","0","1","1","0","1","1","0","0","1","1","1","0","0","1","5","3","4","1","3","2","2","4","3","2","2","746367844434055169","张","587","","","","","","","","","","","","","","","","","","","","","","","","","","","","","","feedback_test","","","","","","","","","","","",""
"574","","f","psychophysics","91","210099","0.0-7.0-1.0-1.0-0.0-0.41","4","3","4","3","3","3","3","3","3","3","4","4","1","4","4","4","4","3","4","5","4","3","3","4","4","3","4","3","3","1","0","1","1","0","1","1","0","0","1","1","1","0","0","1","5","3","4","1","3","2","2","4","3","2","2","746367844434055169","张","587","","","","nonmatch","","","","","","","","","","","","","","key","f","16.664516129032133","853.3333333333334","476","f","true","nonmatch","img/diamond.png","圆形","菱形","ALT1_2","prac_ALT1_2","","","","","","","","","","","",""
"null","<span style='color:GreenYellow; font-size: 70px;'>正确! </span>","null","html-keyboard-response","92","210600","0.0-7.0-1.0-1.0-0.0-1.41","4","3","4","3","3","3","3","3","3","3","4","4","1","4","4","4","4","3","4","5","4","3","3","4","4","3","4","3","3","1","0","1","1","0","1","1","0","0","1","1","1","0","0","1","5","3","4","1","3","2","2","4","3","2","2","746367844434055169","张","587","","","","","","","","","","","","","","","","","","","","","","","","","","","","","","feedback_test","","","","","","","","","","","",""
"598","","j","psychophysics","93","212200","0.0-7.0-1.0-1.0-0.0-0.42","4","3","4","3","3","3","3","3","3","3","4","4","1","4","4","4","4","3","4","5","4","3","3","4","4","3","4","3","3","1","0","1","1","0","1","1","0","0","1","1","1","0","0","1","5","3","4","1","3","2","2","4","3","2","2","746367844434055169","张","587","","","","match","","","","","","","","","","","","","","key","j","16.666315789473867","853.3333333333334","476","j","true","match","img/diamond.png","菱形","菱形","ALT1_2","prac_ALT1_2","","","","","","","","","","","",""
"null","<span style='color:GreenYellow; font-size: 70px;'>正确! </span>","null","html-keyboard-response","94","212700","0.0-7.0-1.0-1.0-0.0-1.42","4","3","4","3","3","3","3","3","3","3","4","4","1","4","4","4","4","3","4","5","4","3","3","4","4","3","4","3","3","1","0","1","1","0","1","1","0","0","1","1","1","0","0","1","5","3","4","1","3","2","2","4","3","2","2","746367844434055169","张","587","","","","","","","","","","","","","","","","","","","","","","","","","","","","","","feedback_test","","","","","","","","","","","",""
"539","","j","psychophysics","95","214240","0.0-7.0-1.0-1.0-0.0-0.43","4","3","4","3","3","3","3","3","3","3","4","4","1","4","4","4","4","3","4","5","4","3","3","4","4","3","4","3","3","1","0","1","1","0","1","1","0","0","1","1","1","0","0","1","5","3","4","1","3","2","2","4","3","2","2","746367844434055169","张","587","","","","match","","","","","","","","","","","","","","key","j","16.665217391304473","853.3333333333334","476","f","false","nonmatch","img/pentagon.png","菱形","五边","ALT1_2","prac_ALT1_2","","","","","","","","","","","",""
"null","<span style='color:red; font-size: 70px;'>错误! </span>","null","html-keyboard-response","96","214740","0.0-7.0-1.0-1.0-0.0-1.43","4","3","4","3","3","3","3","3","3","3","4","4","1","4","4","4","4","3","4","5","4","3","3","4","4","3","4","3","3","1","0","1","1","0","1","1","0","0","1","1","1","0","0","1","5","3","4","1","3","2","2","4","3","2","2","746367844434055169","张","587","","","","","","","","","","","","","","","","","","","","","","","","","","","","","","feedback_test","","","","","","","","","","","",""
"761","","j","psychophysics","97","216503","0.0-7.0-1.0-1.0-0.0-0.44","4","3","4","3","3","3","3","3","3","3","4","4","1","4","4","4","4","3","4","5","4","3","3","4","4","3","4","3","3","1","0","1","1","0","1","1","0","0","1","1","1","0","0","1","5","3","4","1","3","2","2","4","3","2","2","746367844434055169","张","587","","","","match","","","","","","","","","","","","","","key","j","16.664423076923132","853.3333333333334","476","j","true","match","img/pentagon.png","五边","五边","ALT1_2","prac_ALT1_2","","","","","","","","","","","",""
"null","<span style='color:GreenYellow; font-size: 70px;'>正确! </span>","null","html-keyboard-response","98","217004","0.0-7.0-1.0-1.0-0.0-1.44","4","3","4","3","3","3","3","3","3","3","4","4","1","4","4","4","4","3","4","5","4","3","3","4","4","3","4","3","3","1","0","1","1","0","1","1","0","0","1","1","1","0","0","1","5","3","4","1","3","2","2","4","3","2","2","746367844434055169","张","587","","","","","","","","","","","","","","","","","","","","","","","","","","","","","","feedback_test","","","","","","","","","","","",""
"430","","j","psychophysics","99","218435","0.0-7.0-1.0-1.0-0.0-0.45","4","3","4","3","3","3","3","3","3","3","4","4","1","4","4","4","4","3","4","5","4","3","3","4","4","3","4","3","3","1","0","1","1","0","1","1","0","0","1","1","1","0","0","1","5","3","4","1","3","2","2","4","3","2","2","746367844434055169","张","587","","","","match","","","","","","","","","","","","","","key","j","16.66352941176498","853.3333333333334","476","j","true","match","img/circle.png","圆形","圆形","ALT1_2","prac_ALT1_2","","","","","","","","","","","",""
"null","<span style='color:GreenYellow; font-size: 70px;'>正确! </span>","null","html-keyboard-response","100","218936","0.0-7.0-1.0-1.0-0.0-1.45","4","3","4","3","3","3","3","3","3","3","4","4","1","4","4","4","4","3","4","5","4","3","3","4","4","3","4","3","3","1","0","1","1","0","1","1","0","0","1","1","1","0","0","1","5","3","4","1","3","2","2","4","3","2","2","746367844434055169","张","587","","","","","","","","","","","","","","","","","","","","","","","","","","","","","","feedback_test","","","","","","","","","","","",""
"427","","f","psychophysics","101","220364","0.0-7.0-1.0-1.0-0.0-0.46","4","3","4","3","3","3","3","3","3","3","4","4","1","4","4","4","4","3","4","5","4","3","3","4","4","3","4","3","3","1","0","1","1","0","1","1","0","0","1","1","1","0","0","1","5","3","4","1","3","2","2","4","3","2","2","746367844434055169","张","587","","","","nonmatch","","","","","","","","","","","","","","key","f","16.665882352941246","853.3333333333334","476","f","true","nonmatch","img/square.png","五边","方形","ALT1_2","prac_ALT1_2","","","","","","","","","","","",""
"null","<span style='color:GreenYellow; font-size: 70px;'>正确! </span>","null","html-keyboard-response","102","220871","0.0-7.0-1.0-1.0-0.0-1.46","4","3","4","3","3","3","3","3","3","3","4","4","1","4","4","4","4","3","4","5","4","3","3","4","4","3","4","3","3","1","0","1","1","0","1","1","0","0","1","1","1","0","0","1","5","3","4","1","3","2","2","4","3","2","2","746367844434055169","张","587","","","","","","","","","","","","","","","","","","","","","","","","","","","","","","feedback_test","","","","","","","","","","","",""
"538","","f","psychophysics","103","222411","0.0-7.0-1.0-1.0-0.0-0.47","4","3","4","3","3","3","3","3","3","3","4","4","1","4","4","4","4","3","4","5","4","3","3","4","4","3","4","3","3","1","0","1","1","0","1","1","0","0","1","1","1","0","0","1","5","3","4","1","3","2","2","4","3","2","2","746367844434055169","张","587","","","","nonmatch","","","","","","","","","","","","","","key","f","16.66593406593413","853.3333333333334","476","f","true","nonmatch","img/circle.png","方形","圆形","ALT1_2","prac_ALT1_2","","","","","","","","","","","",""
"null","<span style='color:GreenYellow; font-size: 70px;'>正确! </span>","null","html-keyboard-response","104","222912","0.0-7.0-1.0-1.0-0.0-1.47","4","3","4","3","3","3","3","3","3","3","4","4","1","4","4","4","4","3","4","5","4","3","3","4","4","3","4","3","3","1","0","1","1","0","1","1","0","0","1","1","1","0","0","1","5","3","4","1","3","2","2","4","3","2","2","746367844434055169","张","587","","","","","","","","","","","","","","","","","","","","","","","","","","","","","","feedback_test","","","","","","","","","","","",""
"3984","<style>.context{color:white; font-size: 35px; line-height:40px}</style>                          <div><p class='context'>您正确回答了88% 的试次。</p><p class='context'>您的平均反应时为579毫秒。</p><p class='context'>恭喜您完成练习。按空格键进入正式实验。</p><p class='footer' style='font-size: 35px; line-height:40px;'>请在进入正式实验实验之前将您的<span style='color: lightgreen;'>食指</span>放在电脑键盘的相应键位上进行按键。</p>"," ","html-keyboard-response","105","226899","0.0-7.0-1.0-2.0","4","3","4","3","3","3","3","3","3","3","4","4","1","4","4","4","4","3","4","5","4","3","3","4","4","3","4","3","3","1","0","1","1","0","1","1","0","0","1","1","1","0","0","1","5","3","4","1","3","2","2","4","3","2","2","746367844434055169","张","587","","","","","","","","","","","","","","","","","","","","","","","","","","","","","","","","","","","","","","","","","",""
"918","
  <p style='color: white; font-size: 22px'>请您将手指放在按键上，准备进入正式的匹配任务。</p>
  <p> <div style = ""color: green""><按空格键进入下一阶段的匹配任务></div></p>
  "," ","html-keyboard-response","106","227820","0.0-7.0-1.0-3.0","4","3","4","3","3","3","3","3","3","3","4","4","1","4","4","4","4","3","4","5","4","3","3","4","4","3","4","3","3","1","0","1","1","0","1","1","0","0","1","1","1","0","0","1","5","3","4","1","3","2","2","4","3","2","2","746367844434055169","张","587","","","","","","","","","","","","","","","","","","","","","","","","","","","","","","","","","","","","","","","","","",""
"487","","f","psychophysics","107","229308","0.0-7.0-1.0-4.0-0.0-0.0","4","3","4","3","3","3","3","3","3","3","4","4","1","4","4","4","4","3","4","5","4","3","3","4","4","3","4","3","3","1","0","1","1","0","1","1","0","0","1","1","1","0","0","1","5","3","4","1","3","2","2","4","3","2","2","746367844434055169","张","587","","","","nonmatch","","","","","","","","","","","","","","key","f","16.66741573033734","853.3333333333334","476","f","true","nonmatch","img/square.png","菱形","方形","ALT1","formal_ALT1_2","","","","","","","","","","","",""
"null","<span style='color:GreenYellow; font-size: 70px;'>正确! </span>","null","html-keyboard-response","108","229810","0.0-7.0-1.0-4.0-0.0-1.0","4","3","4","3","3","3","3","3","3","3","4","4","1","4","4","4","4","3","4","5","4","3","3","4","4","3","4","3","3","1","0","1","1","0","1","1","0","0","1","1","1","0","0","1","5","3","4","1","3","2","2","4","3","2","2","746367844434055169","张","587","","","","","","","","","","","","","","","","","","","","","","","","","","","","","","feedback_test","","","","","","","","","","","",""
"513","","j","psychophysics","109","231324","0.0-7.0-1.0-4.0-0.0-0.1","4","3","4","3","3","3","3","3","3","3","4","4","1","4","4","4","4","3","4","5","4","3","3","4","4","3","4","3","3","1","0","1","1","0","1","1","0","0","1","1","1","0","0","1","5","3","4","1","3","2","2","4","3","2","2","746367844434055169","张","587","","","","match","","","","","","","","","","","","","","key","j","16.665555555555493","853.3333333333334","476","j","true","match","img/square.png","方形","方形","ALT1","formal_ALT1_2","","","","","","","","","","","",""
"null","<span style='color:GreenYellow; font-size: 70px;'>正确! </span>","null","html-keyboard-response","110","231826","0.0-7.0-1.0-4.0-0.0-1.1","4","3","4","3","3","3","3","3","3","3","4","4","1","4","4","4","4","3","4","5","4","3","3","4","4","3","4","3","3","1","0","1","1","0","1","1","0","0","1","1","1","0","0","1","5","3","4","1","3","2","2","4","3","2","2","746367844434055169","张","587","","","","","","","","","","","","","","","","","","","","","","","","","","","","","","feedback_test","","","","","","","","","","","",""
"520","","j","psychophysics","111","233347","0.0-7.0-1.0-4.0-0.0-0.2","4","3","4","3","3","3","3","3","3","3","4","4","1","4","4","4","4","3","4","5","4","3","3","4","4","3","4","3","3","1","0","1","1","0","1","1","0","0","1","1","1","0","0","1","5","3","4","1","3","2","2","4","3","2","2","746367844434055169","张","587","","","","match","","","","","","","","","","","","","","key","j","16.664444444444314","853.3333333333334","476","j","true","match","img/diamond.png","菱形","菱形","ALT1","formal_ALT1_2","","","","","","","","","","","",""
"null","<span style='color:GreenYellow; font-size: 70px;'>正确! </span>","null","html-keyboard-response","112","233849","0.0-7.0-1.0-4.0-0.0-1.2","4","3","4","3","3","3","3","3","3","3","4","4","1","4","4","4","4","3","4","5","4","3","3","4","4","3","4","3","3","1","0","1","1","0","1","1","0","0","1","1","1","0","0","1","5","3","4","1","3","2","2","4","3","2","2","746367844434055169","张","587","","","","","","","","","","","","","","","","","","","","","","","","","","","","","","feedback_test","","","","","","","","","","","",""
"452","","f","psychophysics","113","235303","0.0-7.0-1.0-4.0-0.0-0.3","4","3","4","3","3","3","3","3","3","3","4","4","1","4","4","4","4","3","4","5","4","3","3","4","4","3","4","3","3","1","0","1","1","0","1","1","0","0","1","1","1","0","0","1","5","3","4","1","3","2","2","4","3","2","2","746367844434055169","张","587","","","","nonmatch","","","","","","","","","","","","","","key","f","16.667441860465047","853.3333333333334","476","f","true","nonmatch","img/circle.png","方形","圆形","ALT1","formal_ALT1_2","","","","","","","","","","","",""
"null","<span style='color:GreenYellow; font-size: 70px;'>正确! </span>","null","html-keyboard-response","114","235805","0.0-7.0-1.0-4.0-0.0-1.3","4","3","4","3","3","3","3","3","3","3","4","4","1","4","4","4","4","3","4","5","4","3","3","4","4","3","4","3","3","1","0","1","1","0","1","1","0","0","1","1","1","0","0","1","5","3","4","1","3","2","2","4","3","2","2","746367844434055169","张","587","","","","","","","","","","","","","","","","","","","","","","","","","","","","","","feedback_test","","","","","","","","","","","",""
"587","","j","psychophysics","115","237393","0.0-7.0-1.0-4.0-0.0-0.4","4","3","4","3","3","3","3","3","3","3","4","4","1","4","4","4","4","3","4","5","4","3","3","4","4","3","4","3","3","1","0","1","1","0","1","1","0","0","1","1","1","0","0","1","5","3","4","1","3","2","2","4","3","2","2","746367844434055169","张","587","","","","match","","","","","","","","","","","","","","key","j","16.664893617021278","853.3333333333334","476","j","true","match","img/circle.png","圆形","圆形","ALT1","formal_ALT1_2","","","","","","","","","","","",""
"null","<span style='color:GreenYellow; font-size: 70px;'>正确! </span>","null","html-keyboard-response","116","237895","0.0-7.0-1.0-4.0-0.0-1.4","4","3","4","3","3","3","3","3","3","3","4","4","1","4","4","4","4","3","4","5","4","3","3","4","4","3","4","3","3","1","0","1","1","0","1","1","0","0","1","1","1","0","0","1","5","3","4","1","3","2","2","4","3","2","2","746367844434055169","张","587","","","","","","","","","","","","","","","","","","","","","","","","","","","","","","feedback_test","","","","","","","","","","","",""
"612","","f","psychophysics","117","239509","0.0-7.0-1.0-4.0-0.0-0.5","4","3","4","3","3","3","3","3","3","3","4","4","1","4","4","4","4","3","4","5","4","3","3","4","4","3","4","3","3","1","0","1","1","0","1","1","0","0","1","1","1","0","0","1","5","3","4","1","3","2","2","4","3","2","2","746367844434055169","张","587","","","","nonmatch","","","","","","","","","","","","","","key","f","16.665625000000244","853.3333333333334","476","f","true","nonmatch","img/pentagon.png","菱形","五边","ALT1","formal_ALT1_2","","","","","","","","","","","",""
"null","<span style='color:GreenYellow; font-size: 70px;'>正确! </span>","null","html-keyboard-response","118","240010","0.0-7.0-1.0-4.0-0.0-1.5","4","3","4","3","3","3","3","3","3","3","4","4","1","4","4","4","4","3","4","5","4","3","3","4","4","3","4","3","3","1","0","1","1","0","1","1","0","0","1","1","1","0","0","1","5","3","4","1","3","2","2","4","3","2","2","746367844434055169","张","587","","","","","","","","","","","","","","","","","","","","","","","","","","","","","","feedback_test","","","","","","","","","","","",""
"529","","f","psychophysics","119","241541","0.0-7.0-1.0-4.0-0.0-0.6","4","3","4","3","3","3","3","3","3","3","4","4","1","4","4","4","4","3","4","5","4","3","3","4","4","3","4","3","3","1","0","1","1","0","1","1","0","0","1","1","1","0","0","1","5","3","4","1","3","2","2","4","3","2","2","746367844434055169","张","587","","","","nonmatch","","","","","","","","","","","","","","key","f","16.6637362637362","853.3333333333334","476","f","true","nonmatch","img/circle.png","五边","圆形","ALT1","formal_ALT1_2","","","","","","","","","","","",""
"null","<span style='color:GreenYellow; font-size: 70px;'>正确! </span>","null","html-keyboard-response","120","242042","0.0-7.0-1.0-4.0-0.0-1.6","4","3","4","3","3","3","3","3","3","3","4","4","1","4","4","4","4","3","4","5","4","3","3","4","4","3","4","3","3","1","0","1","1","0","1","1","0","0","1","1","1","0","0","1","5","3","4","1","3","2","2","4","3","2","2","746367844434055169","张","587","","","","","","","","","","","","","","","","","","","","","","","","","","","","","","feedback_test","","","","","","","","","","","",""
"572","","j","psychophysics","121","243616","0.0-7.0-1.0-4.0-0.0-0.7","4","3","4","3","3","3","3","3","3","3","4","4","1","4","4","4","4","3","4","5","4","3","3","4","4","3","4","3","3","1","0","1","1","0","1","1","0","0","1","1","1","0","0","1","5","3","4","1","3","2","2","4","3","2","2","746367844434055169","张","587","","","","match","","","","","","","","","","","","","","key","j","16.6655913978494","853.3333333333334","476","j","true","match","img/diamond.png","菱形","菱形","ALT1","formal_ALT1_2","","","","","","","","","","","",""
"null","<span style='color:GreenYellow; font-size: 70px;'>正确! </span>","null","html-keyboard-response","122","244117","0.0-7.0-1.0-4.0-0.0-1.7","4","3","4","3","3","3","3","3","3","3","4","4","1","4","4","4","4","3","4","5","4","3","3","4","4","3","4","3","3","1","0","1","1","0","1","1","0","0","1","1","1","0","0","1","5","3","4","1","3","2","2","4","3","2","2","746367844434055169","张","587","","","","","","","","","","","","","","","","","","","","","","","","","","","","","","feedback_test","","","","","","","","","","","",""
"439","","f","psychophysics","123","245558","0.0-7.0-1.0-4.0-0.0-0.8","4","3","4","3","3","3","3","3","3","3","4","4","1","4","4","4","4","3","4","5","4","3","3","4","4","3","4","3","3","1","0","1","1","0","1","1","0","0","1","1","1","0","0","1","5","3","4","1","3","2","2","4","3","2","2","746367844434055169","张","587","","","","nonmatch","","","","","","","","","","","","","","key","f","16.66860465116279","853.3333333333334","476","j","false","match","img/pentagon.png","五边","五边","ALT1","formal_ALT1_2","","","","","","","","","","","",""
"null","<span style='color:red; font-size: 70px;'>错误! </span>","null","html-keyboard-response","124","246059","0.0-7.0-1.0-4.0-0.0-1.8","4","3","4","3","3","3","3","3","3","3","4","4","1","4","4","4","4","3","4","5","4","3","3","4","4","3","4","3","3","1","0","1","1","0","1","1","0","0","1","1","1","0","0","1","5","3","4","1","3","2","2","4","3","2","2","746367844434055169","张","587","","","","","","","","","","","","","","","","","","","","","","","","","","","","","","feedback_test","","","","","","","","","","","",""
"583","","f","psychophysics","125","247643","0.0-7.0-1.0-4.0-0.0-0.9","4","3","4","3","3","3","3","3","3","3","4","4","1","4","4","4","4","3","4","5","4","3","3","4","4","3","4","3","3","1","0","1","1","0","1","1","0","0","1","1","1","0","0","1","5","3","4","1","3","2","2","4","3","2","2","746367844434055169","张","587","","","","nonmatch","","","","","","","","","","","","","","key","f","16.665957446808573","853.3333333333334","476","f","true","nonmatch","img/square.png","圆形","方形","ALT1","formal_ALT1_2","","","","","","","","","","","",""
"null","<span style='color:GreenYellow; font-size: 70px;'>正确! </span>","null","html-keyboard-response","126","248156","0.0-7.0-1.0-4.0-0.0-1.9","4","3","4","3","3","3","3","3","3","3","4","4","1","4","4","4","4","3","4","5","4","3","3","4","4","3","4","3","3","1","0","1","1","0","1","1","0","0","1","1","1","0","0","1","5","3","4","1","3","2","2","4","3","2","2","746367844434055169","张","587","","","","","","","","","","","","","","","","","","","","","","","","","","","","","","feedback_test","","","","","","","","","","","",""
"498","","f","psychophysics","127","249656","0.0-7.0-1.0-4.0-0.0-0.10","4","3","4","3","3","3","3","3","3","3","4","4","1","4","4","4","4","3","4","5","4","3","3","4","4","3","4","3","3","1","0","1","1","0","1","1","0","0","1","1","1","0","0","1","5","3","4","1","3","2","2","4","3","2","2","746367844434055169","张","587","","","","nonmatch","","","","","","","","","","","","","","key","f","16.665168539325645","853.3333333333334","476","f","true","nonmatch","img/pentagon.png","圆形","五边","ALT1","formal_ALT1_2","","","","","","","","","","","",""
"null","<span style='color:GreenYellow; font-size: 70px;'>正确! </span>","null","html-keyboard-response","128","250157","0.0-7.0-1.0-4.0-0.0-1.10","4","3","4","3","3","3","3","3","3","3","4","4","1","4","4","4","4","3","4","5","4","3","3","4","4","3","4","3","3","1","0","1","1","0","1","1","0","0","1","1","1","0","0","1","5","3","4","1","3","2","2","4","3","2","2","746367844434055169","张","587","","","","","","","","","","","","","","","","","","","","","","","","","","","","","","feedback_test","","","","","","","","","","","",""
"445","","j","psychophysics","129","251604","0.0-7.0-1.0-4.0-0.0-0.11","4","3","4","3","3","3","3","3","3","3","4","4","1","4","4","4","4","3","4","5","4","3","3","4","4","3","4","3","3","1","0","1","1","0","1","1","0","0","1","1","1","0","0","1","5","3","4","1","3","2","2","4","3","2","2","746367844434055169","张","587","","","","match","","","","","","","","","","","","","","key","j","16.665882352941246","853.3333333333334","476","f","false","nonmatch","img/circle.png","菱形","圆形","ALT1","formal_ALT1_2","","","","","","","","","","","",""
"null","<span style='color:red; font-size: 70px;'>错误! </span>","null","html-keyboard-response","130","252105","0.0-7.0-1.0-4.0-0.0-1.11","4","3","4","3","3","3","3","3","3","3","4","4","1","4","4","4","4","3","4","5","4","3","3","4","4","3","4","3","3","1","0","1","1","0","1","1","0","0","1","1","1","0","0","1","5","3","4","1","3","2","2","4","3","2","2","746367844434055169","张","587","","","","","","","","","","","","","","","","","","","","","","","","","","","","","","feedback_test","","","","","","","","","","","",""
"574","","f","psychophysics","131","253680","0.0-7.0-1.0-4.0-0.0-0.12","4","3","4","3","3","3","3","3","3","3","4","4","1","4","4","4","4","3","4","5","4","3","3","4","4","3","4","3","3","1","0","1","1","0","1","1","0","0","1","1","1","0","0","1","5","3","4","1","3","2","2","4","3","2","2","746367844434055169","张","587","","","","nonmatch","","","","","","","","","","","","","","key","f","16.664516129032133","853.3333333333334","476","f","true","nonmatch","img/square.png","五边","方形","ALT1","formal_ALT1_2","","","","","","","","","","","",""
"null","<span style='color:GreenYellow; font-size: 70px;'>正确! </span>","null","html-keyboard-response","132","254181","0.0-7.0-1.0-4.0-0.0-1.12","4","3","4","3","3","3","3","3","3","3","4","4","1","4","4","4","4","3","4","5","4","3","3","4","4","3","4","3","3","1","0","1","1","0","1","1","0","0","1","1","1","0","0","1","5","3","4","1","3","2","2","4","3","2","2","746367844434055169","张","587","","","","","","","","","","","","","","","","","","","","","","","","","","","","","","feedback_test","","","","","","","","","","","",""
"536","","j","psychophysics","133","255719","0.0-7.0-1.0-4.0-0.0-0.13","4","3","4","3","3","3","3","3","3","3","4","4","1","4","4","4","4","3","4","5","4","3","3","4","4","3","4","3","3","1","0","1","1","0","1","1","0","0","1","1","1","0","0","1","5","3","4","1","3","2","2","4","3","2","2","746367844434055169","张","587","","","","match","","","","","","","","","","","","","","key","j","16.667032967033094","853.3333333333334","476","j","true","match","img/circle.png","圆形","圆形","ALT1","formal_ALT1_2","","","","","","","","","","","",""
"null","<span style='color:GreenYellow; font-size: 70px;'>正确! </span>","null","html-keyboard-response","134","256221","0.0-7.0-1.0-4.0-0.0-1.13","4","3","4","3","3","3","3","3","3","3","4","4","1","4","4","4","4","3","4","5","4","3","3","4","4","3","4","3","3","1","0","1","1","0","1","1","0","0","1","1","1","0","0","1","5","3","4","1","3","2","2","4","3","2","2","746367844434055169","张","587","","","","","","","","","","","","","","","","","","","","","","","","","","","","","","feedback_test","","","","","","","","","","","",""
"516","","f","psychophysics","135","257738","0.0-7.0-1.0-4.0-0.0-0.14","4","3","4","3","3","3","3","3","3","3","4","4","1","4","4","4","4","3","4","5","4","3","3","4","4","3","4","3","3","1","0","1","1","0","1","1","0","0","1","1","1","0","0","1","5","3","4","1","3","2","2","4","3","2","2","746367844434055169","张","587","","","","nonmatch","","","","","","","","","","","","","","key","f","16.665555555555493","853.3333333333334","476","j","false","match","img/square.png","方形","方形","ALT1","formal_ALT1_2","","","","","","","","","","","",""
"null","<span style='color:red; font-size: 70px;'>错误! </span>","null","html-keyboard-response","136","258239","0.0-7.0-1.0-4.0-0.0-1.14","4","3","4","3","3","3","3","3","3","3","4","4","1","4","4","4","4","3","4","5","4","3","3","4","4","3","4","3","3","1","0","1","1","0","1","1","0","0","1","1","1","0","0","1","5","3","4","1","3","2","2","4","3","2","2","746367844434055169","张","587","","","","","","","","","","","","","","","","","","","","","","","","","","","","","","feedback_test","","","","","","","","","","","",""
"542","","j","psychophysics","137","259784","0.0-7.0-1.0-4.0-0.0-0.15","4","3","4","3","3","3","3","3","3","3","4","4","1","4","4","4","4","3","4","5","4","3","3","4","4","3","4","3","3","1","0","1","1","0","1","1","0","0","1","1","1","0","0","1","5","3","4","1","3","2","2","4","3","2","2","746367844434055169","张","587","","","","match","","","","","","","","","","","","","","key","j","16.6637362637362","853.3333333333334","476","j","true","match","img/pentagon.png","五边","五边","ALT1","formal_ALT1_2","","","","","","","","","","","",""
"null","<span style='color:GreenYellow; font-size: 70px;'>正确! </span>","null","html-keyboard-response","138","260285","0.0-7.0-1.0-4.0-0.0-1.15","4","3","4","3","3","3","3","3","3","3","4","4","1","4","4","4","4","3","4","5","4","3","3","4","4","3","4","3","3","1","0","1","1","0","1","1","0","0","1","1","1","0","0","1","5","3","4","1","3","2","2","4","3","2","2","746367844434055169","张","587","","","","","","","","","","","","","","","","","","","","","","","","","","","","","","feedback_test","","","","","","","","","","","",""
"517","","j","psychophysics","139","261804","0.0-7.0-1.0-4.0-0.0-0.16","4","3","4","3","3","3","3","3","3","3","4","4","1","4","4","4","4","3","4","5","4","3","3","4","4","3","4","3","3","1","0","1","1","0","1","1","0","0","1","1","1","0","0","1","5","3","4","1","3","2","2","4","3","2","2","746367844434055169","张","587","","","","match","","","","","","","","","","","","","","key","j","16.665555555555166","853.3333333333334","476","j","true","match","img/pentagon.png","五边","五边","ALT1","formal_ALT1_2","","","","","","","","","","","",""
"null","<span style='color:GreenYellow; font-size: 70px;'>正确! </span>","null","html-keyboard-response","140","262305","0.0-7.0-1.0-4.0-0.0-1.16","4","3","4","3","3","3","3","3","3","3","4","4","1","4","4","4","4","3","4","5","4","3","3","4","4","3","4","3","3","1","0","1","1","0","1","1","0","0","1","1","1","0","0","1","5","3","4","1","3","2","2","4","3","2","2","746367844434055169","张","587","","","","","","","","","","","","","","","","","","","","","","","","","","","","","","feedback_test","","","","","","","","","","","",""
"556","","j","psychophysics","141","263863","0.0-7.0-1.0-4.0-0.0-0.17","4","3","4","3","3","3","3","3","3","3","4","4","1","4","4","4","4","3","4","5","4","3","3","4","4","3","4","3","3","1","0","1","1","0","1","1","0","0","1","1","1","0","0","1","5","3","4","1","3","2","2","4","3","2","2","746367844434055169","张","587","","","","match","","","","","","","","","","","","","","key","j","16.66630434782596","853.3333333333334","476","j","true","match","img/square.png","方形","方形","ALT1","formal_ALT1_2","","","","","","","","","","","",""
"null","<span style='color:GreenYellow; font-size: 70px;'>正确! </span>","null","html-keyboard-response","142","264365","0.0-7.0-1.0-4.0-0.0-1.17","4","3","4","3","3","3","3","3","3","3","4","4","1","4","4","4","4","3","4","5","4","3","3","4","4","3","4","3","3","1","0","1","1","0","1","1","0","0","1","1","1","0","0","1","5","3","4","1","3","2","2","4","3","2","2","746367844434055169","张","587","","","","","","","","","","","","","","","","","","","","","","","","","","","","","","feedback_test","","","","","","","","","","","",""
"521","","j","psychophysics","143","265888","0.0-7.0-1.0-4.0-0.0-0.18","4","3","4","3","3","3","3","3","3","3","4","4","1","4","4","4","4","3","4","5","4","3","3","4","4","3","4","3","3","1","0","1","1","0","1","1","0","0","1","1","1","0","0","1","5","3","4","1","3","2","2","4","3","2","2","746367844434055169","张","587","","","","match","","","","","","","","","","","","","","key","j","16.66813186813174","853.3333333333334","476","j","true","match","img/circle.png","圆形","圆形","ALT1","formal_ALT1_2","","","","","","","","","","","",""
"null","<span style='color:GreenYellow; font-size: 70px;'>正确! </span>","null","html-keyboard-response","144","266390","0.0-7.0-1.0-4.0-0.0-1.18","4","3","4","3","3","3","3","3","3","3","4","4","1","4","4","4","4","3","4","5","4","3","3","4","4","3","4","3","3","1","0","1","1","0","1","1","0","0","1","1","1","0","0","1","5","3","4","1","3","2","2","4","3","2","2","746367844434055169","张","587","","","","","","","","","","","","","","","","","","","","","","","","","","","","","","feedback_test","","","","","","","","","","","",""
"552","","f","psychophysics","145","267944","0.0-7.0-1.0-4.0-0.0-0.19","4","3","4","3","3","3","3","3","3","3","4","4","1","4","4","4","4","3","4","5","4","3","3","4","4","3","4","3","3","1","0","1","1","0","1","1","0","0","1","1","1","0","0","1","5","3","4","1","3","2","2","4","3","2","2","746367844434055169","张","587","","","","nonmatch","","","","","","","","","","","","","","key","f","16.664130434782354","853.3333333333334","476","f","true","nonmatch","img/diamond.png","五边","菱形","ALT1","formal_ALT1_2","","","","","","","","","","","",""
"null","<span style='color:GreenYellow; font-size: 70px;'>正确! </span>","null","html-keyboard-response","146","268445","0.0-7.0-1.0-4.0-0.0-1.19","4","3","4","3","3","3","3","3","3","3","4","4","1","4","4","4","4","3","4","5","4","3","3","4","4","3","4","3","3","1","0","1","1","0","1","1","0","0","1","1","1","0","0","1","5","3","4","1","3","2","2","4","3","2","2","746367844434055169","张","587","","","","","","","","","","","","","","","","","","","","","","","","","","","","","","feedback_test","","","","","","","","","","","",""
"522","","f","psychophysics","147","269968","0.0-7.0-1.0-4.0-0.0-0.20","4","3","4","3","3","3","3","3","3","3","4","4","1","4","4","4","4","3","4","5","4","3","3","4","4","3","4","3","3","1","0","1","1","0","1","1","0","0","1","1","1","0","0","1","5","3","4","1","3","2","2","4","3","2","2","746367844434055169","张","587","","","","nonmatch","","","","","","","","","","","","","","key","f","16.66777777777752","853.3333333333334","476","f","true","nonmatch","img/diamond.png","圆形","菱形","ALT1","formal_ALT1_2","","","","","","","","","","","",""
"null","<span style='color:GreenYellow; font-size: 70px;'>正确! </span>","null","html-keyboard-response","148","270469","0.0-7.0-1.0-4.0-0.0-1.20","4","3","4","3","3","3","3","3","3","3","4","4","1","4","4","4","4","3","4","5","4","3","3","4","4","3","4","3","3","1","0","1","1","0","1","1","0","0","1","1","1","0","0","1","5","3","4","1","3","2","2","4","3","2","2","746367844434055169","张","587","","","","","","","","","","","","","","","","","","","","","","","","","","","","","","feedback_test","","","","","","","","","","","",""
"578","","j","psychophysics","149","272049","0.0-7.0-1.0-4.0-0.0-0.21","4","3","4","3","3","3","3","3","3","3","4","4","1","4","4","4","4","3","4","5","4","3","3","4","4","3","4","3","3","1","0","1","1","0","1","1","0","0","1","1","1","0","0","1","5","3","4","1","3","2","2","4","3","2","2","746367844434055169","张","587","","","","match","","","","","","","","","","","","","","key","j","16.6623655913976","853.3333333333334","476","j","true","match","img/diamond.png","菱形","菱形","ALT1","formal_ALT1_2","","","","","","","","","","","",""
"null","<span style='color:GreenYellow; font-size: 70px;'>正确! </span>","null","html-keyboard-response","150","272550","0.0-7.0-1.0-4.0-0.0-1.21","4","3","4","3","3","3","3","3","3","3","4","4","1","4","4","4","4","3","4","5","4","3","3","4","4","3","4","3","3","1","0","1","1","0","1","1","0","0","1","1","1","0","0","1","5","3","4","1","3","2","2","4","3","2","2","746367844434055169","张","587","","","","","","","","","","","","","","","","","","","","","","","","","","","","","","feedback_test","","","","","","","","","","","",""
"476","","f","psychophysics","151","274028","0.0-7.0-1.0-4.0-0.0-0.22","4","3","4","3","3","3","3","3","3","3","4","4","1","4","4","4","4","3","4","5","4","3","3","4","4","3","4","3","3","1","0","1","1","0","1","1","0","0","1","1","1","0","0","1","5","3","4","1","3","2","2","4","3","2","2","746367844434055169","张","587","","","","nonmatch","","","","","","","","","","","","","","key","f","16.667045454545587","853.3333333333334","476","f","true","nonmatch","img/diamond.png","方形","菱形","ALT1","formal_ALT1_2","","","","","","","","","","","",""
"null","<span style='color:GreenYellow; font-size: 70px;'>正确! </span>","null","html-keyboard-response","152","274529","0.0-7.0-1.0-4.0-0.0-1.22","4","3","4","3","3","3","3","3","3","3","4","4","1","4","4","4","4","3","4","5","4","3","3","4","4","3","4","3","3","1","0","1","1","0","1","1","0","0","1","1","1","0","0","1","5","3","4","1","3","2","2","4","3","2","2","746367844434055169","张","587","","","","","","","","","","","","","","","","","","","","","","","","","","","","","","feedback_test","","","","","","","","","","","",""
"703","","f","psychophysics","153","276233","0.0-7.0-1.0-4.0-0.0-0.23","4","3","4","3","3","3","3","3","3","3","4","4","1","4","4","4","4","3","4","5","4","3","3","4","4","3","4","3","3","1","0","1","1","0","1","1","0","0","1","1","1","0","0","1","5","3","4","1","3","2","2","4","3","2","2","746367844434055169","张","587","","","","nonmatch","","","","","","","","","","","","","","key","f","16.667326732672922","853.3333333333334","476","f","true","nonmatch","img/pentagon.png","方形","五边","ALT1","formal_ALT1_2","","","","","","","","","","","",""
"null","<span style='color:GreenYellow; font-size: 70px;'>正确! </span>","null","html-keyboard-response","154","276734","0.0-7.0-1.0-4.0-0.0-1.23","4","3","4","3","3","3","3","3","3","3","4","4","1","4","4","4","4","3","4","5","4","3","3","4","4","3","4","3","3","1","0","1","1","0","1","1","0","0","1","1","1","0","0","1","5","3","4","1","3","2","2","4","3","2","2","746367844434055169","张","587","","","","","","","","","","","","","","","","","","","","","","","","","","","","","","feedback_test","","","","","","","","","","","",""
"736","","j","psychophysics","155","278473","0.0-7.0-1.0-4.0-0.0-0.24","4","3","4","3","3","3","3","3","3","3","4","4","1","4","4","4","4","3","4","5","4","3","3","4","4","3","4","3","3","1","0","1","1","0","1","1","0","0","1","1","1","0","0","1","5","3","4","1","3","2","2","4","3","2","2","746367844434055169","张","587","","","","match","","","","","","","","","","","","","","key","j","16.66826923076923","853.3333333333334","476","j","true","match","img/diamond.png","菱形","菱形","ALT1","formal_ALT1_2","","","","","","","","","","","",""
"null","<span style='color:GreenYellow; font-size: 70px;'>正确! </span>","null","html-keyboard-response","156","278975","0.0-7.0-1.0-4.0-0.0-1.24","4","3","4","3","3","3","3","3","3","3","4","4","1","4","4","4","4","3","4","5","4","3","3","4","4","3","4","3","3","1","0","1","1","0","1","1","0","0","1","1","1","0","0","1","5","3","4","1","3","2","2","4","3","2","2","746367844434055169","张","587","","","","","","","","","","","","","","","","","","","","","","","","","","","","","","feedback_test","","","","","","","","","","","",""
"515","","j","psychophysics","157","280492","0.0-7.0-1.0-4.0-0.0-0.25","4","3","4","3","3","3","3","3","3","3","4","4","1","4","4","4","4","3","4","5","4","3","3","4","4","3","4","3","3","1","0","1","1","0","1","1","0","0","1","1","1","0","0","1","5","3","4","1","3","2","2","4","3","2","2","746367844434055169","张","587","","","","match","","","","","","","","","","","","","","key","j","16.663333333333462","853.3333333333334","476","j","true","match","img/pentagon.png","五边","五边","ALT1","formal_ALT1_2","","","","","","","","","","","",""
"null","<span style='color:GreenYellow; font-size: 70px;'>正确! </span>","null","html-keyboard-response","158","280993","0.0-7.0-1.0-4.0-0.0-1.25","4","3","4","3","3","3","3","3","3","3","4","4","1","4","4","4","4","3","4","5","4","3","3","4","4","3","4","3","3","1","0","1","1","0","1","1","0","0","1","1","1","0","0","1","5","3","4","1","3","2","2","4","3","2","2","746367844434055169","张","587","","","","","","","","","","","","","","","","","","","","","","","","","","","","","","feedback_test","","","","","","","","","","","",""
"520","","j","psychophysics","159","282516","0.0-7.0-1.0-4.0-0.0-0.26","4","3","4","3","3","3","3","3","3","3","4","4","1","4","4","4","4","3","4","5","4","3","3","4","4","3","4","3","3","1","0","1","1","0","1","1","0","0","1","1","1","0","0","1","5","3","4","1","3","2","2","4","3","2","2","746367844434055169","张","587","","","","match","","","","","","","","","","","","","","key","j","16.665555555555816","853.3333333333334","476","j","true","match","img/pentagon.png","五边","五边","ALT1","formal_ALT1_2","","","","","","","","","","","",""
"null","<span style='color:GreenYellow; font-size: 70px;'>正确! </span>","null","html-keyboard-response","160","283018","0.0-7.0-1.0-4.0-0.0-1.26","4","3","4","3","3","3","3","3","3","3","4","4","1","4","4","4","4","3","4","5","4","3","3","4","4","3","4","3","3","1","0","1","1","0","1","1","0","0","1","1","1","0","0","1","5","3","4","1","3","2","2","4","3","2","2","746367844434055169","张","587","","","","","","","","","","","","","","","","","","","","","","","","","","","","","","feedback_test","","","","","","","","","","","",""
"680","","f","psychophysics","161","284700","0.0-7.0-1.0-4.0-0.0-0.27","4","3","4","3","3","3","3","3","3","3","4","4","1","4","4","4","4","3","4","5","4","3","3","4","4","3","4","3","3","1","0","1","1","0","1","1","0","0","1","1","1","0","0","1","5","3","4","1","3","2","2","4","3","2","2","746367844434055169","张","587","","","","nonmatch","","","","","","","","","","","","","","key","f","16.66600000000035","853.3333333333334","476","f","true","nonmatch","img/square.png","圆形","方形","ALT1","formal_ALT1_2","","","","","","","","","","","",""
"null","<span style='color:GreenYellow; font-size: 70px;'>正确! </span>","null","html-keyboard-response","162","285202","0.0-7.0-1.0-4.0-0.0-1.27","4","3","4","3","3","3","3","3","3","3","4","4","1","4","4","4","4","3","4","5","4","3","3","4","4","3","4","3","3","1","0","1","1","0","1","1","0","0","1","1","1","0","0","1","5","3","4","1","3","2","2","4","3","2","2","746367844434055169","张","587","","","","","","","","","","","","","","","","","","","","","","","","","","","","","","feedback_test","","","","","","","","","","","",""
"485","","j","psychophysics","163","286689","0.0-7.0-1.0-4.0-0.0-0.28","4","3","4","3","3","3","3","3","3","3","4","4","1","4","4","4","4","3","4","5","4","3","3","4","4","3","4","3","3","1","0","1","1","0","1","1","0","0","1","1","1","0","0","1","5","3","4","1","3","2","2","4","3","2","2","746367844434055169","张","587","","","","match","","","","","","","","","","","","","","key","j","16.661363636363106","853.3333333333334","476","j","true","match","img/circle.png","圆形","圆形","ALT1","formal_ALT1_2","","","","","","","","","","","",""
"null","<span style='color:GreenYellow; font-size: 70px;'>正确! </span>","null","html-keyboard-response","164","287198","0.0-7.0-1.0-4.0-0.0-1.28","4","3","4","3","3","3","3","3","3","3","4","4","1","4","4","4","4","3","4","5","4","3","3","4","4","3","4","3","3","1","0","1","1","0","1","1","0","0","1","1","1","0","0","1","5","3","4","1","3","2","2","4","3","2","2","746367844434055169","张","587","","","","","","","","","","","","","","","","","","","","","","","","","","","","","","feedback_test","","","","","","","","","","","",""
"661","","j","psychophysics","165","288860","0.0-7.0-1.0-4.0-0.0-0.29","4","3","4","3","3","3","3","3","3","3","4","4","1","4","4","4","4","3","4","5","4","3","3","4","4","3","4","3","3","1","0","1","1","0","1","1","0","0","1","1","1","0","0","1","5","3","4","1","3","2","2","4","3","2","2","746367844434055169","张","587","","","","match","","","","","","","","","","","","","","key","j","16.667676767676532","853.3333333333334","476","f","false","nonmatch","img/pentagon.png","菱形","五边","ALT1","formal_ALT1_2","","","","","","","","","","","",""
"null","<span style='color:red; font-size: 70px;'>错误! </span>","null","html-keyboard-response","166","289361","0.0-7.0-1.0-4.0-0.0-1.29","4","3","4","3","3","3","3","3","3","3","4","4","1","4","4","4","4","3","4","5","4","3","3","4","4","3","4","3","3","1","0","1","1","0","1","1","0","0","1","1","1","0","0","1","5","3","4","1","3","2","2","4","3","2","2","746367844434055169","张","587","","","","","","","","","","","","","","","","","","","","","","","","","","","","","","feedback_test","","","","","","","","","","","",""
"566","","f","psychophysics","167","290928","0.0-7.0-1.0-4.0-0.0-0.30","4","3","4","3","3","3","3","3","3","3","4","4","1","4","4","4","4","3","4","5","4","3","3","4","4","3","4","3","3","1","0","1","1","0","1","1","0","0","1","1","1","0","0","1","5","3","4","1","3","2","2","4","3","2","2","746367844434055169","张","587","","","","nonmatch","","","","","","","","","","","","","","key","f","16.665591397849713","853.3333333333334","476","f","true","nonmatch","img/diamond.png","五边","菱形","ALT1","formal_ALT1_2","","","","","","","","","","","",""
"null","<span style='color:GreenYellow; font-size: 70px;'>正确! </span>","null","html-keyboard-response","168","291430","0.0-7.0-1.0-4.0-0.0-1.30","4","3","4","3","3","3","3","3","3","3","4","4","1","4","4","4","4","3","4","5","4","3","3","4","4","3","4","3","3","1","0","1","1","0","1","1","0","0","1","1","1","0","0","1","5","3","4","1","3","2","2","4","3","2","2","746367844434055169","张","587","","","","","","","","","","","","","","","","","","","","","","","","","","","","","","feedback_test","","","","","","","","","","","",""
"609","","f","psychophysics","169","293040","0.0-7.0-1.0-4.0-0.0-0.31","4","3","4","3","3","3","3","3","3","3","4","4","1","4","4","4","4","3","4","5","4","3","3","4","4","3","4","3","3","1","0","1","1","0","1","1","0","0","1","1","1","0","0","1","5","3","4","1","3","2","2","4","3","2","2","746367844434055169","张","587","","","","nonmatch","","","","","","","","","","","","","","key","f","16.665625000000244","853.3333333333334","476","f","true","nonmatch","img/circle.png","菱形","圆形","ALT1","formal_ALT1_2","","","","","","","","","","","",""
"null","<span style='color:GreenYellow; font-size: 70px;'>正确! </span>","null","html-keyboard-response","170","293542","0.0-7.0-1.0-4.0-0.0-1.31","4","3","4","3","3","3","3","3","3","3","4","4","1","4","4","4","4","3","4","5","4","3","3","4","4","3","4","3","3","1","0","1","1","0","1","1","0","0","1","1","1","0","0","1","5","3","4","1","3","2","2","4","3","2","2","746367844434055169","张","587","","","","","","","","","","","","","","","","","","","","","","","","","","","","","","feedback_test","","","","","","","","","","","",""
"557","","f","psychophysics","171","295100","0.0-7.0-1.0-4.0-0.0-0.32","4","3","4","3","3","3","3","3","3","3","4","4","1","4","4","4","4","3","4","5","4","3","3","4","4","3","4","3","3","1","0","1","1","0","1","1","0","0","1","1","1","0","0","1","5","3","4","1","3","2","2","4","3","2","2","746367844434055169","张","587","","","","nonmatch","","","","","","","","","","","","","","key","f","16.664130434782987","853.3333333333334","476","j","false","match","img/square.png","方形","方形","ALT1","formal_ALT1_2","","","","","","","","","","","",""
"null","<span style='color:red; font-size: 70px;'>错误! </span>","null","html-keyboard-response","172","295601","0.0-7.0-1.0-4.0-0.0-1.32","4","3","4","3","3","3","3","3","3","3","4","4","1","4","4","4","4","3","4","5","4","3","3","4","4","3","4","3","3","1","0","1","1","0","1","1","0","0","1","1","1","0","0","1","5","3","4","1","3","2","2","4","3","2","2","746367844434055169","张","587","","","","","","","","","","","","","","","","","","","","","","","","","","","","","","feedback_test","","","","","","","","","","","",""
"521","","f","psychophysics","173","297124","0.0-7.0-1.0-4.0-0.0-0.33","4","3","4","3","3","3","3","3","3","3","4","4","1","4","4","4","4","3","4","5","4","3","3","4","4","3","4","3","3","1","0","1","1","0","1","1","0","0","1","1","1","0","0","1","5","3","4","1","3","2","2","4","3","2","2","746367844434055169","张","587","","","","nonmatch","","","","","","","","","","","","","","key","f","16.66593406593381","853.3333333333334","476","f","true","nonmatch","img/pentagon.png","圆形","五边","ALT1","formal_ALT1_2","","","","","","","","","","","",""
"null","<span style='color:GreenYellow; font-size: 70px;'>正确! </span>","null","html-keyboard-response","174","297626","0.0-7.0-1.0-4.0-0.0-1.33","4","3","4","3","3","3","3","3","3","3","4","4","1","4","4","4","4","3","4","5","4","3","3","4","4","3","4","3","3","1","0","1","1","0","1","1","0","0","1","1","1","0","0","1","5","3","4","1","3","2","2","4","3","2","2","746367844434055169","张","587","","","","","","","","","","","","","","","","","","","","","","","","","","","","","","feedback_test","","","","","","","","","","","",""
"577","","j","psychophysics","175","299204","0.0-7.0-1.0-4.0-0.0-0.34","4","3","4","3","3","3","3","3","3","3","4","4","1","4","4","4","4","3","4","5","4","3","3","4","4","3","4","3","3","1","0","1","1","0","1","1","0","0","1","1","1","0","0","1","5","3","4","1","3","2","2","4","3","2","2","746367844434055169","张","587","","","","match","","","","","","","","","","","","","","key","j","16.665957446808882","853.3333333333334","476","j","true","match","img/pentagon.png","五边","五边","ALT1","formal_ALT1_2","","","","","","","","","","","",""
"null","<span style='color:GreenYellow; font-size: 70px;'>正确! </span>","null","html-keyboard-response","176","299706","0.0-7.0-1.0-4.0-0.0-1.34","4","3","4","3","3","3","3","3","3","3","4","4","1","4","4","4","4","3","4","5","4","3","3","4","4","3","4","3","3","1","0","1","1","0","1","1","0","0","1","1","1","0","0","1","5","3","4","1","3","2","2","4","3","2","2","746367844434055169","张","587","","","","","","","","","","","","","","","","","","","","","","","","","","","","","","feedback_test","","","","","","","","","","","",""
"568","","f","psychophysics","177","301276","0.0-7.0-1.0-4.0-0.0-0.35","4","3","4","3","3","3","3","3","3","3","4","4","1","4","4","4","4","3","4","5","4","3","3","4","4","3","4","3","3","1","0","1","1","0","1","1","0","0","1","1","1","0","0","1","5","3","4","1","3","2","2","4","3","2","2","746367844434055169","张","587","","","","nonmatch","","","","","","","","","","","","","","key","f","16.66344086021518","853.3333333333334","476","f","true","nonmatch","img/square.png","菱形","方形","ALT1","formal_ALT1_2","","","","","","","","","","","",""
"null","<span style='color:GreenYellow; font-size: 70px;'>正确! </span>","null","html-keyboard-response","178","301777","0.0-7.0-1.0-4.0-0.0-1.35","4","3","4","3","3","3","3","3","3","3","4","4","1","4","4","4","4","3","4","5","4","3","3","4","4","3","4","3","3","1","0","1","1","0","1","1","0","0","1","1","1","0","0","1","5","3","4","1","3","2","2","4","3","2","2","746367844434055169","张","587","","","","","","","","","","","","","","","","","","","","","","","","","","","","","","feedback_test","","","","","","","","","","","",""
