"rt","stimulus","response","trial_type","trial_index","time_elapsed","internal_node_id","ses_1","ses_2","ses_3","ses_4","ses_5","ses_6","ses_7","ses_8","ses_9","ses_10","coreself_1","coreself_2","coreself_3","coreself_4","coreself_5","coreself_6","coreself_7","coreself_8","coreself_9","coreself_10","SGPS_1","SGPS_2","SGPS_3","SGPS_4","SGPS_5","SGPS_6","SGPS_7","SGPS_8","SGPS_9","NPI1","NPI2","NPI3","NPI4","NPI5","NPI6","NPI7","NPI8","NPI9","NPI10","NPI11","NPI12","NPI13","NPI14","NPI15","hsns_1","hsns_2","hsns_3","hsns_4","hsns_5","trap1","hsns_6","hsns_7","hsns_8","hsns_9","hsns_10","subj_idx","friend_name","ParticipantID","value","success","user_agent","responses","item_order","radio_event_ids","radio_event_times","key_event_times","mouse_event_times","straightlining","zigzagging","honeypot","timeout","failed_images","failed_audio","failed_video","view_history","response_type","key_press","avg_frame_time","center_x","center_y","correct_response","correct","identity","Image","word","condition","task_id","screen_id","time_stamp","version_attrib2","version_target2","IAT","RT","varname","summary","version_attrib","version_target","question_order","correct_answer","trap1_item"
"19534","
   <p><div style = ""color: white;font-size:25px;"">您好，欢迎参加本次实验。</div> </p>
   <p><div style = ""color: white;font-size:25px;"">为充分保障您的权利，请确保您已经知晓并同意《参与实验同意书》以及《数据公开知情同意书》。</div></p>
   <p><div style = ""color: white;font-size:25px;"">如果您未见过上述内容，请咨询实验员。</div></p>
   <p><div style = ""color: white;font-size:25px;"">如果您选择继续实验，则表示您已经清楚两份知情同意书的内容并同意。</div></p>
   <p><div style = ""color: pink;font-size:30px;"">请确保您记得day0的实验编号，您将在本次实验输入该编号，若您忘记，请咨询实验员后作答。</div></p>
   <p><div style = ""color: lightblue;font-size:25px;"">请您尽可能认真地作答，我们将依据您在各问卷和按键任务中的作答质量发放报酬。</div></p>
   <p> <div style = ""color: green;font-size:25px;""><按空格键至下页></div> </p>
   "," ","html-keyboard-response","0","19535","0.0-0.0","3","3","3","3","3","3","3","3","3","3","4","4","2","4","4","4","4","4","4","4","4","4","4","4","4","4","4","4","4","1","0","1","1","0","0","0","1","0","1","1","0","1","0","0","4","4","4","4","4","5","2","2","2","2","2","689181573102174208","田","610","","","","","","","","","","","","","","","","","","","","","","","","","","","","","","","","","","","","","","","","","",""
"","","","call-function","1","19536","0.0-1.0-0.0","3","3","3","3","3","3","3","3","3","3","4","4","2","4","4","4","4","4","4","4","4","4","4","4","4","4","4","4","4","1","0","1","1","0","0","0","1","0","1","1","0","1","0","0","4","4","4","4","4","5","2","2","2","2","2","689181573102174208","田","610","","","","","","","","","","","","","","","","","","","","","","","","","","","","","","","","","","","","","","","","","",""
"25935","","{""friend_name"":""田"",""ParticipantID"":""610""}","survey-html-form","2","45472","0.0-1.0-1.0","3","3","3","3","3","3","3","3","3","3","4","4","2","4","4","4","4","4","4","4","4","4","4","4","4","4","4","4","4","1","0","1","1","0","0","0","1","0","1","1","0","1","0","0","4","4","4","4","4","5","2","2","2","2","2","689181573102174208","田","610","","","","","","","","","","","","","","","","","","","","","","","","","","","","","","","","","","","","","","","","","",""
"","","","fullscreen","3","46684","0.0-2.0","3","3","3","3","3","3","3","3","3","3","4","4","2","4","4","4","4","4","4","4","4","4","4","4","4","4","4","4","4","1","0","1","1","0","0","0","1","0","1","1","0","1","0","0","4","4","4","4","4","5","2","2","2","2","2","689181573102174208","田","610","","true","{}","","","","","","","","","","","","","","","","","","","","","","","","","","","","","","","","","","","","","","",""
"14546.400000000023","","{""Q01"":""3"",""Q02"":""3"",""Q03"":""3"",""Q04"":""3"",""Q05"":""3"",""Q06"":""3"",""Q07"":""3"",""Q08"":""3"",""Q09"":""3"",""Q10"":""3""}","survey-template","4","61233","0.0-3.0","3","3","3","3","3","3","3","3","3","3","4","4","2","4","4","4","4","4","4","4","4","4","4","4","4","4","4","4","4","1","0","1","1","0","0","0","1","0","1","1","0","1","0","0","4","4","4","4","4","5","2","2","2","2","2","689181573102174208","田","610","","","","{""Q01"":""3"",""Q02"":""3"",""Q03"":""3"",""Q04"":""3"",""Q05"":""3"",""Q06"":""3"",""Q07"":""3"",""Q08"":""3"",""Q09"":""3"",""Q10"":""3""}","[0,1,2,3,4,5,6,7,8,9]","[""Q01"",""Q02"",""Q03"",""Q04"",""Q05"",""Q06"",""Q07"",""Q08"",""Q09"",""Q10""]","[2297.5999999999767,4121.79999999993,4762.199999999953,6273.699999999953,8169.599999999977,9241.699999999953,10969.79999999993,11697.699999999953,12441.699999999953,13233.900000000023]","[]","[2297.5999999999767,3426.0999999999767,4121.79999999993,4762.199999999953,6273.699999999953,8169.599999999977,9241.699999999953,9993.79999999993,10969.79999999993,11697.699999999953,12441.699999999953,13233.900000000023,14545.699999999953]","0.5","0.5555555555555556","0","","","","","","","","","","","","","","","","","","","","","","","","","","","","","",""
"15644.900000000023","","{""Q01"":""4"",""Q02"":""4"",""Q03"":""2"",""Q04"":""4"",""Q05"":""4"",""Q06"":""4"",""Q07"":""4"",""Q08"":""4"",""Q09"":""4"",""Q10"":""4""}","survey-template","5","76881","0.0-4.0","3","3","3","3","3","3","3","3","3","3","4","4","2","4","4","4","4","4","4","4","4","4","4","4","4","4","4","4","4","1","0","1","1","0","0","0","1","0","1","1","0","1","0","0","4","4","4","4","4","5","2","2","2","2","2","689181573102174208","田","610","","","","{""Q01"":""4"",""Q02"":""4"",""Q03"":""2"",""Q04"":""4"",""Q05"":""4"",""Q06"":""4"",""Q07"":""4"",""Q08"":""4"",""Q09"":""4"",""Q10"":""4""}","[0,1,2,3,4,5,6,7,8,9]","[""Q01"",""Q02"",""Q03"",""Q04"",""Q05"",""Q06"",""Q07"",""Q08"",""Q09"",""Q10""]","[3540,5604.20000000007,6444.100000000093,7484,8764,9692,10764,11684.20000000007,14188.100000000093,14972]","[]","[1971.7000000000698,2604,3540,4924.100000000093,5604.20000000007,6444.100000000093,7484,8764,9692,10764,11684.20000000007,13052,14188.100000000093,14972,15644.100000000093]","0.5","0","0","","","","","","","","","","","","","","","","","","","","","","","","","","","","","",""
"","","","preload","6","77062","0.0-5.0","3","3","3","3","3","3","3","3","3","3","4","4","2","4","4","4","4","4","4","4","4","4","4","4","4","4","4","4","4","1","0","1","1","0","0","0","1","0","1","1","0","1","0","0","4","4","4","4","4","5","2","2","2","2","2","689181573102174208","田","610","","true","","","","","","","","","","","false","[]","[]","[]","","","","","","","","","","","","","","","","","","","","","","","","","",""
"13537","","","instructions","7","90600","0.0-6.0","3","3","3","3","3","3","3","3","3","3","4","4","2","4","4","4","4","4","4","4","4","4","4","4","4","4","4","4","4","1","0","1","1","0","0","0","1","0","1","1","0","1","0","0","4","4","4","4","4","5","2","2","2","2","2","689181573102174208","田","610","","","","","","","","","","","","","","","","","[{""page_index"":0,""viewing_time"":13537}]","","","","","","","","","","","","","","","","","","","","","","","","",""
"15695","","","instructions","8","106296","0.0-7.0-0.0-0.0","3","3","3","3","3","3","3","3","3","3","4","4","2","4","4","4","4","4","4","4","4","4","4","4","4","4","4","4","4","1","0","1","1","0","0","0","1","0","1","1","0","1","0","0","4","4","4","4","4","5","2","2","2","2","2","689181573102174208","田","610","","","","","","","","","","","","","","","","","[{""page_index"":0,""viewing_time"":13751},{""page_index"":1,""viewing_time"":1272},{""page_index"":2,""viewing_time"":672}]","","","","","","","","","","","","","","","","","","","","","","","","",""
"732","","f","psychophysics","9","108031","0.0-7.0-0.0-1.0-0.0-0.0","3","3","3","3","3","3","3","3","3","3","4","4","2","4","4","4","4","4","4","4","4","4","4","4","4","4","4","4","4","1","0","1","1","0","0","0","1","0","1","1","0","1","0","0","4","4","4","4","4","5","2","2","2","2","2","689181573102174208","田","610","","","","match","","","","","","","","","","","","","","key","f","16.679611650485437","1280","716","j","false","nonmatch","img/pentagon.png","梯形","五边","ALT1_1","prac_ALT1_1","","","","","","","","","","","",""
"null","<span style='color:red; font-size: 70px;'>错误! </span>","null","html-keyboard-response","10","108532","0.0-7.0-0.0-1.0-0.0-1.0","3","3","3","3","3","3","3","3","3","3","4","4","2","4","4","4","4","4","4","4","4","4","4","4","4","4","4","4","4","1","0","1","1","0","0","0","1","0","1","1","0","1","0","0","4","4","4","4","4","5","2","2","2","2","2","689181573102174208","田","610","","","","","","","","","","","","","","","","","","","","","","","","","","","","","","feedback_test","","","","","","","","","","","",""
"763","","j","psychophysics","11","110297","0.0-7.0-0.0-1.0-0.0-0.1","3","3","3","3","3","3","3","3","3","3","4","4","2","4","4","4","4","4","4","4","4","4","4","4","4","4","4","4","4","1","0","1","1","0","0","0","1","0","1","1","0","1","0","0","4","4","4","4","4","5","2","2","2","2","2","689181573102174208","田","610","","","","nonmatch","","","","","","","","","","","","","","key","j","16.682857142857255","1280","716","j","true","nonmatch","img/square.png","五边","方形","ALT1_1","prac_ALT1_1","","","","","","","","","","","",""
"null","<span style='color:GreenYellow; font-size: 70px;'>正确! </span>","null","html-keyboard-response","12","110797","0.0-7.0-0.0-1.0-0.0-1.1","3","3","3","3","3","3","3","3","3","3","4","4","2","4","4","4","4","4","4","4","4","4","4","4","4","4","4","4","4","1","0","1","1","0","0","0","1","0","1","1","0","1","0","0","4","4","4","4","4","5","2","2","2","2","2","689181573102174208","田","610","","","","","","","","","","","","","","","","","","","","","","","","","","","","","","feedback_test","","","","","","","","","","","",""
"888","","j","psychophysics","13","112687","0.0-7.0-0.0-1.0-0.0-0.2","3","3","3","3","3","3","3","3","3","3","4","4","2","4","4","4","4","4","4","4","4","4","4","4","4","4","4","4","4","1","0","1","1","0","0","0","1","0","1","1","0","1","0","0","4","4","4","4","4","5","2","2","2","2","2","689181573102174208","田","610","","","","nonmatch","","","","","","","","","","","","","","key","j","16.682142857142804","1280","716","j","true","nonmatch","img/square.png","椭圆","方形","ALT1_1","prac_ALT1_1","","","","","","","","","","","",""
"null","<span style='color:GreenYellow; font-size: 70px;'>正确! </span>","null","html-keyboard-response","14","113188","0.0-7.0-0.0-1.0-0.0-1.2","3","3","3","3","3","3","3","3","3","3","4","4","2","4","4","4","4","4","4","4","4","4","4","4","4","4","4","4","4","1","0","1","1","0","0","0","1","0","1","1","0","1","0","0","4","4","4","4","4","5","2","2","2","2","2","689181573102174208","田","610","","","","","","","","","","","","","","","","","","","","","","","","","","","","","","feedback_test","","","","","","","","","","","",""
"938","","f","psychophysics","15","115126","0.0-7.0-0.0-1.0-0.0-0.3","3","3","3","3","3","3","3","3","3","3","4","4","2","4","4","4","4","4","4","4","4","4","4","4","4","4","4","4","4","1","0","1","1","0","0","0","1","0","1","1","0","1","0","0","4","4","4","4","4","5","2","2","2","2","2","689181573102174208","田","610","","","","match","","","","","","","","","","","","","","key","f","16.682608695652174","1280","716","f","true","match","img/pentagon.png","五边","五边","ALT1_1","prac_ALT1_1","","","","","","","","","","","",""
"null","<span style='color:GreenYellow; font-size: 70px;'>正确! </span>","null","html-keyboard-response","16","115627","0.0-7.0-0.0-1.0-0.0-1.3","3","3","3","3","3","3","3","3","3","3","4","4","2","4","4","4","4","4","4","4","4","4","4","4","4","4","4","4","4","1","0","1","1","0","0","0","1","0","1","1","0","1","0","0","4","4","4","4","4","5","2","2","2","2","2","689181573102174208","田","610","","","","","","","","","","","","","","","","","","","","","","","","","","","","","","feedback_test","","","","","","","","","","","",""
"873","","f","psychophysics","17","117502","0.0-7.0-0.0-1.0-0.0-0.4","3","3","3","3","3","3","3","3","3","3","4","4","2","4","4","4","4","4","4","4","4","4","4","4","4","4","4","4","4","1","0","1","1","0","0","0","1","0","1","1","0","1","0","0","4","4","4","4","4","5","2","2","2","2","2","689181573102174208","田","610","","","","match","","","","","","","","","","","","","","key","f","16.68018018018018","1280","716","f","true","match","img/pentagon.png","五边","五边","ALT1_1","prac_ALT1_1","","","","","","","","","","","",""
"null","<span style='color:GreenYellow; font-size: 70px;'>正确! </span>","null","html-keyboard-response","18","118003","0.0-7.0-0.0-1.0-0.0-1.4","3","3","3","3","3","3","3","3","3","3","4","4","2","4","4","4","4","4","4","4","4","4","4","4","4","4","4","4","4","1","0","1","1","0","0","0","1","0","1","1","0","1","0","0","4","4","4","4","4","5","2","2","2","2","2","689181573102174208","田","610","","","","","","","","","","","","","","","","","","","","","","","","","","","","","","feedback_test","","","","","","","","","","","",""
"820","","j","psychophysics","19","119826","0.0-7.0-0.0-1.0-0.0-0.5","3","3","3","3","3","3","3","3","3","3","4","4","2","4","4","4","4","4","4","4","4","4","4","4","4","4","4","4","4","1","0","1","1","0","0","0","1","0","1","1","0","1","0","0","4","4","4","4","4","5","2","2","2","2","2","689181573102174208","田","610","","","","nonmatch","","","","","","","","","","","","","","key","j","16.682407407407382","1280","716","j","true","nonmatch","img/ellipse.png","五边","椭圆","ALT1_1","prac_ALT1_1","","","","","","","","","","","",""
"null","<span style='color:GreenYellow; font-size: 70px;'>正确! </span>","null","html-keyboard-response","20","120327","0.0-7.0-0.0-1.0-0.0-1.5","3","3","3","3","3","3","3","3","3","3","4","4","2","4","4","4","4","4","4","4","4","4","4","4","4","4","4","4","4","1","0","1","1","0","0","0","1","0","1","1","0","1","0","0","4","4","4","4","4","5","2","2","2","2","2","689181573102174208","田","610","","","","","","","","","","","","","","","","","","","","","","","","","","","","","","feedback_test","","","","","","","","","","","",""
"894","","j","psychophysics","21","122222","0.0-7.0-0.0-1.0-0.0-0.6","3","3","3","3","3","3","3","3","3","3","4","4","2","4","4","4","4","4","4","4","4","4","4","4","4","4","4","4","4","1","0","1","1","0","0","0","1","0","1","1","0","1","0","0","4","4","4","4","4","5","2","2","2","2","2","689181573102174208","田","610","","","","nonmatch","","","","","","","","","","","","","","key","j","16.680357142857115","1280","716","j","true","nonmatch","img/ellipse.png","方形","椭圆","ALT1_1","prac_ALT1_1","","","","","","","","","","","",""
"null","<span style='color:GreenYellow; font-size: 70px;'>正确! </span>","null","html-keyboard-response","22","122723","0.0-7.0-0.0-1.0-0.0-1.6","3","3","3","3","3","3","3","3","3","3","4","4","2","4","4","4","4","4","4","4","4","4","4","4","4","4","4","4","4","1","0","1","1","0","0","0","1","0","1","1","0","1","0","0","4","4","4","4","4","5","2","2","2","2","2","689181573102174208","田","610","","","","","","","","","","","","","","","","","","","","","","","","","","","","","","feedback_test","","","","","","","","","","","",""
"904","","j","psychophysics","23","124629","0.0-7.0-0.0-1.0-0.0-0.7","3","3","3","3","3","3","3","3","3","3","4","4","2","4","4","4","4","4","4","4","4","4","4","4","4","4","4","4","4","1","0","1","1","0","0","0","1","0","1","1","0","1","0","0","4","4","4","4","4","5","2","2","2","2","2","689181573102174208","田","610","","","","nonmatch","","","","","","","","","","","","","","key","j","16.680530973451404","1280","716","j","true","nonmatch","img/pentagon.png","方形","五边","ALT1_1","prac_ALT1_1","","","","","","","","","","","",""
"null","<span style='color:GreenYellow; font-size: 70px;'>正确! </span>","null","html-keyboard-response","24","125130","0.0-7.0-0.0-1.0-0.0-1.7","3","3","3","3","3","3","3","3","3","3","4","4","2","4","4","4","4","4","4","4","4","4","4","4","4","4","4","4","4","1","0","1","1","0","0","0","1","0","1","1","0","1","0","0","4","4","4","4","4","5","2","2","2","2","2","689181573102174208","田","610","","","","","","","","","","","","","","","","","","","","","","","","","","","","","","feedback_test","","","","","","","","","","","",""
"1036","","f","psychophysics","25","127167","0.0-7.0-0.0-1.0-0.0-0.8","3","3","3","3","3","3","3","3","3","3","4","4","2","4","4","4","4","4","4","4","4","4","4","4","4","4","4","4","4","1","0","1","1","0","0","0","1","0","1","1","0","1","0","0","4","4","4","4","4","5","2","2","2","2","2","689181573102174208","田","610","","","","match","","","","","","","","","","","","","","key","f","16.671074380165265","1280","716","f","true","match","img/ellipse.png","椭圆","椭圆","ALT1_1","prac_ALT1_1","","","","","","","","","","","",""
"null","<span style='color:GreenYellow; font-size: 70px;'>正确! </span>","null","html-keyboard-response","26","127667","0.0-7.0-0.0-1.0-0.0-1.8","3","3","3","3","3","3","3","3","3","3","4","4","2","4","4","4","4","4","4","4","4","4","4","4","4","4","4","4","4","1","0","1","1","0","0","0","1","0","1","1","0","1","0","0","4","4","4","4","4","5","2","2","2","2","2","689181573102174208","田","610","","","","","","","","","","","","","","","","","","","","","","","","","","","","","","feedback_test","","","","","","","","","","","",""
"889","","f","psychophysics","27","129558","0.0-7.0-0.0-1.0-0.0-0.9","3","3","3","3","3","3","3","3","3","3","4","4","2","4","4","4","4","4","4","4","4","4","4","4","4","4","4","4","4","1","0","1","1","0","0","0","1","0","1","1","0","1","0","0","4","4","4","4","4","5","2","2","2","2","2","689181573102174208","田","610","","","","match","","","","","","","","","","","","","","key","f","16.680357142857247","1280","716","f","true","match","img/square.png","方形","方形","ALT1_1","prac_ALT1_1","","","","","","","","","","","",""
"null","<span style='color:GreenYellow; font-size: 70px;'>正确! </span>","null","html-keyboard-response","28","130059","0.0-7.0-0.0-1.0-0.0-1.9","3","3","3","3","3","3","3","3","3","3","4","4","2","4","4","4","4","4","4","4","4","4","4","4","4","4","4","4","4","1","0","1","1","0","0","0","1","0","1","1","0","1","0","0","4","4","4","4","4","5","2","2","2","2","2","689181573102174208","田","610","","","","","","","","","","","","","","","","","","","","","","","","","","","","","","feedback_test","","","","","","","","","","","",""
"604","","j","psychophysics","29","131665","0.0-7.0-0.0-1.0-0.0-0.10","3","3","3","3","3","3","3","3","3","3","4","4","2","4","4","4","4","4","4","4","4","4","4","4","4","4","4","4","4","1","0","1","1","0","0","0","1","0","1","1","0","1","0","0","4","4","4","4","4","5","2","2","2","2","2","689181573102174208","田","610","","","","nonmatch","","","","","","","","","","","","","","key","j","16.682105263157773","1280","716","j","true","nonmatch","img/square.png","梯形","方形","ALT1_1","prac_ALT1_1","","","","","","","","","","","",""
"null","<span style='color:GreenYellow; font-size: 70px;'>正确! </span>","null","html-keyboard-response","30","132166","0.0-7.0-0.0-1.0-0.0-1.10","3","3","3","3","3","3","3","3","3","3","4","4","2","4","4","4","4","4","4","4","4","4","4","4","4","4","4","4","4","1","0","1","1","0","0","0","1","0","1","1","0","1","0","0","4","4","4","4","4","5","2","2","2","2","2","689181573102174208","田","610","","","","","","","","","","","","","","","","","","","","","","","","","","","","","","feedback_test","","","","","","","","","","","",""
"42","","f","psychophysics","31","133209","0.0-7.0-0.0-1.0-0.0-0.11","3","3","3","3","3","3","3","3","3","3","4","4","2","4","4","4","4","4","4","4","4","4","4","4","4","4","4","4","4","1","0","1","1","0","0","0","1","0","1","1","0","1","0","0","4","4","4","4","4","5","2","2","2","2","2","689181573102174208","田","610","","","","match","","","","","","","","","","","","","","key","f","16.68548387096774","1280","716","f","true","match","img/ellipse.png","椭圆","椭圆","ALT1_1","prac_ALT1_1","","","","","","","","","","","",""
"null","<span style='color:yellow; font-size: 70px;'>过快! </span>","null","html-keyboard-response","32","133710","0.0-7.0-0.0-1.0-0.0-1.11","3","3","3","3","3","3","3","3","3","3","4","4","2","4","4","4","4","4","4","4","4","4","4","4","4","4","4","4","4","1","0","1","1","0","0","0","1","0","1","1","0","1","0","0","4","4","4","4","4","5","2","2","2","2","2","689181573102174208","田","610","","","","","","","","","","","","","","","","","","","","","","","","","","","","","","feedback_test","","","","","","","","","","","",""
"492","","f","psychophysics","33","135203","0.0-7.0-0.0-1.0-0.0-0.12","3","3","3","3","3","3","3","3","3","3","4","4","2","4","4","4","4","4","4","4","4","4","4","4","4","4","4","4","4","1","0","1","1","0","0","0","1","0","1","1","0","1","0","0","4","4","4","4","4","5","2","2","2","2","2","689181573102174208","田","610","","","","match","","","","","","","","","","","","","","key","f","16.679545454545323","1280","716","f","true","match","img/square.png","方形","方形","ALT1_1","prac_ALT1_1","","","","","","","","","","","",""
"null","<span style='color:GreenYellow; font-size: 70px;'>正确! </span>","null","html-keyboard-response","34","135704","0.0-7.0-0.0-1.0-0.0-1.12","3","3","3","3","3","3","3","3","3","3","4","4","2","4","4","4","4","4","4","4","4","4","4","4","4","4","4","4","4","1","0","1","1","0","0","0","1","0","1","1","0","1","0","0","4","4","4","4","4","5","2","2","2","2","2","689181573102174208","田","610","","","","","","","","","","","","","","","","","","","","","","","","","","","","","","feedback_test","","","","","","","","","","","",""
"333","","j","psychophysics","35","137038","0.0-7.0-0.0-1.0-0.0-0.13","3","3","3","3","3","3","3","3","3","3","4","4","2","4","4","4","4","4","4","4","4","4","4","4","4","4","4","4","4","1","0","1","1","0","0","0","1","0","1","1","0","1","0","0","4","4","4","4","4","5","2","2","2","2","2","689181573102174208","田","610","","","","nonmatch","","","","","","","","","","","","","","key","j","16.6810126582277","1280","716","j","true","nonmatch","img/ellipse.png","梯形","椭圆","ALT1_1","prac_ALT1_1","","","","","","","","","","","",""
"null","<span style='color:GreenYellow; font-size: 70px;'>正确! </span>","null","html-keyboard-response","36","137539","0.0-7.0-0.0-1.0-0.0-1.13","3","3","3","3","3","3","3","3","3","3","4","4","2","4","4","4","4","4","4","4","4","4","4","4","4","4","4","4","4","1","0","1","1","0","0","0","1","0","1","1","0","1","0","0","4","4","4","4","4","5","2","2","2","2","2","689181573102174208","田","610","","","","","","","","","","","","","","","","","","","","","","","","","","","","","","feedback_test","","","","","","","","","","","",""
"869","","j","psychophysics","37","139409","0.0-7.0-0.0-1.0-0.0-0.14","3","3","3","3","3","3","3","3","3","3","4","4","2","4","4","4","4","4","4","4","4","4","4","4","4","4","4","4","4","1","0","1","1","0","0","0","1","0","1","1","0","1","0","0","4","4","4","4","4","5","2","2","2","2","2","689181573102174208","田","610","","","","nonmatch","","","","","","","","","","","","","","key","j","16.680357142857247","1280","716","f","false","match","img/trapezoid.png","梯形","梯形","ALT1_1","prac_ALT1_1","","","","","","","","","","","",""
"null","<span style='color:red; font-size: 70px;'>错误! </span>","null","html-keyboard-response","38","139910","0.0-7.0-0.0-1.0-0.0-1.14","3","3","3","3","3","3","3","3","3","3","4","4","2","4","4","4","4","4","4","4","4","4","4","4","4","4","4","4","4","1","0","1","1","0","0","0","1","0","1","1","0","1","0","0","4","4","4","4","4","5","2","2","2","2","2","689181573102174208","田","610","","","","","","","","","","","","","","","","","","","","","","","","","","","","","","feedback_test","","","","","","","","","","","",""
"916","","f","psychophysics","39","141827","0.0-7.0-0.0-1.0-0.0-0.15","3","3","3","3","3","3","3","3","3","3","4","4","2","4","4","4","4","4","4","4","4","4","4","4","4","4","4","4","4","1","0","1","1","0","0","0","1","0","1","1","0","1","0","0","4","4","4","4","4","5","2","2","2","2","2","689181573102174208","田","610","","","","match","","","","","","","","","","","","","","key","f","16.684070796460073","1280","716","j","false","nonmatch","img/trapezoid.png","五边","梯形","ALT1_1","prac_ALT1_1","","","","","","","","","","","",""
"null","<span style='color:red; font-size: 70px;'>错误! </span>","null","html-keyboard-response","40","142328","0.0-7.0-0.0-1.0-0.0-1.15","3","3","3","3","3","3","3","3","3","3","4","4","2","4","4","4","4","4","4","4","4","4","4","4","4","4","4","4","4","1","0","1","1","0","0","0","1","0","1","1","0","1","0","0","4","4","4","4","4","5","2","2","2","2","2","689181573102174208","田","610","","","","","","","","","","","","","","","","","","","","","","","","","","","","","","feedback_test","","","","","","","","","","","",""
"751","","j","psychophysics","41","144080","0.0-7.0-0.0-1.0-0.0-0.16","3","3","3","3","3","3","3","3","3","3","4","4","2","4","4","4","4","4","4","4","4","4","4","4","4","4","4","4","4","1","0","1","1","0","0","0","1","0","1","1","0","1","0","0","4","4","4","4","4","5","2","2","2","2","2","689181573102174208","田","610","","","","nonmatch","","","","","","","","","","","","","","key","j","16.679807692307804","1280","716","j","true","nonmatch","img/trapezoid.png","椭圆","梯形","ALT1_1","prac_ALT1_1","","","","","","","","","","","",""
"null","<span style='color:GreenYellow; font-size: 70px;'>正确! </span>","null","html-keyboard-response","42","144580","0.0-7.0-0.0-1.0-0.0-1.16","3","3","3","3","3","3","3","3","3","3","4","4","2","4","4","4","4","4","4","4","4","4","4","4","4","4","4","4","4","1","0","1","1","0","0","0","1","0","1","1","0","1","0","0","4","4","4","4","4","5","2","2","2","2","2","689181573102174208","田","610","","","","","","","","","","","","","","","","","","","","","","","","","","","","","","feedback_test","","","","","","","","","","","",""
"919","","f","psychophysics","43","146502","0.0-7.0-0.0-1.0-0.0-0.17","3","3","3","3","3","3","3","3","3","3","4","4","2","4","4","4","4","4","4","4","4","4","4","4","4","4","4","4","4","1","0","1","1","0","0","0","1","0","1","1","0","1","0","0","4","4","4","4","4","5","2","2","2","2","2","689181573102174208","田","610","","","","match","","","","","","","","","","","","","","key","f","16.682456140350777","1280","716","f","true","match","img/ellipse.png","椭圆","椭圆","ALT1_1","prac_ALT1_1","","","","","","","","","","","",""
"null","<span style='color:GreenYellow; font-size: 70px;'>正确! </span>","null","html-keyboard-response","44","147003","0.0-7.0-0.0-1.0-0.0-1.17","3","3","3","3","3","3","3","3","3","3","4","4","2","4","4","4","4","4","4","4","4","4","4","4","4","4","4","4","4","1","0","1","1","0","0","0","1","0","1","1","0","1","0","0","4","4","4","4","4","5","2","2","2","2","2","689181573102174208","田","610","","","","","","","","","","","","","","","","","","","","","","","","","","","","","","feedback_test","","","","","","","","","","","",""
"979","","f","psychophysics","45","148983","0.0-7.0-0.0-1.0-0.0-0.18","3","3","3","3","3","3","3","3","3","3","4","4","2","4","4","4","4","4","4","4","4","4","4","4","4","4","4","4","4","1","0","1","1","0","0","0","1","0","1","1","0","1","0","0","4","4","4","4","4","5","2","2","2","2","2","689181573102174208","田","610","","","","match","","","","","","","","","","","","","","key","f","16.68119658119668","1280","716","f","true","match","img/trapezoid.png","梯形","梯形","ALT1_1","prac_ALT1_1","","","","","","","","","","","",""
"null","<span style='color:GreenYellow; font-size: 70px;'>正确! </span>","null","html-keyboard-response","46","149484","0.0-7.0-0.0-1.0-0.0-1.18","3","3","3","3","3","3","3","3","3","3","4","4","2","4","4","4","4","4","4","4","4","4","4","4","4","4","4","4","4","1","0","1","1","0","0","0","1","0","1","1","0","1","0","0","4","4","4","4","4","5","2","2","2","2","2","689181573102174208","田","610","","","","","","","","","","","","","","","","","","","","","","","","","","","","","","feedback_test","","","","","","","","","","","",""
"771","","j","psychophysics","47","151255","0.0-7.0-0.0-1.0-0.0-0.19","3","3","3","3","3","3","3","3","3","3","4","4","2","4","4","4","4","4","4","4","4","4","4","4","4","4","4","4","4","1","0","1","1","0","0","0","1","0","1","1","0","1","0","0","4","4","4","4","4","5","2","2","2","2","2","689181573102174208","田","610","","","","nonmatch","","","","","","","","","","","","","","key","j","16.68095238095238","1280","716","j","true","nonmatch","img/trapezoid.png","方形","梯形","ALT1_1","prac_ALT1_1","","","","","","","","","","","",""
"null","<span style='color:GreenYellow; font-size: 70px;'>正确! </span>","null","html-keyboard-response","48","151756","0.0-7.0-0.0-1.0-0.0-1.19","3","3","3","3","3","3","3","3","3","3","4","4","2","4","4","4","4","4","4","4","4","4","4","4","4","4","4","4","4","1","0","1","1","0","0","0","1","0","1","1","0","1","0","0","4","4","4","4","4","5","2","2","2","2","2","689181573102174208","田","610","","","","","","","","","","","","","","","","","","","","","","","","","","","","","","feedback_test","","","","","","","","","","","",""
"891","","f","psychophysics","49","153648","0.0-7.0-0.0-1.0-0.0-0.20","3","3","3","3","3","3","3","3","3","3","4","4","2","4","4","4","4","4","4","4","4","4","4","4","4","4","4","4","4","1","0","1","1","0","0","0","1","0","1","1","0","1","0","0","4","4","4","4","4","5","2","2","2","2","2","689181573102174208","田","610","","","","match","","","","","","","","","","","","","","key","f","16.678571428571427","1280","716","f","true","match","img/pentagon.png","五边","五边","ALT1_1","prac_ALT1_1","","","","","","","","","","","",""
"null","<span style='color:GreenYellow; font-size: 70px;'>正确! </span>","null","html-keyboard-response","50","154149","0.0-7.0-0.0-1.0-0.0-1.20","3","3","3","3","3","3","3","3","3","3","4","4","2","4","4","4","4","4","4","4","4","4","4","4","4","4","4","4","4","1","0","1","1","0","0","0","1","0","1","1","0","1","0","0","4","4","4","4","4","5","2","2","2","2","2","689181573102174208","田","610","","","","","","","","","","","","","","","","","","","","","","","","","","","","","","feedback_test","","","","","","","","","","","",""
"807","","j","psychophysics","51","155958","0.0-7.0-0.0-1.0-0.0-0.21","3","3","3","3","3","3","3","3","3","3","4","4","2","4","4","4","4","4","4","4","4","4","4","4","4","4","4","4","4","1","0","1","1","0","0","0","1","0","1","1","0","1","0","0","4","4","4","4","4","5","2","2","2","2","2","689181573102174208","田","610","","","","nonmatch","","","","","","","","","","","","","","key","j","16.679629629629577","1280","716","j","true","nonmatch","img/pentagon.png","椭圆","五边","ALT1_1","prac_ALT1_1","","","","","","","","","","","",""
"null","<span style='color:GreenYellow; font-size: 70px;'>正确! </span>","null","html-keyboard-response","52","156458","0.0-7.0-0.0-1.0-0.0-1.21","3","3","3","3","3","3","3","3","3","3","4","4","2","4","4","4","4","4","4","4","4","4","4","4","4","4","4","4","4","1","0","1","1","0","0","0","1","0","1","1","0","1","0","0","4","4","4","4","4","5","2","2","2","2","2","689181573102174208","田","610","","","","","","","","","","","","","","","","","","","","","","","","","","","","","","feedback_test","","","","","","","","","","","",""
"797","","f","psychophysics","53","158257","0.0-7.0-0.0-1.0-0.0-0.22","3","3","3","3","3","3","3","3","3","3","4","4","2","4","4","4","4","4","4","4","4","4","4","4","4","4","4","4","4","1","0","1","1","0","0","0","1","0","1","1","0","1","0","0","4","4","4","4","4","5","2","2","2","2","2","689181573102174208","田","610","","","","match","","","","","","","","","","","","","","key","f","16.680188679245337","1280","716","f","true","match","img/trapezoid.png","梯形","梯形","ALT1_1","prac_ALT1_1","","","","","","","","","","","",""
"null","<span style='color:GreenYellow; font-size: 70px;'>正确! </span>","null","html-keyboard-response","54","158757","0.0-7.0-0.0-1.0-0.0-1.22","3","3","3","3","3","3","3","3","3","3","4","4","2","4","4","4","4","4","4","4","4","4","4","4","4","4","4","4","4","1","0","1","1","0","0","0","1","0","1","1","0","1","0","0","4","4","4","4","4","5","2","2","2","2","2","689181573102174208","田","610","","","","","","","","","","","","","","","","","","","","","","","","","","","","","","feedback_test","","","","","","","","","","","",""
"883","","f","psychophysics","55","160642","0.0-7.0-0.0-1.0-0.0-0.23","3","3","3","3","3","3","3","3","3","3","4","4","2","4","4","4","4","4","4","4","4","4","4","4","4","4","4","4","4","1","0","1","1","0","0","0","1","0","1","1","0","1","0","0","4","4","4","4","4","5","2","2","2","2","2","689181573102174208","田","610","","","","match","","","","","","","","","","","","","","key","f","16.681081081081132","1280","716","f","true","match","img/square.png","方形","方形","ALT1_1","prac_ALT1_1","","","","","","","","","","","",""
"null","<span style='color:GreenYellow; font-size: 70px;'>正确! </span>","null","html-keyboard-response","56","161143","0.0-7.0-0.0-1.0-0.0-1.23","3","3","3","3","3","3","3","3","3","3","4","4","2","4","4","4","4","4","4","4","4","4","4","4","4","4","4","4","4","1","0","1","1","0","0","0","1","0","1","1","0","1","0","0","4","4","4","4","4","5","2","2","2","2","2","689181573102174208","田","610","","","","","","","","","","","","","","","","","","","","","","","","","","","","","","feedback_test","","","","","","","","","","","",""
"939","","f","psychophysics","57","163083","0.0-7.0-0.0-1.0-0.0-0.24","3","3","3","3","3","3","3","3","3","3","4","4","2","4","4","4","4","4","4","4","4","4","4","4","4","4","4","4","4","1","0","1","1","0","0","0","1","0","1","1","0","1","0","0","4","4","4","4","4","5","2","2","2","2","2","689181573102174208","田","610","","","","match","","","","","","","","","","","","","","key","f","16.679999999999847","1280","716","f","true","match","img/pentagon.png","五边","五边","ALT1_1","prac_ALT1_1","","","","","","","","","","","",""
"null","<span style='color:GreenYellow; font-size: 70px;'>正确! </span>","null","html-keyboard-response","58","163584","0.0-7.0-0.0-1.0-0.0-1.24","3","3","3","3","3","3","3","3","3","3","4","4","2","4","4","4","4","4","4","4","4","4","4","4","4","4","4","4","4","1","0","1","1","0","0","0","1","0","1","1","0","1","0","0","4","4","4","4","4","5","2","2","2","2","2","689181573102174208","田","610","","","","","","","","","","","","","","","","","","","","","","","","","","","","","","feedback_test","","","","","","","","","","","",""
"862","","j","psychophysics","59","165447","0.0-7.0-0.0-1.0-0.0-0.25","3","3","3","3","3","3","3","3","3","3","4","4","2","4","4","4","4","4","4","4","4","4","4","4","4","4","4","4","4","1","0","1","1","0","0","0","1","0","1","1","0","1","0","0","4","4","4","4","4","5","2","2","2","2","2","689181573102174208","田","610","","","","nonmatch","","","","","","","","","","","","","","key","j","16.679999999999893","1280","716","j","true","nonmatch","img/ellipse.png","方形","椭圆","ALT1_1","prac_ALT1_1","","","","","","","","","","","",""
"null","<span style='color:GreenYellow; font-size: 70px;'>正确! </span>","null","html-keyboard-response","60","165948","0.0-7.0-0.0-1.0-0.0-1.25","3","3","3","3","3","3","3","3","3","3","4","4","2","4","4","4","4","4","4","4","4","4","4","4","4","4","4","4","4","1","0","1","1","0","0","0","1","0","1","1","0","1","0","0","4","4","4","4","4","5","2","2","2","2","2","689181573102174208","田","610","","","","","","","","","","","","","","","","","","","","","","","","","","","","","","feedback_test","","","","","","","","","","","",""
"931","","f","psychophysics","61","167879","0.0-7.0-0.0-1.0-0.0-0.26","3","3","3","3","3","3","3","3","3","3","4","4","2","4","4","4","4","4","4","4","4","4","4","4","4","4","4","4","4","1","0","1","1","0","0","0","1","0","1","1","0","1","0","0","4","4","4","4","4","5","2","2","2","2","2","689181573102174208","田","610","","","","match","","","","","","","","","","","","","","key","f","16.680701754385762","1280","716","f","true","match","img/ellipse.png","椭圆","椭圆","ALT1_1","prac_ALT1_1","","","","","","","","","","","",""
"null","<span style='color:GreenYellow; font-size: 70px;'>正确! </span>","null","html-keyboard-response","62","168391","0.0-7.0-0.0-1.0-0.0-1.26","3","3","3","3","3","3","3","3","3","3","4","4","2","4","4","4","4","4","4","4","4","4","4","4","4","4","4","4","4","1","0","1","1","0","0","0","1","0","1","1","0","1","0","0","4","4","4","4","4","5","2","2","2","2","2","689181573102174208","田","610","","","","","","","","","","","","","","","","","","","","","","","","","","","","","","feedback_test","","","","","","","","","","","",""
"1026","","f","psychophysics","63","170418","0.0-7.0-0.0-1.0-0.0-0.27","3","3","3","3","3","3","3","3","3","3","4","4","2","4","4","4","4","4","4","4","4","4","4","4","4","4","4","4","4","1","0","1","1","0","0","0","1","0","1","1","0","1","0","0","4","4","4","4","4","5","2","2","2","2","2","689181573102174208","田","610","","","","match","","","","","","","","","","","","","","key","f","16.680165289256102","1280","716","f","true","match","img/trapezoid.png","梯形","梯形","ALT1_1","prac_ALT1_1","","","","","","","","","","","",""
"null","<span style='color:GreenYellow; font-size: 70px;'>正确! </span>","null","html-keyboard-response","64","170919","0.0-7.0-0.0-1.0-0.0-1.27","3","3","3","3","3","3","3","3","3","3","4","4","2","4","4","4","4","4","4","4","4","4","4","4","4","4","4","4","4","1","0","1","1","0","0","0","1","0","1","1","0","1","0","0","4","4","4","4","4","5","2","2","2","2","2","689181573102174208","田","610","","","","","","","","","","","","","","","","","","","","","","","","","","","","","","feedback_test","","","","","","","","","","","",""
"944","","f","psychophysics","65","172865","0.0-7.0-0.0-1.0-0.0-0.28","3","3","3","3","3","3","3","3","3","3","4","4","2","4","4","4","4","4","4","4","4","4","4","4","4","4","4","4","4","1","0","1","1","0","0","0","1","0","1","1","0","1","0","0","4","4","4","4","4","5","2","2","2","2","2","689181573102174208","田","610","","","","match","","","","","","","","","","","","","","key","f","16.680000000000103","1280","716","f","true","match","img/ellipse.png","椭圆","椭圆","ALT1_1","prac_ALT1_1","","","","","","","","","","","",""
"null","<span style='color:GreenYellow; font-size: 70px;'>正确! </span>","null","html-keyboard-response","66","173366","0.0-7.0-0.0-1.0-0.0-1.28","3","3","3","3","3","3","3","3","3","3","4","4","2","4","4","4","4","4","4","4","4","4","4","4","4","4","4","4","4","1","0","1","1","0","0","0","1","0","1","1","0","1","0","0","4","4","4","4","4","5","2","2","2","2","2","689181573102174208","田","610","","","","","","","","","","","","","","","","","","","","","","","","","","","","","","feedback_test","","","","","","","","","","","",""
"975","","j","psychophysics","67","175342","0.0-7.0-0.0-1.0-0.0-0.29","3","3","3","3","3","3","3","3","3","3","4","4","2","4","4","4","4","4","4","4","4","4","4","4","4","4","4","4","4","1","0","1","1","0","0","0","1","0","1","1","0","1","0","0","4","4","4","4","4","5","2","2","2","2","2","689181573102174208","田","610","","","","nonmatch","","","","","","","","","","","","","","key","j","16.68220338983051","1280","716","j","true","nonmatch","img/square.png","五边","方形","ALT1_1","prac_ALT1_1","","","","","","","","","","","",""
"null","<span style='color:GreenYellow; font-size: 70px;'>正确! </span>","null","html-keyboard-response","68","175843","0.0-7.0-0.0-1.0-0.0-1.29","3","3","3","3","3","3","3","3","3","3","4","4","2","4","4","4","4","4","4","4","4","4","4","4","4","4","4","4","4","1","0","1","1","0","0","0","1","0","1","1","0","1","0","0","4","4","4","4","4","5","2","2","2","2","2","689181573102174208","田","610","","","","","","","","","","","","","","","","","","","","","","","","","","","","","","feedback_test","","","","","","","","","","","",""
"983","","j","psychophysics","69","177827","0.0-7.0-0.0-1.0-0.0-0.30","3","3","3","3","3","3","3","3","3","3","4","4","2","4","4","4","4","4","4","4","4","4","4","4","4","4","4","4","4","1","0","1","1","0","0","0","1","0","1","1","0","1","0","0","4","4","4","4","4","5","2","2","2","2","2","689181573102174208","田","610","","","","nonmatch","","","","","","","","","","","","","","key","j","16.68220338983051","1280","716","j","true","nonmatch","img/pentagon.png","椭圆","五边","ALT1_1","prac_ALT1_1","","","","","","","","","","","",""
"null","<span style='color:GreenYellow; font-size: 70px;'>正确! </span>","null","html-keyboard-response","70","178327","0.0-7.0-0.0-1.0-0.0-1.30","3","3","3","3","3","3","3","3","3","3","4","4","2","4","4","4","4","4","4","4","4","4","4","4","4","4","4","4","4","1","0","1","1","0","0","0","1","0","1","1","0","1","0","0","4","4","4","4","4","5","2","2","2","2","2","689181573102174208","田","610","","","","","","","","","","","","","","","","","","","","","","","","","","","","","","feedback_test","","","","","","","","","","","",""
"665","","f","psychophysics","71","179994","0.0-7.0-0.0-1.0-0.0-0.31","3","3","3","3","3","3","3","3","3","3","4","4","2","4","4","4","4","4","4","4","4","4","4","4","4","4","4","4","4","1","0","1","1","0","0","0","1","0","1","1","0","1","0","0","4","4","4","4","4","5","2","2","2","2","2","689181573102174208","田","610","","","","match","","","","","","","","","","","","","","key","f","16.679797979798156","1280","716","f","true","match","img/ellipse.png","椭圆","椭圆","ALT1_1","prac_ALT1_1","","","","","","","","","","","",""
"null","<span style='color:GreenYellow; font-size: 70px;'>正确! </span>","null","html-keyboard-response","72","180495","0.0-7.0-0.0-1.0-0.0-1.31","3","3","3","3","3","3","3","3","3","3","4","4","2","4","4","4","4","4","4","4","4","4","4","4","4","4","4","4","4","1","0","1","1","0","0","0","1","0","1","1","0","1","0","0","4","4","4","4","4","5","2","2","2","2","2","689181573102174208","田","610","","","","","","","","","","","","","","","","","","","","","","","","","","","","","","feedback_test","","","","","","","","","","","",""
"1026","","j","psychophysics","73","182522","0.0-7.0-0.0-1.0-0.0-0.32","3","3","3","3","3","3","3","3","3","3","4","4","2","4","4","4","4","4","4","4","4","4","4","4","4","4","4","4","4","1","0","1","1","0","0","0","1","0","1","1","0","1","0","0","4","4","4","4","4","5","2","2","2","2","2","689181573102174208","田","610","","","","nonmatch","","","","","","","","","","","","","","key","j","16.68166666666681","1280","716","j","true","nonmatch","img/trapezoid.png","方形","梯形","ALT1_1","prac_ALT1_1","","","","","","","","","","","",""
"null","<span style='color:GreenYellow; font-size: 70px;'>正确! </span>","null","html-keyboard-response","74","183023","0.0-7.0-0.0-1.0-0.0-1.32","3","3","3","3","3","3","3","3","3","3","4","4","2","4","4","4","4","4","4","4","4","4","4","4","4","4","4","4","4","1","0","1","1","0","0","0","1","0","1","1","0","1","0","0","4","4","4","4","4","5","2","2","2","2","2","689181573102174208","田","610","","","","","","","","","","","","","","","","","","","","","","","","","","","","","","feedback_test","","","","","","","","","","","",""
"904","","f","psychophysics","75","184928","0.0-7.0-0.0-1.0-0.0-0.33","3","3","3","3","3","3","3","3","3","3","4","4","2","4","4","4","4","4","4","4","4","4","4","4","4","4","4","4","4","1","0","1","1","0","0","0","1","0","1","1","0","1","0","0","4","4","4","4","4","5","2","2","2","2","2","689181573102174208","田","610","","","","match","","","","","","","","","","","","","","key","f","16.680530973451276","1280","716","f","true","match","img/trapezoid.png","梯形","梯形","ALT1_1","prac_ALT1_1","","","","","","","","","","","",""
"null","<span style='color:GreenYellow; font-size: 70px;'>正确! </span>","null","html-keyboard-response","76","185429","0.0-7.0-0.0-1.0-0.0-1.33","3","3","3","3","3","3","3","3","3","3","4","4","2","4","4","4","4","4","4","4","4","4","4","4","4","4","4","4","4","1","0","1","1","0","0","0","1","0","1","1","0","1","0","0","4","4","4","4","4","5","2","2","2","2","2","689181573102174208","田","610","","","","","","","","","","","","","","","","","","","","","","","","","","","","","","feedback_test","","","","","","","","","","","",""
"909","","j","psychophysics","77","187339","0.0-7.0-0.0-1.0-0.0-0.34","3","3","3","3","3","3","3","3","3","3","4","4","2","4","4","4","4","4","4","4","4","4","4","4","4","4","4","4","4","1","0","1","1","0","0","0","1","0","1","1","0","1","0","0","4","4","4","4","4","5","2","2","2","2","2","689181573102174208","田","610","","","","nonmatch","","","","","","","","","","","","","","key","j","16.674336283185944","1280","716","j","true","nonmatch","img/trapezoid.png","五边","梯形","ALT1_1","prac_ALT1_1","","","","","","","","","","","",""
"null","<span style='color:GreenYellow; font-size: 70px;'>正确! </span>","null","html-keyboard-response","78","187840","0.0-7.0-0.0-1.0-0.0-1.34","3","3","3","3","3","3","3","3","3","3","4","4","2","4","4","4","4","4","4","4","4","4","4","4","4","4","4","4","4","1","0","1","1","0","0","0","1","0","1","1","0","1","0","0","4","4","4","4","4","5","2","2","2","2","2","689181573102174208","田","610","","","","","","","","","","","","","","","","","","","","","","","","","","","","","","feedback_test","","","","","","","","","","","",""
"942","","f","psychophysics","79","189782","0.0-7.0-0.0-1.0-0.0-0.35","3","3","3","3","3","3","3","3","3","3","4","4","2","4","4","4","4","4","4","4","4","4","4","4","4","4","4","4","4","1","0","1","1","0","0","0","1","0","1","1","0","1","0","0","4","4","4","4","4","5","2","2","2","2","2","689181573102174208","田","610","","","","match","","","","","","","","","","","","","","key","f","16.68086956521729","1280","716","f","true","match","img/square.png","方形","方形","ALT1_1","prac_ALT1_1","","","","","","","","","","","",""
"null","<span style='color:GreenYellow; font-size: 70px;'>正确! </span>","null","html-keyboard-response","80","190283","0.0-7.0-0.0-1.0-0.0-1.35","3","3","3","3","3","3","3","3","3","3","4","4","2","4","4","4","4","4","4","4","4","4","4","4","4","4","4","4","4","1","0","1","1","0","0","0","1","0","1","1","0","1","0","0","4","4","4","4","4","5","2","2","2","2","2","689181573102174208","田","610","","","","","","","","","","","","","","","","","","","","","","","","","","","","","","feedback_test","","","","","","","","","","","",""
"915","","j","psychophysics","81","192198","0.0-7.0-0.0-1.0-0.0-0.36","3","3","3","3","3","3","3","3","3","3","4","4","2","4","4","4","4","4","4","4","4","4","4","4","4","4","4","4","4","1","0","1","1","0","0","0","1","0","1","1","0","1","0","0","4","4","4","4","4","5","2","2","2","2","2","689181573102174208","田","610","","","","nonmatch","","","","","","","","","","","","","","key","j","16.684070796460073","1280","716","j","true","nonmatch","img/pentagon.png","方形","五边","ALT1_1","prac_ALT1_1","","","","","","","","","","","",""
"null","<span style='color:GreenYellow; font-size: 70px;'>正确! </span>","null","html-keyboard-response","82","192700","0.0-7.0-0.0-1.0-0.0-1.36","3","3","3","3","3","3","3","3","3","3","4","4","2","4","4","4","4","4","4","4","4","4","4","4","4","4","4","4","4","1","0","1","1","0","0","0","1","0","1","1","0","1","0","0","4","4","4","4","4","5","2","2","2","2","2","689181573102174208","田","610","","","","","","","","","","","","","","","","","","","","","","","","","","","","","","feedback_test","","","","","","","","","","","",""
"849","","j","psychophysics","83","194550","0.0-7.0-0.0-1.0-0.0-0.37","3","3","3","3","3","3","3","3","3","3","4","4","2","4","4","4","4","4","4","4","4","4","4","4","4","4","4","4","4","1","0","1","1","0","0","0","1","0","1","1","0","1","0","0","4","4","4","4","4","5","2","2","2","2","2","689181573102174208","田","610","","","","nonmatch","","","","","","","","","","","","","","key","j","16.68272727272706","1280","716","j","true","nonmatch","img/trapezoid.png","椭圆","梯形","ALT1_1","prac_ALT1_1","","","","","","","","","","","",""
"null","<span style='color:GreenYellow; font-size: 70px;'>正确! </span>","null","html-keyboard-response","84","195051","0.0-7.0-0.0-1.0-0.0-1.37","3","3","3","3","3","3","3","3","3","3","4","4","2","4","4","4","4","4","4","4","4","4","4","4","4","4","4","4","4","1","0","1","1","0","0","0","1","0","1","1","0","1","0","0","4","4","4","4","4","5","2","2","2","2","2","689181573102174208","田","610","","","","","","","","","","","","","","","","","","","","","","","","","","","","","","feedback_test","","","","","","","","","","","",""
"775","","f","psychophysics","85","196827","0.0-7.0-0.0-1.0-0.0-0.38","3","3","3","3","3","3","3","3","3","3","4","4","2","4","4","4","4","4","4","4","4","4","4","4","4","4","4","4","4","1","0","1","1","0","0","0","1","0","1","1","0","1","0","0","4","4","4","4","4","5","2","2","2","2","2","689181573102174208","田","610","","","","match","","","","","","","","","","","","","","key","f","16.681132075471808","1280","716","f","true","match","img/pentagon.png","五边","五边","ALT1_1","prac_ALT1_1","","","","","","","","","","","",""
"null","<span style='color:GreenYellow; font-size: 70px;'>正确! </span>","null","html-keyboard-response","86","197328","0.0-7.0-0.0-1.0-0.0-1.38","3","3","3","3","3","3","3","3","3","3","4","4","2","4","4","4","4","4","4","4","4","4","4","4","4","4","4","4","4","1","0","1","1","0","0","0","1","0","1","1","0","1","0","0","4","4","4","4","4","5","2","2","2","2","2","689181573102174208","田","610","","","","","","","","","","","","","","","","","","","","","","","","","","","","","","feedback_test","","","","","","","","","","","",""
"982","","f","psychophysics","87","199311","0.0-7.0-0.0-1.0-0.0-0.39","3","3","3","3","3","3","3","3","3","3","4","4","2","4","4","4","4","4","4","4","4","4","4","4","4","4","4","4","4","1","0","1","1","0","0","0","1","0","1","1","0","1","0","0","4","4","4","4","4","5","2","2","2","2","2","689181573102174208","田","610","","","","match","","","","","","","","","","","","","","key","f","16.67966101694925","1280","716","f","true","match","img/pentagon.png","五边","五边","ALT1_1","prac_ALT1_1","","","","","","","","","","","",""
"null","<span style='color:GreenYellow; font-size: 70px;'>正确! </span>","null","html-keyboard-response","88","199812","0.0-7.0-0.0-1.0-0.0-1.39","3","3","3","3","3","3","3","3","3","3","4","4","2","4","4","4","4","4","4","4","4","4","4","4","4","4","4","4","4","1","0","1","1","0","0","0","1","0","1","1","0","1","0","0","4","4","4","4","4","5","2","2","2","2","2","689181573102174208","田","610","","","","","","","","","","","","","","","","","","","","","","","","","","","","","","feedback_test","","","","","","","","","","","",""
"762","","f","psychophysics","89","201575","0.0-7.0-0.0-1.0-0.0-0.40","3","3","3","3","3","3","3","3","3","3","4","4","2","4","4","4","4","4","4","4","4","4","4","4","4","4","4","4","4","1","0","1","1","0","0","0","1","0","1","1","0","1","0","0","4","4","4","4","4","5","2","2","2","2","2","689181573102174208","田","610","","","","match","","","","","","","","","","","","","","key","f","16.681730769230715","1280","716","f","true","match","img/square.png","方形","方形","ALT1_1","prac_ALT1_1","","","","","","","","","","","",""
"null","<span style='color:GreenYellow; font-size: 70px;'>正确! </span>","null","html-keyboard-response","90","202076","0.0-7.0-0.0-1.0-0.0-1.40","3","3","3","3","3","3","3","3","3","3","4","4","2","4","4","4","4","4","4","4","4","4","4","4","4","4","4","4","4","1","0","1","1","0","0","0","1","0","1","1","0","1","0","0","4","4","4","4","4","5","2","2","2","2","2","689181573102174208","田","610","","","","","","","","","","","","","","","","","","","","","","","","","","","","","","feedback_test","","","","","","","","","","","",""
"814","","j","psychophysics","91","203890","0.0-7.0-0.0-1.0-0.0-0.41","3","3","3","3","3","3","3","3","3","3","4","4","2","4","4","4","4","4","4","4","4","4","4","4","4","4","4","4","4","1","0","1","1","0","0","0","1","0","1","1","0","1","0","0","4","4","4","4","4","5","2","2","2","2","2","689181573102174208","田","610","","","","nonmatch","","","","","","","","","","","","","","key","j","16.671028037383067","1280","716","j","true","nonmatch","img/ellipse.png","梯形","椭圆","ALT1_1","prac_ALT1_1","","","","","","","","","","","",""
"null","<span style='color:GreenYellow; font-size: 70px;'>正确! </span>","null","html-keyboard-response","92","204391","0.0-7.0-0.0-1.0-0.0-1.41","3","3","3","3","3","3","3","3","3","3","4","4","2","4","4","4","4","4","4","4","4","4","4","4","4","4","4","4","4","1","0","1","1","0","0","0","1","0","1","1","0","1","0","0","4","4","4","4","4","5","2","2","2","2","2","689181573102174208","田","610","","","","","","","","","","","","","","","","","","","","","","","","","","","","","","feedback_test","","","","","","","","","","","",""
"934","","j","psychophysics","93","206326","0.0-7.0-0.0-1.0-0.0-0.42","3","3","3","3","3","3","3","3","3","3","4","4","2","4","4","4","4","4","4","4","4","4","4","4","4","4","4","4","4","1","0","1","1","0","0","0","1","0","1","1","0","1","0","0","4","4","4","4","4","5","2","2","2","2","2","689181573102174208","田","610","","","","nonmatch","","","","","","","","","","","","","","key","j","16.682608695652174","1280","716","j","true","nonmatch","img/square.png","椭圆","方形","ALT1_1","prac_ALT1_1","","","","","","","","","","","",""
"null","<span style='color:GreenYellow; font-size: 70px;'>正确! </span>","null","html-keyboard-response","94","206828","0.0-7.0-0.0-1.0-0.0-1.42","3","3","3","3","3","3","3","3","3","3","4","4","2","4","4","4","4","4","4","4","4","4","4","4","4","4","4","4","4","1","0","1","1","0","0","0","1","0","1","1","0","1","0","0","4","4","4","4","4","5","2","2","2","2","2","689181573102174208","田","610","","","","","","","","","","","","","","","","","","","","","","","","","","","","","","feedback_test","","","","","","","","","","","",""
"729","","f","psychophysics","95","208557","0.0-7.0-0.0-1.0-0.0-0.43","3","3","3","3","3","3","3","3","3","3","4","4","2","4","4","4","4","4","4","4","4","4","4","4","4","4","4","4","4","1","0","1","1","0","0","0","1","0","1","1","0","1","0","0","4","4","4","4","4","5","2","2","2","2","2","689181573102174208","田","610","","","","match","","","","","","","","","","","","","","key","f","16.6805825242719","1280","716","f","true","match","img/square.png","方形","方形","ALT1_1","prac_ALT1_1","","","","","","","","","","","",""
"null","<span style='color:GreenYellow; font-size: 70px;'>正确! </span>","null","html-keyboard-response","96","209059","0.0-7.0-0.0-1.0-0.0-1.43","3","3","3","3","3","3","3","3","3","3","4","4","2","4","4","4","4","4","4","4","4","4","4","4","4","4","4","4","4","1","0","1","1","0","0","0","1","0","1","1","0","1","0","0","4","4","4","4","4","5","2","2","2","2","2","689181573102174208","田","610","","","","","","","","","","","","","","","","","","","","","","","","","","","","","","feedback_test","","","","","","","","","","","",""
"844","","j","psychophysics","97","210904","0.0-7.0-0.0-1.0-0.0-0.44","3","3","3","3","3","3","3","3","3","3","4","4","2","4","4","4","4","4","4","4","4","4","4","4","4","4","4","4","4","1","0","1","1","0","0","0","1","0","1","1","0","1","0","0","4","4","4","4","4","5","2","2","2","2","2","689181573102174208","田","610","","","","nonmatch","","","","","","","","","","","","","","key","j","16.679999999999893","1280","716","j","true","nonmatch","img/ellipse.png","五边","椭圆","ALT1_1","prac_ALT1_1","","","","","","","","","","","",""
"null","<span style='color:GreenYellow; font-size: 70px;'>正确! </span>","null","html-keyboard-response","98","211405","0.0-7.0-0.0-1.0-0.0-1.44","3","3","3","3","3","3","3","3","3","3","4","4","2","4","4","4","4","4","4","4","4","4","4","4","4","4","4","4","4","1","0","1","1","0","0","0","1","0","1","1","0","1","0","0","4","4","4","4","4","5","2","2","2","2","2","689181573102174208","田","610","","","","","","","","","","","","","","","","","","","","","","","","","","","","","","feedback_test","","","","","","","","","","","",""
"859","","j","psychophysics","99","213266","0.0-7.0-0.0-1.0-0.0-0.45","3","3","3","3","3","3","3","3","3","3","4","4","2","4","4","4","4","4","4","4","4","4","4","4","4","4","4","4","4","1","0","1","1","0","0","0","1","0","1","1","0","1","0","0","4","4","4","4","4","5","2","2","2","2","2","689181573102174208","田","610","","","","nonmatch","","","","","","","","","","","","","","key","j","16.68000000000016","1280","716","j","true","nonmatch","img/pentagon.png","梯形","五边","ALT1_1","prac_ALT1_1","","","","","","","","","","","",""
"null","<span style='color:GreenYellow; font-size: 70px;'>正确! </span>","null","html-keyboard-response","100","213766","0.0-7.0-0.0-1.0-0.0-1.45","3","3","3","3","3","3","3","3","3","3","4","4","2","4","4","4","4","4","4","4","4","4","4","4","4","4","4","4","4","1","0","1","1","0","0","0","1","0","1","1","0","1","0","0","4","4","4","4","4","5","2","2","2","2","2","689181573102174208","田","610","","","","","","","","","","","","","","","","","","","","","","","","","","","","","","feedback_test","","","","","","","","","","","",""
"921","","j","psychophysics","101","215689","0.0-7.0-0.0-1.0-0.0-0.46","3","3","3","3","3","3","3","3","3","3","4","4","2","4","4","4","4","4","4","4","4","4","4","4","4","4","4","4","4","1","0","1","1","0","0","0","1","0","1","1","0","1","0","0","4","4","4","4","4","5","2","2","2","2","2","689181573102174208","田","610","","","","nonmatch","","","","","","","","","","","","","","key","j","16.680000000000103","1280","716","j","true","nonmatch","img/square.png","梯形","方形","ALT1_1","prac_ALT1_1","","","","","","","","","","","",""
"null","<span style='color:GreenYellow; font-size: 70px;'>正确! </span>","null","html-keyboard-response","102","216189","0.0-7.0-0.0-1.0-0.0-1.46","3","3","3","3","3","3","3","3","3","3","4","4","2","4","4","4","4","4","4","4","4","4","4","4","4","4","4","4","4","1","0","1","1","0","0","0","1","0","1","1","0","1","0","0","4","4","4","4","4","5","2","2","2","2","2","689181573102174208","田","610","","","","","","","","","","","","","","","","","","","","","","","","","","","","","","feedback_test","","","","","","","","","","","",""
"1037","","f","psychophysics","103","218227","0.0-7.0-0.0-1.0-0.0-0.47","3","3","3","3","3","3","3","3","3","3","4","4","2","4","4","4","4","4","4","4","4","4","4","4","4","4","4","4","4","1","0","1","1","0","0","0","1","0","1","1","0","1","0","0","4","4","4","4","4","5","2","2","2","2","2","689181573102174208","田","610","","","","match","","","","","","","","","","","","","","key","f","16.678512396694263","1280","716","f","true","match","img/trapezoid.png","梯形","梯形","ALT1_1","prac_ALT1_1","","","","","","","","","","","",""
"null","<span style='color:GreenYellow; font-size: 70px;'>正确! </span>","null","html-keyboard-response","104","218728","0.0-7.0-0.0-1.0-0.0-1.47","3","3","3","3","3","3","3","3","3","3","4","4","2","4","4","4","4","4","4","4","4","4","4","4","4","4","4","4","4","1","0","1","1","0","0","0","1","0","1","1","0","1","0","0","4","4","4","4","4","5","2","2","2","2","2","689181573102174208","田","610","","","","","","","","","","","","","","","","","","","","","","","","","","","","","","feedback_test","","","","","","","","","","","",""
"4008","<style>.context{color:white; font-size: 35px; line-height:40px}</style>                            <div><p class='context'>您正确回答了94% 的试次。</p><p class='context'>您的平均反应时为840毫秒。</p><p class='context'>恭喜您完成练习。按空格键进入正式实验。</p><p class='footer' style='font-size: 35px; line-height:40px;'>请在进入正式实验之前将您的<span style='color: lightgreen;'>食指</span>放在电脑键盘的相应键位上进行按键。</p>"," ","html-keyboard-response","105","222738","0.0-7.0-0.0-2.0","3","3","3","3","3","3","3","3","3","3","4","4","2","4","4","4","4","4","4","4","4","4","4","4","4","4","4","4","4","1","0","1","1","0","0","0","1","0","1","1","0","1","0","0","4","4","4","4","4","5","2","2","2","2","2","689181573102174208","田","610","","","","","","","","","","","","","","","","","","","","","","","","","","","","","","","","","","","","","","","","","",""
"690","
    <p style='color: white; font-size: 22px'>请您将手指放在按键上，准备进入正式的匹配任务。</p>
    <p> <div style = ""color: green""><按空格键进入下一阶段的匹配任务></div></p>
    "," ","html-keyboard-response","106","223429","0.0-7.0-0.0-3.0","3","3","3","3","3","3","3","3","3","3","4","4","2","4","4","4","4","4","4","4","4","4","4","4","4","4","4","4","4","1","0","1","1","0","0","0","1","0","1","1","0","1","0","0","4","4","4","4","4","5","2","2","2","2","2","689181573102174208","田","610","","","","","","","","","","","","","","","","","","","","","","","","","","","","","","","","","","","","","","","","","",""
"654","","f","psychophysics","107","225085","0.0-7.0-0.0-4.0-0.0-0.0","3","3","3","3","3","3","3","3","3","3","4","4","2","4","4","4","4","4","4","4","4","4","4","4","4","4","4","4","4","1","0","1","1","0","0","0","1","0","1","1","0","1","0","0","4","4","4","4","4","5","2","2","2","2","2","689181573102174208","田","610","","","","match","","","","","","","","","","","","","","key","f","16.68061224489808","1280","716","f","true","match","img/square.png","方形","方形","ALT1","formal_ALT1_1","","","","","","","","","","","",""
"null","<span style='color:GreenYellow; font-size: 70px;'>正确! </span>","null","html-keyboard-response","108","225586","0.0-7.0-0.0-4.0-0.0-1.0","3","3","3","3","3","3","3","3","3","3","4","4","2","4","4","4","4","4","4","4","4","4","4","4","4","4","4","4","4","1","0","1","1","0","0","0","1","0","1","1","0","1","0","0","4","4","4","4","4","5","2","2","2","2","2","689181573102174208","田","610","","","","","","","","","","","","","","","","","","","","","","","","","","","","","","feedback_test","","","","","","","","","","","",""
"727","","j","psychophysics","109","227315","0.0-7.0-0.0-4.0-0.0-0.1","3","3","3","3","3","3","3","3","3","3","4","4","2","4","4","4","4","4","4","4","4","4","4","4","4","4","4","4","4","1","0","1","1","0","0","0","1","0","1","1","0","1","0","0","4","4","4","4","4","5","2","2","2","2","2","689181573102174208","田","610","","","","nonmatch","","","","","","","","","","","","","","key","j","16.6805825242719","1280","716","j","true","nonmatch","img/ellipse.png","梯形","椭圆","ALT1","formal_ALT1_1","","","","","","","","","","","",""
"null","<span style='color:GreenYellow; font-size: 70px;'>正确! </span>","null","html-keyboard-response","110","227816","0.0-7.0-0.0-4.0-0.0-1.1","3","3","3","3","3","3","3","3","3","3","4","4","2","4","4","4","4","4","4","4","4","4","4","4","4","4","4","4","4","1","0","1","1","0","0","0","1","0","1","1","0","1","0","0","4","4","4","4","4","5","2","2","2","2","2","689181573102174208","田","610","","","","","","","","","","","","","","","","","","","","","","","","","","","","","","feedback_test","","","","","","","","","","","",""
"866","","f","psychophysics","111","229682","0.0-7.0-0.0-4.0-0.0-0.2","3","3","3","3","3","3","3","3","3","3","4","4","2","4","4","4","4","4","4","4","4","4","4","4","4","4","4","4","4","1","0","1","1","0","0","0","1","0","1","1","0","1","0","0","4","4","4","4","4","5","2","2","2","2","2","689181573102174208","田","610","","","","match","","","","","","","","","","","","","","key","f","16.680909090909037","1280","716","f","true","match","img/trapezoid.png","梯形","梯形","ALT1","formal_ALT1_1","","","","","","","","","","","",""
"null","<span style='color:GreenYellow; font-size: 70px;'>正确! </span>","null","html-keyboard-response","112","230183","0.0-7.0-0.0-4.0-0.0-1.2","3","3","3","3","3","3","3","3","3","3","4","4","2","4","4","4","4","4","4","4","4","4","4","4","4","4","4","4","4","1","0","1","1","0","0","0","1","0","1","1","0","1","0","0","4","4","4","4","4","5","2","2","2","2","2","689181573102174208","田","610","","","","","","","","","","","","","","","","","","","","","","","","","","","","","","feedback_test","","","","","","","","","","","",""
"989","","j","psychophysics","113","232173","0.0-7.0-0.0-4.0-0.0-0.3","3","3","3","3","3","3","3","3","3","3","4","4","2","4","4","4","4","4","4","4","4","4","4","4","4","4","4","4","4","1","0","1","1","0","0","0","1","0","1","1","0","1","0","0","4","4","4","4","4","5","2","2","2","2","2","689181573102174208","田","610","","","","nonmatch","","","","","","","","","","","","","","key","j","16.680508474576172","1280","716","j","true","nonmatch","img/square.png","梯形","方形","ALT1","formal_ALT1_1","","","","","","","","","","","",""
"null","<span style='color:GreenYellow; font-size: 70px;'>正确! </span>","null","html-keyboard-response","114","232675","0.0-7.0-0.0-4.0-0.0-1.3","3","3","3","3","3","3","3","3","3","3","4","4","2","4","4","4","4","4","4","4","4","4","4","4","4","4","4","4","4","1","0","1","1","0","0","0","1","0","1","1","0","1","0","0","4","4","4","4","4","5","2","2","2","2","2","689181573102174208","田","610","","","","","","","","","","","","","","","","","","","","","","","","","","","","","","feedback_test","","","","","","","","","","","",""
"795","","f","psychophysics","115","234470","0.0-7.0-0.0-4.0-0.0-0.4","3","3","3","3","3","3","3","3","3","3","4","4","2","4","4","4","4","4","4","4","4","4","4","4","4","4","4","4","4","1","0","1","1","0","0","0","1","0","1","1","0","1","0","0","4","4","4","4","4","5","2","2","2","2","2","689181573102174208","田","610","","","","match","","","","","","","","","","","","","","key","f","16.680373831775594","1280","716","f","true","match","img/pentagon.png","五边","五边","ALT1","formal_ALT1_1","","","","","","","","","","","",""
"null","<span style='color:GreenYellow; font-size: 70px;'>正确! </span>","null","html-keyboard-response","116","234970","0.0-7.0-0.0-4.0-0.0-1.4","3","3","3","3","3","3","3","3","3","3","4","4","2","4","4","4","4","4","4","4","4","4","4","4","4","4","4","4","4","1","0","1","1","0","0","0","1","0","1","1","0","1","0","0","4","4","4","4","4","5","2","2","2","2","2","689181573102174208","田","610","","","","","","","","","","","","","","","","","","","","","","","","","","","","","","feedback_test","","","","","","","","","","","",""
"851","","j","psychophysics","117","236822","0.0-7.0-0.0-4.0-0.0-0.5","3","3","3","3","3","3","3","3","3","3","4","4","2","4","4","4","4","4","4","4","4","4","4","4","4","4","4","4","4","1","0","1","1","0","0","0","1","0","1","1","0","1","0","0","4","4","4","4","4","5","2","2","2","2","2","689181573102174208","田","610","","","","nonmatch","","","","","","","","","","","","","","key","j","16.680909090909037","1280","716","j","true","nonmatch","img/pentagon.png","椭圆","五边","ALT1","formal_ALT1_1","","","","","","","","","","","",""
"null","<span style='color:GreenYellow; font-size: 70px;'>正确! </span>","null","html-keyboard-response","118","237324","0.0-7.0-0.0-4.0-0.0-1.5","3","3","3","3","3","3","3","3","3","3","4","4","2","4","4","4","4","4","4","4","4","4","4","4","4","4","4","4","4","1","0","1","1","0","0","0","1","0","1","1","0","1","0","0","4","4","4","4","4","5","2","2","2","2","2","689181573102174208","田","610","","","","","","","","","","","","","","","","","","","","","","","","","","","","","","feedback_test","","","","","","","","","","","",""
"1186","","f","psychophysics","119","239511","0.0-7.0-0.0-4.0-0.0-0.6","3","3","3","3","3","3","3","3","3","3","4","4","2","4","4","4","4","4","4","4","4","4","4","4","4","4","4","4","4","1","0","1","1","0","0","0","1","0","1","1","0","1","0","0","4","4","4","4","4","5","2","2","2","2","2","689181573102174208","田","610","","","","match","","","","","","","","","","","","","","key","f","16.68230769230778","1280","716","f","true","match","img/trapezoid.png","梯形","梯形","ALT1","formal_ALT1_1","","","","","","","","","","","",""
"null","<span style='color:GreenYellow; font-size: 70px;'>正确! </span>","null","html-keyboard-response","120","240012","0.0-7.0-0.0-4.0-0.0-1.6","3","3","3","3","3","3","3","3","3","3","4","4","2","4","4","4","4","4","4","4","4","4","4","4","4","4","4","4","4","1","0","1","1","0","0","0","1","0","1","1","0","1","0","0","4","4","4","4","4","5","2","2","2","2","2","689181573102174208","田","610","","","","","","","","","","","","","","","","","","","","","","","","","","","","","","feedback_test","","","","","","","","","","","",""
"688","","j","psychophysics","121","241703","0.0-7.0-0.0-4.0-0.0-0.7","3","3","3","3","3","3","3","3","3","3","4","4","2","4","4","4","4","4","4","4","4","4","4","4","4","4","4","4","4","1","0","1","1","0","0","0","1","0","1","1","0","1","0","0","4","4","4","4","4","5","2","2","2","2","2","689181573102174208","田","610","","","","nonmatch","","","","","","","","","","","","","","key","j","16.68","1280","716","f","false","match","img/ellipse.png","椭圆","椭圆","ALT1","formal_ALT1_1","","","","","","","","","","","",""
"null","<span style='color:red; font-size: 70px;'>错误! </span>","null","html-keyboard-response","122","242203","0.0-7.0-0.0-4.0-0.0-1.7","3","3","3","3","3","3","3","3","3","3","4","4","2","4","4","4","4","4","4","4","4","4","4","4","4","4","4","4","4","1","0","1","1","0","0","0","1","0","1","1","0","1","0","0","4","4","4","4","4","5","2","2","2","2","2","689181573102174208","田","610","","","","","","","","","","","","","","","","","","","","","","","","","","","","","","feedback_test","","","","","","","","","","","",""
"523","","f","psychophysics","123","243728","0.0-7.0-0.0-4.0-0.0-0.8","3","3","3","3","3","3","3","3","3","3","4","4","2","4","4","4","4","4","4","4","4","4","4","4","4","4","4","4","4","1","0","1","1","0","0","0","1","0","1","1","0","1","0","0","4","4","4","4","4","5","2","2","2","2","2","689181573102174208","田","610","","","","match","","","","","","","","","","","","","","key","f","16.679120879120752","1280","716","f","true","match","img/ellipse.png","椭圆","椭圆","ALT1","formal_ALT1_1","","","","","","","","","","","",""
"null","<span style='color:GreenYellow; font-size: 70px;'>正确! </span>","null","html-keyboard-response","124","244229","0.0-7.0-0.0-4.0-0.0-1.8","3","3","3","3","3","3","3","3","3","3","4","4","2","4","4","4","4","4","4","4","4","4","4","4","4","4","4","4","4","1","0","1","1","0","0","0","1","0","1","1","0","1","0","0","4","4","4","4","4","5","2","2","2","2","2","689181573102174208","田","610","","","","","","","","","","","","","","","","","","","","","","","","","","","","","","feedback_test","","","","","","","","","","","",""
"790","","f","psychophysics","125","246021","0.0-7.0-0.0-4.0-0.0-0.9","3","3","3","3","3","3","3","3","3","3","4","4","2","4","4","4","4","4","4","4","4","4","4","4","4","4","4","4","4","1","0","1","1","0","0","0","1","0","1","1","0","1","0","0","4","4","4","4","4","5","2","2","2","2","2","689181573102174208","田","610","","","","match","","","","","","","","","","","","","","key","f","16.67924528301887","1280","716","j","false","nonmatch","img/ellipse.png","五边","椭圆","ALT1","formal_ALT1_1","","","","","","","","","","","",""
"null","<span style='color:red; font-size: 70px;'>错误! </span>","null","html-keyboard-response","126","246522","0.0-7.0-0.0-4.0-0.0-1.9","3","3","3","3","3","3","3","3","3","3","4","4","2","4","4","4","4","4","4","4","4","4","4","4","4","4","4","4","4","1","0","1","1","0","0","0","1","0","1","1","0","1","0","0","4","4","4","4","4","5","2","2","2","2","2","689181573102174208","田","610","","","","","","","","","","","","","","","","","","","","","","","","","","","","","","feedback_test","","","","","","","","","","","",""
"583","","j","psychophysics","127","248106","0.0-7.0-0.0-4.0-0.0-0.10","3","3","3","3","3","3","3","3","3","3","4","4","2","4","4","4","4","4","4","4","4","4","4","4","4","4","4","4","4","1","0","1","1","0","0","0","1","0","1","1","0","1","0","0","4","4","4","4","4","5","2","2","2","2","2","689181573102174208","田","610","","","","nonmatch","","","","","","","","","","","","","","key","j","16.684042553191674","1280","716","f","false","match","img/ellipse.png","椭圆","椭圆","ALT1","formal_ALT1_1","","","","","","","","","","","",""
"null","<span style='color:red; font-size: 70px;'>错误! </span>","null","html-keyboard-response","128","248607","0.0-7.0-0.0-4.0-0.0-1.10","3","3","3","3","3","3","3","3","3","3","4","4","2","4","4","4","4","4","4","4","4","4","4","4","4","4","4","4","4","1","0","1","1","0","0","0","1","0","1","1","0","1","0","0","4","4","4","4","4","5","2","2","2","2","2","689181573102174208","田","610","","","","","","","","","","","","","","","","","","","","","","","","","","","","","","feedback_test","","","","","","","","","","","",""
"713","","j","psychophysics","129","250321","0.0-7.0-0.0-4.0-0.0-0.11","3","3","3","3","3","3","3","3","3","3","4","4","2","4","4","4","4","4","4","4","4","4","4","4","4","4","4","4","4","1","0","1","1","0","0","0","1","0","1","1","0","1","0","0","4","4","4","4","4","5","2","2","2","2","2","689181573102174208","田","610","","","","nonmatch","","","","","","","","","","","","","","key","j","16.680392156862688","1280","716","j","true","nonmatch","img/trapezoid.png","五边","梯形","ALT1","formal_ALT1_1","","","","","","","","","","","",""
"null","<span style='color:GreenYellow; font-size: 70px;'>正确! </span>","null","html-keyboard-response","130","250822","0.0-7.0-0.0-4.0-0.0-1.11","3","3","3","3","3","3","3","3","3","3","4","4","2","4","4","4","4","4","4","4","4","4","4","4","4","4","4","4","4","1","0","1","1","0","0","0","1","0","1","1","0","1","0","0","4","4","4","4","4","5","2","2","2","2","2","689181573102174208","田","610","","","","","","","","","","","","","","","","","","","","","","","","","","","","","","feedback_test","","","","","","","","","","","",""
"874","","j","psychophysics","131","252697","0.0-7.0-0.0-4.0-0.0-0.12","3","3","3","3","3","3","3","3","3","3","4","4","2","4","4","4","4","4","4","4","4","4","4","4","4","4","4","4","4","1","0","1","1","0","0","0","1","0","1","1","0","1","0","0","4","4","4","4","4","5","2","2","2","2","2","689181573102174208","田","610","","","","nonmatch","","","","","","","","","","","","","","key","j","16.681081081081132","1280","716","j","true","nonmatch","img/pentagon.png","梯形","五边","ALT1","formal_ALT1_1","","","","","","","","","","","",""
"null","<span style='color:GreenYellow; font-size: 70px;'>正确! </span>","null","html-keyboard-response","132","253198","0.0-7.0-0.0-4.0-0.0-1.12","3","3","3","3","3","3","3","3","3","3","4","4","2","4","4","4","4","4","4","4","4","4","4","4","4","4","4","4","4","1","0","1","1","0","0","0","1","0","1","1","0","1","0","0","4","4","4","4","4","5","2","2","2","2","2","689181573102174208","田","610","","","","","","","","","","","","","","","","","","","","","","","","","","","","","","feedback_test","","","","","","","","","","","",""
"943","","j","psychophysics","133","255142","0.0-7.0-0.0-4.0-0.0-0.13","3","3","3","3","3","3","3","3","3","3","4","4","2","4","4","4","4","4","4","4","4","4","4","4","4","4","4","4","4","1","0","1","1","0","0","0","1","0","1","1","0","1","0","0","4","4","4","4","4","5","2","2","2","2","2","689181573102174208","田","610","","","","nonmatch","","","","","","","","","","","","","","key","j","16.681896551724186","1280","716","j","true","nonmatch","img/square.png","椭圆","方形","ALT1","formal_ALT1_1","","","","","","","","","","","",""
"null","<span style='color:GreenYellow; font-size: 70px;'>正确! </span>","null","html-keyboard-response","134","255644","0.0-7.0-0.0-4.0-0.0-1.13","3","3","3","3","3","3","3","3","3","3","4","4","2","4","4","4","4","4","4","4","4","4","4","4","4","4","4","4","4","1","0","1","1","0","0","0","1","0","1","1","0","1","0","0","4","4","4","4","4","5","2","2","2","2","2","689181573102174208","田","610","","","","","","","","","","","","","","","","","","","","","","","","","","","","","","feedback_test","","","","","","","","","","","",""
"968","","j","psychophysics","135","257613","0.0-7.0-0.0-4.0-0.0-0.14","3","3","3","3","3","3","3","3","3","3","4","4","2","4","4","4","4","4","4","4","4","4","4","4","4","4","4","4","4","1","0","1","1","0","0","0","1","0","1","1","0","1","0","0","4","4","4","4","4","5","2","2","2","2","2","689181573102174208","田","610","","","","nonmatch","","","","","","","","","","","","","","key","j","16.68034188034193","1280","716","j","true","nonmatch","img/pentagon.png","方形","五边","ALT1","formal_ALT1_1","","","","","","","","","","","",""
"null","<span style='color:GreenYellow; font-size: 70px;'>正确! </span>","null","html-keyboard-response","136","258113","0.0-7.0-0.0-4.0-0.0-1.14","3","3","3","3","3","3","3","3","3","3","4","4","2","4","4","4","4","4","4","4","4","4","4","4","4","4","4","4","4","1","0","1","1","0","0","0","1","0","1","1","0","1","0","0","4","4","4","4","4","5","2","2","2","2","2","689181573102174208","田","610","","","","","","","","","","","","","","","","","","","","","","","","","","","","","","feedback_test","","","","","","","","","","","",""
"851","","j","psychophysics","137","259966","0.0-7.0-0.0-4.0-0.0-0.15","3","3","3","3","3","3","3","3","3","3","4","4","2","4","4","4","4","4","4","4","4","4","4","4","4","4","4","4","4","1","0","1","1","0","0","0","1","0","1","1","0","1","0","0","4","4","4","4","4","5","2","2","2","2","2","689181573102174208","田","610","","","","nonmatch","","","","","","","","","","","","","","key","j","16.67909090909075","1280","716","j","true","nonmatch","img/trapezoid.png","椭圆","梯形","ALT1","formal_ALT1_1","","","","","","","","","","","",""
"null","<span style='color:GreenYellow; font-size: 70px;'>正确! </span>","null","html-keyboard-response","138","260467","0.0-7.0-0.0-4.0-0.0-1.15","3","3","3","3","3","3","3","3","3","3","4","4","2","4","4","4","4","4","4","4","4","4","4","4","4","4","4","4","4","1","0","1","1","0","0","0","1","0","1","1","0","1","0","0","4","4","4","4","4","5","2","2","2","2","2","689181573102174208","田","610","","","","","","","","","","","","","","","","","","","","","","","","","","","","","","feedback_test","","","","","","","","","","","",""
"841","","j","psychophysics","139","262308","0.0-7.0-0.0-4.0-0.0-0.16","3","3","3","3","3","3","3","3","3","3","4","4","2","4","4","4","4","4","4","4","4","4","4","4","4","4","4","4","4","1","0","1","1","0","0","0","1","0","1","1","0","1","0","0","4","4","4","4","4","5","2","2","2","2","2","689181573102174208","田","610","","","","nonmatch","","","","","","","","","","","","","","key","j","16.682568807339397","1280","716","j","true","nonmatch","img/ellipse.png","方形","椭圆","ALT1","formal_ALT1_1","","","","","","","","","","","",""
"null","<span style='color:GreenYellow; font-size: 70px;'>正确! </span>","null","html-keyboard-response","140","262810","0.0-7.0-0.0-4.0-0.0-1.16","3","3","3","3","3","3","3","3","3","3","4","4","2","4","4","4","4","4","4","4","4","4","4","4","4","4","4","4","4","1","0","1","1","0","0","0","1","0","1","1","0","1","0","0","4","4","4","4","4","5","2","2","2","2","2","689181573102174208","田","610","","","","","","","","","","","","","","","","","","","","","","","","","","","","","","feedback_test","","","","","","","","","","","",""
"939","","f","psychophysics","141","264750","0.0-7.0-0.0-4.0-0.0-0.17","3","3","3","3","3","3","3","3","3","3","4","4","2","4","4","4","4","4","4","4","4","4","4","4","4","4","4","4","4","1","0","1","1","0","0","0","1","0","1","1","0","1","0","0","4","4","4","4","4","5","2","2","2","2","2","689181573102174208","田","610","","","","match","","","","","","","","","","","","","","key","f","16.68086956521729","1280","716","f","true","match","img/pentagon.png","五边","五边","ALT1","formal_ALT1_1","","","","","","","","","","","",""
"null","<span style='color:GreenYellow; font-size: 70px;'>正确! </span>","null","html-keyboard-response","142","265251","0.0-7.0-0.0-4.0-0.0-1.17","3","3","3","3","3","3","3","3","3","3","4","4","2","4","4","4","4","4","4","4","4","4","4","4","4","4","4","4","4","1","0","1","1","0","0","0","1","0","1","1","0","1","0","0","4","4","4","4","4","5","2","2","2","2","2","689181573102174208","田","610","","","","","","","","","","","","","","","","","","","","","","","","","","","","","","feedback_test","","","","","","","","","","","",""
"978","","f","psychophysics","143","267229","0.0-7.0-0.0-4.0-0.0-0.18","3","3","3","3","3","3","3","3","3","3","4","4","2","4","4","4","4","4","4","4","4","4","4","4","4","4","4","4","4","1","0","1","1","0","0","0","1","0","1","1","0","1","0","0","4","4","4","4","4","5","2","2","2","2","2","689181573102174208","田","610","","","","match","","","","","","","","","","","","","","key","f","16.68034188034218","1280","716","f","true","match","img/pentagon.png","五边","五边","ALT1","formal_ALT1_1","","","","","","","","","","","",""
"null","<span style='color:GreenYellow; font-size: 70px;'>正确! </span>","null","html-keyboard-response","144","267730","0.0-7.0-0.0-4.0-0.0-1.18","3","3","3","3","3","3","3","3","3","3","4","4","2","4","4","4","4","4","4","4","4","4","4","4","4","4","4","4","4","1","0","1","1","0","0","0","1","0","1","1","0","1","0","0","4","4","4","4","4","5","2","2","2","2","2","689181573102174208","田","610","","","","","","","","","","","","","","","","","","","","","","","","","","","","","","feedback_test","","","","","","","","","","","",""
"817","","f","psychophysics","145","269548","0.0-7.0-0.0-4.0-0.0-0.19","3","3","3","3","3","3","3","3","3","3","4","4","2","4","4","4","4","4","4","4","4","4","4","4","4","4","4","4","4","1","0","1","1","0","0","0","1","0","1","1","0","1","0","0","4","4","4","4","4","5","2","2","2","2","2","689181573102174208","田","610","","","","match","","","","","","","","","","","","","","key","f","16.676851851851637","1280","716","f","true","match","img/square.png","方形","方形","ALT1","formal_ALT1_1","","","","","","","","","","","",""
"null","<span style='color:GreenYellow; font-size: 70px;'>正确! </span>","null","html-keyboard-response","146","270049","0.0-7.0-0.0-4.0-0.0-1.19","3","3","3","3","3","3","3","3","3","3","4","4","2","4","4","4","4","4","4","4","4","4","4","4","4","4","4","4","4","1","0","1","1","0","0","0","1","0","1","1","0","1","0","0","4","4","4","4","4","5","2","2","2","2","2","689181573102174208","田","610","","","","","","","","","","","","","","","","","","","","","","","","","","","","","","feedback_test","","","","","","","","","","","",""
"397","","j","psychophysics","147","271447","0.0-7.0-0.0-4.0-0.0-0.20","3","3","3","3","3","3","3","3","3","3","4","4","2","4","4","4","4","4","4","4","4","4","4","4","4","4","4","4","4","1","0","1","1","0","0","0","1","0","1","1","0","1","0","0","4","4","4","4","4","5","2","2","2","2","2","689181573102174208","田","610","","","","nonmatch","","","","","","","","","","","","","","key","j","16.680487804877906","1280","716","f","false","match","img/trapezoid.png","梯形","梯形","ALT1","formal_ALT1_1","","","","","","","","","","","",""
"null","<span style='color:red; font-size: 70px;'>错误! </span>","null","html-keyboard-response","148","271948","0.0-7.0-0.0-4.0-0.0-1.20","3","3","3","3","3","3","3","3","3","3","4","4","2","4","4","4","4","4","4","4","4","4","4","4","4","4","4","4","4","1","0","1","1","0","0","0","1","0","1","1","0","1","0","0","4","4","4","4","4","5","2","2","2","2","2","689181573102174208","田","610","","","","","","","","","","","","","","","","","","","","","","","","","","","","","","feedback_test","","","","","","","","","","","",""
"717","","f","psychophysics","149","273666","0.0-7.0-0.0-4.0-0.0-0.21","3","3","3","3","3","3","3","3","3","3","4","4","2","4","4","4","4","4","4","4","4","4","4","4","4","4","4","4","4","1","0","1","1","0","0","0","1","0","1","1","0","1","0","0","4","4","4","4","4","5","2","2","2","2","2","689181573102174208","田","610","","","","match","","","","","","","","","","","","","","key","f","16.681372549019606","1280","716","f","true","match","img/square.png","方形","方形","ALT1","formal_ALT1_1","","","","","","","","","","","",""
"null","<span style='color:GreenYellow; font-size: 70px;'>正确! </span>","null","html-keyboard-response","150","274167","0.0-7.0-0.0-4.0-0.0-1.21","3","3","3","3","3","3","3","3","3","3","4","4","2","4","4","4","4","4","4","4","4","4","4","4","4","4","4","4","4","1","0","1","1","0","0","0","1","0","1","1","0","1","0","0","4","4","4","4","4","5","2","2","2","2","2","689181573102174208","田","610","","","","","","","","","","","","","","","","","","","","","","","","","","","","","","feedback_test","","","","","","","","","","","",""
"456","","f","psychophysics","151","275624","0.0-7.0-0.0-4.0-0.0-0.22","3","3","3","3","3","3","3","3","3","3","4","4","2","4","4","4","4","4","4","4","4","4","4","4","4","4","4","4","4","1","0","1","1","0","0","0","1","0","1","1","0","1","0","0","4","4","4","4","4","5","2","2","2","2","2","689181573102174208","田","610","","","","match","","","","","","","","","","","","","","key","f","16.669767441860195","1280","716","j","false","nonmatch","img/square.png","五边","方形","ALT1","formal_ALT1_1","","","","","","","","","","","",""
"null","<span style='color:red; font-size: 70px;'>错误! </span>","null","html-keyboard-response","152","276125","0.0-7.0-0.0-4.0-0.0-1.22","3","3","3","3","3","3","3","3","3","3","4","4","2","4","4","4","4","4","4","4","4","4","4","4","4","4","4","4","4","1","0","1","1","0","0","0","1","0","1","1","0","1","0","0","4","4","4","4","4","5","2","2","2","2","2","689181573102174208","田","610","","","","","","","","","","","","","","","","","","","","","","","","","","","","","","feedback_test","","","","","","","","","","","",""
"799","","j","psychophysics","153","277925","0.0-7.0-0.0-4.0-0.0-0.23","3","3","3","3","3","3","3","3","3","3","4","4","2","4","4","4","4","4","4","4","4","4","4","4","4","4","4","4","4","1","0","1","1","0","0","0","1","0","1","1","0","1","0","0","4","4","4","4","4","5","2","2","2","2","2","689181573102174208","田","610","","","","nonmatch","","","","","","","","","","","","","","key","j","16.680373831775594","1280","716","j","true","nonmatch","img/trapezoid.png","方形","梯形","ALT1","formal_ALT1_1","","","","","","","","","","","",""
"null","<span style='color:GreenYellow; font-size: 70px;'>正确! </span>","null","html-keyboard-response","154","278427","0.0-7.0-0.0-4.0-0.0-1.23","3","3","3","3","3","3","3","3","3","3","4","4","2","4","4","4","4","4","4","4","4","4","4","4","4","4","4","4","4","1","0","1","1","0","0","0","1","0","1","1","0","1","0","0","4","4","4","4","4","5","2","2","2","2","2","689181573102174208","田","610","","","","","","","","","","","","","","","","","","","","","","","","","","","","","","feedback_test","","","","","","","","","","","",""
"313","","f","psychophysics","155","279741","0.0-7.0-0.0-4.0-0.0-0.24","3","3","3","3","3","3","3","3","3","3","4","4","2","4","4","4","4","4","4","4","4","4","4","4","4","4","4","4","4","1","0","1","1","0","0","0","1","0","1","1","0","1","0","0","4","4","4","4","4","5","2","2","2","2","2","689181573102174208","田","610","","","","match","","","","","","","","","","","","","","key","f","16.67692307692293","1280","716","f","true","match","img/trapezoid.png","梯形","梯形","ALT1","formal_ALT1_1","","","","","","","","","","","",""
"null","<span style='color:GreenYellow; font-size: 70px;'>正确! </span>","null","html-keyboard-response","156","280241","0.0-7.0-0.0-4.0-0.0-1.24","3","3","3","3","3","3","3","3","3","3","4","4","2","4","4","4","4","4","4","4","4","4","4","4","4","4","4","4","4","1","0","1","1","0","0","0","1","0","1","1","0","1","0","0","4","4","4","4","4","5","2","2","2","2","2","689181573102174208","田","610","","","","","","","","","","","","","","","","","","","","","","","","","","","","","","feedback_test","","","","","","","","","","","",""
"568","","f","psychophysics","157","281811","0.0-7.0-0.0-4.0-0.0-0.25","3","3","3","3","3","3","3","3","3","3","4","4","2","4","4","4","4","4","4","4","4","4","4","4","4","4","4","4","4","1","0","1","1","0","0","0","1","0","1","1","0","1","0","0","4","4","4","4","4","5","2","2","2","2","2","689181573102174208","田","610","","","","match","","","","","","","","","","","","","","key","f","16.682795698924732","1280","716","j","false","nonmatch","img/ellipse.png","五边","椭圆","ALT1","formal_ALT1_1","","","","","","","","","","","",""
"null","<span style='color:red; font-size: 70px;'>错误! </span>","null","html-keyboard-response","158","282312","0.0-7.0-0.0-4.0-0.0-1.25","3","3","3","3","3","3","3","3","3","3","4","4","2","4","4","4","4","4","4","4","4","4","4","4","4","4","4","4","4","1","0","1","1","0","0","0","1","0","1","1","0","1","0","0","4","4","4","4","4","5","2","2","2","2","2","689181573102174208","田","610","","","","","","","","","","","","","","","","","","","","","","","","","","","","","","feedback_test","","","","","","","","","","","",""
"585","","j","psychophysics","159","283900","0.0-7.0-0.0-4.0-0.0-0.26","3","3","3","3","3","3","3","3","3","3","4","4","2","4","4","4","4","4","4","4","4","4","4","4","4","4","4","4","4","1","0","1","1","0","0","0","1","0","1","1","0","1","0","0","4","4","4","4","4","5","2","2","2","2","2","689181573102174208","田","610","","","","nonmatch","","","","","","","","","","","","","","key","j","16.680851063829788","1280","716","f","false","match","img/ellipse.png","椭圆","椭圆","ALT1","formal_ALT1_1","","","","","","","","","","","",""
"null","<span style='color:red; font-size: 70px;'>错误! </span>","null","html-keyboard-response","160","284401","0.0-7.0-0.0-4.0-0.0-1.26","3","3","3","3","3","3","3","3","3","3","4","4","2","4","4","4","4","4","4","4","4","4","4","4","4","4","4","4","4","1","0","1","1","0","0","0","1","0","1","1","0","1","0","0","4","4","4","4","4","5","2","2","2","2","2","689181573102174208","田","610","","","","","","","","","","","","","","","","","","","","","","","","","","","","","","feedback_test","","","","","","","","","","","",""
"756","","j","psychophysics","161","286158","0.0-7.0-0.0-4.0-0.0-0.27","3","3","3","3","3","3","3","3","3","3","4","4","2","4","4","4","4","4","4","4","4","4","4","4","4","4","4","4","4","1","0","1","1","0","0","0","1","0","1","1","0","1","0","0","4","4","4","4","4","5","2","2","2","2","2","689181573102174208","田","610","","","","nonmatch","","","","","","","","","","","","","","key","j","16.67884615384649","1280","716","j","true","nonmatch","img/ellipse.png","方形","椭圆","ALT1","formal_ALT1_1","","","","","","","","","","","",""
"null","<span style='color:GreenYellow; font-size: 70px;'>正确! </span>","null","html-keyboard-response","162","286659","0.0-7.0-0.0-4.0-0.0-1.27","3","3","3","3","3","3","3","3","3","3","4","4","2","4","4","4","4","4","4","4","4","4","4","4","4","4","4","4","4","1","0","1","1","0","0","0","1","0","1","1","0","1","0","0","4","4","4","4","4","5","2","2","2","2","2","689181573102174208","田","610","","","","","","","","","","","","","","","","","","","","","","","","","","","","","","feedback_test","","","","","","","","","","","",""
"833","","f","psychophysics","163","288493","0.0-7.0-0.0-4.0-0.0-0.28","3","3","3","3","3","3","3","3","3","3","4","4","2","4","4","4","4","4","4","4","4","4","4","4","4","4","4","4","4","1","0","1","1","0","0","0","1","0","1","1","0","1","0","0","4","4","4","4","4","5","2","2","2","2","2","689181573102174208","田","610","","","","match","","","","","","","","","","","","","","key","f","16.680733944954234","1280","716","f","true","match","img/pentagon.png","五边","五边","ALT1","formal_ALT1_1","","","","","","","","","","","",""
"null","<span style='color:GreenYellow; font-size: 70px;'>正确! </span>","null","html-keyboard-response","164","288994","0.0-7.0-0.0-4.0-0.0-1.28","3","3","3","3","3","3","3","3","3","3","4","4","2","4","4","4","4","4","4","4","4","4","4","4","4","4","4","4","4","1","0","1","1","0","0","0","1","0","1","1","0","1","0","0","4","4","4","4","4","5","2","2","2","2","2","689181573102174208","田","610","","","","","","","","","","","","","","","","","","","","","","","","","","","","","","feedback_test","","","","","","","","","","","",""
"828","","j","psychophysics","165","290823","0.0-7.0-0.0-4.0-0.0-0.29","3","3","3","3","3","3","3","3","3","3","4","4","2","4","4","4","4","4","4","4","4","4","4","4","4","4","4","4","4","1","0","1","1","0","0","0","1","0","1","1","0","1","0","0","4","4","4","4","4","5","2","2","2","2","2","689181573102174208","田","610","","","","nonmatch","","","","","","","","","","","","","","key","j","16.679816513761253","1280","716","j","true","nonmatch","img/square.png","五边","方形","ALT1","formal_ALT1_1","","","","","","","","","","","",""
"null","<span style='color:GreenYellow; font-size: 70px;'>正确! </span>","null","html-keyboard-response","166","291324","0.0-7.0-0.0-4.0-0.0-1.29","3","3","3","3","3","3","3","3","3","3","4","4","2","4","4","4","4","4","4","4","4","4","4","4","4","4","4","4","4","1","0","1","1","0","0","0","1","0","1","1","0","1","0","0","4","4","4","4","4","5","2","2","2","2","2","689181573102174208","田","610","","","","","","","","","","","","","","","","","","","","","","","","","","","","","","feedback_test","","","","","","","","","","","",""
"774","","f","psychophysics","167","293100","0.0-7.0-0.0-4.0-0.0-0.30","3","3","3","3","3","3","3","3","3","3","4","4","2","4","4","4","4","4","4","4","4","4","4","4","4","4","4","4","4","1","0","1","1","0","0","0","1","0","1","1","0","1","0","0","4","4","4","4","4","5","2","2","2","2","2","689181573102174208","田","610","","","","match","","","","","","","","","","","","","","key","f","16.68095238095238","1280","716","f","true","match","img/ellipse.png","椭圆","椭圆","ALT1","formal_ALT1_1","","","","","","","","","","","",""
"null","<span style='color:GreenYellow; font-size: 70px;'>正确! </span>","null","html-keyboard-response","168","293601","0.0-7.0-0.0-4.0-0.0-1.30","3","3","3","3","3","3","3","3","3","3","4","4","2","4","4","4","4","4","4","4","4","4","4","4","4","4","4","4","4","1","0","1","1","0","0","0","1","0","1","1","0","1","0","0","4","4","4","4","4","5","2","2","2","2","2","689181573102174208","田","610","","","","","","","","","","","","","","","","","","","","","","","","","","","","","","feedback_test","","","","","","","","","","","",""
"839","","j","psychophysics","169","295441","0.0-7.0-0.0-4.0-0.0-0.31","3","3","3","3","3","3","3","3","3","3","4","4","2","4","4","4","4","4","4","4","4","4","4","4","4","4","4","4","4","1","0","1","1","0","0","0","1","0","1","1","0","1","0","0","4","4","4","4","4","5","2","2","2","2","2","689181573102174208","田","610","","","","nonmatch","","","","","","","","","","","","","","key","j","16.680733944954234","1280","716","j","true","nonmatch","img/trapezoid.png","椭圆","梯形","ALT1","formal_ALT1_1","","","","","","","","","","","",""
"null","<span style='color:GreenYellow; font-size: 70px;'>正确! </span>","null","html-keyboard-response","170","295942","0.0-7.0-0.0-4.0-0.0-1.31","3","3","3","3","3","3","3","3","3","3","4","4","2","4","4","4","4","4","4","4","4","4","4","4","4","4","4","4","4","1","0","1","1","0","0","0","1","0","1","1","0","1","0","0","4","4","4","4","4","5","2","2","2","2","2","689181573102174208","田","610","","","","","","","","","","","","","","","","","","","","","","","","","","","","","","feedback_test","","","","","","","","","","","",""
"686","","j","psychophysics","171","297639","0.0-7.0-0.0-4.0-0.0-0.32","3","3","3","3","3","3","3","3","3","3","4","4","2","4","4","4","4","4","4","4","4","4","4","4","4","4","4","4","4","1","0","1","1","0","0","0","1","0","1","1","0","1","0","0","4","4","4","4","4","5","2","2","2","2","2","689181573102174208","田","610","","","","nonmatch","","","","","","","","","","","","","","key","j","16.680198019802095","1280","716","f","false","match","img/pentagon.png","五边","五边","ALT1","formal_ALT1_1","","","","","","","","","","","",""
"null","<span style='color:red; font-size: 70px;'>错误! </span>","null","html-keyboard-response","172","298140","0.0-7.0-0.0-4.0-0.0-1.32","3","3","3","3","3","3","3","3","3","3","4","4","2","4","4","4","4","4","4","4","4","4","4","4","4","4","4","4","4","1","0","1","1","0","0","0","1","0","1","1","0","1","0","0","4","4","4","4","4","5","2","2","2","2","2","689181573102174208","田","610","","","","","","","","","","","","","","","","","","","","","","","","","","","","","","feedback_test","","","","","","","","","","","",""
"796","","f","psychophysics","173","299938","0.0-7.0-0.0-4.0-0.0-0.33","3","3","3","3","3","3","3","3","3","3","4","4","2","4","4","4","4","4","4","4","4","4","4","4","4","4","4","4","4","1","0","1","1","0","0","0","1","0","1","1","0","1","0","0","4","4","4","4","4","5","2","2","2","2","2","689181573102174208","田","610","","","","match","","","","","","","","","","","","","","key","f","16.681132075471808","1280","716","f","true","match","img/square.png","方形","方形","ALT1","formal_ALT1_1","","","","","","","","","","","",""
"null","<span style='color:GreenYellow; font-size: 70px;'>正确! </span>","null","html-keyboard-response","174","300439","0.0-7.0-0.0-4.0-0.0-1.33","3","3","3","3","3","3","3","3","3","3","4","4","2","4","4","4","4","4","4","4","4","4","4","4","4","4","4","4","4","1","0","1","1","0","0","0","1","0","1","1","0","1","0","0","4","4","4","4","4","5","2","2","2","2","2","689181573102174208","田","610","","","","","","","","","","","","","","","","","","","","","","","","","","","","","","feedback_test","","","","","","","","","","","",""
"981","","j","psychophysics","175","302421","0.0-7.0-0.0-4.0-0.0-0.34","3","3","3","3","3","3","3","3","3","3","4","4","2","4","4","4","4","4","4","4","4","4","4","4","4","4","4","4","4","1","0","1","1","0","0","0","1","0","1","1","0","1","0","0","4","4","4","4","4","5","2","2","2","2","2","689181573102174208","田","610","","","","nonmatch","","","","","","","","","","","","","","key","j","16.675213675213676","1280","716","j","true","nonmatch","img/pentagon.png","方形","五边","ALT1","formal_ALT1_1","","","","","","","","","","","",""
"null","<span style='color:GreenYellow; font-size: 70px;'>正确! </span>","null","html-keyboard-response","176","302922","0.0-7.0-0.0-4.0-0.0-1.34","3","3","3","3","3","3","3","3","3","3","4","4","2","4","4","4","4","4","4","4","4","4","4","4","4","4","4","4","4","1","0","1","1","0","0","0","1","0","1","1","0","1","0","0","4","4","4","4","4","5","2","2","2","2","2","689181573102174208","田","610","","","","","","","","","","","","","","","","","","","","","","","","","","","","","","feedback_test","","","","","","","","","","","",""
"898","","j","psychophysics","177","304821","0.0-7.0-0.0-4.0-0.0-0.35","3","3","3","3","3","3","3","3","3","3","4","4","2","4","4","4","4","4","4","4","4","4","4","4","4","4","4","4","4","1","0","1","1","0","0","0","1","0","1","1","0","1","0","0","4","4","4","4","4","5","2","2","2","2","2","689181573102174208","田","610","","","","nonmatch","","","","","","","","","","","","","","key","j","16.680530973451017","1280","716","j","true","nonmatch","img/square.png","梯形","方形","ALT1","formal_ALT1_1","","","","","","","","","","","",""
"null","<span style='color:GreenYellow; font-size: 70px;'>正确! </span>","null","html-keyboard-response","178","305322","0.0-7.0-0.0-4.0-0.0-1.35","3","3","3","3","3","3","3","3","3","3","4","4","2","4","4","4","4","4","4","4","4","4","4","4","4","4","4","4","4","1","0","1","1","0","0","0","1","0","1","1","0","1","0","0","4","4","4","4","4","5","2","2","2","2","2","689181573102174208","田","610","","","","","","","","","","","","","","","","","","","","","","","","","","","","","","feedback_test","","","","","","","","","","","",""
"778","","f","psychophysics","179","307101","0.0-7.0-0.0-4.0-0.0-0.36","3","3","3","3","3","3","3","3","3","3","4","4","2","4","4","4","4","4","4","4","4","4","4","4","4","4","4","4","4","1","0","1","1","0","0","0","1","0","1","1","0","1","0","0","4","4","4","4","4","5","2","2","2","2","2","689181573102174208","田","610","","","","match","","","","","","","","","","","","","","key","f","16.683018867924748","1280","716","f","true","match","img/ellipse.png","椭圆","椭圆","ALT1","formal_ALT1_1","","","","","","","","","","","",""
"null","<span style='color:GreenYellow; font-size: 70px;'>正确! </span>","null","html-keyboard-response","180","307602","0.0-7.0-0.0-4.0-0.0-1.36","3","3","3","3","3","3","3","3","3","3","4","4","2","4","4","4","4","4","4","4","4","4","4","4","4","4","4","4","4","1","0","1","1","0","0","0","1","0","1","1","0","1","0","0","4","4","4","4","4","5","2","2","2","2","2","689181573102174208","田","610","","","","","","","","","","","","","","","","","","","","","","","","","","","","","","feedback_test","","","","","","","","","","","",""
"815","","j","psychophysics","181","309417","0.0-7.0-0.0-4.0-0.0-0.37","3","3","3","3","3","3","3","3","3","3","4","4","2","4","4","4","4","4","4","4","4","4","4","4","4","4","4","4","4","1","0","1","1","0","0","0","1","0","1","1","0","1","0","0","4","4","4","4","4","5","2","2","2","2","2","689181573102174208","田","610","","","","nonmatch","","","","","","","","","","","","","","key","j","16.680555555555557","1280","716","j","true","nonmatch","img/pentagon.png","椭圆","五边","ALT1","formal_ALT1_1","","","","","","","","","","","",""
