"rt","stimulus","response","trial_type","trial_index","time_elapsed","internal_node_id","ses_1","ses_2","ses_3","ses_4","ses_5","ses_6","ses_7","ses_8","ses_9","ses_10","coreself_1","coreself_2","coreself_3","coreself_4","coreself_5","coreself_6","coreself_7","coreself_8","coreself_9","coreself_10","SGPS_1","SGPS_2","SGPS_3","SGPS_4","SGPS_5","SGPS_6","SGPS_7","SGPS_8","SGPS_9","NPI1","NPI2","NPI3","NPI4","NPI5","NPI6","NPI7","NPI8","NPI9","NPI10","NPI11","NPI12","NPI13","NPI14","NPI15","hsns_1","hsns_2","hsns_3","hsns_4","hsns_5","trap1","hsns_6","hsns_7","hsns_8","hsns_9","hsns_10","subj_idx","friend_name","ParticipantID","value","success","user_agent","responses","item_order","radio_event_ids","radio_event_times","key_event_times","mouse_event_times","straightlining","zigzagging","honeypot","timeout","failed_images","failed_audio","failed_video","view_history","response_type","key_press","avg_frame_time","center_x","center_y","correct_response","correct","identity","Image","word","condition","task_id","screen_id","time_stamp","version_attrib2","version_target2","IAT","RT","varname","summary","version_attrib","version_target","question_order","correct_answer","trap1_item"
"4223","
   <p><div style = ""color: white;font-size:25px;"">您好，欢迎参加本次实验。</div> </p>
   <p><div style = ""color: white;font-size:25px;"">为充分保障您的权利，请确保您已经知晓并同意《参与实验同意书》以及《数据公开知情同意书》。</div></p>
   <p><div style = ""color: white;font-size:25px;"">如果您未见过上述内容，请咨询实验员。</div></p>
   <p><div style = ""color: white;font-size:25px;"">如果您选择继续实验，则表示您已经清楚两份知情同意书的内容并同意。</div></p>
   <p><div style = ""color: pink;font-size:30px;"">请确保您记得day0的实验编号，您将在本次实验输入该编号，若您忘记，请咨询实验员后作答。</div></p>
   <p><div style = ""color: lightblue;font-size:25px;"">请您尽可能认真地作答，我们将依据您在各问卷和按键任务中的作答质量发放报酬。</div></p>
   <p> <div style = ""color: green;font-size:25px;""><按空格键至下页></div> </p>
   "," ","html-keyboard-response","0","4224","0.0-0.0","3","3","3","3","3","3","3","3","3","3","4","4","4","4","4","4","4","4","4","4","2","2","2","2","2","2","2","2","2","0","0","0","0","0","1","0","0","0","1","0","0","0","0","0","4","2","2","2","2","3","2","4","4","4","2","650407062907387904","赵","637","","","","","","","","","","","","","","","","","","","","","","","","","","","","","","","","","","","","","","","","","",""
"","","","call-function","1","4225","0.0-1.0-0.0","3","3","3","3","3","3","3","3","3","3","4","4","4","4","4","4","4","4","4","4","2","2","2","2","2","2","2","2","2","0","0","0","0","0","1","0","0","0","1","0","0","0","0","0","4","2","2","2","2","3","2","4","4","4","2","650407062907387904","赵","637","","","","","","","","","","","","","","","","","","","","","","","","","","","","","","","","","","","","","","","","","",""
"45949","","{""friend_name"":""赵"",""ParticipantID"":""637""}","survey-html-form","2","50175","0.0-1.0-1.0","3","3","3","3","3","3","3","3","3","3","4","4","4","4","4","4","4","4","4","4","2","2","2","2","2","2","2","2","2","0","0","0","0","0","1","0","0","0","1","0","0","0","0","0","4","2","2","2","2","3","2","4","4","4","2","650407062907387904","赵","637","","","","","","","","","","","","","","","","","","","","","","","","","","","","","","","","","","","","","","","","","",""
"","","","fullscreen","3","51972","0.0-2.0","3","3","3","3","3","3","3","3","3","3","4","4","4","4","4","4","4","4","4","4","2","2","2","2","2","2","2","2","2","0","0","0","0","0","1","0","0","0","1","0","0","0","0","0","4","2","2","2","2","3","2","4","4","4","2","650407062907387904","赵","637","","true","{}","","","","","","","","","","","","","","","","","","","","","","","","","","","","","","","","","","","","","","",""
"20409.5","","{""Q01"":""3"",""Q02"":""3"",""Q03"":""3"",""Q04"":""3"",""Q05"":""3"",""Q06"":""3"",""Q07"":""3"",""Q08"":""3"",""Q09"":""3"",""Q10"":""3""}","survey-template","4","72383","0.0-3.0","3","3","3","3","3","3","3","3","3","3","4","4","4","4","4","4","4","4","4","4","2","2","2","2","2","2","2","2","2","0","0","0","0","0","1","0","0","0","1","0","0","0","0","0","4","2","2","2","2","3","2","4","4","4","2","650407062907387904","赵","637","","","","{""Q01"":""3"",""Q02"":""3"",""Q03"":""3"",""Q04"":""3"",""Q05"":""3"",""Q06"":""3"",""Q07"":""3"",""Q08"":""3"",""Q09"":""3"",""Q10"":""3""}","[0,1,2,3,4,5,6,7,8,9]","[""Q01"",""Q02"",""Q03"",""Q04"",""Q05"",""Q06"",""Q07"",""Q08"",""Q09"",""Q10""]","[2881.0999999046326,3608.7999999523163,5352.799999952316,7440.899999856949,12361.299999952316,14665.399999856949,16584.89999985695,17673.200000047684,18393.099999904633,18993.299999952316]","[]","[2881.0999999046326,3608.7999999523163,5352.799999952316,7440.899999856949,12361.299999952316,14665.399999856949,16009.099999904633,16584.89999985695,17673.200000047684,18393.099999904633,18993.299999952316,20408.89999985695]","0.5","0.5555555555555556","0","","","","","","","","","","","","","","","","","","","","","","","","","","","","","",""
"19205.299999952316","","{""Q01"":""4"",""Q02"":""4"",""Q03"":""4"",""Q04"":""4"",""Q05"":""4"",""Q06"":""4"",""Q07"":""4"",""Q08"":""4"",""Q09"":""4"",""Q10"":""4""}","survey-template","5","91591","0.0-4.0","3","3","3","3","3","3","3","3","3","3","4","4","4","4","4","4","4","4","4","4","2","2","2","2","2","2","2","2","2","0","0","0","0","0","1","0","0","0","1","0","0","0","0","0","4","2","2","2","2","3","2","4","4","4","2","650407062907387904","赵","637","","","","{""Q01"":""4"",""Q02"":""4"",""Q03"":""4"",""Q04"":""4"",""Q05"":""4"",""Q06"":""4"",""Q07"":""4"",""Q08"":""4"",""Q09"":""4"",""Q10"":""4""}","[0,1,2,3,4,5,6,7,8,9]","[""Q01"",""Q02"",""Q03"",""Q04"",""Q05"",""Q06"",""Q07"",""Q08"",""Q09"",""Q10""]","[2932.7999999523163,5252.699999809265,7884.699999809265,9556.399999856949,10908.5,11980,13020.599999904633,14236.5,16652.699999809265,17596.5]","[]","[2020,2932.7999999523163,3836.5,5252.699999809265,7884.699999809265,9556.399999856949,10908.5,11980,13020.599999904633,14236.5,15956.599999904633,16652.699999809265,17596.5,19204.599999904633]","0.6","0","0","","","","","","","","","","","","","","","","","","","","","","","","","","","","","",""
"","","","preload","6","93417","0.0-5.0","3","3","3","3","3","3","3","3","3","3","4","4","4","4","4","4","4","4","4","4","2","2","2","2","2","2","2","2","2","0","0","0","0","0","1","0","0","0","1","0","0","0","0","0","4","2","2","2","2","3","2","4","4","4","2","650407062907387904","赵","637","","true","","","","","","","","","","","false","[]","[]","[]","","","","","","","","","","","","","","","","","","","","","","","","","",""
"24685","","","instructions","7","118103","0.0-6.0","3","3","3","3","3","3","3","3","3","3","4","4","4","4","4","4","4","4","4","4","2","2","2","2","2","2","2","2","2","0","0","0","0","0","1","0","0","0","1","0","0","0","0","0","4","2","2","2","2","3","2","4","4","4","2","650407062907387904","赵","637","","","","","","","","","","","","","","","","","[{""page_index"":0,""viewing_time"":24685}]","","","","","","","","","","","","","","","","","","","","","","","","",""
"16838","","","instructions","8","134942","0.0-7.0-1.0-0.0","3","3","3","3","3","3","3","3","3","3","4","4","4","4","4","4","4","4","4","4","2","2","2","2","2","2","2","2","2","0","0","0","0","0","1","0","0","0","1","0","0","0","0","0","4","2","2","2","2","3","2","4","4","4","2","650407062907387904","赵","637","","","","","","","","","","","","","","","","","[{""page_index"":0,""viewing_time"":14390},{""page_index"":1,""viewing_time"":1248},{""page_index"":2,""viewing_time"":1200}]","","","","","","","","","","","","","","","","","","","","","","","","",""
"847","","j","psychophysics","9","136791","0.0-7.0-1.0-1.0-0.0-0.0","3","3","3","3","3","3","3","3","3","3","4","4","4","4","4","4","4","4","4","4","2","2","2","2","2","2","2","2","2","0","0","0","0","0","1","0","0","0","1","0","0","0","0","0","4","2","2","2","2","3","2","4","4","4","2","650407062907387904","赵","637","","","","match","","","","","","","","","","","","","","key","j","16.680909090909037","1280","716","j","true","match","img/trapezoid.png","梯形","梯形","ALT1_2","prac_ALT1_2","","","","","","","","","","","",""
"null","<span style='color:GreenYellow; font-size: 70px;'>正确! </span>","null","html-keyboard-response","10","137292","0.0-7.0-1.0-1.0-0.0-1.0","3","3","3","3","3","3","3","3","3","3","4","4","4","4","4","4","4","4","4","4","2","2","2","2","2","2","2","2","2","0","0","0","0","0","1","0","0","0","1","0","0","0","0","0","4","2","2","2","2","3","2","4","4","4","2","650407062907387904","赵","637","","","","","","","","","","","","","","","","","","","","","","","","","","","","","","feedback_test","","","","","","","","","","","",""
"842","","j","psychophysics","11","139135","0.0-7.0-1.0-1.0-0.0-0.1","3","3","3","3","3","3","3","3","3","3","4","4","4","4","4","4","4","4","4","4","2","2","2","2","2","2","2","2","2","0","0","0","0","0","1","0","0","0","1","0","0","0","0","0","4","2","2","2","2","3","2","4","4","4","2","650407062907387904","赵","637","","","","match","","","","","","","","","","","","","","key","j","16.680733944954234","1280","716","j","true","match","img/hexagon.png","六边","六边","ALT1_2","prac_ALT1_2","","","","","","","","","","","",""
"null","<span style='color:GreenYellow; font-size: 70px;'>正确! </span>","null","html-keyboard-response","12","139637","0.0-7.0-1.0-1.0-0.0-1.1","3","3","3","3","3","3","3","3","3","3","4","4","4","4","4","4","4","4","4","4","2","2","2","2","2","2","2","2","2","0","0","0","0","0","1","0","0","0","1","0","0","0","0","0","4","2","2","2","2","3","2","4","4","4","2","650407062907387904","赵","637","","","","","","","","","","","","","","","","","","","","","","","","","","","","","","feedback_test","","","","","","","","","","","",""
"978","","f","psychophysics","13","141615","0.0-7.0-1.0-1.0-0.0-0.2","3","3","3","3","3","3","3","3","3","3","4","4","4","4","4","4","4","4","4","4","2","2","2","2","2","2","2","2","2","0","0","0","0","0","1","0","0","0","1","0","0","0","0","0","4","2","2","2","2","3","2","4","4","4","2","650407062907387904","赵","637","","","","nonmatch","","","","","","","","","","","","","","key","f","16.683050847457675","1280","716","f","true","nonmatch","img/square.png","六边","方形","ALT1_2","prac_ALT1_2","","","","","","","","","","","",""
"null","<span style='color:GreenYellow; font-size: 70px;'>正确! </span>","null","html-keyboard-response","14","142126","0.0-7.0-1.0-1.0-0.0-1.2","3","3","3","3","3","3","3","3","3","3","4","4","4","4","4","4","4","4","4","4","2","2","2","2","2","2","2","2","2","0","0","0","0","0","1","0","0","0","1","0","0","0","0","0","4","2","2","2","2","3","2","4","4","4","2","650407062907387904","赵","637","","","","","","","","","","","","","","","","","","","","","","","","","","","","","","feedback_test","","","","","","","","","","","",""
"1007","","j","psychophysics","15","144135","0.0-7.0-1.0-1.0-0.0-0.3","3","3","3","3","3","3","3","3","3","3","4","4","4","4","4","4","4","4","4","4","2","2","2","2","2","2","2","2","2","0","0","0","0","0","1","0","0","0","1","0","0","0","0","0","4","2","2","2","2","3","2","4","4","4","2","650407062907387904","赵","637","","","","match","","","","","","","","","","","","","","key","j","16.67983193277306","1280","716","f","false","nonmatch","img/circle.png","方形","圆形","ALT1_2","prac_ALT1_2","","","","","","","","","","","",""
"null","<span style='color:red; font-size: 70px;'>错误! </span>","null","html-keyboard-response","16","144636","0.0-7.0-1.0-1.0-0.0-1.3","3","3","3","3","3","3","3","3","3","3","4","4","4","4","4","4","4","4","4","4","2","2","2","2","2","2","2","2","2","0","0","0","0","0","1","0","0","0","1","0","0","0","0","0","4","2","2","2","2","3","2","4","4","4","2","650407062907387904","赵","637","","","","","","","","","","","","","","","","","","","","","","","","","","","","","","feedback_test","","","","","","","","","","","",""
"1017","","j","psychophysics","17","146655","0.0-7.0-1.0-1.0-0.0-0.4","3","3","3","3","3","3","3","3","3","3","4","4","4","4","4","4","4","4","4","4","2","2","2","2","2","2","2","2","2","0","0","0","0","0","1","0","0","0","1","0","0","0","0","0","4","2","2","2","2","3","2","4","4","4","2","650407062907387904","赵","637","","","","match","","","","","","","","","","","","","","key","j","16.680833333333187","1280","716","j","true","match","img/trapezoid.png","梯形","梯形","ALT1_2","prac_ALT1_2","","","","","","","","","","","",""
"null","<span style='color:GreenYellow; font-size: 70px;'>正确! </span>","null","html-keyboard-response","18","147156","0.0-7.0-1.0-1.0-0.0-1.4","3","3","3","3","3","3","3","3","3","3","4","4","4","4","4","4","4","4","4","4","2","2","2","2","2","2","2","2","2","0","0","0","0","0","1","0","0","0","1","0","0","0","0","0","4","2","2","2","2","3","2","4","4","4","2","650407062907387904","赵","637","","","","","","","","","","","","","","","","","","","","","","","","","","","","","","feedback_test","","","","","","","","","","","",""
"682","","f","psychophysics","19","148839","0.0-7.0-1.0-1.0-0.0-0.5","3","3","3","3","3","3","3","3","3","3","4","4","4","4","4","4","4","4","4","4","2","2","2","2","2","2","2","2","2","0","0","0","0","0","1","0","0","0","1","0","0","0","0","0","4","2","2","2","2","3","2","4","4","4","2","650407062907387904","赵","637","","","","nonmatch","","","","","","","","","","","","","","key","f","16.68","1280","716","j","false","match","img/circle.png","圆形","圆形","ALT1_2","prac_ALT1_2","","","","","","","","","","","",""
"null","<span style='color:red; font-size: 70px;'>错误! </span>","null","html-keyboard-response","20","149340","0.0-7.0-1.0-1.0-0.0-1.5","3","3","3","3","3","3","3","3","3","3","4","4","4","4","4","4","4","4","4","4","2","2","2","2","2","2","2","2","2","0","0","0","0","0","1","0","0","0","1","0","0","0","0","0","4","2","2","2","2","3","2","4","4","4","2","650407062907387904","赵","637","","","","","","","","","","","","","","","","","","","","","","","","","","","","","","feedback_test","","","","","","","","","","","",""
"1034","","f","psychophysics","21","151375","0.0-7.0-1.0-1.0-0.0-0.6","3","3","3","3","3","3","3","3","3","3","4","4","4","4","4","4","4","4","4","4","2","2","2","2","2","2","2","2","2","0","0","0","0","0","1","0","0","0","1","0","0","0","0","0","4","2","2","2","2","3","2","4","4","4","2","650407062907387904","赵","637","","","","nonmatch","","","","","","","","","","","","","","key","f","16.68429752066106","1280","716","f","true","nonmatch","img/circle.png","六边","圆形","ALT1_2","prac_ALT1_2","","","","","","","","","","","",""
"null","<span style='color:GreenYellow; font-size: 70px;'>正确! </span>","null","html-keyboard-response","22","151876","0.0-7.0-1.0-1.0-0.0-1.6","3","3","3","3","3","3","3","3","3","3","4","4","4","4","4","4","4","4","4","4","2","2","2","2","2","2","2","2","2","0","0","0","0","0","1","0","0","0","1","0","0","0","0","0","4","2","2","2","2","3","2","4","4","4","2","650407062907387904","赵","637","","","","","","","","","","","","","","","","","","","","","","","","","","","","","","feedback_test","","","","","","","","","","","",""
"null","","null","psychophysics","23","154081","0.0-7.0-1.0-1.0-0.0-0.7","3","3","3","3","3","3","3","3","3","3","4","4","4","4","4","4","4","4","4","4","2","2","2","2","2","2","2","2","2","0","0","0","0","0","1","0","0","0","1","0","0","0","0","0","4","2","2","2","2","3","2","4","4","4","2","650407062907387904","赵","637","","","","null","","","","","","","","","","","","","","key","null","16.68320610687023","1280","716","f","false","nonmatch","img/trapezoid.png","圆形","梯形","ALT1_2","prac_ALT1_2","","","","","","","","","","","",""
"null","<span class='add_' style='color:yellow; font-size: 70px;'> 太慢! </span>","null","html-keyboard-response","24","154582","0.0-7.0-1.0-1.0-0.0-1.7","3","3","3","3","3","3","3","3","3","3","4","4","4","4","4","4","4","4","4","4","2","2","2","2","2","2","2","2","2","0","0","0","0","0","1","0","0","0","1","0","0","0","0","0","4","2","2","2","2","3","2","4","4","4","2","650407062907387904","赵","637","","","","","","","","","","","","","","","","","","","","","","","","","","","","","","feedback_test","","","","","","","","","","","",""
"888","","f","psychophysics","25","156471","0.0-7.0-1.0-1.0-0.0-0.8","3","3","3","3","3","3","3","3","3","3","4","4","4","4","4","4","4","4","4","4","2","2","2","2","2","2","2","2","2","0","0","0","0","0","1","0","0","0","1","0","0","0","0","0","4","2","2","2","2","3","2","4","4","4","2","650407062907387904","赵","637","","","","nonmatch","","","","","","","","","","","","","","key","f","16.684070796460073","1280","716","f","true","nonmatch","img/hexagon.png","梯形","六边","ALT1_2","prac_ALT1_2","","","","","","","","","","","",""
"null","<span style='color:GreenYellow; font-size: 70px;'>正确! </span>","null","html-keyboard-response","26","156972","0.0-7.0-1.0-1.0-0.0-1.8","3","3","3","3","3","3","3","3","3","3","4","4","4","4","4","4","4","4","4","4","2","2","2","2","2","2","2","2","2","0","0","0","0","0","1","0","0","0","1","0","0","0","0","0","4","2","2","2","2","3","2","4","4","4","2","650407062907387904","赵","637","","","","","","","","","","","","","","","","","","","","","","","","","","","","","","feedback_test","","","","","","","","","","","",""
"546","","j","psychophysics","27","158519","0.0-7.0-1.0-1.0-0.0-0.9","3","3","3","3","3","3","3","3","3","3","4","4","4","4","4","4","4","4","4","4","2","2","2","2","2","2","2","2","2","0","0","0","0","0","1","0","0","0","1","0","0","0","0","0","4","2","2","2","2","3","2","4","4","4","2","650407062907387904","赵","637","","","","match","","","","","","","","","","","","","","key","j","16.683516483516613","1280","716","f","false","nonmatch","img/trapezoid.png","方形","梯形","ALT1_2","prac_ALT1_2","","","","","","","","","","","",""
"null","<span style='color:red; font-size: 70px;'>错误! </span>","null","html-keyboard-response","28","159020","0.0-7.0-1.0-1.0-0.0-1.9","3","3","3","3","3","3","3","3","3","3","4","4","4","4","4","4","4","4","4","4","2","2","2","2","2","2","2","2","2","0","0","0","0","0","1","0","0","0","1","0","0","0","0","0","4","2","2","2","2","3","2","4","4","4","2","650407062907387904","赵","637","","","","","","","","","","","","","","","","","","","","","","","","","","","","","","feedback_test","","","","","","","","","","","",""
"802","","f","psychophysics","29","160823","0.0-7.0-1.0-1.0-0.0-0.10","3","3","3","3","3","3","3","3","3","3","4","4","4","4","4","4","4","4","4","4","2","2","2","2","2","2","2","2","2","0","0","0","0","0","1","0","0","0","1","0","0","0","0","0","4","2","2","2","2","3","2","4","4","4","2","650407062907387904","赵","637","","","","nonmatch","","","","","","","","","","","","","","key","f","16.674766355140296","1280","716","f","true","nonmatch","img/hexagon.png","方形","六边","ALT1_2","prac_ALT1_2","","","","","","","","","","","",""
"null","<span style='color:GreenYellow; font-size: 70px;'>正确! </span>","null","html-keyboard-response","30","161324","0.0-7.0-1.0-1.0-0.0-1.10","3","3","3","3","3","3","3","3","3","3","4","4","4","4","4","4","4","4","4","4","2","2","2","2","2","2","2","2","2","0","0","0","0","0","1","0","0","0","1","0","0","0","0","0","4","2","2","2","2","3","2","4","4","4","2","650407062907387904","赵","637","","","","","","","","","","","","","","","","","","","","","","","","","","","","","","feedback_test","","","","","","","","","","","",""
"754","","f","psychophysics","31","163079","0.0-7.0-1.0-1.0-0.0-0.11","3","3","3","3","3","3","3","3","3","3","4","4","4","4","4","4","4","4","4","4","2","2","2","2","2","2","2","2","2","0","0","0","0","0","1","0","0","0","1","0","0","0","0","0","4","2","2","2","2","3","2","4","4","4","2","650407062907387904","赵","637","","","","nonmatch","","","","","","","","","","","","","","key","f","16.683653846153902","1280","716","f","true","nonmatch","img/circle.png","梯形","圆形","ALT1_2","prac_ALT1_2","","","","","","","","","","","",""
"null","<span style='color:GreenYellow; font-size: 70px;'>正确! </span>","null","html-keyboard-response","32","163579","0.0-7.0-1.0-1.0-0.0-1.11","3","3","3","3","3","3","3","3","3","3","4","4","4","4","4","4","4","4","4","4","2","2","2","2","2","2","2","2","2","0","0","0","0","0","1","0","0","0","1","0","0","0","0","0","4","2","2","2","2","3","2","4","4","4","2","650407062907387904","赵","637","","","","","","","","","","","","","","","","","","","","","","","","","","","","","","feedback_test","","","","","","","","","","","",""
"787","","j","psychophysics","33","165367","0.0-7.0-1.0-1.0-0.0-0.12","3","3","3","3","3","3","3","3","3","3","4","4","4","4","4","4","4","4","4","4","2","2","2","2","2","2","2","2","2","0","0","0","0","0","1","0","0","0","1","0","0","0","0","0","4","2","2","2","2","3","2","4","4","4","2","650407062907387904","赵","637","","","","match","","","","","","","","","","","","","","key","j","16.681132075471808","1280","716","j","true","match","img/trapezoid.png","梯形","梯形","ALT1_2","prac_ALT1_2","","","","","","","","","","","",""
"null","<span style='color:GreenYellow; font-size: 70px;'>正确! </span>","null","html-keyboard-response","34","165868","0.0-7.0-1.0-1.0-0.0-1.12","3","3","3","3","3","3","3","3","3","3","4","4","4","4","4","4","4","4","4","4","2","2","2","2","2","2","2","2","2","0","0","0","0","0","1","0","0","0","1","0","0","0","0","0","4","2","2","2","2","3","2","4","4","4","2","650407062907387904","赵","637","","","","","","","","","","","","","","","","","","","","","","","","","","","","","","feedback_test","","","","","","","","","","","",""
"674","","f","psychophysics","35","167543","0.0-7.0-1.0-1.0-0.0-0.13","3","3","3","3","3","3","3","3","3","3","4","4","4","4","4","4","4","4","4","4","2","2","2","2","2","2","2","2","2","0","0","0","0","0","1","0","0","0","1","0","0","0","0","0","4","2","2","2","2","3","2","4","4","4","2","650407062907387904","赵","637","","","","nonmatch","","","","","","","","","","","","","","key","f","16.683838383838207","1280","716","f","true","nonmatch","img/hexagon.png","圆形","六边","ALT1_2","prac_ALT1_2","","","","","","","","","","","",""
"null","<span style='color:GreenYellow; font-size: 70px;'>正确! </span>","null","html-keyboard-response","36","168043","0.0-7.0-1.0-1.0-0.0-1.13","3","3","3","3","3","3","3","3","3","3","4","4","4","4","4","4","4","4","4","4","2","2","2","2","2","2","2","2","2","0","0","0","0","0","1","0","0","0","1","0","0","0","0","0","4","2","2","2","2","3","2","4","4","4","2","650407062907387904","赵","637","","","","","","","","","","","","","","","","","","","","","","","","","","","","","","feedback_test","","","","","","","","","","","",""
"290","","j","psychophysics","37","169335","0.0-7.0-1.0-1.0-0.0-0.14","3","3","3","3","3","3","3","3","3","3","4","4","4","4","4","4","4","4","4","4","2","2","2","2","2","2","2","2","2","0","0","0","0","0","1","0","0","0","1","0","0","0","0","0","4","2","2","2","2","3","2","4","4","4","2","650407062907387904","赵","637","","","","match","","","","","","","","","","","","","","key","j","16.684415584415735","1280","716","j","true","match","img/square.png","方形","方形","ALT1_2","prac_ALT1_2","","","","","","","","","","","",""
"null","<span style='color:GreenYellow; font-size: 70px;'>正确! </span>","null","html-keyboard-response","38","169837","0.0-7.0-1.0-1.0-0.0-1.14","3","3","3","3","3","3","3","3","3","3","4","4","4","4","4","4","4","4","4","4","2","2","2","2","2","2","2","2","2","0","0","0","0","0","1","0","0","0","1","0","0","0","0","0","4","2","2","2","2","3","2","4","4","4","2","650407062907387904","赵","637","","","","","","","","","","","","","","","","","","","","","","","","","","","","","","feedback_test","","","","","","","","","","","",""
"921","","f","psychophysics","39","171759","0.0-7.0-1.0-1.0-0.0-0.15","3","3","3","3","3","3","3","3","3","3","4","4","4","4","4","4","4","4","4","4","2","2","2","2","2","2","2","2","2","0","0","0","0","0","1","0","0","0","1","0","0","0","0","0","4","2","2","2","2","3","2","4","4","4","2","650407062907387904","赵","637","","","","nonmatch","","","","","","","","","","","","","","key","f","16.683333333333284","1280","716","j","false","match","img/hexagon.png","六边","六边","ALT1_2","prac_ALT1_2","","","","","","","","","","","",""
"null","<span style='color:red; font-size: 70px;'>错误! </span>","null","html-keyboard-response","40","172260","0.0-7.0-1.0-1.0-0.0-1.15","3","3","3","3","3","3","3","3","3","3","4","4","4","4","4","4","4","4","4","4","2","2","2","2","2","2","2","2","2","0","0","0","0","0","1","0","0","0","1","0","0","0","0","0","4","2","2","2","2","3","2","4","4","4","2","650407062907387904","赵","637","","","","","","","","","","","","","","","","","","","","","","","","","","","","","","feedback_test","","","","","","","","","","","",""
"761","","j","psychophysics","41","174023","0.0-7.0-1.0-1.0-0.0-0.16","3","3","3","3","3","3","3","3","3","3","4","4","4","4","4","4","4","4","4","4","2","2","2","2","2","2","2","2","2","0","0","0","0","0","1","0","0","0","1","0","0","0","0","0","4","2","2","2","2","3","2","4","4","4","2","650407062907387904","赵","637","","","","match","","","","","","","","","","","","","","key","j","16.683809523809412","1280","716","j","true","match","img/circle.png","圆形","圆形","ALT1_2","prac_ALT1_2","","","","","","","","","","","",""
"null","<span style='color:GreenYellow; font-size: 70px;'>正确! </span>","null","html-keyboard-response","42","174524","0.0-7.0-1.0-1.0-0.0-1.16","3","3","3","3","3","3","3","3","3","3","4","4","4","4","4","4","4","4","4","4","2","2","2","2","2","2","2","2","2","0","0","0","0","0","1","0","0","0","1","0","0","0","0","0","4","2","2","2","2","3","2","4","4","4","2","650407062907387904","赵","637","","","","","","","","","","","","","","","","","","","","","","","","","","","","","","feedback_test","","","","","","","","","","","",""
"842","","j","psychophysics","43","176367","0.0-7.0-1.0-1.0-0.0-0.17","3","3","3","3","3","3","3","3","3","3","4","4","4","4","4","4","4","4","4","4","2","2","2","2","2","2","2","2","2","0","0","0","0","0","1","0","0","0","1","0","0","0","0","0","4","2","2","2","2","3","2","4","4","4","2","650407062907387904","赵","637","","","","match","","","","","","","","","","","","","","key","j","16.682568807339397","1280","716","j","true","match","img/square.png","方形","方形","ALT1_2","prac_ALT1_2","","","","","","","","","","","",""
"null","<span style='color:GreenYellow; font-size: 70px;'>正确! </span>","null","html-keyboard-response","44","176869","0.0-7.0-1.0-1.0-0.0-1.17","3","3","3","3","3","3","3","3","3","3","4","4","4","4","4","4","4","4","4","4","2","2","2","2","2","2","2","2","2","0","0","0","0","0","1","0","0","0","1","0","0","0","0","0","4","2","2","2","2","3","2","4","4","4","2","650407062907387904","赵","637","","","","","","","","","","","","","","","","","","","","","","","","","","","","","","feedback_test","","","","","","","","","","","",""
"897","","j","psychophysics","45","178767","0.0-7.0-1.0-1.0-0.0-0.18","3","3","3","3","3","3","3","3","3","3","4","4","4","4","4","4","4","4","4","4","2","2","2","2","2","2","2","2","2","0","0","0","0","0","1","0","0","0","1","0","0","0","0","0","4","2","2","2","2","3","2","4","4","4","2","650407062907387904","赵","637","","","","match","","","","","","","","","","","","","","key","j","16.680357142857247","1280","716","j","true","match","img/square.png","方形","方形","ALT1_2","prac_ALT1_2","","","","","","","","","","","",""
"null","<span style='color:GreenYellow; font-size: 70px;'>正确! </span>","null","html-keyboard-response","46","179268","0.0-7.0-1.0-1.0-0.0-1.18","3","3","3","3","3","3","3","3","3","3","4","4","4","4","4","4","4","4","4","4","2","2","2","2","2","2","2","2","2","0","0","0","0","0","1","0","0","0","1","0","0","0","0","0","4","2","2","2","2","3","2","4","4","4","2","650407062907387904","赵","637","","","","","","","","","","","","","","","","","","","","","","","","","","","","","","feedback_test","","","","","","","","","","","",""
"819","","f","psychophysics","47","181087","0.0-7.0-1.0-1.0-0.0-0.19","3","3","3","3","3","3","3","3","3","3","4","4","4","4","4","4","4","4","4","4","2","2","2","2","2","2","2","2","2","0","0","0","0","0","1","0","0","0","1","0","0","0","0","0","4","2","2","2","2","3","2","4","4","4","2","650407062907387904","赵","637","","","","nonmatch","","","","","","","","","","","","","","key","f","16.684259259259207","1280","716","f","true","nonmatch","img/square.png","圆形","方形","ALT1_2","prac_ALT1_2","","","","","","","","","","","",""
"null","<span style='color:GreenYellow; font-size: 70px;'>正确! </span>","null","html-keyboard-response","48","181588","0.0-7.0-1.0-1.0-0.0-1.19","3","3","3","3","3","3","3","3","3","3","4","4","4","4","4","4","4","4","4","4","2","2","2","2","2","2","2","2","2","0","0","0","0","0","1","0","0","0","1","0","0","0","0","0","4","2","2","2","2","3","2","4","4","4","2","650407062907387904","赵","637","","","","","","","","","","","","","","","","","","","","","","","","","","","","","","feedback_test","","","","","","","","","","","",""
"778","","f","psychophysics","49","183367","0.0-7.0-1.0-1.0-0.0-0.20","3","3","3","3","3","3","3","3","3","3","4","4","4","4","4","4","4","4","4","4","2","2","2","2","2","2","2","2","2","0","0","0","0","0","1","0","0","0","1","0","0","0","0","0","4","2","2","2","2","3","2","4","4","4","2","650407062907387904","赵","637","","","","nonmatch","","","","","","","","","","","","","","key","f","16.684905660377414","1280","716","f","true","nonmatch","img/trapezoid.png","六边","梯形","ALT1_2","prac_ALT1_2","","","","","","","","","","","",""
"null","<span style='color:GreenYellow; font-size: 70px;'>正确! </span>","null","html-keyboard-response","50","183867","0.0-7.0-1.0-1.0-0.0-1.20","3","3","3","3","3","3","3","3","3","3","4","4","4","4","4","4","4","4","4","4","2","2","2","2","2","2","2","2","2","0","0","0","0","0","1","0","0","0","1","0","0","0","0","0","4","2","2","2","2","3","2","4","4","4","2","650407062907387904","赵","637","","","","","","","","","","","","","","","","","","","","","","","","","","","","","","feedback_test","","","","","","","","","","","",""
"874","","f","psychophysics","51","185743","0.0-7.0-1.0-1.0-0.0-0.21","3","3","3","3","3","3","3","3","3","3","4","4","4","4","4","4","4","4","4","4","2","2","2","2","2","2","2","2","2","0","0","0","0","0","1","0","0","0","1","0","0","0","0","0","4","2","2","2","2","3","2","4","4","4","2","650407062907387904","赵","637","","","","nonmatch","","","","","","","","","","","","","","key","f","16.681249999999896","1280","716","f","true","nonmatch","img/square.png","梯形","方形","ALT1_2","prac_ALT1_2","","","","","","","","","","","",""
"null","<span style='color:GreenYellow; font-size: 70px;'>正确! </span>","null","html-keyboard-response","52","186244","0.0-7.0-1.0-1.0-0.0-1.21","3","3","3","3","3","3","3","3","3","3","4","4","4","4","4","4","4","4","4","4","2","2","2","2","2","2","2","2","2","0","0","0","0","0","1","0","0","0","1","0","0","0","0","0","4","2","2","2","2","3","2","4","4","4","2","650407062907387904","赵","637","","","","","","","","","","","","","","","","","","","","","","","","","","","","","","feedback_test","","","","","","","","","","","",""
"826","","j","psychophysics","53","188071","0.0-7.0-1.0-1.0-0.0-0.22","3","3","3","3","3","3","3","3","3","3","4","4","4","4","4","4","4","4","4","4","2","2","2","2","2","2","2","2","2","0","0","0","0","0","1","0","0","0","1","0","0","0","0","0","4","2","2","2","2","3","2","4","4","4","2","650407062907387904","赵","637","","","","match","","","","","","","","","","","","","","key","j","16.682407407407513","1280","716","j","true","match","img/circle.png","圆形","圆形","ALT1_2","prac_ALT1_2","","","","","","","","","","","",""
"null","<span style='color:GreenYellow; font-size: 70px;'>正确! </span>","null","html-keyboard-response","54","188573","0.0-7.0-1.0-1.0-0.0-1.22","3","3","3","3","3","3","3","3","3","3","4","4","4","4","4","4","4","4","4","4","2","2","2","2","2","2","2","2","2","0","0","0","0","0","1","0","0","0","1","0","0","0","0","0","4","2","2","2","2","3","2","4","4","4","2","650407062907387904","赵","637","","","","","","","","","","","","","","","","","","","","","","","","","","","","","","feedback_test","","","","","","","","","","","",""
"1177","","j","psychophysics","55","190751","0.0-7.0-1.0-1.0-0.0-0.23","3","3","3","3","3","3","3","3","3","3","4","4","4","4","4","4","4","4","4","4","2","2","2","2","2","2","2","2","2","0","0","0","0","0","1","0","0","0","1","0","0","0","0","0","4","2","2","2","2","3","2","4","4","4","2","650407062907387904","赵","637","","","","match","","","","","","","","","","","","","","key","j","16.68076923076923","1280","716","j","true","match","img/hexagon.png","六边","六边","ALT1_2","prac_ALT1_2","","","","","","","","","","","",""
"null","<span style='color:GreenYellow; font-size: 70px;'>正确! </span>","null","html-keyboard-response","56","191252","0.0-7.0-1.0-1.0-0.0-1.23","3","3","3","3","3","3","3","3","3","3","4","4","4","4","4","4","4","4","4","4","2","2","2","2","2","2","2","2","2","0","0","0","0","0","1","0","0","0","1","0","0","0","0","0","4","2","2","2","2","3","2","4","4","4","2","650407062907387904","赵","637","","","","","","","","","","","","","","","","","","","","","","","","","","","","","","feedback_test","","","","","","","","","","","",""
"890","","j","psychophysics","57","193143","0.0-7.0-1.0-1.0-0.0-0.24","3","3","3","3","3","3","3","3","3","3","4","4","4","4","4","4","4","4","4","4","2","2","2","2","2","2","2","2","2","0","0","0","0","0","1","0","0","0","1","0","0","0","0","0","4","2","2","2","2","3","2","4","4","4","2","650407062907387904","赵","637","","","","match","","","","","","","","","","","","","","key","j","16.683928571428623","1280","716","f","false","nonmatch","img/square.png","六边","方形","ALT1_2","prac_ALT1_2","","","","","","","","","","","",""
"null","<span style='color:red; font-size: 70px;'>错误! </span>","null","html-keyboard-response","58","193643","0.0-7.0-1.0-1.0-0.0-1.24","3","3","3","3","3","3","3","3","3","3","4","4","4","4","4","4","4","4","4","4","2","2","2","2","2","2","2","2","2","0","0","0","0","0","1","0","0","0","1","0","0","0","0","0","4","2","2","2","2","3","2","4","4","4","2","650407062907387904","赵","637","","","","","","","","","","","","","","","","","","","","","","","","","","","","","","feedback_test","","","","","","","","","","","",""
"994","","f","psychophysics","59","195638","0.0-7.0-1.0-1.0-0.0-0.25","3","3","3","3","3","3","3","3","3","3","4","4","4","4","4","4","4","4","4","4","2","2","2","2","2","2","2","2","2","0","0","0","0","0","1","0","0","0","1","0","0","0","0","0","4","2","2","2","2","3","2","4","4","4","2","650407062907387904","赵","637","","","","nonmatch","","","","","","","","","","","","","","key","f","16.679831932773304","1280","716","j","false","match","img/hexagon.png","六边","六边","ALT1_2","prac_ALT1_2","","","","","","","","","","","",""
"null","<span style='color:red; font-size: 70px;'>错误! </span>","null","html-keyboard-response","60","196139","0.0-7.0-1.0-1.0-0.0-1.25","3","3","3","3","3","3","3","3","3","3","4","4","4","4","4","4","4","4","4","4","2","2","2","2","2","2","2","2","2","0","0","0","0","0","1","0","0","0","1","0","0","0","0","0","4","2","2","2","2","3","2","4","4","4","2","650407062907387904","赵","637","","","","","","","","","","","","","","","","","","","","","","","","","","","","","","feedback_test","","","","","","","","","","","",""
"722","","j","psychophysics","61","197863","0.0-7.0-1.0-1.0-0.0-0.26","3","3","3","3","3","3","3","3","3","3","4","4","4","4","4","4","4","4","4","4","2","2","2","2","2","2","2","2","2","0","0","0","0","0","1","0","0","0","1","0","0","0","0","0","4","2","2","2","2","3","2","4","4","4","2","650407062907387904","赵","637","","","","match","","","","","","","","","","","","","","key","j","16.681372549019606","1280","716","j","true","match","img/circle.png","圆形","圆形","ALT1_2","prac_ALT1_2","","","","","","","","","","","",""
"null","<span style='color:GreenYellow; font-size: 70px;'>正确! </span>","null","html-keyboard-response","62","198363","0.0-7.0-1.0-1.0-0.0-1.26","3","3","3","3","3","3","3","3","3","3","4","4","4","4","4","4","4","4","4","4","2","2","2","2","2","2","2","2","2","0","0","0","0","0","1","0","0","0","1","0","0","0","0","0","4","2","2","2","2","3","2","4","4","4","2","650407062907387904","赵","637","","","","","","","","","","","","","","","","","","","","","","","","","","","","","","feedback_test","","","","","","","","","","","",""
"714","","j","psychophysics","63","200078","0.0-7.0-1.0-1.0-0.0-0.27","3","3","3","3","3","3","3","3","3","3","4","4","4","4","4","4","4","4","4","4","2","2","2","2","2","2","2","2","2","0","0","0","0","0","1","0","0","0","1","0","0","0","0","0","4","2","2","2","2","3","2","4","4","4","2","650407062907387904","赵","637","","","","match","","","","","","","","","","","","","","key","j","16.67941176470577","1280","716","j","true","match","img/trapezoid.png","梯形","梯形","ALT1_2","prac_ALT1_2","","","","","","","","","","","",""
"null","<span style='color:GreenYellow; font-size: 70px;'>正确! </span>","null","html-keyboard-response","64","200579","0.0-7.0-1.0-1.0-0.0-1.27","3","3","3","3","3","3","3","3","3","3","4","4","4","4","4","4","4","4","4","4","2","2","2","2","2","2","2","2","2","0","0","0","0","0","1","0","0","0","1","0","0","0","0","0","4","2","2","2","2","3","2","4","4","4","2","650407062907387904","赵","637","","","","","","","","","","","","","","","","","","","","","","","","","","","","","","feedback_test","","","","","","","","","","","",""
"746","","j","psychophysics","65","202327","0.0-7.0-1.0-1.0-0.0-0.28","3","3","3","3","3","3","3","3","3","3","4","4","4","4","4","4","4","4","4","4","2","2","2","2","2","2","2","2","2","0","0","0","0","0","1","0","0","0","1","0","0","0","0","0","4","2","2","2","2","3","2","4","4","4","2","650407062907387904","赵","637","","","","match","","","","","","","","","","","","","","key","j","16.677884615384617","1280","716","j","true","match","img/hexagon.png","六边","六边","ALT1_2","prac_ALT1_2","","","","","","","","","","","",""
"null","<span style='color:GreenYellow; font-size: 70px;'>正确! </span>","null","html-keyboard-response","66","202828","0.0-7.0-1.0-1.0-0.0-1.28","3","3","3","3","3","3","3","3","3","3","4","4","4","4","4","4","4","4","4","4","2","2","2","2","2","2","2","2","2","0","0","0","0","0","1","0","0","0","1","0","0","0","0","0","4","2","2","2","2","3","2","4","4","4","2","650407062907387904","赵","637","","","","","","","","","","","","","","","","","","","","","","","","","","","","","","feedback_test","","","","","","","","","","","",""
"818","","j","psychophysics","67","204646","0.0-7.0-1.0-1.0-0.0-0.29","3","3","3","3","3","3","3","3","3","3","4","4","4","4","4","4","4","4","4","4","2","2","2","2","2","2","2","2","2","0","0","0","0","0","1","0","0","0","1","0","0","0","0","0","4","2","2","2","2","3","2","4","4","4","2","650407062907387904","赵","637","","","","match","","","","","","","","","","","","","","key","j","16.683333333333227","1280","716","f","false","nonmatch","img/trapezoid.png","六边","梯形","ALT1_2","prac_ALT1_2","","","","","","","","","","","",""
"null","<span style='color:red; font-size: 70px;'>错误! </span>","null","html-keyboard-response","68","205147","0.0-7.0-1.0-1.0-0.0-1.29","3","3","3","3","3","3","3","3","3","3","4","4","4","4","4","4","4","4","4","4","2","2","2","2","2","2","2","2","2","0","0","0","0","0","1","0","0","0","1","0","0","0","0","0","4","2","2","2","2","3","2","4","4","4","2","650407062907387904","赵","637","","","","","","","","","","","","","","","","","","","","","","","","","","","","","","feedback_test","","","","","","","","","","","",""
"697","","j","psychophysics","69","206846","0.0-7.0-1.0-1.0-0.0-0.30","3","3","3","3","3","3","3","3","3","3","4","4","4","4","4","4","4","4","4","4","2","2","2","2","2","2","2","2","2","0","0","0","0","0","1","0","0","0","1","0","0","0","0","0","4","2","2","2","2","3","2","4","4","4","2","650407062907387904","赵","637","","","","match","","","","","","","","","","","","","","key","j","16.678217821782177","1280","716","j","true","match","img/trapezoid.png","梯形","梯形","ALT1_2","prac_ALT1_2","","","","","","","","","","","",""
"null","<span style='color:GreenYellow; font-size: 70px;'>正确! </span>","null","html-keyboard-response","70","207347","0.0-7.0-1.0-1.0-0.0-1.30","3","3","3","3","3","3","3","3","3","3","4","4","4","4","4","4","4","4","4","4","2","2","2","2","2","2","2","2","2","0","0","0","0","0","1","0","0","0","1","0","0","0","0","0","4","2","2","2","2","3","2","4","4","4","2","650407062907387904","赵","637","","","","","","","","","","","","","","","","","","","","","","","","","","","","","","feedback_test","","","","","","","","","","","",""
"882","","f","psychophysics","71","209230","0.0-7.0-1.0-1.0-0.0-0.31","3","3","3","3","3","3","3","3","3","3","4","4","4","4","4","4","4","4","4","4","2","2","2","2","2","2","2","2","2","0","0","0","0","0","1","0","0","0","1","0","0","0","0","0","4","2","2","2","2","3","2","4","4","4","2","650407062907387904","赵","637","","","","nonmatch","","","","","","","","","","","","","","key","f","16.681249999999896","1280","716","f","true","nonmatch","img/hexagon.png","方形","六边","ALT1_2","prac_ALT1_2","","","","","","","","","","","",""
"null","<span style='color:GreenYellow; font-size: 70px;'>正确! </span>","null","html-keyboard-response","72","209731","0.0-7.0-1.0-1.0-0.0-1.31","3","3","3","3","3","3","3","3","3","3","4","4","4","4","4","4","4","4","4","4","2","2","2","2","2","2","2","2","2","0","0","0","0","0","1","0","0","0","1","0","0","0","0","0","4","2","2","2","2","3","2","4","4","4","2","650407062907387904","赵","637","","","","","","","","","","","","","","","","","","","","","","","","","","","","","","feedback_test","","","","","","","","","","","",""
"843","","f","psychophysics","73","211574","0.0-7.0-1.0-1.0-0.0-0.32","3","3","3","3","3","3","3","3","3","3","4","4","4","4","4","4","4","4","4","4","2","2","2","2","2","2","2","2","2","0","0","0","0","0","1","0","0","0","1","0","0","0","0","0","4","2","2","2","2","3","2","4","4","4","2","650407062907387904","赵","637","","","","nonmatch","","","","","","","","","","","","","","key","f","16.679816513761253","1280","716","f","true","nonmatch","img/square.png","梯形","方形","ALT1_2","prac_ALT1_2","","","","","","","","","","","",""
"null","<span style='color:GreenYellow; font-size: 70px;'>正确! </span>","null","html-keyboard-response","74","212075","0.0-7.0-1.0-1.0-0.0-1.32","3","3","3","3","3","3","3","3","3","3","4","4","4","4","4","4","4","4","4","4","2","2","2","2","2","2","2","2","2","0","0","0","0","0","1","0","0","0","1","0","0","0","0","0","4","2","2","2","2","3","2","4","4","4","2","650407062907387904","赵","637","","","","","","","","","","","","","","","","","","","","","","","","","","","","","","feedback_test","","","","","","","","","","","",""
"1051","","j","psychophysics","75","214127","0.0-7.0-1.0-1.0-0.0-0.33","3","3","3","3","3","3","3","3","3","3","4","4","4","4","4","4","4","4","4","4","2","2","2","2","2","2","2","2","2","0","0","0","0","0","1","0","0","0","1","0","0","0","0","0","4","2","2","2","2","3","2","4","4","4","2","650407062907387904","赵","637","","","","match","","","","","","","","","","","","","","key","j","16.682786885245807","1280","716","j","true","match","img/square.png","方形","方形","ALT1_2","prac_ALT1_2","","","","","","","","","","","",""
"null","<span style='color:GreenYellow; font-size: 70px;'>正确! </span>","null","html-keyboard-response","76","214628","0.0-7.0-1.0-1.0-0.0-1.33","3","3","3","3","3","3","3","3","3","3","4","4","4","4","4","4","4","4","4","4","2","2","2","2","2","2","2","2","2","0","0","0","0","0","1","0","0","0","1","0","0","0","0","0","4","2","2","2","2","3","2","4","4","4","2","650407062907387904","赵","637","","","","","","","","","","","","","","","","","","","","","","","","","","","","","","feedback_test","","","","","","","","","","","",""
"865","","f","psychophysics","77","216495","0.0-7.0-1.0-1.0-0.0-0.34","3","3","3","3","3","3","3","3","3","3","4","4","4","4","4","4","4","4","4","4","2","2","2","2","2","2","2","2","2","0","0","0","0","0","1","0","0","0","1","0","0","0","0","0","4","2","2","2","2","3","2","4","4","4","2","650407062907387904","赵","637","","","","nonmatch","","","","","","","","","","","","","","key","f","16.68378378378373","1280","716","f","true","nonmatch","img/circle.png","六边","圆形","ALT1_2","prac_ALT1_2","","","","","","","","","","","",""
"null","<span style='color:GreenYellow; font-size: 70px;'>正确! </span>","null","html-keyboard-response","78","216996","0.0-7.0-1.0-1.0-0.0-1.34","3","3","3","3","3","3","3","3","3","3","4","4","4","4","4","4","4","4","4","4","2","2","2","2","2","2","2","2","2","0","0","0","0","0","1","0","0","0","1","0","0","0","0","0","4","2","2","2","2","3","2","4","4","4","2","650407062907387904","赵","637","","","","","","","","","","","","","","","","","","","","","","","","","","","","","","feedback_test","","","","","","","","","","","",""
"null","","null","psychophysics","79","219198","0.0-7.0-1.0-1.0-0.0-0.35","3","3","3","3","3","3","3","3","3","3","4","4","4","4","4","4","4","4","4","4","2","2","2","2","2","2","2","2","2","0","0","0","0","0","1","0","0","0","1","0","0","0","0","0","4","2","2","2","2","3","2","4","4","4","2","650407062907387904","赵","637","","","","null","","","","","","","","","","","","","","key","null","16.68091603053444","1280","716","f","false","nonmatch","img/trapezoid.png","圆形","梯形","ALT1_2","prac_ALT1_2","","","","","","","","","","","",""
"null","<span class='add_' style='color:yellow; font-size: 70px;'> 太慢! </span>","null","html-keyboard-response","80","219698","0.0-7.0-1.0-1.0-0.0-1.35","3","3","3","3","3","3","3","3","3","3","4","4","4","4","4","4","4","4","4","4","2","2","2","2","2","2","2","2","2","0","0","0","0","0","1","0","0","0","1","0","0","0","0","0","4","2","2","2","2","3","2","4","4","4","2","650407062907387904","赵","637","","","","","","","","","","","","","","","","","","","","","","","","","","","","","","feedback_test","","","","","","","","","","","",""
"null","","null","psychophysics","81","221904","0.0-7.0-1.0-1.0-0.0-0.36","3","3","3","3","3","3","3","3","3","3","4","4","4","4","4","4","4","4","4","4","2","2","2","2","2","2","2","2","2","0","0","0","0","0","1","0","0","0","1","0","0","0","0","0","4","2","2","2","2","3","2","4","4","4","2","650407062907387904","赵","637","","","","null","","","","","","","","","","","","","","key","null","16.68320610687023","1280","716","f","false","nonmatch","img/trapezoid.png","方形","梯形","ALT1_2","prac_ALT1_2","","","","","","","","","","","",""
"null","<span class='add_' style='color:yellow; font-size: 70px;'> 太慢! </span>","null","html-keyboard-response","82","222404","0.0-7.0-1.0-1.0-0.0-1.36","3","3","3","3","3","3","3","3","3","3","4","4","4","4","4","4","4","4","4","4","2","2","2","2","2","2","2","2","2","0","0","0","0","0","1","0","0","0","1","0","0","0","0","0","4","2","2","2","2","3","2","4","4","4","2","650407062907387904","赵","637","","","","","","","","","","","","","","","","","","","","","","","","","","","","","","feedback_test","","","","","","","","","","","",""
"1001","","f","psychophysics","83","224407","0.0-7.0-1.0-1.0-0.0-0.37","3","3","3","3","3","3","3","3","3","3","4","4","4","4","4","4","4","4","4","4","2","2","2","2","2","2","2","2","2","0","0","0","0","0","1","0","0","0","1","0","0","0","0","0","4","2","2","2","2","3","2","4","4","4","2","650407062907387904","赵","637","","","","nonmatch","","","","","","","","","","","","","","key","f","16.68403361344533","1280","716","f","true","nonmatch","img/circle.png","梯形","圆形","ALT1_2","prac_ALT1_2","","","","","","","","","","","",""
"null","<span style='color:GreenYellow; font-size: 70px;'>正确! </span>","null","html-keyboard-response","84","224907","0.0-7.0-1.0-1.0-0.0-1.37","3","3","3","3","3","3","3","3","3","3","4","4","4","4","4","4","4","4","4","4","2","2","2","2","2","2","2","2","2","0","0","0","0","0","1","0","0","0","1","0","0","0","0","0","4","2","2","2","2","3","2","4","4","4","2","650407062907387904","赵","637","","","","","","","","","","","","","","","","","","","","","","","","","","","","","","feedback_test","","","","","","","","","","","",""
"937","","j","psychophysics","85","226846","0.0-7.0-1.0-1.0-0.0-0.38","3","3","3","3","3","3","3","3","3","3","4","4","4","4","4","4","4","4","4","4","2","2","2","2","2","2","2","2","2","0","0","0","0","0","1","0","0","0","1","0","0","0","0","0","4","2","2","2","2","3","2","4","4","4","2","650407062907387904","赵","637","","","","match","","","","","","","","","","","","","","key","j","16.677391304347776","1280","716","j","true","match","img/square.png","方形","方形","ALT1_2","prac_ALT1_2","","","","","","","","","","","",""
"null","<span style='color:GreenYellow; font-size: 70px;'>正确! </span>","null","html-keyboard-response","86","227347","0.0-7.0-1.0-1.0-0.0-1.38","3","3","3","3","3","3","3","3","3","3","4","4","4","4","4","4","4","4","4","4","2","2","2","2","2","2","2","2","2","0","0","0","0","0","1","0","0","0","1","0","0","0","0","0","4","2","2","2","2","3","2","4","4","4","2","650407062907387904","赵","637","","","","","","","","","","","","","","","","","","","","","","","","","","","","","","feedback_test","","","","","","","","","","","",""
"666","","j","psychophysics","87","229014","0.0-7.0-1.0-1.0-0.0-0.39","3","3","3","3","3","3","3","3","3","3","4","4","4","4","4","4","4","4","4","4","2","2","2","2","2","2","2","2","2","0","0","0","0","0","1","0","0","0","1","0","0","0","0","0","4","2","2","2","2","3","2","4","4","4","2","650407062907387904","赵","637","","","","match","","","","","","","","","","","","","","key","j","16.68080808080802","1280","716","f","false","nonmatch","img/hexagon.png","梯形","六边","ALT1_2","prac_ALT1_2","","","","","","","","","","","",""
"null","<span style='color:red; font-size: 70px;'>错误! </span>","null","html-keyboard-response","88","229515","0.0-7.0-1.0-1.0-0.0-1.39","3","3","3","3","3","3","3","3","3","3","4","4","4","4","4","4","4","4","4","4","2","2","2","2","2","2","2","2","2","0","0","0","0","0","1","0","0","0","1","0","0","0","0","0","4","2","2","2","2","3","2","4","4","4","2","650407062907387904","赵","637","","","","","","","","","","","","","","","","","","","","","","","","","","","","","","feedback_test","","","","","","","","","","","",""
"817","","j","psychophysics","89","231334","0.0-7.0-1.0-1.0-0.0-0.40","3","3","3","3","3","3","3","3","3","3","4","4","4","4","4","4","4","4","4","4","2","2","2","2","2","2","2","2","2","0","0","0","0","0","1","0","0","0","1","0","0","0","0","0","4","2","2","2","2","3","2","4","4","4","2","650407062907387904","赵","637","","","","match","","","","","","","","","","","","","","key","j","16.682407407407513","1280","716","j","true","match","img/hexagon.png","六边","六边","ALT1_2","prac_ALT1_2","","","","","","","","","","","",""
"null","<span style='color:GreenYellow; font-size: 70px;'>正确! </span>","null","html-keyboard-response","90","231835","0.0-7.0-1.0-1.0-0.0-1.40","3","3","3","3","3","3","3","3","3","3","4","4","4","4","4","4","4","4","4","4","2","2","2","2","2","2","2","2","2","0","0","0","0","0","1","0","0","0","1","0","0","0","0","0","4","2","2","2","2","3","2","4","4","4","2","650407062907387904","赵","637","","","","","","","","","","","","","","","","","","","","","","","","","","","","","","feedback_test","","","","","","","","","","","",""
"563","","j","psychophysics","91","233399","0.0-7.0-1.0-1.0-0.0-0.41","3","3","3","3","3","3","3","3","3","3","4","4","4","4","4","4","4","4","4","4","2","2","2","2","2","2","2","2","2","0","0","0","0","0","1","0","0","0","1","0","0","0","0","0","4","2","2","2","2","3","2","4","4","4","2","650407062907387904","赵","637","","","","match","","","","","","","","","","","","","","key","j","16.681720430107465","1280","716","f","false","nonmatch","img/square.png","圆形","方形","ALT1_2","prac_ALT1_2","","","","","","","","","","","",""
"null","<span style='color:red; font-size: 70px;'>错误! </span>","null","html-keyboard-response","92","233899","0.0-7.0-1.0-1.0-0.0-1.41","3","3","3","3","3","3","3","3","3","3","4","4","4","4","4","4","4","4","4","4","2","2","2","2","2","2","2","2","2","0","0","0","0","0","1","0","0","0","1","0","0","0","0","0","4","2","2","2","2","3","2","4","4","4","2","650407062907387904","赵","637","","","","","","","","","","","","","","","","","","","","","","","","","","","","","","feedback_test","","","","","","","","","","","",""
"770","","f","psychophysics","93","235670","0.0-7.0-1.0-1.0-0.0-0.42","3","3","3","3","3","3","3","3","3","3","4","4","4","4","4","4","4","4","4","4","2","2","2","2","2","2","2","2","2","0","0","0","0","0","1","0","0","0","1","0","0","0","0","0","4","2","2","2","2","3","2","4","4","4","2","650407062907387904","赵","637","","","","nonmatch","","","","","","","","","","","","","","key","f","16.679999999999943","1280","716","f","true","nonmatch","img/circle.png","方形","圆形","ALT1_2","prac_ALT1_2","","","","","","","","","","","",""
"null","<span style='color:GreenYellow; font-size: 70px;'>正确! </span>","null","html-keyboard-response","94","236171","0.0-7.0-1.0-1.0-0.0-1.42","3","3","3","3","3","3","3","3","3","3","4","4","4","4","4","4","4","4","4","4","2","2","2","2","2","2","2","2","2","0","0","0","0","0","1","0","0","0","1","0","0","0","0","0","4","2","2","2","2","3","2","4","4","4","2","650407062907387904","赵","637","","","","","","","","","","","","","","","","","","","","","","","","","","","","","","feedback_test","","","","","","","","","","","",""
"891","","f","psychophysics","95","238062","0.0-7.0-1.0-1.0-0.0-0.43","3","3","3","3","3","3","3","3","3","3","4","4","4","4","4","4","4","4","4","4","2","2","2","2","2","2","2","2","2","0","0","0","0","0","1","0","0","0","1","0","0","0","0","0","4","2","2","2","2","3","2","4","4","4","2","650407062907387904","赵","637","","","","nonmatch","","","","","","","","","","","","","","key","f","16.683928571428623","1280","716","f","true","nonmatch","img/hexagon.png","圆形","六边","ALT1_2","prac_ALT1_2","","","","","","","","","","","",""
"null","<span style='color:GreenYellow; font-size: 70px;'>正确! </span>","null","html-keyboard-response","96","238569","0.0-7.0-1.0-1.0-0.0-1.43","3","3","3","3","3","3","3","3","3","3","4","4","4","4","4","4","4","4","4","4","2","2","2","2","2","2","2","2","2","0","0","0","0","0","1","0","0","0","1","0","0","0","0","0","4","2","2","2","2","3","2","4","4","4","2","650407062907387904","赵","637","","","","","","","","","","","","","","","","","","","","","","","","","","","","","","feedback_test","","","","","","","","","","","",""
"732","","j","psychophysics","97","240302","0.0-7.0-1.0-1.0-0.0-0.44","3","3","3","3","3","3","3","3","3","3","4","4","4","4","4","4","4","4","4","4","2","2","2","2","2","2","2","2","2","0","0","0","0","0","1","0","0","0","1","0","0","0","0","0","4","2","2","2","2","3","2","4","4","4","2","650407062907387904","赵","637","","","","match","","","","","","","","","","","","","","key","j","16.679411764706053","1280","716","j","true","match","img/circle.png","圆形","圆形","ALT1_2","prac_ALT1_2","","","","","","","","","","","",""
"null","<span style='color:GreenYellow; font-size: 70px;'>正确! </span>","null","html-keyboard-response","98","240804","0.0-7.0-1.0-1.0-0.0-1.44","3","3","3","3","3","3","3","3","3","3","4","4","4","4","4","4","4","4","4","4","2","2","2","2","2","2","2","2","2","0","0","0","0","0","1","0","0","0","1","0","0","0","0","0","4","2","2","2","2","3","2","4","4","4","2","650407062907387904","赵","637","","","","","","","","","","","","","","","","","","","","","","","","","","","","","","feedback_test","","","","","","","","","","","",""
"730","","j","psychophysics","99","242534","0.0-7.0-1.0-1.0-0.0-0.45","3","3","3","3","3","3","3","3","3","3","4","4","4","4","4","4","4","4","4","4","2","2","2","2","2","2","2","2","2","0","0","0","0","0","1","0","0","0","1","0","0","0","0","0","4","2","2","2","2","3","2","4","4","4","2","650407062907387904","赵","637","","","","match","","","","","","","","","","","","","","key","j","16.68235294117624","1280","716","j","true","match","img/square.png","方形","方形","ALT1_2","prac_ALT1_2","","","","","","","","","","","",""
"null","<span style='color:GreenYellow; font-size: 70px;'>正确! </span>","null","html-keyboard-response","100","243035","0.0-7.0-1.0-1.0-0.0-1.45","3","3","3","3","3","3","3","3","3","3","4","4","4","4","4","4","4","4","4","4","2","2","2","2","2","2","2","2","2","0","0","0","0","0","1","0","0","0","1","0","0","0","0","0","4","2","2","2","2","3","2","4","4","4","2","650407062907387904","赵","637","","","","","","","","","","","","","","","","","","","","","","","","","","","","","","feedback_test","","","","","","","","","","","",""
"571","","f","psychophysics","101","244606","0.0-7.0-1.0-1.0-0.0-0.46","3","3","3","3","3","3","3","3","3","3","4","4","4","4","4","4","4","4","4","4","2","2","2","2","2","2","2","2","2","0","0","0","0","0","1","0","0","0","1","0","0","0","0","0","4","2","2","2","2","3","2","4","4","4","2","650407062907387904","赵","637","","","","nonmatch","","","","","","","","","","","","","","key","f","16.684946236559266","1280","716","j","false","match","img/circle.png","圆形","圆形","ALT1_2","prac_ALT1_2","","","","","","","","","","","",""
"null","<span style='color:red; font-size: 70px;'>错误! </span>","null","html-keyboard-response","102","245108","0.0-7.0-1.0-1.0-0.0-1.46","3","3","3","3","3","3","3","3","3","3","4","4","4","4","4","4","4","4","4","4","2","2","2","2","2","2","2","2","2","0","0","0","0","0","1","0","0","0","1","0","0","0","0","0","4","2","2","2","2","3","2","4","4","4","2","650407062907387904","赵","637","","","","","","","","","","","","","","","","","","","","","","","","","","","","","","feedback_test","","","","","","","","","","","",""
"850","","j","psychophysics","103","246958","0.0-7.0-1.0-1.0-0.0-0.47","3","3","3","3","3","3","3","3","3","3","4","4","4","4","4","4","4","4","4","4","2","2","2","2","2","2","2","2","2","0","0","0","0","0","1","0","0","0","1","0","0","0","0","0","4","2","2","2","2","3","2","4","4","4","2","650407062907387904","赵","637","","","","match","","","","","","","","","","","","","","key","j","16.682568807339397","1280","716","j","true","match","img/trapezoid.png","梯形","梯形","ALT1_2","prac_ALT1_2","","","","","","","","","","","",""
"null","<span style='color:GreenYellow; font-size: 70px;'>正确! </span>","null","html-keyboard-response","104","247459","0.0-7.0-1.0-1.0-0.0-1.47","3","3","3","3","3","3","3","3","3","3","4","4","4","4","4","4","4","4","4","4","2","2","2","2","2","2","2","2","2","0","0","0","0","0","1","0","0","0","1","0","0","0","0","0","4","2","2","2","2","3","2","4","4","4","2","650407062907387904","赵","637","","","","","","","","","","","","","","","","","","","","","","","","","","","","","","feedback_test","","","","","","","","","","","",""
"9474","<style>.context{color:white; font-size: 35px; line-height:40px}</style>                          <div><p class='context'>您正确回答了73% 的试次。</p><p class='context'>您的平均反应时为832毫秒。</p><p class='context'>恭喜您完成练习。按空格键进入正式实验。</p><p class='footer' style='font-size: 35px; line-height:40px;'>请在进入正式实验实验之前将您的<span style='color: lightgreen;'>食指</span>放在电脑键盘的相应键位上进行按键。</p>"," ","html-keyboard-response","105","256934","0.0-7.0-1.0-2.0","3","3","3","3","3","3","3","3","3","3","4","4","4","4","4","4","4","4","4","4","2","2","2","2","2","2","2","2","2","0","0","0","0","0","1","0","0","0","1","0","0","0","0","0","4","2","2","2","2","3","2","4","4","4","2","650407062907387904","赵","637","","","","","","","","","","","","","","","","","","","","","","","","","","","","","","","","","","","","","","","","","",""
"1566","
  <p style='color: white; font-size: 22px'>请您将手指放在按键上，准备进入正式的匹配任务。</p>
  <p> <div style = ""color: green""><按空格键进入下一阶段的匹配任务></div></p>
  "," ","html-keyboard-response","106","258502","0.0-7.0-1.0-3.0","3","3","3","3","3","3","3","3","3","3","4","4","4","4","4","4","4","4","4","4","2","2","2","2","2","2","2","2","2","0","0","0","0","0","1","0","0","0","1","0","0","0","0","0","4","2","2","2","2","3","2","4","4","4","2","650407062907387904","赵","637","","","","","","","","","","","","","","","","","","","","","","","","","","","","","","","","","","","","","","","","","",""
"879","","f","psychophysics","107","260382","0.0-7.0-1.0-4.0-0.0-0.0","3","3","3","3","3","3","3","3","3","3","4","4","4","4","4","4","4","4","4","4","2","2","2","2","2","2","2","2","2","0","0","0","0","0","1","0","0","0","1","0","0","0","0","0","4","2","2","2","2","3","2","4","4","4","2","650407062907387904","赵","637","","","","nonmatch","","","","","","","","","","","","","","key","f","16.68018018018018","1280","716","f","true","nonmatch","img/square.png","六边","方形","ALT1","formal_ALT1_2","","","","","","","","","","","",""
"null","<span style='color:GreenYellow; font-size: 70px;'>正确! </span>","null","html-keyboard-response","108","260883","0.0-7.0-1.0-4.0-0.0-1.0","3","3","3","3","3","3","3","3","3","3","4","4","4","4","4","4","4","4","4","4","2","2","2","2","2","2","2","2","2","0","0","0","0","0","1","0","0","0","1","0","0","0","0","0","4","2","2","2","2","3","2","4","4","4","2","650407062907387904","赵","637","","","","","","","","","","","","","","","","","","","","","","","","","","","","","","feedback_test","","","","","","","","","","","",""
"882","","j","psychophysics","109","262766","0.0-7.0-1.0-4.0-0.0-0.1","3","3","3","3","3","3","3","3","3","3","4","4","4","4","4","4","4","4","4","4","2","2","2","2","2","2","2","2","2","0","0","0","0","0","1","0","0","0","1","0","0","0","0","0","4","2","2","2","2","3","2","4","4","4","2","650407062907387904","赵","637","","","","match","","","","","","","","","","","","","","key","j","16.683035714285715","1280","716","j","true","match","img/hexagon.png","六边","六边","ALT1","formal_ALT1_2","","","","","","","","","","","",""
"null","<span style='color:GreenYellow; font-size: 70px;'>正确! </span>","null","html-keyboard-response","110","263266","0.0-7.0-1.0-4.0-0.0-1.1","3","3","3","3","3","3","3","3","3","3","4","4","4","4","4","4","4","4","4","4","2","2","2","2","2","2","2","2","2","0","0","0","0","0","1","0","0","0","1","0","0","0","0","0","4","2","2","2","2","3","2","4","4","4","2","650407062907387904","赵","637","","","","","","","","","","","","","","","","","","","","","","","","","","","","","","feedback_test","","","","","","","","","","","",""
"466","","j","psychophysics","111","264734","0.0-7.0-1.0-4.0-0.0-0.2","3","3","3","3","3","3","3","3","3","3","4","4","4","4","4","4","4","4","4","4","2","2","2","2","2","2","2","2","2","0","0","0","0","0","1","0","0","0","1","0","0","0","0","0","4","2","2","2","2","3","2","4","4","4","2","650407062907387904","赵","637","","","","match","","","","","","","","","","","","","","key","j","16.681609195402164","1280","716","j","true","match","img/circle.png","圆形","圆形","ALT1","formal_ALT1_2","","","","","","","","","","","",""
"null","<span style='color:GreenYellow; font-size: 70px;'>正确! </span>","null","html-keyboard-response","112","265235","0.0-7.0-1.0-4.0-0.0-1.2","3","3","3","3","3","3","3","3","3","3","4","4","4","4","4","4","4","4","4","4","2","2","2","2","2","2","2","2","2","0","0","0","0","0","1","0","0","0","1","0","0","0","0","0","4","2","2","2","2","3","2","4","4","4","2","650407062907387904","赵","637","","","","","","","","","","","","","","","","","","","","","","","","","","","","","","feedback_test","","","","","","","","","","","",""
"498","","j","psychophysics","113","266734","0.0-7.0-1.0-4.0-0.0-0.3","3","3","3","3","3","3","3","3","3","3","4","4","4","4","4","4","4","4","4","4","2","2","2","2","2","2","2","2","2","0","0","0","0","0","1","0","0","0","1","0","0","0","0","0","4","2","2","2","2","3","2","4","4","4","2","650407062907387904","赵","637","","","","match","","","","","","","","","","","","","","key","j","16.6831460674156","1280","716","j","true","match","img/square.png","方形","方形","ALT1","formal_ALT1_2","","","","","","","","","","","",""
"null","<span style='color:GreenYellow; font-size: 70px;'>正确! </span>","null","html-keyboard-response","114","267235","0.0-7.0-1.0-4.0-0.0-1.3","3","3","3","3","3","3","3","3","3","3","4","4","4","4","4","4","4","4","4","4","2","2","2","2","2","2","2","2","2","0","0","0","0","0","1","0","0","0","1","0","0","0","0","0","4","2","2","2","2","3","2","4","4","4","2","650407062907387904","赵","637","","","","","","","","","","","","","","","","","","","","","","","","","","","","","","feedback_test","","","","","","","","","","","",""
"369","","j","psychophysics","115","268606","0.0-7.0-1.0-4.0-0.0-0.4","3","3","3","3","3","3","3","3","3","3","4","4","4","4","4","4","4","4","4","4","2","2","2","2","2","2","2","2","2","0","0","0","0","0","1","0","0","0","1","0","0","0","0","0","4","2","2","2","2","3","2","4","4","4","2","650407062907387904","赵","637","","","","match","","","","","","","","","","","","","","key","j","16.685185185185187","1280","716","j","true","match","img/trapezoid.png","梯形","梯形","ALT1","formal_ALT1_2","","","","","","","","","","","",""
"null","<span style='color:GreenYellow; font-size: 70px;'>正确! </span>","null","html-keyboard-response","116","269106","0.0-7.0-1.0-4.0-0.0-1.4","3","3","3","3","3","3","3","3","3","3","4","4","4","4","4","4","4","4","4","4","2","2","2","2","2","2","2","2","2","0","0","0","0","0","1","0","0","0","1","0","0","0","0","0","4","2","2","2","2","3","2","4","4","4","2","650407062907387904","赵","637","","","","","","","","","","","","","","","","","","","","","","","","","","","","","","feedback_test","","","","","","","","","","","",""
"251","","f","psychophysics","117","270358","0.0-7.0-1.0-4.0-0.0-0.5","3","3","3","3","3","3","3","3","3","3","4","4","4","4","4","4","4","4","4","4","2","2","2","2","2","2","2","2","2","0","0","0","0","0","1","0","0","0","1","0","0","0","0","0","4","2","2","2","2","3","2","4","4","4","2","650407062907387904","赵","637","","","","nonmatch","","","","","","","","","","","","","","key","f","16.68378378378347","1280","716","j","false","match","img/hexagon.png","六边","六边","ALT1","formal_ALT1_2","","","","","","","","","","","",""
"null","<span style='color:red; font-size: 70px;'>错误! </span>","null","html-keyboard-response","118","270858","0.0-7.0-1.0-4.0-0.0-1.5","3","3","3","3","3","3","3","3","3","3","4","4","4","4","4","4","4","4","4","4","2","2","2","2","2","2","2","2","2","0","0","0","0","0","1","0","0","0","1","0","0","0","0","0","4","2","2","2","2","3","2","4","4","4","2","650407062907387904","赵","637","","","","","","","","","","","","","","","","","","","","","","","","","","","","","","feedback_test","","","","","","","","","","","",""
"603","","f","psychophysics","119","272462","0.0-7.0-1.0-4.0-0.0-0.6","3","3","3","3","3","3","3","3","3","3","4","4","4","4","4","4","4","4","4","4","2","2","2","2","2","2","2","2","2","0","0","0","0","0","1","0","0","0","1","0","0","0","0","0","4","2","2","2","2","3","2","4","4","4","2","650407062907387904","赵","637","","","","nonmatch","","","","","","","","","","","","","","key","f","16.683157894737086","1280","716","f","true","nonmatch","img/hexagon.png","梯形","六边","ALT1","formal_ALT1_2","","","","","","","","","","","",""
"null","<span style='color:GreenYellow; font-size: 70px;'>正确! </span>","null","html-keyboard-response","120","272962","0.0-7.0-1.0-4.0-0.0-1.6","3","3","3","3","3","3","3","3","3","3","4","4","4","4","4","4","4","4","4","4","2","2","2","2","2","2","2","2","2","0","0","0","0","0","1","0","0","0","1","0","0","0","0","0","4","2","2","2","2","3","2","4","4","4","2","650407062907387904","赵","637","","","","","","","","","","","","","","","","","","","","","","","","","","","","","","feedback_test","","","","","","","","","","","",""
"889","","j","psychophysics","121","274853","0.0-7.0-1.0-4.0-0.0-0.7","3","3","3","3","3","3","3","3","3","3","4","4","4","4","4","4","4","4","4","4","2","2","2","2","2","2","2","2","2","0","0","0","0","0","1","0","0","0","1","0","0","0","0","0","4","2","2","2","2","3","2","4","4","4","2","650407062907387904","赵","637","","","","match","","","","","","","","","","","","","","key","j","16.67946428571408","1280","716","f","false","nonmatch","img/square.png","梯形","方形","ALT1","formal_ALT1_2","","","","","","","","","","","",""
"null","<span style='color:red; font-size: 70px;'>错误! </span>","null","html-keyboard-response","122","275354","0.0-7.0-1.0-4.0-0.0-1.7","3","3","3","3","3","3","3","3","3","3","4","4","4","4","4","4","4","4","4","4","2","2","2","2","2","2","2","2","2","0","0","0","0","0","1","0","0","0","1","0","0","0","0","0","4","2","2","2","2","3","2","4","4","4","2","650407062907387904","赵","637","","","","","","","","","","","","","","","","","","","","","","","","","","","","","","feedback_test","","","","","","","","","","","",""
"675","","f","psychophysics","123","277029","0.0-7.0-1.0-4.0-0.0-0.8","3","3","3","3","3","3","3","3","3","3","4","4","4","4","4","4","4","4","4","4","2","2","2","2","2","2","2","2","2","0","0","0","0","0","1","0","0","0","1","0","0","0","0","0","4","2","2","2","2","3","2","4","4","4","2","650407062907387904","赵","637","","","","nonmatch","","","","","","","","","","","","","","key","f","16.680808080808315","1280","716","f","true","nonmatch","img/circle.png","方形","圆形","ALT1","formal_ALT1_2","","","","","","","","","","","",""
"null","<span style='color:GreenYellow; font-size: 70px;'>正确! </span>","null","html-keyboard-response","124","277531","0.0-7.0-1.0-4.0-0.0-1.8","3","3","3","3","3","3","3","3","3","3","4","4","4","4","4","4","4","4","4","4","2","2","2","2","2","2","2","2","2","0","0","0","0","0","1","0","0","0","1","0","0","0","0","0","4","2","2","2","2","3","2","4","4","4","2","650407062907387904","赵","637","","","","","","","","","","","","","","","","","","","","","","","","","","","","","","feedback_test","","","","","","","","","","","",""
"361","","j","psychophysics","125","278894","0.0-7.0-1.0-4.0-0.0-0.9","3","3","3","3","3","3","3","3","3","3","4","4","4","4","4","4","4","4","4","4","2","2","2","2","2","2","2","2","2","0","0","0","0","0","1","0","0","0","1","0","0","0","0","0","4","2","2","2","2","3","2","4","4","4","2","650407062907387904","赵","637","","","","match","","","","","","","","","","","","","","key","j","16.68024691357996","1280","716","j","true","match","img/circle.png","圆形","圆形","ALT1","formal_ALT1_2","","","","","","","","","","","",""
"null","<span style='color:GreenYellow; font-size: 70px;'>正确! </span>","null","html-keyboard-response","126","279395","0.0-7.0-1.0-4.0-0.0-1.9","3","3","3","3","3","3","3","3","3","3","4","4","4","4","4","4","4","4","4","4","2","2","2","2","2","2","2","2","2","0","0","0","0","0","1","0","0","0","1","0","0","0","0","0","4","2","2","2","2","3","2","4","4","4","2","650407062907387904","赵","637","","","","","","","","","","","","","","","","","","","","","","","","","","","","","","feedback_test","","","","","","","","","","","",""
"369","","j","psychophysics","127","280766","0.0-7.0-1.0-4.0-0.0-0.10","3","3","3","3","3","3","3","3","3","3","4","4","4","4","4","4","4","4","4","4","2","2","2","2","2","2","2","2","2","0","0","0","0","0","1","0","0","0","1","0","0","0","0","0","4","2","2","2","2","3","2","4","4","4","2","650407062907387904","赵","637","","","","match","","","","","","","","","","","","","","key","j","16.685185185185187","1280","716","j","true","match","img/circle.png","圆形","圆形","ALT1","formal_ALT1_2","","","","","","","","","","","",""
"null","<span style='color:GreenYellow; font-size: 70px;'>正确! </span>","null","html-keyboard-response","128","281267","0.0-7.0-1.0-4.0-0.0-1.10","3","3","3","3","3","3","3","3","3","3","4","4","4","4","4","4","4","4","4","4","2","2","2","2","2","2","2","2","2","0","0","0","0","0","1","0","0","0","1","0","0","0","0","0","4","2","2","2","2","3","2","4","4","4","2","650407062907387904","赵","637","","","","","","","","","","","","","","","","","","","","","","","","","","","","","","feedback_test","","","","","","","","","","","",""
"642","","j","psychophysics","129","282909","0.0-7.0-1.0-4.0-0.0-0.11","3","3","3","3","3","3","3","3","3","3","4","4","4","4","4","4","4","4","4","4","2","2","2","2","2","2","2","2","2","0","0","0","0","0","1","0","0","0","1","0","0","0","0","0","4","2","2","2","2","3","2","4","4","4","2","650407062907387904","赵","637","","","","match","","","","","","","","","","","","","","key","j","16.683673469387756","1280","716","j","true","match","img/trapezoid.png","梯形","梯形","ALT1","formal_ALT1_2","","","","","","","","","","","",""
"null","<span style='color:GreenYellow; font-size: 70px;'>正确! </span>","null","html-keyboard-response","130","283410","0.0-7.0-1.0-4.0-0.0-1.11","3","3","3","3","3","3","3","3","3","3","4","4","4","4","4","4","4","4","4","4","2","2","2","2","2","2","2","2","2","0","0","0","0","0","1","0","0","0","1","0","0","0","0","0","4","2","2","2","2","3","2","4","4","4","2","650407062907387904","赵","637","","","","","","","","","","","","","","","","","","","","","","","","","","","","","","feedback_test","","","","","","","","","","","",""
"443","","f","psychophysics","131","284853","0.0-7.0-1.0-4.0-0.0-0.12","3","3","3","3","3","3","3","3","3","3","4","4","4","4","4","4","4","4","4","4","2","2","2","2","2","2","2","2","2","0","0","0","0","0","1","0","0","0","1","0","0","0","0","0","4","2","2","2","2","3","2","4","4","4","2","650407062907387904","赵","637","","","","nonmatch","","","","","","","","","","","","","","key","f","16.68470588235308","1280","716","f","true","nonmatch","img/circle.png","六边","圆形","ALT1","formal_ALT1_2","","","","","","","","","","","",""
"null","<span style='color:GreenYellow; font-size: 70px;'>正确! </span>","null","html-keyboard-response","132","285354","0.0-7.0-1.0-4.0-0.0-1.12","3","3","3","3","3","3","3","3","3","3","4","4","4","4","4","4","4","4","4","4","2","2","2","2","2","2","2","2","2","0","0","0","0","0","1","0","0","0","1","0","0","0","0","0","4","2","2","2","2","3","2","4","4","4","2","650407062907387904","赵","637","","","","","","","","","","","","","","","","","","","","","","","","","","","","","","feedback_test","","","","","","","","","","","",""
"778","","j","psychophysics","133","287133","0.0-7.0-1.0-4.0-0.0-0.13","3","3","3","3","3","3","3","3","3","3","4","4","4","4","4","4","4","4","4","4","2","2","2","2","2","2","2","2","2","0","0","0","0","0","1","0","0","0","1","0","0","0","0","0","4","2","2","2","2","3","2","4","4","4","2","650407062907387904","赵","637","","","","match","","","","","","","","","","","","","","key","j","16.680188679245063","1280","716","f","false","nonmatch","img/trapezoid.png","圆形","梯形","ALT1","formal_ALT1_2","","","","","","","","","","","",""
"null","<span style='color:red; font-size: 70px;'>错误! </span>","null","html-keyboard-response","134","287634","0.0-7.0-1.0-4.0-0.0-1.13","3","3","3","3","3","3","3","3","3","3","4","4","4","4","4","4","4","4","4","4","2","2","2","2","2","2","2","2","2","0","0","0","0","0","1","0","0","0","1","0","0","0","0","0","4","2","2","2","2","3","2","4","4","4","2","650407062907387904","赵","637","","","","","","","","","","","","","","","","","","","","","","","","","","","","","","feedback_test","","","","","","","","","","","",""
"347","","j","psychophysics","135","288981","0.0-7.0-1.0-4.0-0.0-0.14","3","3","3","3","3","3","3","3","3","3","4","4","4","4","4","4","4","4","4","4","2","2","2","2","2","2","2","2","2","0","0","0","0","0","1","0","0","0","1","0","0","0","0","0","4","2","2","2","2","3","2","4","4","4","2","650407062907387904","赵","637","","","","match","","","","","","","","","","","","","","key","j","16.684999999999853","1280","716","f","false","nonmatch","img/circle.png","梯形","圆形","ALT1","formal_ALT1_2","","","","","","","","","","","",""
"null","<span style='color:red; font-size: 70px;'>错误! </span>","null","html-keyboard-response","136","289482","0.0-7.0-1.0-4.0-0.0-1.14","3","3","3","3","3","3","3","3","3","3","4","4","4","4","4","4","4","4","4","4","2","2","2","2","2","2","2","2","2","0","0","0","0","0","1","0","0","0","1","0","0","0","0","0","4","2","2","2","2","3","2","4","4","4","2","650407062907387904","赵","637","","","","","","","","","","","","","","","","","","","","","","","","","","","","","","feedback_test","","","","","","","","","","","",""
"298","","f","psychophysics","137","290781","0.0-7.0-1.0-4.0-0.0-0.15","3","3","3","3","3","3","3","3","3","3","4","4","4","4","4","4","4","4","4","4","2","2","2","2","2","2","2","2","2","0","0","0","0","0","1","0","0","0","1","0","0","0","0","0","4","2","2","2","2","3","2","4","4","4","2","650407062907387904","赵","637","","","","nonmatch","","","","","","","","","","","","","","key","f","16.680519480519028","1280","716","f","true","nonmatch","img/trapezoid.png","六边","梯形","ALT1","formal_ALT1_2","","","","","","","","","","","",""
"null","<span style='color:GreenYellow; font-size: 70px;'>正确! </span>","null","html-keyboard-response","138","291282","0.0-7.0-1.0-4.0-0.0-1.15","3","3","3","3","3","3","3","3","3","3","4","4","4","4","4","4","4","4","4","4","2","2","2","2","2","2","2","2","2","0","0","0","0","0","1","0","0","0","1","0","0","0","0","0","4","2","2","2","2","3","2","4","4","4","2","650407062907387904","赵","637","","","","","","","","","","","","","","","","","","","","","","","","","","","","","","feedback_test","","","","","","","","","","","",""
"531","","j","psychophysics","139","292814","0.0-7.0-1.0-4.0-0.0-0.16","3","3","3","3","3","3","3","3","3","3","4","4","4","4","4","4","4","4","4","4","2","2","2","2","2","2","2","2","2","0","0","0","0","0","1","0","0","0","1","0","0","0","0","0","4","2","2","2","2","3","2","4","4","4","2","650407062907387904","赵","637","","","","match","","","","","","","","","","","","","","key","j","16.680219780219396","1280","716","f","false","nonmatch","img/hexagon.png","方形","六边","ALT1","formal_ALT1_2","","","","","","","","","","","",""
"null","<span style='color:red; font-size: 70px;'>错误! </span>","null","html-keyboard-response","140","293315","0.0-7.0-1.0-4.0-0.0-1.16","3","3","3","3","3","3","3","3","3","3","4","4","4","4","4","4","4","4","4","4","2","2","2","2","2","2","2","2","2","0","0","0","0","0","1","0","0","0","1","0","0","0","0","0","4","2","2","2","2","3","2","4","4","4","2","650407062907387904","赵","637","","","","","","","","","","","","","","","","","","","","","","","","","","","","","","feedback_test","","","","","","","","","","","",""
"666","","j","psychophysics","141","294982","0.0-7.0-1.0-4.0-0.0-0.17","3","3","3","3","3","3","3","3","3","3","4","4","4","4","4","4","4","4","4","4","2","2","2","2","2","2","2","2","2","0","0","0","0","0","1","0","0","0","1","0","0","0","0","0","4","2","2","2","2","3","2","4","4","4","2","650407062907387904","赵","637","","","","match","","","","","","","","","","","","","","key","j","16.680808080808315","1280","716","j","true","match","img/square.png","方形","方形","ALT1","formal_ALT1_2","","","","","","","","","","","",""
"null","<span style='color:GreenYellow; font-size: 70px;'>正确! </span>","null","html-keyboard-response","142","295482","0.0-7.0-1.0-4.0-0.0-1.17","3","3","3","3","3","3","3","3","3","3","4","4","4","4","4","4","4","4","4","4","2","2","2","2","2","2","2","2","2","0","0","0","0","0","1","0","0","0","1","0","0","0","0","0","4","2","2","2","2","3","2","4","4","4","2","650407062907387904","赵","637","","","","","","","","","","","","","","","","","","","","","","","","","","","","","","feedback_test","","","","","","","","","","","",""
"522","","f","psychophysics","143","297006","0.0-7.0-1.0-4.0-0.0-0.18","3","3","3","3","3","3","3","3","3","3","4","4","4","4","4","4","4","4","4","4","2","2","2","2","2","2","2","2","2","0","0","0","0","0","1","0","0","0","1","0","0","0","0","0","4","2","2","2","2","3","2","4","4","4","2","650407062907387904","赵","637","","","","nonmatch","","","","","","","","","","","","","","key","f","16.684444444444832","1280","716","j","false","match","img/trapezoid.png","梯形","梯形","ALT1","formal_ALT1_2","","","","","","","","","","","",""
"null","<span style='color:red; font-size: 70px;'>错误! </span>","null","html-keyboard-response","144","297507","0.0-7.0-1.0-4.0-0.0-1.18","3","3","3","3","3","3","3","3","3","3","4","4","4","4","4","4","4","4","4","4","2","2","2","2","2","2","2","2","2","0","0","0","0","0","1","0","0","0","1","0","0","0","0","0","4","2","2","2","2","3","2","4","4","4","2","650407062907387904","赵","637","","","","","","","","","","","","","","","","","","","","","","","","","","","","","","feedback_test","","","","","","","","","","","",""
"769","","j","psychophysics","145","299277","0.0-7.0-1.0-4.0-0.0-0.19","3","3","3","3","3","3","3","3","3","3","4","4","4","4","4","4","4","4","4","4","2","2","2","2","2","2","2","2","2","0","0","0","0","0","1","0","0","0","1","0","0","0","0","0","4","2","2","2","2","3","2","4","4","4","2","650407062907387904","赵","637","","","","match","","","","","","","","","","","","","","key","j","16.68095238095238","1280","716","f","false","nonmatch","img/square.png","圆形","方形","ALT1","formal_ALT1_2","","","","","","","","","","","",""
"null","<span style='color:red; font-size: 70px;'>错误! </span>","null","html-keyboard-response","146","299778","0.0-7.0-1.0-4.0-0.0-1.19","3","3","3","3","3","3","3","3","3","3","4","4","4","4","4","4","4","4","4","4","2","2","2","2","2","2","2","2","2","0","0","0","0","0","1","0","0","0","1","0","0","0","0","0","4","2","2","2","2","3","2","4","4","4","2","650407062907387904","赵","637","","","","","","","","","","","","","","","","","","","","","","","","","","","","","","feedback_test","","","","","","","","","","","",""
"819","","j","psychophysics","147","301598","0.0-7.0-1.0-4.0-0.0-0.20","3","3","3","3","3","3","3","3","3","3","4","4","4","4","4","4","4","4","4","4","2","2","2","2","2","2","2","2","2","0","0","0","0","0","1","0","0","0","1","0","0","0","0","0","4","2","2","2","2","3","2","4","4","4","2","650407062907387904","赵","637","","","","match","","","","","","","","","","","","","","key","j","16.683333333333763","1280","716","f","false","nonmatch","img/trapezoid.png","方形","梯形","ALT1","formal_ALT1_2","","","","","","","","","","","",""
"null","<span style='color:red; font-size: 70px;'>错误! </span>","null","html-keyboard-response","148","302098","0.0-7.0-1.0-4.0-0.0-1.20","3","3","3","3","3","3","3","3","3","3","4","4","4","4","4","4","4","4","4","4","2","2","2","2","2","2","2","2","2","0","0","0","0","0","1","0","0","0","1","0","0","0","0","0","4","2","2","2","2","3","2","4","4","4","2","650407062907387904","赵","637","","","","","","","","","","","","","","","","","","","","","","","","","","","","","","feedback_test","","","","","","","","","","","",""
"666","","j","psychophysics","149","303766","0.0-7.0-1.0-4.0-0.0-0.21","3","3","3","3","3","3","3","3","3","3","4","4","4","4","4","4","4","4","4","4","2","2","2","2","2","2","2","2","2","0","0","0","0","0","1","0","0","0","1","0","0","0","0","0","4","2","2","2","2","3","2","4","4","4","2","650407062907387904","赵","637","","","","match","","","","","","","","","","","","","","key","j","16.684848484848366","1280","716","j","true","match","img/hexagon.png","六边","六边","ALT1","formal_ALT1_2","","","","","","","","","","","",""
"null","<span style='color:GreenYellow; font-size: 70px;'>正确! </span>","null","html-keyboard-response","150","304266","0.0-7.0-1.0-4.0-0.0-1.21","3","3","3","3","3","3","3","3","3","3","4","4","4","4","4","4","4","4","4","4","2","2","2","2","2","2","2","2","2","0","0","0","0","0","1","0","0","0","1","0","0","0","0","0","4","2","2","2","2","3","2","4","4","4","2","650407062907387904","赵","637","","","","","","","","","","","","","","","","","","","","","","","","","","","","","","feedback_test","","","","","","","","","","","",""
"843","","j","psychophysics","151","306110","0.0-7.0-1.0-4.0-0.0-0.22","3","3","3","3","3","3","3","3","3","3","4","4","4","4","4","4","4","4","4","4","2","2","2","2","2","2","2","2","2","0","0","0","0","0","1","0","0","0","1","0","0","0","0","0","4","2","2","2","2","3","2","4","4","4","2","650407062907387904","赵","637","","","","match","","","","","","","","","","","","","","key","j","16.68363636363647","1280","716","j","true","match","img/square.png","方形","方形","ALT1","formal_ALT1_2","","","","","","","","","","","",""
"null","<span style='color:GreenYellow; font-size: 70px;'>正确! </span>","null","html-keyboard-response","152","306611","0.0-7.0-1.0-4.0-0.0-1.22","3","3","3","3","3","3","3","3","3","3","4","4","4","4","4","4","4","4","4","4","2","2","2","2","2","2","2","2","2","0","0","0","0","0","1","0","0","0","1","0","0","0","0","0","4","2","2","2","2","3","2","4","4","4","2","650407062907387904","赵","637","","","","","","","","","","","","","","","","","","","","","","","","","","","","","","feedback_test","","","","","","","","","","","",""
"666","","f","psychophysics","153","308277","0.0-7.0-1.0-4.0-0.0-0.23","3","3","3","3","3","3","3","3","3","3","4","4","4","4","4","4","4","4","4","4","2","2","2","2","2","2","2","2","2","0","0","0","0","0","1","0","0","0","1","0","0","0","0","0","4","2","2","2","2","3","2","4","4","4","2","650407062907387904","赵","637","","","","nonmatch","","","","","","","","","","","","","","key","f","16.68080808080773","1280","716","f","true","nonmatch","img/hexagon.png","圆形","六边","ALT1","formal_ALT1_2","","","","","","","","","","","",""
"null","<span style='color:GreenYellow; font-size: 70px;'>正确! </span>","null","html-keyboard-response","154","308778","0.0-7.0-1.0-4.0-0.0-1.23","3","3","3","3","3","3","3","3","3","3","4","4","4","4","4","4","4","4","4","4","2","2","2","2","2","2","2","2","2","0","0","0","0","0","1","0","0","0","1","0","0","0","0","0","4","2","2","2","2","3","2","4","4","4","2","650407062907387904","赵","637","","","","","","","","","","","","","","","","","","","","","","","","","","","","","","feedback_test","","","","","","","","","","","",""
"729","","f","psychophysics","155","310509","0.0-7.0-1.0-4.0-0.0-0.24","3","3","3","3","3","3","3","3","3","3","4","4","4","4","4","4","4","4","4","4","2","2","2","2","2","2","2","2","2","0","0","0","0","0","1","0","0","0","1","0","0","0","0","0","4","2","2","2","2","3","2","4","4","4","2","650407062907387904","赵","637","","","","nonmatch","","","","","","","","","","","","","","key","f","16.680392156862972","1280","716","j","false","match","img/trapezoid.png","梯形","梯形","ALT1","formal_ALT1_2","","","","","","","","","","","",""
"null","<span style='color:red; font-size: 70px;'>错误! </span>","null","html-keyboard-response","156","311011","0.0-7.0-1.0-4.0-0.0-1.24","3","3","3","3","3","3","3","3","3","3","4","4","4","4","4","4","4","4","4","4","2","2","2","2","2","2","2","2","2","0","0","0","0","0","1","0","0","0","1","0","0","0","0","0","4","2","2","2","2","3","2","4","4","4","2","650407062907387904","赵","637","","","","","","","","","","","","","","","","","","","","","","","","","","","","","","feedback_test","","","","","","","","","","","",""
"978","","j","psychophysics","157","312989","0.0-7.0-1.0-4.0-0.0-0.25","3","3","3","3","3","3","3","3","3","3","4","4","4","4","4","4","4","4","4","4","2","2","2","2","2","2","2","2","2","0","0","0","0","0","1","0","0","0","1","0","0","0","0","0","4","2","2","2","2","3","2","4","4","4","2","650407062907387904","赵","637","","","","match","","","","","","","","","","","","","","key","j","16.677777777777678","1280","716","f","false","nonmatch","img/square.png","圆形","方形","ALT1","formal_ALT1_2","","","","","","","","","","","",""
"null","<span style='color:red; font-size: 70px;'>错误! </span>","null","html-keyboard-response","158","313490","0.0-7.0-1.0-4.0-0.0-1.25","3","3","3","3","3","3","3","3","3","3","4","4","4","4","4","4","4","4","4","4","2","2","2","2","2","2","2","2","2","0","0","0","0","0","1","0","0","0","1","0","0","0","0","0","4","2","2","2","2","3","2","4","4","4","2","650407062907387904","赵","637","","","","","","","","","","","","","","","","","","","","","","","","","","","","","","feedback_test","","","","","","","","","","","",""
"826","","f","psychophysics","159","315317","0.0-7.0-1.0-4.0-0.0-0.26","3","3","3","3","3","3","3","3","3","3","4","4","4","4","4","4","4","4","4","4","2","2","2","2","2","2","2","2","2","0","0","0","0","0","1","0","0","0","1","0","0","0","0","0","4","2","2","2","2","3","2","4","4","4","2","650407062907387904","赵","637","","","","nonmatch","","","","","","","","","","","","","","key","f","16.680733944954234","1280","716","f","true","nonmatch","img/square.png","梯形","方形","ALT1","formal_ALT1_2","","","","","","","","","","","",""
"null","<span style='color:GreenYellow; font-size: 70px;'>正确! </span>","null","html-keyboard-response","160","315819","0.0-7.0-1.0-4.0-0.0-1.26","3","3","3","3","3","3","3","3","3","3","4","4","4","4","4","4","4","4","4","4","2","2","2","2","2","2","2","2","2","0","0","0","0","0","1","0","0","0","1","0","0","0","0","0","4","2","2","2","2","3","2","4","4","4","2","650407062907387904","赵","637","","","","","","","","","","","","","","","","","","","","","","","","","","","","","","feedback_test","","","","","","","","","","","",""
"889","","f","psychophysics","161","317709","0.0-7.0-1.0-4.0-0.0-0.27","3","3","3","3","3","3","3","3","3","3","4","4","4","4","4","4","4","4","4","4","2","2","2","2","2","2","2","2","2","0","0","0","0","0","1","0","0","0","1","0","0","0","0","0","4","2","2","2","2","3","2","4","4","4","2","650407062907387904","赵","637","","","","nonmatch","","","","","","","","","","","","","","key","f","16.678571428571427","1280","716","f","true","nonmatch","img/circle.png","六边","圆形","ALT1","formal_ALT1_2","","","","","","","","","","","",""
"null","<span style='color:GreenYellow; font-size: 70px;'>正确! </span>","null","html-keyboard-response","162","318211","0.0-7.0-1.0-4.0-0.0-1.27","3","3","3","3","3","3","3","3","3","3","4","4","4","4","4","4","4","4","4","4","2","2","2","2","2","2","2","2","2","0","0","0","0","0","1","0","0","0","1","0","0","0","0","0","4","2","2","2","2","3","2","4","4","4","2","650407062907387904","赵","637","","","","","","","","","","","","","","","","","","","","","","","","","","","","","","feedback_test","","","","","","","","","","","",""
"1123","","f","psychophysics","163","320341","0.0-7.0-1.0-4.0-0.0-0.28","3","3","3","3","3","3","3","3","3","3","4","4","4","4","4","4","4","4","4","4","2","2","2","2","2","2","2","2","2","0","0","0","0","0","1","0","0","0","1","0","0","0","0","0","4","2","2","2","2","3","2","4","4","4","2","650407062907387904","赵","637","","","","nonmatch","","","","","","","","","","","","","","key","f","16.682677165354423","1280","716","f","true","nonmatch","img/circle.png","梯形","圆形","ALT1","formal_ALT1_2","","","","","","","","","","","",""
"null","<span style='color:GreenYellow; font-size: 70px;'>正确! </span>","null","html-keyboard-response","164","320842","0.0-7.0-1.0-4.0-0.0-1.28","3","3","3","3","3","3","3","3","3","3","4","4","4","4","4","4","4","4","4","4","2","2","2","2","2","2","2","2","2","0","0","0","0","0","1","0","0","0","1","0","0","0","0","0","4","2","2","2","2","3","2","4","4","4","2","650407062907387904","赵","637","","","","","","","","","","","","","","","","","","","","","","","","","","","","","","feedback_test","","","","","","","","","","","",""
"490","","j","psychophysics","165","322334","0.0-7.0-1.0-4.0-0.0-0.29","3","3","3","3","3","3","3","3","3","3","4","4","4","4","4","4","4","4","4","4","2","2","2","2","2","2","2","2","2","0","0","0","0","0","1","0","0","0","1","0","0","0","0","0","4","2","2","2","2","3","2","4","4","4","2","650407062907387904","赵","637","","","","match","","","","","","","","","","","","","","key","j","16.68522727272714","1280","716","f","false","nonmatch","img/trapezoid.png","圆形","梯形","ALT1","formal_ALT1_2","","","","","","","","","","","",""
"null","<span style='color:red; font-size: 70px;'>错误! </span>","null","html-keyboard-response","166","322834","0.0-7.0-1.0-4.0-0.0-1.29","3","3","3","3","3","3","3","3","3","3","4","4","4","4","4","4","4","4","4","4","2","2","2","2","2","2","2","2","2","0","0","0","0","0","1","0","0","0","1","0","0","0","0","0","4","2","2","2","2","3","2","4","4","4","2","650407062907387904","赵","637","","","","","","","","","","","","","","","","","","","","","","","","","","","","","","feedback_test","","","","","","","","","","","",""
"651","","j","psychophysics","167","324486","0.0-7.0-1.0-4.0-0.0-0.30","3","3","3","3","3","3","3","3","3","3","4","4","4","4","4","4","4","4","4","4","2","2","2","2","2","2","2","2","2","0","0","0","0","0","1","0","0","0","1","0","0","0","0","0","4","2","2","2","2","3","2","4","4","4","2","650407062907387904","赵","637","","","","match","","","","","","","","","","","","","","key","j","16.683673469387756","1280","716","j","true","match","img/trapezoid.png","梯形","梯形","ALT1","formal_ALT1_2","","","","","","","","","","","",""
"null","<span style='color:GreenYellow; font-size: 70px;'>正确! </span>","null","html-keyboard-response","168","324986","0.0-7.0-1.0-4.0-0.0-1.30","3","3","3","3","3","3","3","3","3","3","4","4","4","4","4","4","4","4","4","4","2","2","2","2","2","2","2","2","2","0","0","0","0","0","1","0","0","0","1","0","0","0","0","0","4","2","2","2","2","3","2","4","4","4","2","650407062907387904","赵","637","","","","","","","","","","","","","","","","","","","","","","","","","","","","","","feedback_test","","","","","","","","","","","",""
"834","","j","psychophysics","169","326822","0.0-7.0-1.0-4.0-0.0-0.31","3","3","3","3","3","3","3","3","3","3","4","4","4","4","4","4","4","4","4","4","2","2","2","2","2","2","2","2","2","0","0","0","0","0","1","0","0","0","1","0","0","0","0","0","4","2","2","2","2","3","2","4","4","4","2","650407062907387904","赵","637","","","","match","","","","","","","","","","","","","","key","j","16.680733944954234","1280","716","f","false","nonmatch","img/square.png","六边","方形","ALT1","formal_ALT1_2","","","","","","","","","","","",""
"null","<span style='color:red; font-size: 70px;'>错误! </span>","null","html-keyboard-response","170","327323","0.0-7.0-1.0-4.0-0.0-1.31","3","3","3","3","3","3","3","3","3","3","4","4","4","4","4","4","4","4","4","4","2","2","2","2","2","2","2","2","2","0","0","0","0","0","1","0","0","0","1","0","0","0","0","0","4","2","2","2","2","3","2","4","4","4","2","650407062907387904","赵","637","","","","","","","","","","","","","","","","","","","","","","","","","","","","","","feedback_test","","","","","","","","","","","",""
"857","","j","psychophysics","171","329182","0.0-7.0-1.0-4.0-0.0-0.32","3","3","3","3","3","3","3","3","3","3","4","4","4","4","4","4","4","4","4","4","2","2","2","2","2","2","2","2","2","0","0","0","0","0","1","0","0","0","1","0","0","0","0","0","4","2","2","2","2","3","2","4","4","4","2","650407062907387904","赵","637","","","","match","","","","","","","","","","","","","","key","j","16.68378378378347","1280","716","j","true","match","img/hexagon.png","六边","六边","ALT1","formal_ALT1_2","","","","","","","","","","","",""
"null","<span style='color:GreenYellow; font-size: 70px;'>正确! </span>","null","html-keyboard-response","172","329697","0.0-7.0-1.0-4.0-0.0-1.32","3","3","3","3","3","3","3","3","3","3","4","4","4","4","4","4","4","4","4","4","2","2","2","2","2","2","2","2","2","0","0","0","0","0","1","0","0","0","1","0","0","0","0","0","4","2","2","2","2","3","2","4","4","4","2","650407062907387904","赵","637","","","","","","","","","","","","","","","","","","","","","","","","","","","","","","feedback_test","","","","","","","","","","","",""
"892","","f","psychophysics","173","331590","0.0-7.0-1.0-4.0-0.0-0.33","3","3","3","3","3","3","3","3","3","3","4","4","4","4","4","4","4","4","4","4","2","2","2","2","2","2","2","2","2","0","0","0","0","0","1","0","0","0","1","0","0","0","0","0","4","2","2","2","2","3","2","4","4","4","2","650407062907387904","赵","637","","","","nonmatch","","","","","","","","","","","","","","key","f","16.680357142857247","1280","716","f","true","nonmatch","img/hexagon.png","梯形","六边","ALT1","formal_ALT1_2","","","","","","","","","","","",""
"null","<span style='color:GreenYellow; font-size: 70px;'>正确! </span>","null","html-keyboard-response","174","332091","0.0-7.0-1.0-4.0-0.0-1.33","3","3","3","3","3","3","3","3","3","3","4","4","4","4","4","4","4","4","4","4","2","2","2","2","2","2","2","2","2","0","0","0","0","0","1","0","0","0","1","0","0","0","0","0","4","2","2","2","2","3","2","4","4","4","2","650407062907387904","赵","637","","","","","","","","","","","","","","","","","","","","","","","","","","","","","","feedback_test","","","","","","","","","","","",""
"961","","j","psychophysics","175","334054","0.0-7.0-1.0-4.0-0.0-0.34","3","3","3","3","3","3","3","3","3","3","4","4","4","4","4","4","4","4","4","4","2","2","2","2","2","2","2","2","2","0","0","0","0","0","1","0","0","0","1","0","0","0","0","0","4","2","2","2","2","3","2","4","4","4","2","650407062907387904","赵","637","","","","match","","","","","","","","","","","","","","key","j","16.682051282051184","1280","716","f","false","nonmatch","img/hexagon.png","方形","六边","ALT1","formal_ALT1_2","","","","","","","","","","","",""
"null","<span style='color:red; font-size: 70px;'>错误! </span>","null","html-keyboard-response","176","334555","0.0-7.0-1.0-4.0-0.0-1.34","3","3","3","3","3","3","3","3","3","3","4","4","4","4","4","4","4","4","4","4","2","2","2","2","2","2","2","2","2","0","0","0","0","0","1","0","0","0","1","0","0","0","0","0","4","2","2","2","2","3","2","4","4","4","2","650407062907387904","赵","637","","","","","","","","","","","","","","","","","","","","","","","","","","","","","","feedback_test","","","","","","","","","","","",""
"1001","","j","psychophysics","177","336557","0.0-7.0-1.0-4.0-0.0-0.35","3","3","3","3","3","3","3","3","3","3","4","4","4","4","4","4","4","4","4","4","2","2","2","2","2","2","2","2","2","0","0","0","0","0","1","0","0","0","1","0","0","0","0","0","4","2","2","2","2","3","2","4","4","4","2","650407062907387904","赵","637","","","","match","","","","","","","","","","","","","","key","j","16.682352941176568","1280","716","j","true","match","img/circle.png","圆形","圆形","ALT1","formal_ALT1_2","","","","","","","","","","","",""
"null","<span style='color:GreenYellow; font-size: 70px;'>正确! </span>","null","html-keyboard-response","178","337058","0.0-7.0-1.0-4.0-0.0-1.35","3","3","3","3","3","3","3","3","3","3","4","4","4","4","4","4","4","4","4","4","2","2","2","2","2","2","2","2","2","0","0","0","0","0","1","0","0","0","1","0","0","0","0","0","4","2","2","2","2","3","2","4","4","4","2","650407062907387904","赵","637","","","","","","","","","","","","","","","","","","","","","","","","","","","","","","feedback_test","","","","","","","","","","","",""
"994","","j","psychophysics","179","339053","0.0-7.0-1.0-4.0-0.0-0.36","3","3","3","3","3","3","3","3","3","3","4","4","4","4","4","4","4","4","4","4","2","2","2","2","2","2","2","2","2","0","0","0","0","0","1","0","0","0","1","0","0","0","0","0","4","2","2","2","2","3","2","4","4","4","2","650407062907387904","赵","637","","","","match","","","","","","","","","","","","","","key","j","16.683193277310828","1280","716","j","true","match","img/square.png","方形","方形","ALT1","formal_ALT1_2","","","","","","","","","","","",""
"null","<span style='color:GreenYellow; font-size: 70px;'>正确! </span>","null","html-keyboard-response","180","339554","0.0-7.0-1.0-4.0-0.0-1.36","3","3","3","3","3","3","3","3","3","3","4","4","4","4","4","4","4","4","4","4","2","2","2","2","2","2","2","2","2","0","0","0","0","0","1","0","0","0","1","0","0","0","0","0","4","2","2","2","2","3","2","4","4","4","2","650407062907387904","赵","637","","","","","","","","","","","","","","","","","","","","","","","","","","","","","","feedback_test","","","","","","","","","","","",""
"690","","j","psychophysics","181","341245","0.0-7.0-1.0-4.0-0.0-0.37","3","3","3","3","3","3","3","3","3","3","4","4","4","4","4","4","4","4","4","4","2","2","2","2","2","2","2","2","2","0","0","0","0","0","1","0","0","0","1","0","0","0","0","0","4","2","2","2","2","3","2","4","4","4","2","650407062907387904","赵","637","","","","match","","","","","","","","","","","","","","key","j","16.683000000000465","1280","716","j","true","match","img/circle.png","圆形","圆形","ALT1","formal_ALT1_2","","","","","","","","","","","",""
