"rt","stimulus","response","trial_type","trial_index","time_elapsed","internal_node_id","ses_1","ses_2","ses_3","ses_4","ses_5","ses_6","ses_7","ses_8","ses_9","ses_10","coreself_1","coreself_2","coreself_3","coreself_4","coreself_5","coreself_6","coreself_7","coreself_8","coreself_9","coreself_10","SGPS_1","SGPS_2","SGPS_3","SGPS_4","SGPS_5","SGPS_6","SGPS_7","SGPS_8","SGPS_9","NPI1","NPI2","NPI3","NPI4","NPI5","NPI6","NPI7","NPI8","NPI9","NPI10","NPI11","NPI12","NPI13","NPI14","NPI15","hsns_1","hsns_2","hsns_3","hsns_4","hsns_5","trap1","hsns_6","hsns_7","hsns_8","hsns_9","hsns_10","subj_idx","friend_name","ParticipantID","value","success","user_agent","responses","item_order","radio_event_ids","radio_event_times","key_event_times","mouse_event_times","straightlining","zigzagging","honeypot","timeout","failed_images","failed_audio","failed_video","version_attrib2","version_target2","correct","IAT","screen_id","task_id","RT","condition","word","varname","summary","version_attrib","version_target","time_stamp","view_history","response_type","key_press","avg_frame_time","center_x","center_y","correct_response","identity","Image","question_order","correct_answer","trap1_item"
"1751","
   <p><div style = ""color: white;font-size:25px;"">您好，欢迎参加本次实验。</div> </p>
   <p><div style = ""color: white;font-size:25px;"">为充分保障您的权利，请确保您已经知晓并同意《参与实验同意书》以及《数据公开知情同意书》。</div></p>
   <p><div style = ""color: white;font-size:25px;"">如果您未见过上述内容，请咨询实验员。</div></p>
   <p><div style = ""color: white;font-size:25px;"">如果您选择继续实验，则表示您已经清楚两份知情同意书的内容并同意。</div></p>
   <p><div style = ""color: pink;font-size:30px;"">请确保您记得day0的实验编号，您将在本次实验输入该编号，若您忘记，请咨询实验员后作答。</div></p>
   <p><div style = ""color: lightblue;font-size:25px;"">请您尽可能认真地作答，我们将依据您在各问卷和按键任务中的作答质量发放报酬。</div></p>
   <p> <div style = ""color: green;font-size:25px;""><按空格键至下页></div> </p>
   "," ","html-keyboard-response","0","1752","0.0-0.0","4","4","4","4","4","4","4","4","4","4","5","5","5","5","5","5","5","5","5","5","1","1","1","1","1","1","1","1","1","1","0","1","1","0","0","0","1","0","1","1","0","1","0","1","5","1","1","2","2","1","1","2","2","5","1","621363018810261504","袁","700","","","","","","","","","","","","","","","","","","","","","","","","","","","","","","","","","","","","","","","","","",""
"","","","call-function","1","1753","0.0-1.0-0.0","4","4","4","4","4","4","4","4","4","4","5","5","5","5","5","5","5","5","5","5","1","1","1","1","1","1","1","1","1","1","0","1","1","0","0","0","1","0","1","1","0","1","0","1","5","1","1","2","2","1","1","2","2","5","1","621363018810261504","袁","700","","","","","","","","","","","","","","","","","","","","","","","","","","","","","","","","","","","","","","","","","",""
"24079","","{""friend_name"":""袁"",""ParticipantID"":""700""}","survey-html-form","2","25833","0.0-1.0-1.0","4","4","4","4","4","4","4","4","4","4","5","5","5","5","5","5","5","5","5","5","1","1","1","1","1","1","1","1","1","1","0","1","1","0","0","0","1","0","1","1","0","1","0","1","5","1","1","2","2","1","1","2","2","5","1","621363018810261504","袁","700","","","","","","","","","","","","","","","","","","","","","","","","","","","","","","","","","","","","","","","","","",""
"","","","fullscreen","3","28534","0.0-2.0","4","4","4","4","4","4","4","4","4","4","5","5","5","5","5","5","5","5","5","5","1","1","1","1","1","1","1","1","1","1","0","1","1","0","0","0","1","0","1","1","0","1","0","1","5","1","1","2","2","1","1","2","2","5","1","621363018810261504","袁","700","","true","{}","","","","","","","","","","","","","","","","","","","","","","","","","","","","","","","","","","","","","","",""
"23562.39999961853","","{""Q01"":""4"",""Q02"":""4"",""Q03"":""4"",""Q04"":""4"",""Q05"":""4"",""Q06"":""4"",""Q07"":""4"",""Q08"":""4"",""Q09"":""4"",""Q10"":""4""}","survey-template","4","52098","0.0-3.0","4","4","4","4","4","4","4","4","4","4","5","5","5","5","5","5","5","5","5","5","1","1","1","1","1","1","1","1","1","1","0","1","1","0","0","0","1","0","1","1","0","1","0","1","5","1","1","2","2","1","1","2","2","5","1","621363018810261504","袁","700","","","","{""Q01"":""4"",""Q02"":""4"",""Q03"":""4"",""Q04"":""4"",""Q05"":""4"",""Q06"":""4"",""Q07"":""4"",""Q08"":""4"",""Q09"":""4"",""Q10"":""4""}","[0,1,2,3,4,5,6,7,8,9]","[""Q01"",""Q03"",""Q04"",""Q02"",""Q06"",""Q05"",""Q09"",""Q10"",""Q08"",""Q07""]","[9177.39999961853,11409.39999961853,12369.79999923706,12897.70000076294,14273.20000076294,16561.5,18481.20000076294,19153.39999961853,21169.29999923706,22777.60000038147]","[]","[9177.39999961853,10361.20000076294,11409.39999961853,12369.79999923706,12897.70000076294,14273.20000076294,15665.60000038147,16561.5,18481.20000076294,19153.39999961853,21169.29999923706,22049.39999961853,22777.60000038147,23561.60000038147]","0.5","0.5555555555555556","0","","","","","","","","","","","","","","","","","","","","","","","","","","","","","",""
"18148.39999961853","","{""Q01"":""5"",""Q02"":""5"",""Q03"":""5"",""Q04"":""5"",""Q05"":""5"",""Q06"":""5"",""Q07"":""5"",""Q08"":""5"",""Q09"":""5"",""Q10"":""5""}","survey-template","5","70250","0.0-4.0","4","4","4","4","4","4","4","4","4","4","5","5","5","5","5","5","5","5","5","5","1","1","1","1","1","1","1","1","1","1","0","1","1","0","0","0","1","0","1","1","0","1","0","1","5","1","1","2","2","1","1","2","2","5","1","621363018810261504","袁","700","","","","{""Q01"":""5"",""Q02"":""5"",""Q03"":""5"",""Q04"":""5"",""Q05"":""5"",""Q06"":""5"",""Q07"":""5"",""Q08"":""5"",""Q09"":""5"",""Q10"":""5""}","[0,1,2,3,4,5,6,7,8,9]","[""Q01"",""Q02"",""Q03"",""Q04"",""Q05"",""Q06"",""Q07"",""Q08"",""Q09"",""Q10""]","[2013.2999992370605,3003.3999996185303,3563.1000003814697,4275.39999961853,5308.10000038147,6339.699998855591,7299.60000038147,8059.10000038147,9147.10000038147,9947.10000038147]","[]","[2013.2999992370605,3003.3999996185303,3563.1000003814697,4275.39999961853,5308.10000038147,6339.699998855591,7299.60000038147,8059.10000038147,9147.10000038147,9947.10000038147,18147.60000038147]","0.6","0.7777777777777778","0","","","","","","","","","","","","","","","","","","","","","","","","","","","","","",""
"","","","preload","6","70505","0.0-5.0","4","4","4","4","4","4","4","4","4","4","5","5","5","5","5","5","5","5","5","5","1","1","1","1","1","1","1","1","1","1","0","1","1","0","0","0","1","0","1","1","0","1","0","1","5","1","1","2","2","1","1","2","2","5","1","621363018810261504","袁","700","","true","","","","","","","","","","","false","[]","[]","[]","","","","","","","","","","","","","","","","","","","","","","","","","",""
"72207","
    <h3>词语分类任务</h3>
    <p>在接下来的任务中，你需要对一系列词语进行分类。<p/>
    请先熟悉这些词语，这有利于你完成接下来的任务。</p>
    <table align=""center"" border=1 cellpadding=3 cellspacing=0>
    <tr> <th>类别</th> <th>词语</th> </tr>
    <tr> <td>&emsp;积极&emsp;</td> <td>&emsp;高尚、诚信、善良、君子、廉正、正直&emsp;</td> </tr>
    <tr> <td>&emsp;消极&emsp;</td> <td>&emsp;缺德、卑鄙、不孝、不仁、小人、黑心&emsp;</td> </tr>
    <tr> <td>&emsp;自我&emsp;</td> <td>&emsp;我、我的、自己、自己的、本人、本人的&emsp;</td> </tr>
    <tr> <td>&emsp;他人&emsp;</td> <td>&emsp;他、他的、别人、别人的、他人、他人的&emsp;</td> </tr>
    </table><br/>","0","html-button-response","7","142712","0.0-6.0-1.0-0.0","4","4","4","4","4","4","4","4","4","4","5","5","5","5","5","5","5","5","5","5","1","1","1","1","1","1","1","1","1","1","0","1","1","0","0","0","1","0","1","1","0","1","0","1","5","1","1","2","2","1","1","2","2","5","1","621363018810261504","袁","700","","","","","","","","","","","","","","","","","1","2","","","","","","","","","","","","","","","","","","","","","","","",""
"21510","
    <div class=""tag-bottom""><p>
    —— 任务1：对“他人”词和“自我”词分类 ——<p/>
    不同词语会出现在屏幕中央，类别标签将始终显示在屏幕上方<p/>   
    <span style=""color:#FFD866""><b>请根据上方标签的提示，尽可能正确并且快速地做出按键反应</b></span><p/>
    当按键错误时屏幕中会出现<span style=""color:red""> X </span>，需要按另一个键纠正才能继续<br/><p/>
    请把双手食指分别放在键盘的“E”键和“I”键上<p/>
    按<空格键>开始
    </p></div>"," ","html-keyboard-response","8","164224","0.0-6.0-1.0-1.0","4","4","4","4","4","4","4","4","4","4","5","5","5","5","5","5","5","5","5","5","1","1","1","1","1","1","1","1","1","1","0","1","1","0","0","0","1","0","1","1","0","1","0","1","5","1","1","2","2","1","1","2","2","5","1","621363018810261504","袁","700","","","","","","","","","","","","","","","","","","","","","","","","","","","","","","","","","","","","","","","","","",""
"null","","null","html-keyboard-response","9","164477","0.0-6.0-1.0-2.0-0.0","4","4","4","4","4","4","4","4","4","4","5","5","5","5","5","5","5","5","5","5","1","1","1","1","1","1","1","1","1","1","0","1","1","0","0","0","1","0","1","1","0","1","0","1","5","1","1","2","2","1","1","2","2","5","1","621363018810261504","袁","700","","","","","","","","","","","","","","","","","","","","","","","","","","","","","","","","","","","","","","","","","",""
"763","<p style=""color:rgb(150, 250, 100); font-size: 35px;"">别人</p>","e","categorize-html","10","165241","0.0-6.0-1.0-2.0-1.0","4","4","4","4","4","4","4","4","4","4","5","5","5","5","5","5","5","5","5","5","1","1","1","1","1","1","1","1","1","1","0","1","1","0","0","0","1","0","1","1","0","1","0","1","5","1","1","2","2","1","1","2","2","5","1","621363018810261504","袁","700","","","","","","","","","","","","","","","","","","","true","11","1","moral","763","other","别人","","","","","","","","","","","","","","","","",""
"null","","null","html-keyboard-response","11","165493","0.0-6.0-1.0-2.0-0.1","4","4","4","4","4","4","4","4","4","4","5","5","5","5","5","5","5","5","5","5","1","1","1","1","1","1","1","1","1","1","0","1","1","0","0","0","1","0","1","1","0","1","0","1","5","1","1","2","2","1","1","2","2","5","1","621363018810261504","袁","700","","","","","","","","","","","","","","","","","","","","","","","","","","","","","","","","","","","","","","","","","",""
"524","<p style=""color:rgb(150, 250, 100); font-size: 35px;"">本人的</p>","i","categorize-html","12","166018","0.0-6.0-1.0-2.0-1.1","4","4","4","4","4","4","4","4","4","4","5","5","5","5","5","5","5","5","5","5","1","1","1","1","1","1","1","1","1","1","0","1","1","0","0","0","1","0","1","1","0","1","0","1","5","1","1","2","2","1","1","2","2","5","1","621363018810261504","袁","700","","","","","","","","","","","","","","","","","","","true","11","1","moral","524","self","本人的","","","","","","","","","","","","","","","","",""
"null","","null","html-keyboard-response","13","166270","0.0-6.0-1.0-2.0-0.2","4","4","4","4","4","4","4","4","4","4","5","5","5","5","5","5","5","5","5","5","1","1","1","1","1","1","1","1","1","1","0","1","1","0","0","0","1","0","1","1","0","1","0","1","5","1","1","2","2","1","1","2","2","5","1","621363018810261504","袁","700","","","","","","","","","","","","","","","","","","","","","","","","","","","","","","","","","","","","","","","","","",""
"442","<p style=""color:rgb(150, 250, 100); font-size: 35px;"">我的</p>","e","categorize-html","14","166985","0.0-6.0-1.0-2.0-1.2","4","4","4","4","4","4","4","4","4","4","5","5","5","5","5","5","5","5","5","5","1","1","1","1","1","1","1","1","1","1","0","1","1","0","0","0","1","0","1","1","0","1","0","1","5","1","1","2","2","1","1","2","2","5","1","621363018810261504","袁","700","","","","","","","","","","","","","","","","","","","false","11","1","moral","442","self","我的","","","","","","","","","","","","","","","","",""
"null","","null","html-keyboard-response","15","167237","0.0-6.0-1.0-2.0-0.3","4","4","4","4","4","4","4","4","4","4","5","5","5","5","5","5","5","5","5","5","1","1","1","1","1","1","1","1","1","1","0","1","1","0","0","0","1","0","1","1","0","1","0","1","5","1","1","2","2","1","1","2","2","5","1","621363018810261504","袁","700","","","","","","","","","","","","","","","","","","","","","","","","","","","","","","","","","","","","","","","","","",""
"419","<p style=""color:rgb(150, 250, 100); font-size: 35px;"">我</p>","i","categorize-html","16","167656","0.0-6.0-1.0-2.0-1.3","4","4","4","4","4","4","4","4","4","4","5","5","5","5","5","5","5","5","5","5","1","1","1","1","1","1","1","1","1","1","0","1","1","0","0","0","1","0","1","1","0","1","0","1","5","1","1","2","2","1","1","2","2","5","1","621363018810261504","袁","700","","","","","","","","","","","","","","","","","","","true","11","1","moral","419","self","我","","","","","","","","","","","","","","","","",""
"null","","null","html-keyboard-response","17","167908","0.0-6.0-1.0-2.0-0.4","4","4","4","4","4","4","4","4","4","4","5","5","5","5","5","5","5","5","5","5","1","1","1","1","1","1","1","1","1","1","0","1","1","0","0","0","1","0","1","1","0","1","0","1","5","1","1","2","2","1","1","2","2","5","1","621363018810261504","袁","700","","","","","","","","","","","","","","","","","","","","","","","","","","","","","","","","","","","","","","","","","",""
"428","<p style=""color:rgb(150, 250, 100); font-size: 35px;"">自己的</p>","e","categorize-html","18","168456","0.0-6.0-1.0-2.0-1.4","4","4","4","4","4","4","4","4","4","4","5","5","5","5","5","5","5","5","5","5","1","1","1","1","1","1","1","1","1","1","0","1","1","0","0","0","1","0","1","1","0","1","0","1","5","1","1","2","2","1","1","2","2","5","1","621363018810261504","袁","700","","","","","","","","","","","","","","","","","","","false","11","1","moral","428","self","自己的","","","","","","","","","","","","","","","","",""
"null","","null","html-keyboard-response","19","168707","0.0-6.0-1.0-2.0-0.5","4","4","4","4","4","4","4","4","4","4","5","5","5","5","5","5","5","5","5","5","1","1","1","1","1","1","1","1","1","1","0","1","1","0","0","0","1","0","1","1","0","1","0","1","5","1","1","2","2","1","1","2","2","5","1","621363018810261504","袁","700","","","","","","","","","","","","","","","","","","","","","","","","","","","","","","","","","","","","","","","","","",""
"437","<p style=""color:rgb(150, 250, 100); font-size: 35px;"">他的</p>","e","categorize-html","20","169144","0.0-6.0-1.0-2.0-1.5","4","4","4","4","4","4","4","4","4","4","5","5","5","5","5","5","5","5","5","5","1","1","1","1","1","1","1","1","1","1","0","1","1","0","0","0","1","0","1","1","0","1","0","1","5","1","1","2","2","1","1","2","2","5","1","621363018810261504","袁","700","","","","","","","","","","","","","","","","","","","true","11","1","moral","437","other","他的","","","","","","","","","","","","","","","","",""
"null","","null","html-keyboard-response","21","169395","0.0-6.0-1.0-2.0-0.6","4","4","4","4","4","4","4","4","4","4","5","5","5","5","5","5","5","5","5","5","1","1","1","1","1","1","1","1","1","1","0","1","1","0","0","0","1","0","1","1","0","1","0","1","5","1","1","2","2","1","1","2","2","5","1","621363018810261504","袁","700","","","","","","","","","","","","","","","","","","","","","","","","","","","","","","","","","","","","","","","","","",""
"516","<p style=""color:rgb(150, 250, 100); font-size: 35px;"">本人</p>","i","categorize-html","22","169913","0.0-6.0-1.0-2.0-1.6","4","4","4","4","4","4","4","4","4","4","5","5","5","5","5","5","5","5","5","5","1","1","1","1","1","1","1","1","1","1","0","1","1","0","0","0","1","0","1","1","0","1","0","1","5","1","1","2","2","1","1","2","2","5","1","621363018810261504","袁","700","","","","","","","","","","","","","","","","","","","true","11","1","moral","516","self","本人","","","","","","","","","","","","","","","","",""
"null","","null","html-keyboard-response","23","170164","0.0-6.0-1.0-2.0-0.7","4","4","4","4","4","4","4","4","4","4","5","5","5","5","5","5","5","5","5","5","1","1","1","1","1","1","1","1","1","1","0","1","1","0","0","0","1","0","1","1","0","1","0","1","5","1","1","2","2","1","1","2","2","5","1","621363018810261504","袁","700","","","","","","","","","","","","","","","","","","","","","","","","","","","","","","","","","","","","","","","","","",""
"411","<p style=""color:rgb(150, 250, 100); font-size: 35px;"">自己</p>","i","categorize-html","24","170577","0.0-6.0-1.0-2.0-1.7","4","4","4","4","4","4","4","4","4","4","5","5","5","5","5","5","5","5","5","5","1","1","1","1","1","1","1","1","1","1","0","1","1","0","0","0","1","0","1","1","0","1","0","1","5","1","1","2","2","1","1","2","2","5","1","621363018810261504","袁","700","","","","","","","","","","","","","","","","","","","true","11","1","moral","411","self","自己","","","","","","","","","","","","","","","","",""
"null","","null","html-keyboard-response","25","170829","0.0-6.0-1.0-2.0-0.8","4","4","4","4","4","4","4","4","4","4","5","5","5","5","5","5","5","5","5","5","1","1","1","1","1","1","1","1","1","1","0","1","1","0","0","0","1","0","1","1","0","1","0","1","5","1","1","2","2","1","1","2","2","5","1","621363018810261504","袁","700","","","","","","","","","","","","","","","","","","","","","","","","","","","","","","","","","","","","","","","","","",""
"531","<p style=""color:rgb(150, 250, 100); font-size: 35px;"">他人</p>","e","categorize-html","26","171360","0.0-6.0-1.0-2.0-1.8","4","4","4","4","4","4","4","4","4","4","5","5","5","5","5","5","5","5","5","5","1","1","1","1","1","1","1","1","1","1","0","1","1","0","0","0","1","0","1","1","0","1","0","1","5","1","1","2","2","1","1","2","2","5","1","621363018810261504","袁","700","","","","","","","","","","","","","","","","","","","true","11","1","moral","531","other","他人","","","","","","","","","","","","","","","","",""
"null","","null","html-keyboard-response","27","171612","0.0-6.0-1.0-2.0-0.9","4","4","4","4","4","4","4","4","4","4","5","5","5","5","5","5","5","5","5","5","1","1","1","1","1","1","1","1","1","1","0","1","1","0","0","0","1","0","1","1","0","1","0","1","5","1","1","2","2","1","1","2","2","5","1","621363018810261504","袁","700","","","","","","","","","","","","","","","","","","","","","","","","","","","","","","","","","","","","","","","","","",""
"460","<p style=""color:rgb(150, 250, 100); font-size: 35px;"">别人的</p>","e","categorize-html","28","172073","0.0-6.0-1.0-2.0-1.9","4","4","4","4","4","4","4","4","4","4","5","5","5","5","5","5","5","5","5","5","1","1","1","1","1","1","1","1","1","1","0","1","1","0","0","0","1","0","1","1","0","1","0","1","5","1","1","2","2","1","1","2","2","5","1","621363018810261504","袁","700","","","","","","","","","","","","","","","","","","","true","11","1","moral","460","other","别人的","","","","","","","","","","","","","","","","",""
"null","","null","html-keyboard-response","29","172325","0.0-6.0-1.0-2.0-0.10","4","4","4","4","4","4","4","4","4","4","5","5","5","5","5","5","5","5","5","5","1","1","1","1","1","1","1","1","1","1","0","1","1","0","0","0","1","0","1","1","0","1","0","1","5","1","1","2","2","1","1","2","2","5","1","621363018810261504","袁","700","","","","","","","","","","","","","","","","","","","","","","","","","","","","","","","","","","","","","","","","","",""
"435","<p style=""color:rgb(150, 250, 100); font-size: 35px;"">他人的</p>","e","categorize-html","30","172760","0.0-6.0-1.0-2.0-1.10","4","4","4","4","4","4","4","4","4","4","5","5","5","5","5","5","5","5","5","5","1","1","1","1","1","1","1","1","1","1","0","1","1","0","0","0","1","0","1","1","0","1","0","1","5","1","1","2","2","1","1","2","2","5","1","621363018810261504","袁","700","","","","","","","","","","","","","","","","","","","true","11","1","moral","435","other","他人的","","","","","","","","","","","","","","","","",""
"null","","null","html-keyboard-response","31","173012","0.0-6.0-1.0-2.0-0.11","4","4","4","4","4","4","4","4","4","4","5","5","5","5","5","5","5","5","5","5","1","1","1","1","1","1","1","1","1","1","0","1","1","0","0","0","1","0","1","1","0","1","0","1","5","1","1","2","2","1","1","2","2","5","1","621363018810261504","袁","700","","","","","","","","","","","","","","","","","","","","","","","","","","","","","","","","","","","","","","","","","",""
"444","<p style=""color:rgb(150, 250, 100); font-size: 35px;"">他</p>","e","categorize-html","32","173456","0.0-6.0-1.0-2.0-1.11","4","4","4","4","4","4","4","4","4","4","5","5","5","5","5","5","5","5","5","5","1","1","1","1","1","1","1","1","1","1","0","1","1","0","0","0","1","0","1","1","0","1","0","1","5","1","1","2","2","1","1","2","2","5","1","621363018810261504","袁","700","","","","","","","","","","","","","","","","","","","true","11","1","moral","444","other","他","","","","","","","","","","","","","","","","",""
"7063","
    <div class=""tag-bottom""><p>
    —— 任务2：对“积极”词和“消极”词分类 ——<p/>   
    <span style=""color:#78DCE8""><b>注意上方，类别标签和需要分类的词语都已经改变</b></span><p/>
    <span style=""color:#FFD866""><b>请根据上方标签的提示，尽可能正确并且快速地做出按键反应</b></span><p/>
    当按键错误时屏幕中会出现<span style=""color:red""> X </span>，需要按另一个键纠正才能继续<br/><p/>
    请把双手食指分别放在键盘的“E”键和“I”键上<p/>
    按<空格键>开始
    </p></div>"," ","html-keyboard-response","33","180520","0.0-6.0-1.0-3.0","4","4","4","4","4","4","4","4","4","4","5","5","5","5","5","5","5","5","5","5","1","1","1","1","1","1","1","1","1","1","0","1","1","0","0","0","1","0","1","1","0","1","0","1","5","1","1","2","2","1","1","2","2","5","1","621363018810261504","袁","700","","","","","","","","","","","","","","","","","","","","","","","","","","","","","","","","","","","","","","","","","",""
"null","","null","html-keyboard-response","34","180772","0.0-6.0-1.0-4.0-0.0","4","4","4","4","4","4","4","4","4","4","5","5","5","5","5","5","5","5","5","5","1","1","1","1","1","1","1","1","1","1","0","1","1","0","0","0","1","0","1","1","0","1","0","1","5","1","1","2","2","1","1","2","2","5","1","621363018810261504","袁","700","","","","","","","","","","","","","","","","","","","","","","","","","","","","","","","","","","","","","","","","","",""
"500","<p style=""color:white; font-size: 35px;"">善良</p>","e","categorize-html","35","181272","0.0-6.0-1.0-4.0-1.0","4","4","4","4","4","4","4","4","4","4","5","5","5","5","5","5","5","5","5","5","1","1","1","1","1","1","1","1","1","1","0","1","1","0","0","0","1","0","1","1","0","1","0","1","5","1","1","2","2","1","1","2","2","5","1","621363018810261504","袁","700","","","","","","","","","","","","","","","","","","","true","12","2","moral","500","positive","善良","","","","","","","","","","","","","","","","",""
"null","","null","html-keyboard-response","36","181524","0.0-6.0-1.0-4.0-0.1","4","4","4","4","4","4","4","4","4","4","5","5","5","5","5","5","5","5","5","5","1","1","1","1","1","1","1","1","1","1","0","1","1","0","0","0","1","0","1","1","0","1","0","1","5","1","1","2","2","1","1","2","2","5","1","621363018810261504","袁","700","","","","","","","","","","","","","","","","","","","","","","","","","","","","","","","","","","","","","","","","","",""
"564","<p style=""color:white; font-size: 35px;"">不仁</p>","i","categorize-html","37","182089","0.0-6.0-1.0-4.0-1.1","4","4","4","4","4","4","4","4","4","4","5","5","5","5","5","5","5","5","5","5","1","1","1","1","1","1","1","1","1","1","0","1","1","0","0","0","1","0","1","1","0","1","0","1","5","1","1","2","2","1","1","2","2","5","1","621363018810261504","袁","700","","","","","","","","","","","","","","","","","","","true","12","2","moral","564","negative","不仁","","","","","","","","","","","","","","","","",""
"null","","null","html-keyboard-response","38","182341","0.0-6.0-1.0-4.0-0.2","4","4","4","4","4","4","4","4","4","4","5","5","5","5","5","5","5","5","5","5","1","1","1","1","1","1","1","1","1","1","0","1","1","0","0","0","1","0","1","1","0","1","0","1","5","1","1","2","2","1","1","2","2","5","1","621363018810261504","袁","700","","","","","","","","","","","","","","","","","","","","","","","","","","","","","","","","","","","","","","","","","",""
"490","<p style=""color:white; font-size: 35px;"">正直</p>","e","categorize-html","39","182833","0.0-6.0-1.0-4.0-1.2","4","4","4","4","4","4","4","4","4","4","5","5","5","5","5","5","5","5","5","5","1","1","1","1","1","1","1","1","1","1","0","1","1","0","0","0","1","0","1","1","0","1","0","1","5","1","1","2","2","1","1","2","2","5","1","621363018810261504","袁","700","","","","","","","","","","","","","","","","","","","true","12","2","moral","490","positive","正直","","","","","","","","","","","","","","","","",""
"null","","null","html-keyboard-response","40","183084","0.0-6.0-1.0-4.0-0.3","4","4","4","4","4","4","4","4","4","4","5","5","5","5","5","5","5","5","5","5","1","1","1","1","1","1","1","1","1","1","0","1","1","0","0","0","1","0","1","1","0","1","0","1","5","1","1","2","2","1","1","2","2","5","1","621363018810261504","袁","700","","","","","","","","","","","","","","","","","","","","","","","","","","","","","","","","","","","","","","","","","",""
"468","<p style=""color:white; font-size: 35px;"">君子</p>","e","categorize-html","41","183553","0.0-6.0-1.0-4.0-1.3","4","4","4","4","4","4","4","4","4","4","5","5","5","5","5","5","5","5","5","5","1","1","1","1","1","1","1","1","1","1","0","1","1","0","0","0","1","0","1","1","0","1","0","1","5","1","1","2","2","1","1","2","2","5","1","621363018810261504","袁","700","","","","","","","","","","","","","","","","","","","true","12","2","moral","468","positive","君子","","","","","","","","","","","","","","","","",""
"null","","null","html-keyboard-response","42","183804","0.0-6.0-1.0-4.0-0.4","4","4","4","4","4","4","4","4","4","4","5","5","5","5","5","5","5","5","5","5","1","1","1","1","1","1","1","1","1","1","0","1","1","0","0","0","1","0","1","1","0","1","0","1","5","1","1","2","2","1","1","2","2","5","1","621363018810261504","袁","700","","","","","","","","","","","","","","","","","","","","","","","","","","","","","","","","","","","","","","","","","",""
"557","<p style=""color:white; font-size: 35px;"">缺德</p>","i","categorize-html","43","184361","0.0-6.0-1.0-4.0-1.4","4","4","4","4","4","4","4","4","4","4","5","5","5","5","5","5","5","5","5","5","1","1","1","1","1","1","1","1","1","1","0","1","1","0","0","0","1","0","1","1","0","1","0","1","5","1","1","2","2","1","1","2","2","5","1","621363018810261504","袁","700","","","","","","","","","","","","","","","","","","","true","12","2","moral","557","negative","缺德","","","","","","","","","","","","","","","","",""
"null","","null","html-keyboard-response","44","184613","0.0-6.0-1.0-4.0-0.5","4","4","4","4","4","4","4","4","4","4","5","5","5","5","5","5","5","5","5","5","1","1","1","1","1","1","1","1","1","1","0","1","1","0","0","0","1","0","1","1","0","1","0","1","5","1","1","2","2","1","1","2","2","5","1","621363018810261504","袁","700","","","","","","","","","","","","","","","","","","","","","","","","","","","","","","","","","","","","","","","","","",""
"476","<p style=""color:white; font-size: 35px;"">黑心</p>","i","categorize-html","45","185089","0.0-6.0-1.0-4.0-1.5","4","4","4","4","4","4","4","4","4","4","5","5","5","5","5","5","5","5","5","5","1","1","1","1","1","1","1","1","1","1","0","1","1","0","0","0","1","0","1","1","0","1","0","1","5","1","1","2","2","1","1","2","2","5","1","621363018810261504","袁","700","","","","","","","","","","","","","","","","","","","true","12","2","moral","476","negative","黑心","","","","","","","","","","","","","","","","",""
"null","","null","html-keyboard-response","46","185341","0.0-6.0-1.0-4.0-0.6","4","4","4","4","4","4","4","4","4","4","5","5","5","5","5","5","5","5","5","5","1","1","1","1","1","1","1","1","1","1","0","1","1","0","0","0","1","0","1","1","0","1","0","1","5","1","1","2","2","1","1","2","2","5","1","621363018810261504","袁","700","","","","","","","","","","","","","","","","","","","","","","","","","","","","","","","","","","","","","","","","","",""
"462","<p style=""color:white; font-size: 35px;"">卑鄙</p>","i","categorize-html","47","185804","0.0-6.0-1.0-4.0-1.6","4","4","4","4","4","4","4","4","4","4","5","5","5","5","5","5","5","5","5","5","1","1","1","1","1","1","1","1","1","1","0","1","1","0","0","0","1","0","1","1","0","1","0","1","5","1","1","2","2","1","1","2","2","5","1","621363018810261504","袁","700","","","","","","","","","","","","","","","","","","","true","12","2","moral","462","negative","卑鄙","","","","","","","","","","","","","","","","",""
"null","","null","html-keyboard-response","48","186054","0.0-6.0-1.0-4.0-0.7","4","4","4","4","4","4","4","4","4","4","5","5","5","5","5","5","5","5","5","5","1","1","1","1","1","1","1","1","1","1","0","1","1","0","0","0","1","0","1","1","0","1","0","1","5","1","1","2","2","1","1","2","2","5","1","621363018810261504","袁","700","","","","","","","","","","","","","","","","","","","","","","","","","","","","","","","","","","","","","","","","","",""
"434","<p style=""color:white; font-size: 35px;"">小人</p>","i","categorize-html","49","186489","0.0-6.0-1.0-4.0-1.7","4","4","4","4","4","4","4","4","4","4","5","5","5","5","5","5","5","5","5","5","1","1","1","1","1","1","1","1","1","1","0","1","1","0","0","0","1","0","1","1","0","1","0","1","5","1","1","2","2","1","1","2","2","5","1","621363018810261504","袁","700","","","","","","","","","","","","","","","","","","","true","12","2","moral","434","negative","小人","","","","","","","","","","","","","","","","",""
"null","","null","html-keyboard-response","50","186740","0.0-6.0-1.0-4.0-0.8","4","4","4","4","4","4","4","4","4","4","5","5","5","5","5","5","5","5","5","5","1","1","1","1","1","1","1","1","1","1","0","1","1","0","0","0","1","0","1","1","0","1","0","1","5","1","1","2","2","1","1","2","2","5","1","621363018810261504","袁","700","","","","","","","","","","","","","","","","","","","","","","","","","","","","","","","","","","","","","","","","","",""
"468","<p style=""color:white; font-size: 35px;"">廉正</p>","i","categorize-html","51","187584","0.0-6.0-1.0-4.0-1.8","4","4","4","4","4","4","4","4","4","4","5","5","5","5","5","5","5","5","5","5","1","1","1","1","1","1","1","1","1","1","0","1","1","0","0","0","1","0","1","1","0","1","0","1","5","1","1","2","2","1","1","2","2","5","1","621363018810261504","袁","700","","","","","","","","","","","","","","","","","","","false","12","2","moral","468","positive","廉正","","","","","","","","","","","","","","","","",""
"null","","null","html-keyboard-response","52","187836","0.0-6.0-1.0-4.0-0.9","4","4","4","4","4","4","4","4","4","4","5","5","5","5","5","5","5","5","5","5","1","1","1","1","1","1","1","1","1","1","0","1","1","0","0","0","1","0","1","1","0","1","0","1","5","1","1","2","2","1","1","2","2","5","1","621363018810261504","袁","700","","","","","","","","","","","","","","","","","","","","","","","","","","","","","","","","","","","","","","","","","",""
"492","<p style=""color:white; font-size: 35px;"">不孝</p>","i","categorize-html","53","188328","0.0-6.0-1.0-4.0-1.9","4","4","4","4","4","4","4","4","4","4","5","5","5","5","5","5","5","5","5","5","1","1","1","1","1","1","1","1","1","1","0","1","1","0","0","0","1","0","1","1","0","1","0","1","5","1","1","2","2","1","1","2","2","5","1","621363018810261504","袁","700","","","","","","","","","","","","","","","","","","","true","12","2","moral","492","negative","不孝","","","","","","","","","","","","","","","","",""
"null","","null","html-keyboard-response","54","188580","0.0-6.0-1.0-4.0-0.10","4","4","4","4","4","4","4","4","4","4","5","5","5","5","5","5","5","5","5","5","1","1","1","1","1","1","1","1","1","1","0","1","1","0","0","0","1","0","1","1","0","1","0","1","5","1","1","2","2","1","1","2","2","5","1","621363018810261504","袁","700","","","","","","","","","","","","","","","","","","","","","","","","","","","","","","","","","","","","","","","","","",""
"452","<p style=""color:white; font-size: 35px;"">高尚</p>","e","categorize-html","55","189033","0.0-6.0-1.0-4.0-1.10","4","4","4","4","4","4","4","4","4","4","5","5","5","5","5","5","5","5","5","5","1","1","1","1","1","1","1","1","1","1","0","1","1","0","0","0","1","0","1","1","0","1","0","1","5","1","1","2","2","1","1","2","2","5","1","621363018810261504","袁","700","","","","","","","","","","","","","","","","","","","true","12","2","moral","452","positive","高尚","","","","","","","","","","","","","","","","",""
"null","","null","html-keyboard-response","56","189284","0.0-6.0-1.0-4.0-0.11","4","4","4","4","4","4","4","4","4","4","5","5","5","5","5","5","5","5","5","5","1","1","1","1","1","1","1","1","1","1","0","1","1","0","0","0","1","0","1","1","0","1","0","1","5","1","1","2","2","1","1","2","2","5","1","621363018810261504","袁","700","","","","","","","","","","","","","","","","","","","","","","","","","","","","","","","","","","","","","","","","","",""
"484","<p style=""color:white; font-size: 35px;"">诚信</p>","e","categorize-html","57","189770","0.0-6.0-1.0-4.0-1.11","4","4","4","4","4","4","4","4","4","4","5","5","5","5","5","5","5","5","5","5","1","1","1","1","1","1","1","1","1","1","0","1","1","0","0","0","1","0","1","1","0","1","0","1","5","1","1","2","2","1","1","2","2","5","1","621363018810261504","袁","700","","","","","","","","","","","","","","","","","","","true","12","2","moral","484","positive","诚信","","","","","","","","","","","","","","","","",""
"774","
    <div class=""tag-bottom""><p>
    —— 任务3：对“他人/积极”词和“自我/消极”词分类 ——<p/>
    <span style=""color:#78DCE8""><b>注意上方，之前的四类词语将混合在一起交替呈现</b></span><p/>
    <span style=""color:#FFD866""><b>请根据上方标签的提示，尽可能正确并且快速地做出按键反应</b></span><p/>
    当按键错误时屏幕中会出现<span style=""color:red""> X </span>，需要按另一个键纠正才能继续<br/><p/>
    请把双手食指分别放在键盘的“E”键和“I”键上<p/>
    按<空格键>开始
    </p></div>"," ","html-keyboard-response","58","190544","0.0-6.0-1.0-5.0","4","4","4","4","4","4","4","4","4","4","5","5","5","5","5","5","5","5","5","5","1","1","1","1","1","1","1","1","1","1","0","1","1","0","0","0","1","0","1","1","0","1","0","1","5","1","1","2","2","1","1","2","2","5","1","621363018810261504","袁","700","","","","","","","","","","","","","","","","","","","","","","","","","","","","","","","","","","","","","","","","","",""
"null","","null","html-keyboard-response","59","190795","0.0-6.0-1.0-6.0-0.0","4","4","4","4","4","4","4","4","4","4","5","5","5","5","5","5","5","5","5","5","1","1","1","1","1","1","1","1","1","1","0","1","1","0","0","0","1","0","1","1","0","1","0","1","5","1","1","2","2","1","1","2","2","5","1","621363018810261504","袁","700","","","","","","","","","","","","","","","","","","","","","","","","","","","","","","","","","","","","","","","","","",""
"580","<p style=""color:rgb(150, 250, 100); font-size: 35px;"">自己的</p>","i","categorize-html","60","191377","0.0-6.0-1.0-6.0-1.0","4","4","4","4","4","4","4","4","4","4","5","5","5","5","5","5","5","5","5","5","1","1","1","1","1","1","1","1","1","1","0","1","1","0","0","0","1","0","1","1","0","1","0","1","5","1","1","2","2","1","1","2","2","5","1","621363018810261504","袁","700","","","","","","","","","","","","","","","","","","","true","13","3","moral","580","self","自己的","","","","","","","","","","","","","","","","",""
"null","","null","html-keyboard-response","61","191628","0.0-6.0-1.0-6.0-0.1","4","4","4","4","4","4","4","4","4","4","5","5","5","5","5","5","5","5","5","5","1","1","1","1","1","1","1","1","1","1","0","1","1","0","0","0","1","0","1","1","0","1","0","1","5","1","1","2","2","1","1","2","2","5","1","621363018810261504","袁","700","","","","","","","","","","","","","","","","","","","","","","","","","","","","","","","","","","","","","","","","","",""
"604","<p style=""color:white; font-size: 35px;"">廉正</p>","e","categorize-html","62","192232","0.0-6.0-1.0-6.0-1.1","4","4","4","4","4","4","4","4","4","4","5","5","5","5","5","5","5","5","5","5","1","1","1","1","1","1","1","1","1","1","0","1","1","0","0","0","1","0","1","1","0","1","0","1","5","1","1","2","2","1","1","2","2","5","1","621363018810261504","袁","700","","","","","","","","","","","","","","","","","","","true","13","3","moral","604","positive","廉正","","","","","","","","","","","","","","","","",""
"null","","null","html-keyboard-response","63","192484","0.0-6.0-1.0-6.0-0.2","4","4","4","4","4","4","4","4","4","4","5","5","5","5","5","5","5","5","5","5","1","1","1","1","1","1","1","1","1","1","0","1","1","0","0","0","1","0","1","1","0","1","0","1","5","1","1","2","2","1","1","2","2","5","1","621363018810261504","袁","700","","","","","","","","","","","","","","","","","","","","","","","","","","","","","","","","","","","","","","","","","",""
"1180","<p style=""color:rgb(150, 250, 100); font-size: 35px;"">别人</p>","e","categorize-html","64","193665","0.0-6.0-1.0-6.0-1.2","4","4","4","4","4","4","4","4","4","4","5","5","5","5","5","5","5","5","5","5","1","1","1","1","1","1","1","1","1","1","0","1","1","0","0","0","1","0","1","1","0","1","0","1","5","1","1","2","2","1","1","2","2","5","1","621363018810261504","袁","700","","","","","","","","","","","","","","","","","","","true","13","3","moral","1180","other","别人","","","","","","","","","","","","","","","","",""
"null","","null","html-keyboard-response","65","193916","0.0-6.0-1.0-6.0-0.3","4","4","4","4","4","4","4","4","4","4","5","5","5","5","5","5","5","5","5","5","1","1","1","1","1","1","1","1","1","1","0","1","1","0","0","0","1","0","1","1","0","1","0","1","5","1","1","2","2","1","1","2","2","5","1","621363018810261504","袁","700","","","","","","","","","","","","","","","","","","","","","","","","","","","","","","","","","","","","","","","","","",""
"876","<p style=""color:white; font-size: 35px;"">小人</p>","i","categorize-html","66","194793","0.0-6.0-1.0-6.0-1.3","4","4","4","4","4","4","4","4","4","4","5","5","5","5","5","5","5","5","5","5","1","1","1","1","1","1","1","1","1","1","0","1","1","0","0","0","1","0","1","1","0","1","0","1","5","1","1","2","2","1","1","2","2","5","1","621363018810261504","袁","700","","","","","","","","","","","","","","","","","","","true","13","3","moral","876","negative","小人","","","","","","","","","","","","","","","","",""
"null","","null","html-keyboard-response","67","195044","0.0-6.0-1.0-6.0-0.4","4","4","4","4","4","4","4","4","4","4","5","5","5","5","5","5","5","5","5","5","1","1","1","1","1","1","1","1","1","1","0","1","1","0","0","0","1","0","1","1","0","1","0","1","5","1","1","2","2","1","1","2","2","5","1","621363018810261504","袁","700","","","","","","","","","","","","","","","","","","","","","","","","","","","","","","","","","","","","","","","","","",""
"516","<p style=""color:rgb(150, 250, 100); font-size: 35px;"">他人</p>","e","categorize-html","68","195560","0.0-6.0-1.0-6.0-1.4","4","4","4","4","4","4","4","4","4","4","5","5","5","5","5","5","5","5","5","5","1","1","1","1","1","1","1","1","1","1","0","1","1","0","0","0","1","0","1","1","0","1","0","1","5","1","1","2","2","1","1","2","2","5","1","621363018810261504","袁","700","","","","","","","","","","","","","","","","","","","true","13","3","moral","516","other","他人","","","","","","","","","","","","","","","","",""
"null","","null","html-keyboard-response","69","195812","0.0-6.0-1.0-6.0-0.5","4","4","4","4","4","4","4","4","4","4","5","5","5","5","5","5","5","5","5","5","1","1","1","1","1","1","1","1","1","1","0","1","1","0","0","0","1","0","1","1","0","1","0","1","5","1","1","2","2","1","1","2","2","5","1","621363018810261504","袁","700","","","","","","","","","","","","","","","","","","","","","","","","","","","","","","","","","","","","","","","","","",""
"940","<p style=""color:white; font-size: 35px;"">不仁</p>","i","categorize-html","70","196753","0.0-6.0-1.0-6.0-1.5","4","4","4","4","4","4","4","4","4","4","5","5","5","5","5","5","5","5","5","5","1","1","1","1","1","1","1","1","1","1","0","1","1","0","0","0","1","0","1","1","0","1","0","1","5","1","1","2","2","1","1","2","2","5","1","621363018810261504","袁","700","","","","","","","","","","","","","","","","","","","true","13","3","moral","940","negative","不仁","","","","","","","","","","","","","","","","",""
"null","","null","html-keyboard-response","71","197003","0.0-6.0-1.0-6.0-0.6","4","4","4","4","4","4","4","4","4","4","5","5","5","5","5","5","5","5","5","5","1","1","1","1","1","1","1","1","1","1","0","1","1","0","0","0","1","0","1","1","0","1","0","1","5","1","1","2","2","1","1","2","2","5","1","621363018810261504","袁","700","","","","","","","","","","","","","","","","","","","","","","","","","","","","","","","","","","","","","","","","","",""
"445","<p style=""color:rgb(150, 250, 100); font-size: 35px;"">我的</p>","i","categorize-html","72","197449","0.0-6.0-1.0-6.0-1.6","4","4","4","4","4","4","4","4","4","4","5","5","5","5","5","5","5","5","5","5","1","1","1","1","1","1","1","1","1","1","0","1","1","0","0","0","1","0","1","1","0","1","0","1","5","1","1","2","2","1","1","2","2","5","1","621363018810261504","袁","700","","","","","","","","","","","","","","","","","","","true","13","3","moral","445","self","我的","","","","","","","","","","","","","","","","",""
"null","","null","html-keyboard-response","73","197700","0.0-6.0-1.0-6.0-0.7","4","4","4","4","4","4","4","4","4","4","5","5","5","5","5","5","5","5","5","5","1","1","1","1","1","1","1","1","1","1","0","1","1","0","0","0","1","0","1","1","0","1","0","1","5","1","1","2","2","1","1","2","2","5","1","621363018810261504","袁","700","","","","","","","","","","","","","","","","","","","","","","","","","","","","","","","","","","","","","","","","","",""
"971","<p style=""color:white; font-size: 35px;"">高尚</p>","e","categorize-html","74","198673","0.0-6.0-1.0-6.0-1.7","4","4","4","4","4","4","4","4","4","4","5","5","5","5","5","5","5","5","5","5","1","1","1","1","1","1","1","1","1","1","0","1","1","0","0","0","1","0","1","1","0","1","0","1","5","1","1","2","2","1","1","2","2","5","1","621363018810261504","袁","700","","","","","","","","","","","","","","","","","","","true","13","3","moral","971","positive","高尚","","","","","","","","","","","","","","","","",""
"null","","null","html-keyboard-response","75","198924","0.0-6.0-1.0-6.0-0.8","4","4","4","4","4","4","4","4","4","4","5","5","5","5","5","5","5","5","5","5","1","1","1","1","1","1","1","1","1","1","0","1","1","0","0","0","1","0","1","1","0","1","0","1","5","1","1","2","2","1","1","2","2","5","1","621363018810261504","袁","700","","","","","","","","","","","","","","","","","","","","","","","","","","","","","","","","","","","","","","","","","",""
"583","<p style=""color:rgb(150, 250, 100); font-size: 35px;"">本人</p>","i","categorize-html","76","199509","0.0-6.0-1.0-6.0-1.8","4","4","4","4","4","4","4","4","4","4","5","5","5","5","5","5","5","5","5","5","1","1","1","1","1","1","1","1","1","1","0","1","1","0","0","0","1","0","1","1","0","1","0","1","5","1","1","2","2","1","1","2","2","5","1","621363018810261504","袁","700","","","","","","","","","","","","","","","","","","","true","13","3","moral","583","self","本人","","","","","","","","","","","","","","","","",""
"null","","null","html-keyboard-response","77","199760","0.0-6.0-1.0-6.0-0.9","4","4","4","4","4","4","4","4","4","4","5","5","5","5","5","5","5","5","5","5","1","1","1","1","1","1","1","1","1","1","0","1","1","0","0","0","1","0","1","1","0","1","0","1","5","1","1","2","2","1","1","2","2","5","1","621363018810261504","袁","700","","","","","","","","","","","","","","","","","","","","","","","","","","","","","","","","","","","","","","","","","",""
"800","<p style=""color:white; font-size: 35px;"">善良</p>","e","categorize-html","78","200561","0.0-6.0-1.0-6.0-1.9","4","4","4","4","4","4","4","4","4","4","5","5","5","5","5","5","5","5","5","5","1","1","1","1","1","1","1","1","1","1","0","1","1","0","0","0","1","0","1","1","0","1","0","1","5","1","1","2","2","1","1","2","2","5","1","621363018810261504","袁","700","","","","","","","","","","","","","","","","","","","true","13","3","moral","800","positive","善良","","","","","","","","","","","","","","","","",""
"null","","null","html-keyboard-response","79","200812","0.0-6.0-1.0-6.0-0.10","4","4","4","4","4","4","4","4","4","4","5","5","5","5","5","5","5","5","5","5","1","1","1","1","1","1","1","1","1","1","0","1","1","0","0","0","1","0","1","1","0","1","0","1","5","1","1","2","2","1","1","2","2","5","1","621363018810261504","袁","700","","","","","","","","","","","","","","","","","","","","","","","","","","","","","","","","","","","","","","","","","",""
"1204","<p style=""color:rgb(150, 250, 100); font-size: 35px;"">别人的</p>","e","categorize-html","80","202016","0.0-6.0-1.0-6.0-1.10","4","4","4","4","4","4","4","4","4","4","5","5","5","5","5","5","5","5","5","5","1","1","1","1","1","1","1","1","1","1","0","1","1","0","0","0","1","0","1","1","0","1","0","1","5","1","1","2","2","1","1","2","2","5","1","621363018810261504","袁","700","","","","","","","","","","","","","","","","","","","true","13","3","moral","1204","other","别人的","","","","","","","","","","","","","","","","",""
"null","","null","html-keyboard-response","81","202268","0.0-6.0-1.0-6.0-0.11","4","4","4","4","4","4","4","4","4","4","5","5","5","5","5","5","5","5","5","5","1","1","1","1","1","1","1","1","1","1","0","1","1","0","0","0","1","0","1","1","0","1","0","1","5","1","1","2","2","1","1","2","2","5","1","621363018810261504","袁","700","","","","","","","","","","","","","","","","","","","","","","","","","","","","","","","","","","","","","","","","","",""
"724","<p style=""color:white; font-size: 35px;"">黑心</p>","i","categorize-html","82","202993","0.0-6.0-1.0-6.0-1.11","4","4","4","4","4","4","4","4","4","4","5","5","5","5","5","5","5","5","5","5","1","1","1","1","1","1","1","1","1","1","0","1","1","0","0","0","1","0","1","1","0","1","0","1","5","1","1","2","2","1","1","2","2","5","1","621363018810261504","袁","700","","","","","","","","","","","","","","","","","","","true","13","3","moral","724","negative","黑心","","","","","","","","","","","","","","","","",""
"null","","null","html-keyboard-response","83","203245","0.0-6.0-1.0-6.0-0.12","4","4","4","4","4","4","4","4","4","4","5","5","5","5","5","5","5","5","5","5","1","1","1","1","1","1","1","1","1","1","0","1","1","0","0","0","1","0","1","1","0","1","0","1","5","1","1","2","2","1","1","2","2","5","1","621363018810261504","袁","700","","","","","","","","","","","","","","","","","","","","","","","","","","","","","","","","","","","","","","","","","",""
"419","<p style=""color:rgb(150, 250, 100); font-size: 35px;"">我</p>","i","categorize-html","84","203666","0.0-6.0-1.0-6.0-1.12","4","4","4","4","4","4","4","4","4","4","5","5","5","5","5","5","5","5","5","5","1","1","1","1","1","1","1","1","1","1","0","1","1","0","0","0","1","0","1","1","0","1","0","1","5","1","1","2","2","1","1","2","2","5","1","621363018810261504","袁","700","","","","","","","","","","","","","","","","","","","true","13","3","moral","419","self","我","","","","","","","","","","","","","","","","",""
"null","","null","html-keyboard-response","85","203916","0.0-6.0-1.0-6.0-0.13","4","4","4","4","4","4","4","4","4","4","5","5","5","5","5","5","5","5","5","5","1","1","1","1","1","1","1","1","1","1","0","1","1","0","0","0","1","0","1","1","0","1","0","1","5","1","1","2","2","1","1","2","2","5","1","621363018810261504","袁","700","","","","","","","","","","","","","","","","","","","","","","","","","","","","","","","","","","","","","","","","","",""
"556","<p style=""color:white; font-size: 35px;"">君子</p>","e","categorize-html","86","204474","0.0-6.0-1.0-6.0-1.13","4","4","4","4","4","4","4","4","4","4","5","5","5","5","5","5","5","5","5","5","1","1","1","1","1","1","1","1","1","1","0","1","1","0","0","0","1","0","1","1","0","1","0","1","5","1","1","2","2","1","1","2","2","5","1","621363018810261504","袁","700","","","","","","","","","","","","","","","","","","","true","13","3","moral","556","positive","君子","","","","","","","","","","","","","","","","",""
"null","","null","html-keyboard-response","87","204726","0.0-6.0-1.0-6.0-0.14","4","4","4","4","4","4","4","4","4","4","5","5","5","5","5","5","5","5","5","5","1","1","1","1","1","1","1","1","1","1","0","1","1","0","0","0","1","0","1","1","0","1","0","1","5","1","1","2","2","1","1","2","2","5","1","621363018810261504","袁","700","","","","","","","","","","","","","","","","","","","","","","","","","","","","","","","","","","","","","","","","","",""
"635","<p style=""color:rgb(150, 250, 100); font-size: 35px;"">他的</p>","e","categorize-html","88","205361","0.0-6.0-1.0-6.0-1.14","4","4","4","4","4","4","4","4","4","4","5","5","5","5","5","5","5","5","5","5","1","1","1","1","1","1","1","1","1","1","0","1","1","0","0","0","1","0","1","1","0","1","0","1","5","1","1","2","2","1","1","2","2","5","1","621363018810261504","袁","700","","","","","","","","","","","","","","","","","","","true","13","3","moral","635","other","他的","","","","","","","","","","","","","","","","",""
"null","","null","html-keyboard-response","89","205612","0.0-6.0-1.0-6.0-0.15","4","4","4","4","4","4","4","4","4","4","5","5","5","5","5","5","5","5","5","5","1","1","1","1","1","1","1","1","1","1","0","1","1","0","0","0","1","0","1","1","0","1","0","1","5","1","1","2","2","1","1","2","2","5","1","621363018810261504","袁","700","","","","","","","","","","","","","","","","","","","","","","","","","","","","","","","","","","","","","","","","","",""
"636","<p style=""color:white; font-size: 35px;"">卑鄙</p>","i","categorize-html","90","206249","0.0-6.0-1.0-6.0-1.15","4","4","4","4","4","4","4","4","4","4","5","5","5","5","5","5","5","5","5","5","1","1","1","1","1","1","1","1","1","1","0","1","1","0","0","0","1","0","1","1","0","1","0","1","5","1","1","2","2","1","1","2","2","5","1","621363018810261504","袁","700","","","","","","","","","","","","","","","","","","","true","13","3","moral","636","negative","卑鄙","","","","","","","","","","","","","","","","",""
"null","","null","html-keyboard-response","91","206501","0.0-6.0-1.0-6.0-0.16","4","4","4","4","4","4","4","4","4","4","5","5","5","5","5","5","5","5","5","5","1","1","1","1","1","1","1","1","1","1","0","1","1","0","0","0","1","0","1","1","0","1","0","1","5","1","1","2","2","1","1","2","2","5","1","621363018810261504","袁","700","","","","","","","","","","","","","","","","","","","","","","","","","","","","","","","","","","","","","","","","","",""
"411","<p style=""color:rgb(150, 250, 100); font-size: 35px;"">本人的</p>","i","categorize-html","92","206913","0.0-6.0-1.0-6.0-1.16","4","4","4","4","4","4","4","4","4","4","5","5","5","5","5","5","5","5","5","5","1","1","1","1","1","1","1","1","1","1","0","1","1","0","0","0","1","0","1","1","0","1","0","1","5","1","1","2","2","1","1","2","2","5","1","621363018810261504","袁","700","","","","","","","","","","","","","","","","","","","true","13","3","moral","411","self","本人的","","","","","","","","","","","","","","","","",""
"null","","null","html-keyboard-response","93","207165","0.0-6.0-1.0-6.0-0.17","4","4","4","4","4","4","4","4","4","4","5","5","5","5","5","5","5","5","5","5","1","1","1","1","1","1","1","1","1","1","0","1","1","0","0","0","1","0","1","1","0","1","0","1","5","1","1","2","2","1","1","2","2","5","1","621363018810261504","袁","700","","","","","","","","","","","","","","","","","","","","","","","","","","","","","","","","","","","","","","","","","",""
"523","<p style=""color:white; font-size: 35px;"">不孝</p>","i","categorize-html","94","207690","0.0-6.0-1.0-6.0-1.17","4","4","4","4","4","4","4","4","4","4","5","5","5","5","5","5","5","5","5","5","1","1","1","1","1","1","1","1","1","1","0","1","1","0","0","0","1","0","1","1","0","1","0","1","5","1","1","2","2","1","1","2","2","5","1","621363018810261504","袁","700","","","","","","","","","","","","","","","","","","","true","13","3","moral","523","negative","不孝","","","","","","","","","","","","","","","","",""
"null","","null","html-keyboard-response","95","207941","0.0-6.0-1.0-6.0-0.18","4","4","4","4","4","4","4","4","4","4","5","5","5","5","5","5","5","5","5","5","1","1","1","1","1","1","1","1","1","1","0","1","1","0","0","0","1","0","1","1","0","1","0","1","5","1","1","2","2","1","1","2","2","5","1","621363018810261504","袁","700","","","","","","","","","","","","","","","","","","","","","","","","","","","","","","","","","","","","","","","","","",""
"540","<p style=""color:rgb(150, 250, 100); font-size: 35px;"">他</p>","e","categorize-html","96","208481","0.0-6.0-1.0-6.0-1.18","4","4","4","4","4","4","4","4","4","4","5","5","5","5","5","5","5","5","5","5","1","1","1","1","1","1","1","1","1","1","0","1","1","0","0","0","1","0","1","1","0","1","0","1","5","1","1","2","2","1","1","2","2","5","1","621363018810261504","袁","700","","","","","","","","","","","","","","","","","","","true","13","3","moral","540","other","他","","","","","","","","","","","","","","","","",""
"null","","null","html-keyboard-response","97","208733","0.0-6.0-1.0-6.0-0.19","4","4","4","4","4","4","4","4","4","4","5","5","5","5","5","5","5","5","5","5","1","1","1","1","1","1","1","1","1","1","0","1","1","0","0","0","1","0","1","1","0","1","0","1","5","1","1","2","2","1","1","2","2","5","1","621363018810261504","袁","700","","","","","","","","","","","","","","","","","","","","","","","","","","","","","","","","","","","","","","","","","",""
"492","<p style=""color:white; font-size: 35px;"">正直</p>","e","categorize-html","98","209225","0.0-6.0-1.0-6.0-1.19","4","4","4","4","4","4","4","4","4","4","5","5","5","5","5","5","5","5","5","5","1","1","1","1","1","1","1","1","1","1","0","1","1","0","0","0","1","0","1","1","0","1","0","1","5","1","1","2","2","1","1","2","2","5","1","621363018810261504","袁","700","","","","","","","","","","","","","","","","","","","true","13","3","moral","492","positive","正直","","","","","","","","","","","","","","","","",""
"null","","null","html-keyboard-response","99","209476","0.0-6.0-1.0-6.0-0.20","4","4","4","4","4","4","4","4","4","4","5","5","5","5","5","5","5","5","5","5","1","1","1","1","1","1","1","1","1","1","0","1","1","0","0","0","1","0","1","1","0","1","0","1","5","1","1","2","2","1","1","2","2","5","1","621363018810261504","袁","700","","","","","","","","","","","","","","","","","","","","","","","","","","","","","","","","","","","","","","","","","",""
"452","<p style=""color:rgb(150, 250, 100); font-size: 35px;"">他人的</p>","e","categorize-html","100","209928","0.0-6.0-1.0-6.0-1.20","4","4","4","4","4","4","4","4","4","4","5","5","5","5","5","5","5","5","5","5","1","1","1","1","1","1","1","1","1","1","0","1","1","0","0","0","1","0","1","1","0","1","0","1","5","1","1","2","2","1","1","2","2","5","1","621363018810261504","袁","700","","","","","","","","","","","","","","","","","","","true","13","3","moral","452","other","他人的","","","","","","","","","","","","","","","","",""
"null","","null","html-keyboard-response","101","210180","0.0-6.0-1.0-6.0-0.21","4","4","4","4","4","4","4","4","4","4","5","5","5","5","5","5","5","5","5","5","1","1","1","1","1","1","1","1","1","1","0","1","1","0","0","0","1","0","1","1","0","1","0","1","5","1","1","2","2","1","1","2","2","5","1","621363018810261504","袁","700","","","","","","","","","","","","","","","","","","","","","","","","","","","","","","","","","","","","","","","","","",""
"604","<p style=""color:white; font-size: 35px;"">缺德</p>","i","categorize-html","102","210785","0.0-6.0-1.0-6.0-1.21","4","4","4","4","4","4","4","4","4","4","5","5","5","5","5","5","5","5","5","5","1","1","1","1","1","1","1","1","1","1","0","1","1","0","0","0","1","0","1","1","0","1","0","1","5","1","1","2","2","1","1","2","2","5","1","621363018810261504","袁","700","","","","","","","","","","","","","","","","","","","true","13","3","moral","604","negative","缺德","","","","","","","","","","","","","","","","",""
"null","","null","html-keyboard-response","103","211037","0.0-6.0-1.0-6.0-0.22","4","4","4","4","4","4","4","4","4","4","5","5","5","5","5","5","5","5","5","5","1","1","1","1","1","1","1","1","1","1","0","1","1","0","0","0","1","0","1","1","0","1","0","1","5","1","1","2","2","1","1","2","2","5","1","621363018810261504","袁","700","","","","","","","","","","","","","","","","","","","","","","","","","","","","","","","","","","","","","","","","","",""
"363","<p style=""color:rgb(150, 250, 100); font-size: 35px;"">自己</p>","i","categorize-html","104","211401","0.0-6.0-1.0-6.0-1.22","4","4","4","4","4","4","4","4","4","4","5","5","5","5","5","5","5","5","5","5","1","1","1","1","1","1","1","1","1","1","0","1","1","0","0","0","1","0","1","1","0","1","0","1","5","1","1","2","2","1","1","2","2","5","1","621363018810261504","袁","700","","","","","","","","","","","","","","","","","","","true","13","3","moral","363","self","自己","","","","","","","","","","","","","","","","",""
"null","","null","html-keyboard-response","105","211652","0.0-6.0-1.0-6.0-0.23","4","4","4","4","4","4","4","4","4","4","5","5","5","5","5","5","5","5","5","5","1","1","1","1","1","1","1","1","1","1","0","1","1","0","0","0","1","0","1","1","0","1","0","1","5","1","1","2","2","1","1","2","2","5","1","621363018810261504","袁","700","","","","","","","","","","","","","","","","","","","","","","","","","","","","","","","","","","","","","","","","","",""
"581","<p style=""color:white; font-size: 35px;"">诚信</p>","e","categorize-html","106","212234","0.0-6.0-1.0-6.0-1.23","4","4","4","4","4","4","4","4","4","4","5","5","5","5","5","5","5","5","5","5","1","1","1","1","1","1","1","1","1","1","0","1","1","0","0","0","1","0","1","1","0","1","0","1","5","1","1","2","2","1","1","2","2","5","1","621363018810261504","袁","700","","","","","","","","","","","","","","","","","","","true","13","3","moral","581","positive","诚信","","","","","","","","","","","","","","","","",""
"1807","
    <div class=""tag-bottom""><p>
    —— 任务4：对“他人/积极”词和“自我/消极”词分类 ——<p/>
    <span style=""color:#78DCE8""><b>与刚才的任务完全相同，请再次对这四类词语分类</b></span><p/>
    <span style=""color:#FFD866""><b>请根据上方标签的提示，尽可能正确并且快速地做出按键反应</b></span><p/>
    当按键错误时屏幕中会出现<span style=""color:red""> X </span>，需要按另一个键纠正才能继续<br/><p/>
    请把双手食指分别放在键盘的“E”键和“I”键上<p/>
    按<空格键>开始
    </p></div>"," ","html-keyboard-response","107","214040","0.0-6.0-1.0-7.0","4","4","4","4","4","4","4","4","4","4","5","5","5","5","5","5","5","5","5","5","1","1","1","1","1","1","1","1","1","1","0","1","1","0","0","0","1","0","1","1","0","1","0","1","5","1","1","2","2","1","1","2","2","5","1","621363018810261504","袁","700","","","","","","","","","","","","","","","","","","","","","","","","","","","","","","","","","","","","","","","","","",""
"null","","null","html-keyboard-response","108","214292","0.0-6.0-1.0-8.0-0.0","4","4","4","4","4","4","4","4","4","4","5","5","5","5","5","5","5","5","5","5","1","1","1","1","1","1","1","1","1","1","0","1","1","0","0","0","1","0","1","1","0","1","0","1","5","1","1","2","2","1","1","2","2","5","1","621363018810261504","袁","700","","","","","","","","","","","","","","","","","","","","","","","","","","","","","","","","","","","","","","","","","",""
"812","<p style=""color:rgb(150, 250, 100); font-size: 35px;"">他</p>","e","categorize-html","109","215105","0.0-6.0-1.0-8.0-1.0","4","4","4","4","4","4","4","4","4","4","5","5","5","5","5","5","5","5","5","5","1","1","1","1","1","1","1","1","1","1","0","1","1","0","0","0","1","0","1","1","0","1","0","1","5","1","1","2","2","1","1","2","2","5","1","621363018810261504","袁","700","","","","","","","","","","","","","","","","","","","true","14","4","moral","812","other","他","","","","","","","","","","","","","","","","",""
"null","","null","html-keyboard-response","110","215355","0.0-6.0-1.0-8.0-0.1","4","4","4","4","4","4","4","4","4","4","5","5","5","5","5","5","5","5","5","5","1","1","1","1","1","1","1","1","1","1","0","1","1","0","0","0","1","0","1","1","0","1","0","1","5","1","1","2","2","1","1","2","2","5","1","621363018810261504","袁","700","","","","","","","","","","","","","","","","","","","","","","","","","","","","","","","","","","","","","","","","","",""
"573","<p style=""color:white; font-size: 35px;"">不孝</p>","i","categorize-html","111","215929","0.0-6.0-1.0-8.0-1.1","4","4","4","4","4","4","4","4","4","4","5","5","5","5","5","5","5","5","5","5","1","1","1","1","1","1","1","1","1","1","0","1","1","0","0","0","1","0","1","1","0","1","0","1","5","1","1","2","2","1","1","2","2","5","1","621363018810261504","袁","700","","","","","","","","","","","","","","","","","","","true","14","4","moral","573","negative","不孝","","","","","","","","","","","","","","","","",""
"null","","null","html-keyboard-response","112","216181","0.0-6.0-1.0-8.0-0.2","4","4","4","4","4","4","4","4","4","4","5","5","5","5","5","5","5","5","5","5","1","1","1","1","1","1","1","1","1","1","0","1","1","0","0","0","1","0","1","1","0","1","0","1","5","1","1","2","2","1","1","2","2","5","1","621363018810261504","袁","700","","","","","","","","","","","","","","","","","","","","","","","","","","","","","","","","","","","","","","","","","",""
"371","<p style=""color:rgb(150, 250, 100); font-size: 35px;"">自己</p>","i","categorize-html","113","216553","0.0-6.0-1.0-8.0-1.2","4","4","4","4","4","4","4","4","4","4","5","5","5","5","5","5","5","5","5","5","1","1","1","1","1","1","1","1","1","1","0","1","1","0","0","0","1","0","1","1","0","1","0","1","5","1","1","2","2","1","1","2","2","5","1","621363018810261504","袁","700","","","","","","","","","","","","","","","","","","","true","14","4","moral","371","self","自己","","","","","","","","","","","","","","","","",""
"null","","null","html-keyboard-response","114","216804","0.0-6.0-1.0-8.0-0.3","4","4","4","4","4","4","4","4","4","4","5","5","5","5","5","5","5","5","5","5","1","1","1","1","1","1","1","1","1","1","0","1","1","0","0","0","1","0","1","1","0","1","0","1","5","1","1","2","2","1","1","2","2","5","1","621363018810261504","袁","700","","","","","","","","","","","","","","","","","","","","","","","","","","","","","","","","","","","","","","","","","",""
"581","<p style=""color:white; font-size: 35px;"">高尚</p>","e","categorize-html","115","217386","0.0-6.0-1.0-8.0-1.3","4","4","4","4","4","4","4","4","4","4","5","5","5","5","5","5","5","5","5","5","1","1","1","1","1","1","1","1","1","1","0","1","1","0","0","0","1","0","1","1","0","1","0","1","5","1","1","2","2","1","1","2","2","5","1","621363018810261504","袁","700","","","","","","","","","","","","","","","","","","","true","14","4","moral","581","positive","高尚","","","","","","","","","","","","","","","","",""
"null","","null","html-keyboard-response","116","217637","0.0-6.0-1.0-8.0-0.4","4","4","4","4","4","4","4","4","4","4","5","5","5","5","5","5","5","5","5","5","1","1","1","1","1","1","1","1","1","1","0","1","1","0","0","0","1","0","1","1","0","1","0","1","5","1","1","2","2","1","1","2","2","5","1","621363018810261504","袁","700","","","","","","","","","","","","","","","","","","","","","","","","","","","","","","","","","","","","","","","","","",""
"579","<p style=""color:rgb(150, 250, 100); font-size: 35px;"">本人的</p>","i","categorize-html","117","218217","0.0-6.0-1.0-8.0-1.4","4","4","4","4","4","4","4","4","4","4","5","5","5","5","5","5","5","5","5","5","1","1","1","1","1","1","1","1","1","1","0","1","1","0","0","0","1","0","1","1","0","1","0","1","5","1","1","2","2","1","1","2","2","5","1","621363018810261504","袁","700","","","","","","","","","","","","","","","","","","","true","14","4","moral","579","self","本人的","","","","","","","","","","","","","","","","",""
"null","","null","html-keyboard-response","118","218469","0.0-6.0-1.0-8.0-0.5","4","4","4","4","4","4","4","4","4","4","5","5","5","5","5","5","5","5","5","5","1","1","1","1","1","1","1","1","1","1","0","1","1","0","0","0","1","0","1","1","0","1","0","1","5","1","1","2","2","1","1","2","2","5","1","621363018810261504","袁","700","","","","","","","","","","","","","","","","","","","","","","","","","","","","","","","","","","","","","","","","","",""
"524","<p style=""color:white; font-size: 35px;"">缺德</p>","i","categorize-html","119","218994","0.0-6.0-1.0-8.0-1.5","4","4","4","4","4","4","4","4","4","4","5","5","5","5","5","5","5","5","5","5","1","1","1","1","1","1","1","1","1","1","0","1","1","0","0","0","1","0","1","1","0","1","0","1","5","1","1","2","2","1","1","2","2","5","1","621363018810261504","袁","700","","","","","","","","","","","","","","","","","","","true","14","4","moral","524","negative","缺德","","","","","","","","","","","","","","","","",""
"null","","null","html-keyboard-response","120","219245","0.0-6.0-1.0-8.0-0.6","4","4","4","4","4","4","4","4","4","4","5","5","5","5","5","5","5","5","5","5","1","1","1","1","1","1","1","1","1","1","0","1","1","0","0","0","1","0","1","1","0","1","0","1","5","1","1","2","2","1","1","2","2","5","1","621363018810261504","袁","700","","","","","","","","","","","","","","","","","","","","","","","","","","","","","","","","","","","","","","","","","",""
"691","<p style=""color:rgb(150, 250, 100); font-size: 35px;"">别人</p>","e","categorize-html","121","219937","0.0-6.0-1.0-8.0-1.6","4","4","4","4","4","4","4","4","4","4","5","5","5","5","5","5","5","5","5","5","1","1","1","1","1","1","1","1","1","1","0","1","1","0","0","0","1","0","1","1","0","1","0","1","5","1","1","2","2","1","1","2","2","5","1","621363018810261504","袁","700","","","","","","","","","","","","","","","","","","","true","14","4","moral","691","other","别人","","","","","","","","","","","","","","","","",""
"null","","null","html-keyboard-response","122","220189","0.0-6.0-1.0-8.0-0.7","4","4","4","4","4","4","4","4","4","4","5","5","5","5","5","5","5","5","5","5","1","1","1","1","1","1","1","1","1","1","0","1","1","0","0","0","1","0","1","1","0","1","0","1","5","1","1","2","2","1","1","2","2","5","1","621363018810261504","袁","700","","","","","","","","","","","","","","","","","","","","","","","","","","","","","","","","","","","","","","","","","",""
"723","<p style=""color:white; font-size: 35px;"">善良</p>","i","categorize-html","123","221361","0.0-6.0-1.0-8.0-1.7","4","4","4","4","4","4","4","4","4","4","5","5","5","5","5","5","5","5","5","5","1","1","1","1","1","1","1","1","1","1","0","1","1","0","0","0","1","0","1","1","0","1","0","1","5","1","1","2","2","1","1","2","2","5","1","621363018810261504","袁","700","","","","","","","","","","","","","","","","","","","false","14","4","moral","1314.5238095238096","positive","善良","","","","","","","","","","","","","","","","",""
"null","","null","html-keyboard-response","124","221612","0.0-6.0-1.0-8.0-0.8","4","4","4","4","4","4","4","4","4","4","5","5","5","5","5","5","5","5","5","5","1","1","1","1","1","1","1","1","1","1","0","1","1","0","0","0","1","0","1","1","0","1","0","1","5","1","1","2","2","1","1","2","2","5","1","621363018810261504","袁","700","","","","","","","","","","","","","","","","","","","","","","","","","","","","","","","","","","","","","","","","","",""
"518","<p style=""color:rgb(150, 250, 100); font-size: 35px;"">他</p>","e","categorize-html","125","222131","0.0-6.0-1.0-8.0-1.8","4","4","4","4","4","4","4","4","4","4","5","5","5","5","5","5","5","5","5","5","1","1","1","1","1","1","1","1","1","1","0","1","1","0","0","0","1","0","1","1","0","1","0","1","5","1","1","2","2","1","1","2","2","5","1","621363018810261504","袁","700","","","","","","","","","","","","","","","","","","","true","14","4","moral","518","other","他","","","","","","","","","","","","","","","","",""
"null","","null","html-keyboard-response","126","222383","0.0-6.0-1.0-8.0-0.9","4","4","4","4","4","4","4","4","4","4","5","5","5","5","5","5","5","5","5","5","1","1","1","1","1","1","1","1","1","1","0","1","1","0","0","0","1","0","1","1","0","1","0","1","5","1","1","2","2","1","1","2","2","5","1","621363018810261504","袁","700","","","","","","","","","","","","","","","","","","","","","","","","","","","","","","","","","","","","","","","","","",""
"674","<p style=""color:white; font-size: 35px;"">小人</p>","i","categorize-html","127","223057","0.0-6.0-1.0-8.0-1.9","4","4","4","4","4","4","4","4","4","4","5","5","5","5","5","5","5","5","5","5","1","1","1","1","1","1","1","1","1","1","0","1","1","0","0","0","1","0","1","1","0","1","0","1","5","1","1","2","2","1","1","2","2","5","1","621363018810261504","袁","700","","","","","","","","","","","","","","","","","","","true","14","4","moral","674","negative","小人","","","","","","","","","","","","","","","","",""
"null","","null","html-keyboard-response","128","223309","0.0-6.0-1.0-8.0-0.10","4","4","4","4","4","4","4","4","4","4","5","5","5","5","5","5","5","5","5","5","1","1","1","1","1","1","1","1","1","1","0","1","1","0","0","0","1","0","1","1","0","1","0","1","5","1","1","2","2","1","1","2","2","5","1","621363018810261504","袁","700","","","","","","","","","","","","","","","","","","","","","","","","","","","","","","","","","","","","","","","","","",""
"444","<p style=""color:rgb(150, 250, 100); font-size: 35px;"">本人</p>","i","categorize-html","129","223753","0.0-6.0-1.0-8.0-1.10","4","4","4","4","4","4","4","4","4","4","5","5","5","5","5","5","5","5","5","5","1","1","1","1","1","1","1","1","1","1","0","1","1","0","0","0","1","0","1","1","0","1","0","1","5","1","1","2","2","1","1","2","2","5","1","621363018810261504","袁","700","","","","","","","","","","","","","","","","","","","true","14","4","moral","444","self","本人","","","","","","","","","","","","","","","","",""
"null","","null","html-keyboard-response","130","224003","0.0-6.0-1.0-8.0-0.11","4","4","4","4","4","4","4","4","4","4","5","5","5","5","5","5","5","5","5","5","1","1","1","1","1","1","1","1","1","1","0","1","1","0","0","0","1","0","1","1","0","1","0","1","5","1","1","2","2","1","1","2","2","5","1","621363018810261504","袁","700","","","","","","","","","","","","","","","","","","","","","","","","","","","","","","","","","","","","","","","","","",""
"597","<p style=""color:white; font-size: 35px;"">君子</p>","i","categorize-html","131","224888","0.0-6.0-1.0-8.0-1.11","4","4","4","4","4","4","4","4","4","4","5","5","5","5","5","5","5","5","5","5","1","1","1","1","1","1","1","1","1","1","0","1","1","0","0","0","1","0","1","1","0","1","0","1","5","1","1","2","2","1","1","2","2","5","1","621363018810261504","袁","700","","","","","","","","","","","","","","","","","","","false","14","4","moral","1314.5238095238096","positive","君子","","","","","","","","","","","","","","","","",""
"null","","null","html-keyboard-response","132","225139","0.0-6.0-1.0-8.0-0.12","4","4","4","4","4","4","4","4","4","4","5","5","5","5","5","5","5","5","5","5","1","1","1","1","1","1","1","1","1","1","0","1","1","0","0","0","1","0","1","1","0","1","0","1","5","1","1","2","2","1","1","2","2","5","1","621363018810261504","袁","700","","","","","","","","","","","","","","","","","","","","","","","","","","","","","","","","","","","","","","","","","",""
"653","<p style=""color:rgb(150, 250, 100); font-size: 35px;"">他人的</p>","e","categorize-html","133","225793","0.0-6.0-1.0-8.0-1.12","4","4","4","4","4","4","4","4","4","4","5","5","5","5","5","5","5","5","5","5","1","1","1","1","1","1","1","1","1","1","0","1","1","0","0","0","1","0","1","1","0","1","0","1","5","1","1","2","2","1","1","2","2","5","1","621363018810261504","袁","700","","","","","","","","","","","","","","","","","","","true","14","4","moral","653","other","他人的","","","","","","","","","","","","","","","","",""
"null","","null","html-keyboard-response","134","226045","0.0-6.0-1.0-8.0-0.13","4","4","4","4","4","4","4","4","4","4","5","5","5","5","5","5","5","5","5","5","1","1","1","1","1","1","1","1","1","1","0","1","1","0","0","0","1","0","1","1","0","1","0","1","5","1","1","2","2","1","1","2","2","5","1","621363018810261504","袁","700","","","","","","","","","","","","","","","","","","","","","","","","","","","","","","","","","","","","","","","","","",""
"676","<p style=""color:white; font-size: 35px;"">不仁</p>","i","categorize-html","135","226721","0.0-6.0-1.0-8.0-1.13","4","4","4","4","4","4","4","4","4","4","5","5","5","5","5","5","5","5","5","5","1","1","1","1","1","1","1","1","1","1","0","1","1","0","0","0","1","0","1","1","0","1","0","1","5","1","1","2","2","1","1","2","2","5","1","621363018810261504","袁","700","","","","","","","","","","","","","","","","","","","true","14","4","moral","676","negative","不仁","","","","","","","","","","","","","","","","",""
"null","","null","html-keyboard-response","136","226972","0.0-6.0-1.0-8.0-0.14","4","4","4","4","4","4","4","4","4","4","5","5","5","5","5","5","5","5","5","5","1","1","1","1","1","1","1","1","1","1","0","1","1","0","0","0","1","0","1","1","0","1","0","1","5","1","1","2","2","1","1","2","2","5","1","621363018810261504","袁","700","","","","","","","","","","","","","","","","","","","","","","","","","","","","","","","","","","","","","","","","","",""
"397","<p style=""color:rgb(150, 250, 100); font-size: 35px;"">我的</p>","i","categorize-html","137","227369","0.0-6.0-1.0-8.0-1.14","4","4","4","4","4","4","4","4","4","4","5","5","5","5","5","5","5","5","5","5","1","1","1","1","1","1","1","1","1","1","0","1","1","0","0","0","1","0","1","1","0","1","0","1","5","1","1","2","2","1","1","2","2","5","1","621363018810261504","袁","700","","","","","","","","","","","","","","","","","","","true","14","4","moral","397","self","我的","","","","","","","","","","","","","","","","",""
"null","","null","html-keyboard-response","138","227621","0.0-6.0-1.0-8.0-0.15","4","4","4","4","4","4","4","4","4","4","5","5","5","5","5","5","5","5","5","5","1","1","1","1","1","1","1","1","1","1","0","1","1","0","0","0","1","0","1","1","0","1","0","1","5","1","1","2","2","1","1","2","2","5","1","621363018810261504","袁","700","","","","","","","","","","","","","","","","","","","","","","","","","","","","","","","","","","","","","","","","","",""
"1180","<p style=""color:white; font-size: 35px;"">廉正</p>","e","categorize-html","139","228801","0.0-6.0-1.0-8.0-1.15","4","4","4","4","4","4","4","4","4","4","5","5","5","5","5","5","5","5","5","5","1","1","1","1","1","1","1","1","1","1","0","1","1","0","0","0","1","0","1","1","0","1","0","1","5","1","1","2","2","1","1","2","2","5","1","621363018810261504","袁","700","","","","","","","","","","","","","","","","","","","true","14","4","moral","1180","positive","廉正","","","","","","","","","","","","","","","","",""
"null","","null","html-keyboard-response","140","229053","0.0-6.0-1.0-8.0-0.16","4","4","4","4","4","4","4","4","4","4","5","5","5","5","5","5","5","5","5","5","1","1","1","1","1","1","1","1","1","1","0","1","1","0","0","0","1","0","1","1","0","1","0","1","5","1","1","2","2","1","1","2","2","5","1","621363018810261504","袁","700","","","","","","","","","","","","","","","","","","","","","","","","","","","","","","","","","","","","","","","","","",""
"387","<p style=""color:rgb(150, 250, 100); font-size: 35px;"">他人</p>","e","categorize-html","141","229441","0.0-6.0-1.0-8.0-1.16","4","4","4","4","4","4","4","4","4","4","5","5","5","5","5","5","5","5","5","5","1","1","1","1","1","1","1","1","1","1","0","1","1","0","0","0","1","0","1","1","0","1","0","1","5","1","1","2","2","1","1","2","2","5","1","621363018810261504","袁","700","","","","","","","","","","","","","","","","","","","true","14","4","moral","387","other","他人","","","","","","","","","","","","","","","","",""
"null","","null","html-keyboard-response","142","229692","0.0-6.0-1.0-8.0-0.17","4","4","4","4","4","4","4","4","4","4","5","5","5","5","5","5","5","5","5","5","1","1","1","1","1","1","1","1","1","1","0","1","1","0","0","0","1","0","1","1","0","1","0","1","5","1","1","2","2","1","1","2","2","5","1","621363018810261504","袁","700","","","","","","","","","","","","","","","","","","","","","","","","","","","","","","","","","","","","","","","","","",""
"1805","<p style=""color:white; font-size: 35px;"">君子</p>","i","categorize-html","143","231896","0.0-6.0-1.0-8.0-1.17","4","4","4","4","4","4","4","4","4","4","5","5","5","5","5","5","5","5","5","5","1","1","1","1","1","1","1","1","1","1","0","1","1","0","0","0","1","0","1","1","0","1","0","1","5","1","1","2","2","1","1","2","2","5","1","621363018810261504","袁","700","","","","","","","","","","","","","","","","","","","false","14","4","moral","1314.5238095238096","positive","君子","","","","","","","","","","","","","","","","",""
"null","","null","html-keyboard-response","144","232148","0.0-6.0-1.0-8.0-0.18","4","4","4","4","4","4","4","4","4","4","5","5","5","5","5","5","5","5","5","5","1","1","1","1","1","1","1","1","1","1","0","1","1","0","0","0","1","0","1","1","0","1","0","1","5","1","1","2","2","1","1","2","2","5","1","621363018810261504","袁","700","","","","","","","","","","","","","","","","","","","","","","","","","","","","","","","","","","","","","","","","","",""
"1100","<p style=""color:rgb(150, 250, 100); font-size: 35px;"">我</p>","i","categorize-html","145","233249","0.0-6.0-1.0-8.0-1.18","4","4","4","4","4","4","4","4","4","4","5","5","5","5","5","5","5","5","5","5","1","1","1","1","1","1","1","1","1","1","0","1","1","0","0","0","1","0","1","1","0","1","0","1","5","1","1","2","2","1","1","2","2","5","1","621363018810261504","袁","700","","","","","","","","","","","","","","","","","","","true","14","4","moral","1100","self","我","","","","","","","","","","","","","","","","",""
"null","","null","html-keyboard-response","146","233500","0.0-6.0-1.0-8.0-0.19","4","4","4","4","4","4","4","4","4","4","5","5","5","5","5","5","5","5","5","5","1","1","1","1","1","1","1","1","1","1","0","1","1","0","0","0","1","0","1","1","0","1","0","1","5","1","1","2","2","1","1","2","2","5","1","621363018810261504","袁","700","","","","","","","","","","","","","","","","","","","","","","","","","","","","","","","","","","","","","","","","","",""
"549","<p style=""color:white; font-size: 35px;"">卑鄙</p>","i","categorize-html","147","234050","0.0-6.0-1.0-8.0-1.19","4","4","4","4","4","4","4","4","4","4","5","5","5","5","5","5","5","5","5","5","1","1","1","1","1","1","1","1","1","1","0","1","1","0","0","0","1","0","1","1","0","1","0","1","5","1","1","2","2","1","1","2","2","5","1","621363018810261504","袁","700","","","","","","","","","","","","","","","","","","","true","14","4","moral","549","negative","卑鄙","","","","","","","","","","","","","","","","",""
"null","","null","html-keyboard-response","148","234302","0.0-6.0-1.0-8.0-0.20","4","4","4","4","4","4","4","4","4","4","5","5","5","5","5","5","5","5","5","5","1","1","1","1","1","1","1","1","1","1","0","1","1","0","0","0","1","0","1","1","0","1","0","1","5","1","1","2","2","1","1","2","2","5","1","621363018810261504","袁","700","","","","","","","","","","","","","","","","","","","","","","","","","","","","","","","","","","","","","","","","","",""
"773","<p style=""color:rgb(150, 250, 100); font-size: 35px;"">自己</p>","i","categorize-html","149","235076","0.0-6.0-1.0-8.0-1.20","4","4","4","4","4","4","4","4","4","4","5","5","5","5","5","5","5","5","5","5","1","1","1","1","1","1","1","1","1","1","0","1","1","0","0","0","1","0","1","1","0","1","0","1","5","1","1","2","2","1","1","2","2","5","1","621363018810261504","袁","700","","","","","","","","","","","","","","","","","","","true","14","4","moral","773","self","自己","","","","","","","","","","","","","","","","",""
"null","","null","html-keyboard-response","150","235326","0.0-6.0-1.0-8.0-0.21","4","4","4","4","4","4","4","4","4","4","5","5","5","5","5","5","5","5","5","5","1","1","1","1","1","1","1","1","1","1","0","1","1","0","0","0","1","0","1","1","0","1","0","1","5","1","1","2","2","1","1","2","2","5","1","621363018810261504","袁","700","","","","","","","","","","","","","","","","","","","","","","","","","","","","","","","","","","","","","","","","","",""
"754","<p style=""color:white; font-size: 35px;"">正直</p>","e","categorize-html","151","236081","0.0-6.0-1.0-8.0-1.21","4","4","4","4","4","4","4","4","4","4","5","5","5","5","5","5","5","5","5","5","1","1","1","1","1","1","1","1","1","1","0","1","1","0","0","0","1","0","1","1","0","1","0","1","5","1","1","2","2","1","1","2","2","5","1","621363018810261504","袁","700","","","","","","","","","","","","","","","","","","","true","14","4","moral","754","positive","正直","","","","","","","","","","","","","","","","",""
"null","","null","html-keyboard-response","152","236333","0.0-6.0-1.0-8.0-0.22","4","4","4","4","4","4","4","4","4","4","5","5","5","5","5","5","5","5","5","5","1","1","1","1","1","1","1","1","1","1","0","1","1","0","0","0","1","0","1","1","0","1","0","1","5","1","1","2","2","1","1","2","2","5","1","621363018810261504","袁","700","","","","","","","","","","","","","","","","","","","","","","","","","","","","","","","","","","","","","","","","","",""
"619","<p style=""color:rgb(150, 250, 100); font-size: 35px;"">别人</p>","e","categorize-html","153","236953","0.0-6.0-1.0-8.0-1.22","4","4","4","4","4","4","4","4","4","4","5","5","5","5","5","5","5","5","5","5","1","1","1","1","1","1","1","1","1","1","0","1","1","0","0","0","1","0","1","1","0","1","0","1","5","1","1","2","2","1","1","2","2","5","1","621363018810261504","袁","700","","","","","","","","","","","","","","","","","","","true","14","4","moral","619","other","别人","","","","","","","","","","","","","","","","",""
"null","","null","html-keyboard-response","154","237205","0.0-6.0-1.0-8.0-0.23","4","4","4","4","4","4","4","4","4","4","5","5","5","5","5","5","5","5","5","5","1","1","1","1","1","1","1","1","1","1","0","1","1","0","0","0","1","0","1","1","0","1","0","1","5","1","1","2","2","1","1","2","2","5","1","621363018810261504","袁","700","","","","","","","","","","","","","","","","","","","","","","","","","","","","","","","","","","","","","","","","","",""
"604","<p style=""color:white; font-size: 35px;"">缺德</p>","i","categorize-html","155","237809","0.0-6.0-1.0-8.0-1.23","4","4","4","4","4","4","4","4","4","4","5","5","5","5","5","5","5","5","5","5","1","1","1","1","1","1","1","1","1","1","0","1","1","0","0","0","1","0","1","1","0","1","0","1","5","1","1","2","2","1","1","2","2","5","1","621363018810261504","袁","700","","","","","","","","","","","","","","","","","","","true","14","4","moral","604","negative","缺德","","","","","","","","","","","","","","","","",""
"null","","null","html-keyboard-response","156","238061","0.0-6.0-1.0-8.0-0.24","4","4","4","4","4","4","4","4","4","4","5","5","5","5","5","5","5","5","5","5","1","1","1","1","1","1","1","1","1","1","0","1","1","0","0","0","1","0","1","1","0","1","0","1","5","1","1","2","2","1","1","2","2","5","1","621363018810261504","袁","700","","","","","","","","","","","","","","","","","","","","","","","","","","","","","","","","","","","","","","","","","",""
"491","<p style=""color:rgb(150, 250, 100); font-size: 35px;"">自己的</p>","i","categorize-html","157","238553","0.0-6.0-1.0-8.0-1.24","4","4","4","4","4","4","4","4","4","4","5","5","5","5","5","5","5","5","5","5","1","1","1","1","1","1","1","1","1","1","0","1","1","0","0","0","1","0","1","1","0","1","0","1","5","1","1","2","2","1","1","2","2","5","1","621363018810261504","袁","700","","","","","","","","","","","","","","","","","","","true","14","4","moral","491","self","自己的","","","","","","","","","","","","","","","","",""
"null","","null","html-keyboard-response","158","238804","0.0-6.0-1.0-8.0-0.25","4","4","4","4","4","4","4","4","4","4","5","5","5","5","5","5","5","5","5","5","1","1","1","1","1","1","1","1","1","1","0","1","1","0","0","0","1","0","1","1","0","1","0","1","5","1","1","2","2","1","1","2","2","5","1","621363018810261504","袁","700","","","","","","","","","","","","","","","","","","","","","","","","","","","","","","","","","","","","","","","","","",""
"733","<p style=""color:white; font-size: 35px;"">小人</p>","e","categorize-html","159","240024","0.0-6.0-1.0-8.0-1.25","4","4","4","4","4","4","4","4","4","4","5","5","5","5","5","5","5","5","5","5","1","1","1","1","1","1","1","1","1","1","0","1","1","0","0","0","1","0","1","1","0","1","0","1","5","1","1","2","2","1","1","2","2","5","1","621363018810261504","袁","700","","","","","","","","","","","","","","","","","","","false","14","4","moral","1314.5238095238096","negative","小人","","","","","","","","","","","","","","","","",""
"null","","null","html-keyboard-response","160","240276","0.0-6.0-1.0-8.0-0.26","4","4","4","4","4","4","4","4","4","4","5","5","5","5","5","5","5","5","5","5","1","1","1","1","1","1","1","1","1","1","0","1","1","0","0","0","1","0","1","1","0","1","0","1","5","1","1","2","2","1","1","2","2","5","1","621363018810261504","袁","700","","","","","","","","","","","","","","","","","","","","","","","","","","","","","","","","","","","","","","","","","",""
"1285","<p style=""color:rgb(150, 250, 100); font-size: 35px;"">他人的</p>","e","categorize-html","161","241561","0.0-6.0-1.0-8.0-1.26","4","4","4","4","4","4","4","4","4","4","5","5","5","5","5","5","5","5","5","5","1","1","1","1","1","1","1","1","1","1","0","1","1","0","0","0","1","0","1","1","0","1","0","1","5","1","1","2","2","1","1","2","2","5","1","621363018810261504","袁","700","","","","","","","","","","","","","","","","","","","true","14","4","moral","1285","other","他人的","","","","","","","","","","","","","","","","",""
"null","","null","html-keyboard-response","162","241813","0.0-6.0-1.0-8.0-0.27","4","4","4","4","4","4","4","4","4","4","5","5","5","5","5","5","5","5","5","5","1","1","1","1","1","1","1","1","1","1","0","1","1","0","0","0","1","0","1","1","0","1","0","1","5","1","1","2","2","1","1","2","2","5","1","621363018810261504","袁","700","","","","","","","","","","","","","","","","","","","","","","","","","","","","","","","","","","","","","","","","","",""
"1242","<p style=""color:white; font-size: 35px;"">诚信</p>","e","categorize-html","163","243057","0.0-6.0-1.0-8.0-1.27","4","4","4","4","4","4","4","4","4","4","5","5","5","5","5","5","5","5","5","5","1","1","1","1","1","1","1","1","1","1","0","1","1","0","0","0","1","0","1","1","0","1","0","1","5","1","1","2","2","1","1","2","2","5","1","621363018810261504","袁","700","","","","","","","","","","","","","","","","","","","true","14","4","moral","1242","positive","诚信","","","","","","","","","","","","","","","","",""
"null","","null","html-keyboard-response","164","243308","0.0-6.0-1.0-8.0-0.28","4","4","4","4","4","4","4","4","4","4","5","5","5","5","5","5","5","5","5","5","1","1","1","1","1","1","1","1","1","1","0","1","1","0","0","0","1","0","1","1","0","1","0","1","5","1","1","2","2","1","1","2","2","5","1","621363018810261504","袁","700","","","","","","","","","","","","","","","","","","","","","","","","","","","","","","","","","","","","","","","","","",""
"669","<p style=""color:rgb(150, 250, 100); font-size: 35px;"">我的</p>","i","categorize-html","165","243977","0.0-6.0-1.0-8.0-1.28","4","4","4","4","4","4","4","4","4","4","5","5","5","5","5","5","5","5","5","5","1","1","1","1","1","1","1","1","1","1","0","1","1","0","0","0","1","0","1","1","0","1","0","1","5","1","1","2","2","1","1","2","2","5","1","621363018810261504","袁","700","","","","","","","","","","","","","","","","","","","true","14","4","moral","669","self","我的","","","","","","","","","","","","","","","","",""
"null","","null","html-keyboard-response","166","244228","0.0-6.0-1.0-8.0-0.29","4","4","4","4","4","4","4","4","4","4","5","5","5","5","5","5","5","5","5","5","1","1","1","1","1","1","1","1","1","1","0","1","1","0","0","0","1","0","1","1","0","1","0","1","5","1","1","2","2","1","1","2","2","5","1","621363018810261504","袁","700","","","","","","","","","","","","","","","","","","","","","","","","","","","","","","","","","","","","","","","","","",""
"644","<p style=""color:white; font-size: 35px;"">黑心</p>","i","categorize-html","167","244873","0.0-6.0-1.0-8.0-1.29","4","4","4","4","4","4","4","4","4","4","5","5","5","5","5","5","5","5","5","5","1","1","1","1","1","1","1","1","1","1","0","1","1","0","0","0","1","0","1","1","0","1","0","1","5","1","1","2","2","1","1","2","2","5","1","621363018810261504","袁","700","","","","","","","","","","","","","","","","","","","true","14","4","moral","644","negative","黑心","","","","","","","","","","","","","","","","",""
"null","","null","html-keyboard-response","168","245123","0.0-6.0-1.0-8.0-0.30","4","4","4","4","4","4","4","4","4","4","5","5","5","5","5","5","5","5","5","5","1","1","1","1","1","1","1","1","1","1","0","1","1","0","0","0","1","0","1","1","0","1","0","1","5","1","1","2","2","1","1","2","2","5","1","621363018810261504","袁","700","","","","","","","","","","","","","","","","","","","","","","","","","","","","","","","","","","","","","","","","","",""
"742","<p style=""color:rgb(150, 250, 100); font-size: 35px;"">他的</p>","e","categorize-html","169","245866","0.0-6.0-1.0-8.0-1.30","4","4","4","4","4","4","4","4","4","4","5","5","5","5","5","5","5","5","5","5","1","1","1","1","1","1","1","1","1","1","0","1","1","0","0","0","1","0","1","1","0","1","0","1","5","1","1","2","2","1","1","2","2","5","1","621363018810261504","袁","700","","","","","","","","","","","","","","","","","","","true","14","4","moral","742","other","他的","","","","","","","","","","","","","","","","",""
"null","","null","html-keyboard-response","170","246118","0.0-6.0-1.0-8.0-0.31","4","4","4","4","4","4","4","4","4","4","5","5","5","5","5","5","5","5","5","5","1","1","1","1","1","1","1","1","1","1","0","1","1","0","0","0","1","0","1","1","0","1","0","1","5","1","1","2","2","1","1","2","2","5","1","621363018810261504","袁","700","","","","","","","","","","","","","","","","","","","","","","","","","","","","","","","","","","","","","","","","","",""
"762","<p style=""color:white; font-size: 35px;"">诚信</p>","e","categorize-html","171","246881","0.0-6.0-1.0-8.0-1.31","4","4","4","4","4","4","4","4","4","4","5","5","5","5","5","5","5","5","5","5","1","1","1","1","1","1","1","1","1","1","0","1","1","0","0","0","1","0","1","1","0","1","0","1","5","1","1","2","2","1","1","2","2","5","1","621363018810261504","袁","700","","","","","","","","","","","","","","","","","","","true","14","4","moral","762","positive","诚信","","","","","","","","","","","","","","","","",""
"null","","null","html-keyboard-response","172","247137","0.0-6.0-1.0-8.0-0.32","4","4","4","4","4","4","4","4","4","4","5","5","5","5","5","5","5","5","5","5","1","1","1","1","1","1","1","1","1","1","0","1","1","0","0","0","1","0","1","1","0","1","0","1","5","1","1","2","2","1","1","2","2","5","1","621363018810261504","袁","700","","","","","","","","","","","","","","","","","","","","","","","","","","","","","","","","","","","","","","","","","",""
"935","<p style=""color:rgb(150, 250, 100); font-size: 35px;"">本人</p>","i","categorize-html","173","248073","0.0-6.0-1.0-8.0-1.32","4","4","4","4","4","4","4","4","4","4","5","5","5","5","5","5","5","5","5","5","1","1","1","1","1","1","1","1","1","1","0","1","1","0","0","0","1","0","1","1","0","1","0","1","5","1","1","2","2","1","1","2","2","5","1","621363018810261504","袁","700","","","","","","","","","","","","","","","","","","","true","14","4","moral","935","self","本人","","","","","","","","","","","","","","","","",""
"null","","null","html-keyboard-response","174","248324","0.0-6.0-1.0-8.0-0.33","4","4","4","4","4","4","4","4","4","4","5","5","5","5","5","5","5","5","5","5","1","1","1","1","1","1","1","1","1","1","0","1","1","0","0","0","1","0","1","1","0","1","0","1","5","1","1","2","2","1","1","2","2","5","1","621363018810261504","袁","700","","","","","","","","","","","","","","","","","","","","","","","","","","","","","","","","","","","","","","","","","",""
"692","<p style=""color:white; font-size: 35px;"">正直</p>","e","categorize-html","175","249017","0.0-6.0-1.0-8.0-1.33","4","4","4","4","4","4","4","4","4","4","5","5","5","5","5","5","5","5","5","5","1","1","1","1","1","1","1","1","1","1","0","1","1","0","0","0","1","0","1","1","0","1","0","1","5","1","1","2","2","1","1","2","2","5","1","621363018810261504","袁","700","","","","","","","","","","","","","","","","","","","true","14","4","moral","692","positive","正直","","","","","","","","","","","","","","","","",""
"null","","null","html-keyboard-response","176","249269","0.0-6.0-1.0-8.0-0.34","4","4","4","4","4","4","4","4","4","4","5","5","5","5","5","5","5","5","5","5","1","1","1","1","1","1","1","1","1","1","0","1","1","0","0","0","1","0","1","1","0","1","0","1","5","1","1","2","2","1","1","2","2","5","1","621363018810261504","袁","700","","","","","","","","","","","","","","","","","","","","","","","","","","","","","","","","","","","","","","","","","",""
"700","<p style=""color:rgb(150, 250, 100); font-size: 35px;"">他的</p>","e","categorize-html","177","249969","0.0-6.0-1.0-8.0-1.34","4","4","4","4","4","4","4","4","4","4","5","5","5","5","5","5","5","5","5","5","1","1","1","1","1","1","1","1","1","1","0","1","1","0","0","0","1","0","1","1","0","1","0","1","5","1","1","2","2","1","1","2","2","5","1","621363018810261504","袁","700","","","","","","","","","","","","","","","","","","","true","14","4","moral","700","other","他的","","","","","","","","","","","","","","","","",""
"null","","null","html-keyboard-response","178","250221","0.0-6.0-1.0-8.0-0.35","4","4","4","4","4","4","4","4","4","4","5","5","5","5","5","5","5","5","5","5","1","1","1","1","1","1","1","1","1","1","0","1","1","0","0","0","1","0","1","1","0","1","0","1","5","1","1","2","2","1","1","2","2","5","1","621363018810261504","袁","700","","","","","","","","","","","","","","","","","","","","","","","","","","","","","","","","","","","","","","","","","",""
"644","<p style=""color:white; font-size: 35px;"">不仁</p>","i","categorize-html","179","250865","0.0-6.0-1.0-8.0-1.35","4","4","4","4","4","4","4","4","4","4","5","5","5","5","5","5","5","5","5","5","1","1","1","1","1","1","1","1","1","1","0","1","1","0","0","0","1","0","1","1","0","1","0","1","5","1","1","2","2","1","1","2","2","5","1","621363018810261504","袁","700","","","","","","","","","","","","","","","","","","","true","14","4","moral","644","negative","不仁","","","","","","","","","","","","","","","","",""
"null","","null","html-keyboard-response","180","251115","0.0-6.0-1.0-8.0-0.36","4","4","4","4","4","4","4","4","4","4","5","5","5","5","5","5","5","5","5","5","1","1","1","1","1","1","1","1","1","1","0","1","1","0","0","0","1","0","1","1","0","1","0","1","5","1","1","2","2","1","1","2","2","5","1","621363018810261504","袁","700","","","","","","","","","","","","","","","","","","","","","","","","","","","","","","","","","","","","","","","","","",""
"397","<p style=""color:rgb(150, 250, 100); font-size: 35px;"">自己的</p>","i","categorize-html","181","251514","0.0-6.0-1.0-8.0-1.36","4","4","4","4","4","4","4","4","4","4","5","5","5","5","5","5","5","5","5","5","1","1","1","1","1","1","1","1","1","1","0","1","1","0","0","0","1","0","1","1","0","1","0","1","5","1","1","2","2","1","1","2","2","5","1","621363018810261504","袁","700","","","","","","","","","","","","","","","","","","","true","14","4","moral","397","self","自己的","","","","","","","","","","","","","","","","",""
"null","","null","html-keyboard-response","182","251765","0.0-6.0-1.0-8.0-0.37","4","4","4","4","4","4","4","4","4","4","5","5","5","5","5","5","5","5","5","5","1","1","1","1","1","1","1","1","1","1","0","1","1","0","0","0","1","0","1","1","0","1","0","1","5","1","1","2","2","1","1","2","2","5","1","621363018810261504","袁","700","","","","","","","","","","","","","","","","","","","","","","","","","","","","","","","","","","","","","","","","","",""
"1139","<p style=""color:white; font-size: 35px;"">高尚</p>","e","categorize-html","183","252905","0.0-6.0-1.0-8.0-1.37","4","4","4","4","4","4","4","4","4","4","5","5","5","5","5","5","5","5","5","5","1","1","1","1","1","1","1","1","1","1","0","1","1","0","0","0","1","0","1","1","0","1","0","1","5","1","1","2","2","1","1","2","2","5","1","621363018810261504","袁","700","","","","","","","","","","","","","","","","","","","true","14","4","moral","1139","positive","高尚","","","","","","","","","","","","","","","","",""
"null","","null","html-keyboard-response","184","253157","0.0-6.0-1.0-8.0-0.38","4","4","4","4","4","4","4","4","4","4","5","5","5","5","5","5","5","5","5","5","1","1","1","1","1","1","1","1","1","1","0","1","1","0","0","0","1","0","1","1","0","1","0","1","5","1","1","2","2","1","1","2","2","5","1","621363018810261504","袁","700","","","","","","","","","","","","","","","","","","","","","","","","","","","","","","","","","","","","","","","","","",""
"1099","<p style=""color:rgb(150, 250, 100); font-size: 35px;"">别人的</p>","e","categorize-html","185","254257","0.0-6.0-1.0-8.0-1.38","4","4","4","4","4","4","4","4","4","4","5","5","5","5","5","5","5","5","5","5","1","1","1","1","1","1","1","1","1","1","0","1","1","0","0","0","1","0","1","1","0","1","0","1","5","1","1","2","2","1","1","2","2","5","1","621363018810261504","袁","700","","","","","","","","","","","","","","","","","","","true","14","4","moral","1099","other","别人的","","","","","","","","","","","","","","","","",""
"null","","null","html-keyboard-response","186","254508","0.0-6.0-1.0-8.0-0.39","4","4","4","4","4","4","4","4","4","4","5","5","5","5","5","5","5","5","5","5","1","1","1","1","1","1","1","1","1","1","0","1","1","0","0","0","1","0","1","1","0","1","0","1","5","1","1","2","2","1","1","2","2","5","1","621363018810261504","袁","700","","","","","","","","","","","","","","","","","","","","","","","","","","","","","","","","","","","","","","","","","",""
"749","<p style=""color:white; font-size: 35px;"">不孝</p>","i","categorize-html","187","255258","0.0-6.0-1.0-8.0-1.39","4","4","4","4","4","4","4","4","4","4","5","5","5","5","5","5","5","5","5","5","1","1","1","1","1","1","1","1","1","1","0","1","1","0","0","0","1","0","1","1","0","1","0","1","5","1","1","2","2","1","1","2","2","5","1","621363018810261504","袁","700","","","","","","","","","","","","","","","","","","","true","14","4","moral","749","negative","不孝","","","","","","","","","","","","","","","","",""
"null","","null","html-keyboard-response","188","255508","0.0-6.0-1.0-8.0-0.40","4","4","4","4","4","4","4","4","4","4","5","5","5","5","5","5","5","5","5","5","1","1","1","1","1","1","1","1","1","1","0","1","1","0","0","0","1","0","1","1","0","1","0","1","5","1","1","2","2","1","1","2","2","5","1","621363018810261504","袁","700","","","","","","","","","","","","","","","","","","","","","","","","","","","","","","","","","","","","","","","","","",""
"476","<p style=""color:rgb(150, 250, 100); font-size: 35px;"">我</p>","i","categorize-html","189","255985","0.0-6.0-1.0-8.0-1.40","4","4","4","4","4","4","4","4","4","4","5","5","5","5","5","5","5","5","5","5","1","1","1","1","1","1","1","1","1","1","0","1","1","0","0","0","1","0","1","1","0","1","0","1","5","1","1","2","2","1","1","2","2","5","1","621363018810261504","袁","700","","","","","","","","","","","","","","","","","","","true","14","4","moral","476","self","我","","","","","","","","","","","","","","","","",""
"null","","null","html-keyboard-response","190","256236","0.0-6.0-1.0-8.0-0.41","4","4","4","4","4","4","4","4","4","4","5","5","5","5","5","5","5","5","5","5","1","1","1","1","1","1","1","1","1","1","0","1","1","0","0","0","1","0","1","1","0","1","0","1","5","1","1","2","2","1","1","2","2","5","1","621363018810261504","袁","700","","","","","","","","","","","","","","","","","","","","","","","","","","","","","","","","","","","","","","","","","",""
"1268","<p style=""color:white; font-size: 35px;"">廉正</p>","e","categorize-html","191","257505","0.0-6.0-1.0-8.0-1.41","4","4","4","4","4","4","4","4","4","4","5","5","5","5","5","5","5","5","5","5","1","1","1","1","1","1","1","1","1","1","0","1","1","0","0","0","1","0","1","1","0","1","0","1","5","1","1","2","2","1","1","2","2","5","1","621363018810261504","袁","700","","","","","","","","","","","","","","","","","","","true","14","4","moral","1268","positive","廉正","","","","","","","","","","","","","","","","",""
"null","","null","html-keyboard-response","192","257756","0.0-6.0-1.0-8.0-0.42","4","4","4","4","4","4","4","4","4","4","5","5","5","5","5","5","5","5","5","5","1","1","1","1","1","1","1","1","1","1","0","1","1","0","0","0","1","0","1","1","0","1","0","1","5","1","1","2","2","1","1","2","2","5","1","621363018810261504","袁","700","","","","","","","","","","","","","","","","","","","","","","","","","","","","","","","","","","","","","","","","","",""
"493","<p style=""color:rgb(150, 250, 100); font-size: 35px;"">他人</p>","e","categorize-html","193","258250","0.0-6.0-1.0-8.0-1.42","4","4","4","4","4","4","4","4","4","4","5","5","5","5","5","5","5","5","5","5","1","1","1","1","1","1","1","1","1","1","0","1","1","0","0","0","1","0","1","1","0","1","0","1","5","1","1","2","2","1","1","2","2","5","1","621363018810261504","袁","700","","","","","","","","","","","","","","","","","","","true","14","4","moral","493","other","他人","","","","","","","","","","","","","","","","",""
