"rt","stimulus","response","trial_type","trial_index","time_elapsed","internal_node_id","ses_1","ses_2","ses_3","ses_4","ses_5","ses_6","ses_7","ses_8","ses_9","ses_10","coreself_1","coreself_2","coreself_3","coreself_4","coreself_5","coreself_6","coreself_7","coreself_8","coreself_9","coreself_10","SGPS_1","SGPS_2","SGPS_3","SGPS_4","SGPS_5","SGPS_6","SGPS_7","SGPS_8","SGPS_9","NPI1","NPI2","NPI3","NPI4","NPI5","NPI6","NPI7","NPI8","NPI9","NPI10","NPI11","NPI12","NPI13","NPI14","NPI15","hsns_1","hsns_2","hsns_3","hsns_4","hsns_5","trap1","hsns_6","hsns_7","hsns_8","hsns_9","hsns_10","subj_idx","friend_name","ParticipantID","value","success","user_agent","responses","item_order","radio_event_ids","radio_event_times","key_event_times","mouse_event_times","straightlining","zigzagging","honeypot","timeout","failed_images","failed_audio","failed_video","version_attrib","version_target","correct","IAT","screen_id","task_id","RT","condition","word","varname","summary","version_attrib2","version_target2","time_stamp","view_history","response_type","key_press","avg_frame_time","center_x","center_y","correct_response","identity","Image","question_order","correct_answer","trap1_item"
"4311","
   <p><div style = ""color: white;font-size:25px;"">您好，欢迎参加本次实验。</div> </p>
   <p><div style = ""color: white;font-size:25px;"">为充分保障您的权利，请确保您已经知晓并同意《参与实验同意书》以及《数据公开知情同意书》。</div></p>
   <p><div style = ""color: white;font-size:25px;"">如果您未见过上述内容，请咨询实验员。</div></p>
   <p><div style = ""color: white;font-size:25px;"">如果您选择继续实验，则表示您已经清楚两份知情同意书的内容并同意。</div></p>
   <p><div style = ""color: pink;font-size:30px;"">请确保您记得day0的实验编号，您将在本次实验输入该编号，若您忘记，请咨询实验员后作答。</div></p>
   <p><div style = ""color: lightblue;font-size:25px;"">请您尽可能认真地作答，我们将依据您在各问卷和按键任务中的作答质量发放报酬。</div></p>
   <p> <div style = ""color: green;font-size:25px;""><按空格键至下页></div> </p>
   "," ","html-keyboard-response","0","4313","0.0-0.0","2","3","2","2","2","2","2","1","2","2","2","2","2","2","2","2","2","2","3","2","4","4","4","3","4","4","3","4","4","1","0","1","1","0","0","1","1","0","1","1","0","1","0","1","3","4","4","4","5","2","3","3","3","2","1","732534816976932865","刘","137","","","","","","","","","","","","","","","","","","","","","","","","","","","","","","","","","","","","","","","","","",""
"","","","call-function","1","4313","0.0-1.0-0.0","2","3","2","2","2","2","2","1","2","2","2","2","2","2","2","2","2","2","3","2","4","4","4","3","4","4","3","4","4","1","0","1","1","0","0","1","1","0","1","1","0","1","0","1","3","4","4","4","5","2","3","3","3","2","1","732534816976932865","刘","137","","","","","","","","","","","","","","","","","","","","","","","","","","","","","","","","","","","","","","","","","",""
"65102","","{""friend_name"":""刘"",""ParticipantID"":""137""}","survey-html-form","2","69416","0.0-1.0-1.0","2","3","2","2","2","2","2","1","2","2","2","2","2","2","2","2","2","2","3","2","4","4","4","3","4","4","3","4","4","1","0","1","1","0","0","1","1","0","1","1","0","1","0","1","3","4","4","4","5","2","3","3","3","2","1","732534816976932865","刘","137","","","","","","","","","","","","","","","","","","","","","","","","","","","","","","","","","","","","","","","","","",""
"","","","fullscreen","3","70688","0.0-2.0","2","3","2","2","2","2","2","1","2","2","2","2","2","2","2","2","2","2","3","2","4","4","4","3","4","4","3","4","4","1","0","1","1","0","0","1","1","0","1","1","0","1","0","1","3","4","4","4","5","2","3","3","3","2","1","732534816976932865","刘","137","","true","{}","","","","","","","","","","","","","","","","","","","","","","","","","","","","","","","","","","","","","","",""
"23799.5","","{""Q01"":""2"",""Q02"":""3"",""Q03"":""2"",""Q04"":""2"",""Q05"":""2"",""Q06"":""2"",""Q07"":""2"",""Q08"":""1"",""Q09"":""2"",""Q10"":""2""}","survey-template","4","94489","0.0-3.0","2","3","2","2","2","2","2","1","2","2","2","2","2","2","2","2","2","2","3","2","4","4","4","3","4","4","3","4","4","1","0","1","1","0","0","1","1","0","1","1","0","1","0","1","3","4","4","4","5","2","3","3","3","2","1","732534816976932865","刘","137","","","","{""Q01"":""2"",""Q02"":""3"",""Q03"":""2"",""Q04"":""2"",""Q05"":""2"",""Q06"":""2"",""Q07"":""2"",""Q08"":""1"",""Q09"":""2"",""Q10"":""2""}","[0,1,2,3,4,5,6,7,8,9]","[""Q01"",""Q02"",""Q03"",""Q04"",""Q05"",""Q06"",""Q07"",""Q08"",""Q08"",""Q09"",""Q10""]","[2544.2999999988824,4590.799999998882,6423,7591,8886.799999998882,9974.799999998882,10919.199999999255,12256.400000000373,13478.599999999627,14830.699999999255,16246.799999998882]","[]","[2544.2999999988824,4590.799999998882,6423,7591,8886.799999998882,9974.799999998882,10919.199999999255,12256.400000000373,13478.599999999627,14830.699999999255,16246.799999998882,23798.799999998882]","0.5","0.5555555555555556","0","","","","","","","","","","","","","","","","","","","","","","","","","","","","","",""
"31308","","{""Q01"":""2"",""Q02"":""2"",""Q03"":""2"",""Q04"":""2"",""Q05"":""2"",""Q06"":""2"",""Q07"":""2"",""Q08"":""2"",""Q09"":""3"",""Q10"":""2""}","survey-template","5","125801","0.0-4.0","2","3","2","2","2","2","2","1","2","2","2","2","2","2","2","2","2","2","3","2","4","4","4","3","4","4","3","4","4","1","0","1","1","0","0","1","1","0","1","1","0","1","0","1","3","4","4","4","5","2","3","3","3","2","1","732534816976932865","刘","137","","","","{""Q01"":""2"",""Q02"":""2"",""Q03"":""2"",""Q04"":""2"",""Q05"":""2"",""Q06"":""2"",""Q07"":""2"",""Q08"":""2"",""Q09"":""3"",""Q10"":""2""}","[0,1,2,3,4,5,6,7,8,9]","[""Q01"",""Q02"",""Q04"",""Q03"",""Q05"",""Q06"",""Q07"",""Q08"",""Q09"",""Q10"",""Q04""]","[2627.5,3835.89999999851,6332.799999998882,7059.5999999996275,10827.5,12675.599999999627,13643.299999998882,14851.39999999851,16435.299999998882,20139.39999999851,30203.199999999255]","[]","[2627.5,3835.89999999851,4947.299999998882,6332.799999998882,7059.5999999996275,9355.199999999255,10827.5,12675.599999999627,13643.299999998882,14851.39999999851,16435.299999998882,20139.39999999851,29163.5,30203.199999999255,31307.39999999851]","0.6","0.2222222222222222","0","","","","","","","","","","","","","","","","","","","","","","","","","","","","","",""
"","","","preload","6","126791","0.0-5.0","2","3","2","2","2","2","2","1","2","2","2","2","2","2","2","2","2","2","3","2","4","4","4","3","4","4","3","4","4","1","0","1","1","0","0","1","1","0","1","1","0","1","0","1","3","4","4","4","5","2","3","3","3","2","1","732534816976932865","刘","137","","true","","","","","","","","","","","false","[]","[]","[]","","","","","","","","","","","","","","","","","","","","","","","","","",""
"11847","
    <h3>词语分类任务</h3>
    <p>在接下来的任务中，你需要对一系列词语进行分类。</p>
    <p>请先熟悉这些词语，这有利于你完成接下来的任务。</p>
    <table align=""center"" border=1 cellpadding=3 cellspacing=0>
    <tr> <th>类别</th> <th>词语</th> </tr>
    <tr> <td>&emsp;积极&emsp;</td> <td>&emsp;能干、全能、全才、高效、精干、天才&emsp;</td> </tr>
    <tr> <td>&emsp;消极&emsp;</td> <td>&emsp;无能、低能、废物、拙笨、愚钝、蠢笨&emsp;</td> </tr>
    <tr> <td>&emsp;自我&emsp;</td> <td>&emsp;我、我的、自己、自己的、本人、本人的&emsp;</td> </tr>
    <tr> <td>&emsp;他人&emsp;</td> <td>&emsp;他、他的、别人、别人的、他人、他人的&emsp;</td> </tr>
    </table><br/>","0","html-button-response","7","138640","0.0-6.0-0.0-0.0","2","3","2","2","2","2","2","1","2","2","2","2","2","2","2","2","2","2","3","2","4","4","4","3","4","4","3","4","4","1","0","1","1","0","0","1","1","0","1","1","0","1","0","1","3","4","4","4","5","2","3","3","3","2","1","732534816976932865","刘","137","","","","","","","","","","","","","","","","","1","2","","","","","","","","","","","","","","","","","","","","","","","",""
"25119","
    <div class=""tag-bottom"">
    <p> —— 任务1：对“他人”词和“自我”词分类 ——<p/>
    不同词语会出现在屏幕中央，类别标签将始终显示在屏幕上方<p/>   
    <span style=""color:#FFD866""><b>请根据上方标签的提示，尽可能正确并且快速地做出按键反应</b></span><p/>
    当按键错误时屏幕中会出现<span style=""color:red""> X </span>，需要按另一个键纠正才能继续<br/><p/>
    请把双手食指分别放在键盘的“E”键和“I”键上<p/>
    按<空格键>开始
    </p></div>"," ","html-keyboard-response","8","163761","0.0-6.0-0.0-1.0","2","3","2","2","2","2","2","1","2","2","2","2","2","2","2","2","2","2","3","2","4","4","4","3","4","4","3","4","4","1","0","1","1","0","0","1","1","0","1","1","0","1","0","1","3","4","4","4","5","2","3","3","3","2","1","732534816976932865","刘","137","","","","","","","","","","","","","","","","","","","","","","","","","","","","","","","","","","","","","","","","","",""
"null","","null","html-keyboard-response","9","164013","0.0-6.0-0.0-2.0-0.0","2","3","2","2","2","2","2","1","2","2","2","2","2","2","2","2","2","2","3","2","4","4","4","3","4","4","3","4","4","1","0","1","1","0","0","1","1","0","1","1","0","1","0","1","3","4","4","4","5","2","3","3","3","2","1","732534816976932865","刘","137","","","","","","","","","","","","","","","","","","","","","","","","","","","","","","","","","","","","","","","","","",""
"754","<p style=""color:rgb(150, 250, 100); font-size: 35px;"">别人</p>","e","categorize-html","10","164768","0.0-6.0-0.0-2.0-1.0","2","3","2","2","2","2","2","1","2","2","2","2","2","2","2","2","2","2","3","2","4","4","4","3","4","4","3","4","4","1","0","1","1","0","0","1","1","0","1","1","0","1","0","1","3","4","4","4","5","2","3","3","3","2","1","732534816976932865","刘","137","","","","","","","","","","","","","","","","","","","true","1","1","ability","754","other","别人","","","","","","","","","","","","","","","","",""
"null","","null","html-keyboard-response","11","165020","0.0-6.0-0.0-2.0-0.1","2","3","2","2","2","2","2","1","2","2","2","2","2","2","2","2","2","2","3","2","4","4","4","3","4","4","3","4","4","1","0","1","1","0","0","1","1","0","1","1","0","1","0","1","3","4","4","4","5","2","3","3","3","2","1","732534816976932865","刘","137","","","","","","","","","","","","","","","","","","","","","","","","","","","","","","","","","","","","","","","","","",""
"661","<p style=""color:rgb(150, 250, 100); font-size: 35px;"">自己</p>","i","categorize-html","12","165682","0.0-6.0-0.0-2.0-1.1","2","3","2","2","2","2","2","1","2","2","2","2","2","2","2","2","2","2","3","2","4","4","4","3","4","4","3","4","4","1","0","1","1","0","0","1","1","0","1","1","0","1","0","1","3","4","4","4","5","2","3","3","3","2","1","732534816976932865","刘","137","","","","","","","","","","","","","","","","","","","true","1","1","ability","661","self","自己","","","","","","","","","","","","","","","","",""
"null","","null","html-keyboard-response","13","165933","0.0-6.0-0.0-2.0-0.2","2","3","2","2","2","2","2","1","2","2","2","2","2","2","2","2","2","2","3","2","4","4","4","3","4","4","3","4","4","1","0","1","1","0","0","1","1","0","1","1","0","1","0","1","3","4","4","4","5","2","3","3","3","2","1","732534816976932865","刘","137","","","","","","","","","","","","","","","","","","","","","","","","","","","","","","","","","","","","","","","","","",""
"586","<p style=""color:rgb(150, 250, 100); font-size: 35px;"">自己的</p>","i","categorize-html","14","166520","0.0-6.0-0.0-2.0-1.2","2","3","2","2","2","2","2","1","2","2","2","2","2","2","2","2","2","2","3","2","4","4","4","3","4","4","3","4","4","1","0","1","1","0","0","1","1","0","1","1","0","1","0","1","3","4","4","4","5","2","3","3","3","2","1","732534816976932865","刘","137","","","","","","","","","","","","","","","","","","","true","1","1","ability","586","self","自己的","","","","","","","","","","","","","","","","",""
"null","","null","html-keyboard-response","15","166772","0.0-6.0-0.0-2.0-0.3","2","3","2","2","2","2","2","1","2","2","2","2","2","2","2","2","2","2","3","2","4","4","4","3","4","4","3","4","4","1","0","1","1","0","0","1","1","0","1","1","0","1","0","1","3","4","4","4","5","2","3","3","3","2","1","732534816976932865","刘","137","","","","","","","","","","","","","","","","","","","","","","","","","","","","","","","","","","","","","","","","","",""
"451","<p style=""color:rgb(150, 250, 100); font-size: 35px;"">别人的</p>","e","categorize-html","16","167224","0.0-6.0-0.0-2.0-1.3","2","3","2","2","2","2","2","1","2","2","2","2","2","2","2","2","2","2","3","2","4","4","4","3","4","4","3","4","4","1","0","1","1","0","0","1","1","0","1","1","0","1","0","1","3","4","4","4","5","2","3","3","3","2","1","732534816976932865","刘","137","","","","","","","","","","","","","","","","","","","true","1","1","ability","451","other","别人的","","","","","","","","","","","","","","","","",""
"null","","null","html-keyboard-response","17","167475","0.0-6.0-0.0-2.0-0.4","2","3","2","2","2","2","2","1","2","2","2","2","2","2","2","2","2","2","3","2","4","4","4","3","4","4","3","4","4","1","0","1","1","0","0","1","1","0","1","1","0","1","0","1","3","4","4","4","5","2","3","3","3","2","1","732534816976932865","刘","137","","","","","","","","","","","","","","","","","","","","","","","","","","","","","","","","","","","","","","","","","",""
"516","<p style=""color:rgb(150, 250, 100); font-size: 35px;"">他人的</p>","e","categorize-html","18","167992","0.0-6.0-0.0-2.0-1.4","2","3","2","2","2","2","2","1","2","2","2","2","2","2","2","2","2","2","3","2","4","4","4","3","4","4","3","4","4","1","0","1","1","0","0","1","1","0","1","1","0","1","0","1","3","4","4","4","5","2","3","3","3","2","1","732534816976932865","刘","137","","","","","","","","","","","","","","","","","","","true","1","1","ability","516","other","他人的","","","","","","","","","","","","","","","","",""
"null","","null","html-keyboard-response","19","168244","0.0-6.0-0.0-2.0-0.5","2","3","2","2","2","2","2","1","2","2","2","2","2","2","2","2","2","2","3","2","4","4","4","3","4","4","3","4","4","1","0","1","1","0","0","1","1","0","1","1","0","1","0","1","3","4","4","4","5","2","3","3","3","2","1","732534816976932865","刘","137","","","","","","","","","","","","","","","","","","","","","","","","","","","","","","","","","","","","","","","","","",""
"531","<p style=""color:rgb(150, 250, 100); font-size: 35px;"">他</p>","e","categorize-html","20","168776","0.0-6.0-0.0-2.0-1.5","2","3","2","2","2","2","2","1","2","2","2","2","2","2","2","2","2","2","3","2","4","4","4","3","4","4","3","4","4","1","0","1","1","0","0","1","1","0","1","1","0","1","0","1","3","4","4","4","5","2","3","3","3","2","1","732534816976932865","刘","137","","","","","","","","","","","","","","","","","","","true","1","1","ability","531","other","他","","","","","","","","","","","","","","","","",""
"null","","null","html-keyboard-response","21","169029","0.0-6.0-0.0-2.0-0.6","2","3","2","2","2","2","2","1","2","2","2","2","2","2","2","2","2","2","3","2","4","4","4","3","4","4","3","4","4","1","0","1","1","0","0","1","1","0","1","1","0","1","0","1","3","4","4","4","5","2","3","3","3","2","1","732534816976932865","刘","137","","","","","","","","","","","","","","","","","","","","","","","","","","","","","","","","","","","","","","","","","",""
"466","<p style=""color:rgb(150, 250, 100); font-size: 35px;"">他人</p>","e","categorize-html","22","169496","0.0-6.0-0.0-2.0-1.6","2","3","2","2","2","2","2","1","2","2","2","2","2","2","2","2","2","2","3","2","4","4","4","3","4","4","3","4","4","1","0","1","1","0","0","1","1","0","1","1","0","1","0","1","3","4","4","4","5","2","3","3","3","2","1","732534816976932865","刘","137","","","","","","","","","","","","","","","","","","","true","1","1","ability","466","other","他人","","","","","","","","","","","","","","","","",""
"null","","null","html-keyboard-response","23","169747","0.0-6.0-0.0-2.0-0.7","2","3","2","2","2","2","2","1","2","2","2","2","2","2","2","2","2","2","3","2","4","4","4","3","4","4","3","4","4","1","0","1","1","0","0","1","1","0","1","1","0","1","0","1","3","4","4","4","5","2","3","3","3","2","1","732534816976932865","刘","137","","","","","","","","","","","","","","","","","","","","","","","","","","","","","","","","","","","","","","","","","",""
"532","<p style=""color:rgb(150, 250, 100); font-size: 35px;"">我</p>","i","categorize-html","24","170280","0.0-6.0-0.0-2.0-1.7","2","3","2","2","2","2","2","1","2","2","2","2","2","2","2","2","2","2","3","2","4","4","4","3","4","4","3","4","4","1","0","1","1","0","0","1","1","0","1","1","0","1","0","1","3","4","4","4","5","2","3","3","3","2","1","732534816976932865","刘","137","","","","","","","","","","","","","","","","","","","true","1","1","ability","532","self","我","","","","","","","","","","","","","","","","",""
"null","","null","html-keyboard-response","25","170531","0.0-6.0-0.0-2.0-0.8","2","3","2","2","2","2","2","1","2","2","2","2","2","2","2","2","2","2","3","2","4","4","4","3","4","4","3","4","4","1","0","1","1","0","0","1","1","0","1","1","0","1","0","1","3","4","4","4","5","2","3","3","3","2","1","732534816976932865","刘","137","","","","","","","","","","","","","","","","","","","","","","","","","","","","","","","","","","","","","","","","","",""
"484","<p style=""color:rgb(150, 250, 100); font-size: 35px;"">本人</p>","i","categorize-html","26","171016","0.0-6.0-0.0-2.0-1.8","2","3","2","2","2","2","2","1","2","2","2","2","2","2","2","2","2","2","3","2","4","4","4","3","4","4","3","4","4","1","0","1","1","0","0","1","1","0","1","1","0","1","0","1","3","4","4","4","5","2","3","3","3","2","1","732534816976932865","刘","137","","","","","","","","","","","","","","","","","","","true","1","1","ability","484","self","本人","","","","","","","","","","","","","","","","",""
"null","","null","html-keyboard-response","27","171267","0.0-6.0-0.0-2.0-0.9","2","3","2","2","2","2","2","1","2","2","2","2","2","2","2","2","2","2","3","2","4","4","4","3","4","4","3","4","4","1","0","1","1","0","0","1","1","0","1","1","0","1","0","1","3","4","4","4","5","2","3","3","3","2","1","732534816976932865","刘","137","","","","","","","","","","","","","","","","","","","","","","","","","","","","","","","","","","","","","","","","","",""
"507","<p style=""color:rgb(150, 250, 100); font-size: 35px;"">我的</p>","i","categorize-html","28","171776","0.0-6.0-0.0-2.0-1.9","2","3","2","2","2","2","2","1","2","2","2","2","2","2","2","2","2","2","3","2","4","4","4","3","4","4","3","4","4","1","0","1","1","0","0","1","1","0","1","1","0","1","0","1","3","4","4","4","5","2","3","3","3","2","1","732534816976932865","刘","137","","","","","","","","","","","","","","","","","","","true","1","1","ability","507","self","我的","","","","","","","","","","","","","","","","",""
"null","","null","html-keyboard-response","29","172027","0.0-6.0-0.0-2.0-0.10","2","3","2","2","2","2","2","1","2","2","2","2","2","2","2","2","2","2","3","2","4","4","4","3","4","4","3","4","4","1","0","1","1","0","0","1","1","0","1","1","0","1","0","1","3","4","4","4","5","2","3","3","3","2","1","732534816976932865","刘","137","","","","","","","","","","","","","","","","","","","","","","","","","","","","","","","","","","","","","","","","","",""
"523","<p style=""color:rgb(150, 250, 100); font-size: 35px;"">他的</p>","e","categorize-html","30","172552","0.0-6.0-0.0-2.0-1.10","2","3","2","2","2","2","2","1","2","2","2","2","2","2","2","2","2","2","3","2","4","4","4","3","4","4","3","4","4","1","0","1","1","0","0","1","1","0","1","1","0","1","0","1","3","4","4","4","5","2","3","3","3","2","1","732534816976932865","刘","137","","","","","","","","","","","","","","","","","","","true","1","1","ability","523","other","他的","","","","","","","","","","","","","","","","",""
"null","","null","html-keyboard-response","31","172803","0.0-6.0-0.0-2.0-0.11","2","3","2","2","2","2","2","1","2","2","2","2","2","2","2","2","2","2","3","2","4","4","4","3","4","4","3","4","4","1","0","1","1","0","0","1","1","0","1","1","0","1","0","1","3","4","4","4","5","2","3","3","3","2","1","732534816976932865","刘","137","","","","","","","","","","","","","","","","","","","","","","","","","","","","","","","","","","","","","","","","","",""
"524","<p style=""color:rgb(150, 250, 100); font-size: 35px;"">本人的</p>","i","categorize-html","32","173328","0.0-6.0-0.0-2.0-1.11","2","3","2","2","2","2","2","1","2","2","2","2","2","2","2","2","2","2","3","2","4","4","4","3","4","4","3","4","4","1","0","1","1","0","0","1","1","0","1","1","0","1","0","1","3","4","4","4","5","2","3","3","3","2","1","732534816976932865","刘","137","","","","","","","","","","","","","","","","","","","true","1","1","ability","524","self","本人的","","","","","","","","","","","","","","","","",""
"1374","
    <div class=""tag-bottom""><p>
    —— 任务2：对“积极”词和“消极”词分类 ——<p/>   
    <span style=""color:#78DCE8""><b>注意上方，类别标签和需要分类的词语都已经改变</b></span><p/>
    <span style=""color:#FFD866""><b>请根据上方标签的提示，尽可能正确并且快速地做出按键反应</b></span><p/>
    当按键错误时屏幕中会出现<span style=""color:red""> X </span>，需要按另一个键纠正才能继续<br/><p/>
    请把双手食指分别放在键盘的“E”键和“I”键上<p/>
    按<空格键>开始
    </p></div>"," ","html-keyboard-response","33","174703","0.0-6.0-0.0-3.0","2","3","2","2","2","2","2","1","2","2","2","2","2","2","2","2","2","2","3","2","4","4","4","3","4","4","3","4","4","1","0","1","1","0","0","1","1","0","1","1","0","1","0","1","3","4","4","4","5","2","3","3","3","2","1","732534816976932865","刘","137","","","","","","","","","","","","","","","","","","","","","","","","","","","","","","","","","","","","","","","","","",""
"null","","null","html-keyboard-response","34","174954","0.0-6.0-0.0-4.0-0.0","2","3","2","2","2","2","2","1","2","2","2","2","2","2","2","2","2","2","3","2","4","4","4","3","4","4","3","4","4","1","0","1","1","0","0","1","1","0","1","1","0","1","0","1","3","4","4","4","5","2","3","3","3","2","1","732534816976932865","刘","137","","","","","","","","","","","","","","","","","","","","","","","","","","","","","","","","","","","","","","","","","",""
"1005","<p style=""color:white; font-size: 35px;"">天才</p>","i","categorize-html","35","176575","0.0-6.0-0.0-4.0-1.0","2","3","2","2","2","2","2","1","2","2","2","2","2","2","2","2","2","2","3","2","4","4","4","3","4","4","3","4","4","1","0","1","1","0","0","1","1","0","1","1","0","1","0","1","3","4","4","4","5","2","3","3","3","2","1","732534816976932865","刘","137","","","","","","","","","","","","","","","","","","","false","2","2","ability","1005","positive","天才","","","","","","","","","","","","","","","","",""
"null","","null","html-keyboard-response","36","176826","0.0-6.0-0.0-4.0-0.1","2","3","2","2","2","2","2","1","2","2","2","2","2","2","2","2","2","2","3","2","4","4","4","3","4","4","3","4","4","1","0","1","1","0","0","1","1","0","1","1","0","1","0","1","3","4","4","4","5","2","3","3","3","2","1","732534816976932865","刘","137","","","","","","","","","","","","","","","","","","","","","","","","","","","","","","","","","","","","","","","","","",""
"804","<p style=""color:white; font-size: 35px;"">全能</p>","e","categorize-html","37","177632","0.0-6.0-0.0-4.0-1.1","2","3","2","2","2","2","2","1","2","2","2","2","2","2","2","2","2","2","3","2","4","4","4","3","4","4","3","4","4","1","0","1","1","0","0","1","1","0","1","1","0","1","0","1","3","4","4","4","5","2","3","3","3","2","1","732534816976932865","刘","137","","","","","","","","","","","","","","","","","","","true","2","2","ability","804","positive","全能","","","","","","","","","","","","","","","","",""
"null","","null","html-keyboard-response","38","177882","0.0-6.0-0.0-4.0-0.2","2","3","2","2","2","2","2","1","2","2","2","2","2","2","2","2","2","2","3","2","4","4","4","3","4","4","3","4","4","1","0","1","1","0","0","1","1","0","1","1","0","1","0","1","3","4","4","4","5","2","3","3","3","2","1","732534816976932865","刘","137","","","","","","","","","","","","","","","","","","","","","","","","","","","","","","","","","","","","","","","","","",""
"660","<p style=""color:white; font-size: 35px;"">拙笨</p>","i","categorize-html","39","178544","0.0-6.0-0.0-4.0-1.2","2","3","2","2","2","2","2","1","2","2","2","2","2","2","2","2","2","2","3","2","4","4","4","3","4","4","3","4","4","1","0","1","1","0","0","1","1","0","1","1","0","1","0","1","3","4","4","4","5","2","3","3","3","2","1","732534816976932865","刘","137","","","","","","","","","","","","","","","","","","","true","2","2","ability","660","negative","拙笨","","","","","","","","","","","","","","","","",""
"null","","null","html-keyboard-response","40","178796","0.0-6.0-0.0-4.0-0.3","2","3","2","2","2","2","2","1","2","2","2","2","2","2","2","2","2","2","3","2","4","4","4","3","4","4","3","4","4","1","0","1","1","0","0","1","1","0","1","1","0","1","0","1","3","4","4","4","5","2","3","3","3","2","1","732534816976932865","刘","137","","","","","","","","","","","","","","","","","","","","","","","","","","","","","","","","","","","","","","","","","",""
"683","<p style=""color:white; font-size: 35px;"">愚钝</p>","i","categorize-html","41","179480","0.0-6.0-0.0-4.0-1.3","2","3","2","2","2","2","2","1","2","2","2","2","2","2","2","2","2","2","3","2","4","4","4","3","4","4","3","4","4","1","0","1","1","0","0","1","1","0","1","1","0","1","0","1","3","4","4","4","5","2","3","3","3","2","1","732534816976932865","刘","137","","","","","","","","","","","","","","","","","","","true","2","2","ability","683","negative","愚钝","","","","","","","","","","","","","","","","",""
"null","","null","html-keyboard-response","42","179731","0.0-6.0-0.0-4.0-0.4","2","3","2","2","2","2","2","1","2","2","2","2","2","2","2","2","2","2","3","2","4","4","4","3","4","4","3","4","4","1","0","1","1","0","0","1","1","0","1","1","0","1","0","1","3","4","4","4","5","2","3","3","3","2","1","732534816976932865","刘","137","","","","","","","","","","","","","","","","","","","","","","","","","","","","","","","","","","","","","","","","","",""
"652","<p style=""color:white; font-size: 35px;"">精干</p>","e","categorize-html","43","180384","0.0-6.0-0.0-4.0-1.4","2","3","2","2","2","2","2","1","2","2","2","2","2","2","2","2","2","2","3","2","4","4","4","3","4","4","3","4","4","1","0","1","1","0","0","1","1","0","1","1","0","1","0","1","3","4","4","4","5","2","3","3","3","2","1","732534816976932865","刘","137","","","","","","","","","","","","","","","","","","","true","2","2","ability","652","positive","精干","","","","","","","","","","","","","","","","",""
"null","","null","html-keyboard-response","44","180634","0.0-6.0-0.0-4.0-0.5","2","3","2","2","2","2","2","1","2","2","2","2","2","2","2","2","2","2","3","2","4","4","4","3","4","4","3","4","4","1","0","1","1","0","0","1","1","0","1","1","0","1","0","1","3","4","4","4","5","2","3","3","3","2","1","732534816976932865","刘","137","","","","","","","","","","","","","","","","","","","","","","","","","","","","","","","","","","","","","","","","","",""
"644","<p style=""color:white; font-size: 35px;"">无能</p>","i","categorize-html","45","181280","0.0-6.0-0.0-4.0-1.5","2","3","2","2","2","2","2","1","2","2","2","2","2","2","2","2","2","2","3","2","4","4","4","3","4","4","3","4","4","1","0","1","1","0","0","1","1","0","1","1","0","1","0","1","3","4","4","4","5","2","3","3","3","2","1","732534816976932865","刘","137","","","","","","","","","","","","","","","","","","","true","2","2","ability","644","negative","无能","","","","","","","","","","","","","","","","",""
"null","","null","html-keyboard-response","46","181530","0.0-6.0-0.0-4.0-0.6","2","3","2","2","2","2","2","1","2","2","2","2","2","2","2","2","2","2","3","2","4","4","4","3","4","4","3","4","4","1","0","1","1","0","0","1","1","0","1","1","0","1","0","1","3","4","4","4","5","2","3","3","3","2","1","732534816976932865","刘","137","","","","","","","","","","","","","","","","","","","","","","","","","","","","","","","","","","","","","","","","","",""
"652","<p style=""color:white; font-size: 35px;"">全才</p>","e","categorize-html","47","182184","0.0-6.0-0.0-4.0-1.6","2","3","2","2","2","2","2","1","2","2","2","2","2","2","2","2","2","2","3","2","4","4","4","3","4","4","3","4","4","1","0","1","1","0","0","1","1","0","1","1","0","1","0","1","3","4","4","4","5","2","3","3","3","2","1","732534816976932865","刘","137","","","","","","","","","","","","","","","","","","","true","2","2","ability","652","positive","全才","","","","","","","","","","","","","","","","",""
"null","","null","html-keyboard-response","48","182434","0.0-6.0-0.0-4.0-0.7","2","3","2","2","2","2","2","1","2","2","2","2","2","2","2","2","2","2","3","2","4","4","4","3","4","4","3","4","4","1","0","1","1","0","0","1","1","0","1","1","0","1","0","1","3","4","4","4","5","2","3","3","3","2","1","732534816976932865","刘","137","","","","","","","","","","","","","","","","","","","","","","","","","","","","","","","","","","","","","","","","","",""
"684","<p style=""color:white; font-size: 35px;"">能干</p>","e","categorize-html","49","183120","0.0-6.0-0.0-4.0-1.7","2","3","2","2","2","2","2","1","2","2","2","2","2","2","2","2","2","2","3","2","4","4","4","3","4","4","3","4","4","1","0","1","1","0","0","1","1","0","1","1","0","1","0","1","3","4","4","4","5","2","3","3","3","2","1","732534816976932865","刘","137","","","","","","","","","","","","","","","","","","","true","2","2","ability","684","positive","能干","","","","","","","","","","","","","","","","",""
"null","","null","html-keyboard-response","50","183370","0.0-6.0-0.0-4.0-0.8","2","3","2","2","2","2","2","1","2","2","2","2","2","2","2","2","2","2","3","2","4","4","4","3","4","4","3","4","4","1","0","1","1","0","0","1","1","0","1","1","0","1","0","1","3","4","4","4","5","2","3","3","3","2","1","732534816976932865","刘","137","","","","","","","","","","","","","","","","","","","","","","","","","","","","","","","","","","","","","","","","","",""
"692","<p style=""color:white; font-size: 35px;"">低能</p>","i","categorize-html","51","184064","0.0-6.0-0.0-4.0-1.8","2","3","2","2","2","2","2","1","2","2","2","2","2","2","2","2","2","2","3","2","4","4","4","3","4","4","3","4","4","1","0","1","1","0","0","1","1","0","1","1","0","1","0","1","3","4","4","4","5","2","3","3","3","2","1","732534816976932865","刘","137","","","","","","","","","","","","","","","","","","","true","2","2","ability","692","negative","低能","","","","","","","","","","","","","","","","",""
"null","","null","html-keyboard-response","52","184315","0.0-6.0-0.0-4.0-0.9","2","3","2","2","2","2","2","1","2","2","2","2","2","2","2","2","2","2","3","2","4","4","4","3","4","4","3","4","4","1","0","1","1","0","0","1","1","0","1","1","0","1","0","1","3","4","4","4","5","2","3","3","3","2","1","732534816976932865","刘","137","","","","","","","","","","","","","","","","","","","","","","","","","","","","","","","","","","","","","","","","","",""
"508","<p style=""color:white; font-size: 35px;"">蠢笨</p>","i","categorize-html","53","184824","0.0-6.0-0.0-4.0-1.9","2","3","2","2","2","2","2","1","2","2","2","2","2","2","2","2","2","2","3","2","4","4","4","3","4","4","3","4","4","1","0","1","1","0","0","1","1","0","1","1","0","1","0","1","3","4","4","4","5","2","3","3","3","2","1","732534816976932865","刘","137","","","","","","","","","","","","","","","","","","","true","2","2","ability","508","negative","蠢笨","","","","","","","","","","","","","","","","",""
"null","","null","html-keyboard-response","54","185074","0.0-6.0-0.0-4.0-0.10","2","3","2","2","2","2","2","1","2","2","2","2","2","2","2","2","2","2","3","2","4","4","4","3","4","4","3","4","4","1","0","1","1","0","0","1","1","0","1","1","0","1","0","1","3","4","4","4","5","2","3","3","3","2","1","732534816976932865","刘","137","","","","","","","","","","","","","","","","","","","","","","","","","","","","","","","","","","","","","","","","","",""
"716","<p style=""color:white; font-size: 35px;"">废物</p>","i","categorize-html","55","185792","0.0-6.0-0.0-4.0-1.10","2","3","2","2","2","2","2","1","2","2","2","2","2","2","2","2","2","2","3","2","4","4","4","3","4","4","3","4","4","1","0","1","1","0","0","1","1","0","1","1","0","1","0","1","3","4","4","4","5","2","3","3","3","2","1","732534816976932865","刘","137","","","","","","","","","","","","","","","","","","","true","2","2","ability","716","negative","废物","","","","","","","","","","","","","","","","",""
"null","","null","html-keyboard-response","56","186042","0.0-6.0-0.0-4.0-0.11","2","3","2","2","2","2","2","1","2","2","2","2","2","2","2","2","2","2","3","2","4","4","4","3","4","4","3","4","4","1","0","1","1","0","0","1","1","0","1","1","0","1","0","1","3","4","4","4","5","2","3","3","3","2","1","732534816976932865","刘","137","","","","","","","","","","","","","","","","","","","","","","","","","","","","","","","","","","","","","","","","","",""
"604","<p style=""color:white; font-size: 35px;"">高效</p>","e","categorize-html","57","186648","0.0-6.0-0.0-4.0-1.11","2","3","2","2","2","2","2","1","2","2","2","2","2","2","2","2","2","2","3","2","4","4","4","3","4","4","3","4","4","1","0","1","1","0","0","1","1","0","1","1","0","1","0","1","3","4","4","4","5","2","3","3","3","2","1","732534816976932865","刘","137","","","","","","","","","","","","","","","","","","","true","2","2","ability","604","positive","高效","","","","","","","","","","","","","","","","",""
"1111","
    <div class=""tag-bottom""><p>
    —— 任务3：对“他人/积极”词和“自我/消极”词分类 ——<p/>
    <span style=""color:#78DCE8""><b>注意上方，之前的四类词语将混合在一起交替呈现</b></span><p/>
    <span style=""color:#FFD866""><b>请根据上方标签的提示，尽可能正确并且快速地做出按键反应</b></span><p/>
    当按键错误时屏幕中会出现<span style=""color:red""> X </span>，需要按另一个键纠正才能继续<br/><p/>
    请把双手食指分别放在键盘的“E”键和“I”键上<p/>
    按<空格键>开始
    </p></div>"," ","html-keyboard-response","58","187759","0.0-6.0-0.0-5.0","2","3","2","2","2","2","2","1","2","2","2","2","2","2","2","2","2","2","3","2","4","4","4","3","4","4","3","4","4","1","0","1","1","0","0","1","1","0","1","1","0","1","0","1","3","4","4","4","5","2","3","3","3","2","1","732534816976932865","刘","137","","","","","","","","","","","","","","","","","","","","","","","","","","","","","","","","","","","","","","","","","",""
"null","","null","html-keyboard-response","59","188010","0.0-6.0-0.0-6.0-0.0","2","3","2","2","2","2","2","1","2","2","2","2","2","2","2","2","2","2","3","2","4","4","4","3","4","4","3","4","4","1","0","1","1","0","0","1","1","0","1","1","0","1","0","1","3","4","4","4","5","2","3","3","3","2","1","732534816976932865","刘","137","","","","","","","","","","","","","","","","","","","","","","","","","","","","","","","","","","","","","","","","","",""
"1365","<p style=""color:rgb(150, 250, 100); font-size: 35px;"">自己</p>","i","categorize-html","60","189376","0.0-6.0-0.0-6.0-1.0","2","3","2","2","2","2","2","1","2","2","2","2","2","2","2","2","2","2","3","2","4","4","4","3","4","4","3","4","4","1","0","1","1","0","0","1","1","0","1","1","0","1","0","1","3","4","4","4","5","2","3","3","3","2","1","732534816976932865","刘","137","","","","","","","","","","","","","","","","","","","true","3","3","ability","1365","self","自己","","","","","","","","","","","","","","","","",""
"null","","null","html-keyboard-response","61","189626","0.0-6.0-0.0-6.0-0.1","2","3","2","2","2","2","2","1","2","2","2","2","2","2","2","2","2","2","3","2","4","4","4","3","4","4","3","4","4","1","0","1","1","0","0","1","1","0","1","1","0","1","0","1","3","4","4","4","5","2","3","3","3","2","1","732534816976932865","刘","137","","","","","","","","","","","","","","","","","","","","","","","","","","","","","","","","","","","","","","","","","",""
"749","<p style=""color:white; font-size: 35px;"">无能</p>","i","categorize-html","62","190377","0.0-6.0-0.0-6.0-1.1","2","3","2","2","2","2","2","1","2","2","2","2","2","2","2","2","2","2","3","2","4","4","4","3","4","4","3","4","4","1","0","1","1","0","0","1","1","0","1","1","0","1","0","1","3","4","4","4","5","2","3","3","3","2","1","732534816976932865","刘","137","","","","","","","","","","","","","","","","","","","true","3","3","ability","749","negative","无能","","","","","","","","","","","","","","","","",""
"null","","null","html-keyboard-response","63","190628","0.0-6.0-0.0-6.0-0.2","2","3","2","2","2","2","2","1","2","2","2","2","2","2","2","2","2","2","3","2","4","4","4","3","4","4","3","4","4","1","0","1","1","0","0","1","1","0","1","1","0","1","0","1","3","4","4","4","5","2","3","3","3","2","1","732534816976932865","刘","137","","","","","","","","","","","","","","","","","","","","","","","","","","","","","","","","","","","","","","","","","",""
"651","<p style=""color:rgb(150, 250, 100); font-size: 35px;"">他人的</p>","e","categorize-html","64","191280","0.0-6.0-0.0-6.0-1.2","2","3","2","2","2","2","2","1","2","2","2","2","2","2","2","2","2","2","3","2","4","4","4","3","4","4","3","4","4","1","0","1","1","0","0","1","1","0","1","1","0","1","0","1","3","4","4","4","5","2","3","3","3","2","1","732534816976932865","刘","137","","","","","","","","","","","","","","","","","","","true","3","3","ability","651","other","他人的","","","","","","","","","","","","","","","","",""
"null","","null","html-keyboard-response","65","191532","0.0-6.0-0.0-6.0-0.3","2","3","2","2","2","2","2","1","2","2","2","2","2","2","2","2","2","2","3","2","4","4","4","3","4","4","3","4","4","1","0","1","1","0","0","1","1","0","1","1","0","1","0","1","3","4","4","4","5","2","3","3","3","2","1","732534816976932865","刘","137","","","","","","","","","","","","","","","","","","","","","","","","","","","","","","","","","","","","","","","","","",""
"611","<p style=""color:white; font-size: 35px;"">天才</p>","e","categorize-html","66","192144","0.0-6.0-0.0-6.0-1.3","2","3","2","2","2","2","2","1","2","2","2","2","2","2","2","2","2","2","3","2","4","4","4","3","4","4","3","4","4","1","0","1","1","0","0","1","1","0","1","1","0","1","0","1","3","4","4","4","5","2","3","3","3","2","1","732534816976932865","刘","137","","","","","","","","","","","","","","","","","","","true","3","3","ability","611","positive","天才","","","","","","","","","","","","","","","","",""
"null","","null","html-keyboard-response","67","192395","0.0-6.0-0.0-6.0-0.4","2","3","2","2","2","2","2","1","2","2","2","2","2","2","2","2","2","2","3","2","4","4","4","3","4","4","3","4","4","1","0","1","1","0","0","1","1","0","1","1","0","1","0","1","3","4","4","4","5","2","3","3","3","2","1","732534816976932865","刘","137","","","","","","","","","","","","","","","","","","","","","","","","","","","","","","","","","","","","","","","","","",""
"612","<p style=""color:rgb(150, 250, 100); font-size: 35px;"">别人</p>","e","categorize-html","68","193008","0.0-6.0-0.0-6.0-1.4","2","3","2","2","2","2","2","1","2","2","2","2","2","2","2","2","2","2","3","2","4","4","4","3","4","4","3","4","4","1","0","1","1","0","0","1","1","0","1","1","0","1","0","1","3","4","4","4","5","2","3","3","3","2","1","732534816976932865","刘","137","","","","","","","","","","","","","","","","","","","true","3","3","ability","612","other","别人","","","","","","","","","","","","","","","","",""
"null","","null","html-keyboard-response","69","193259","0.0-6.0-0.0-6.0-0.5","2","3","2","2","2","2","2","1","2","2","2","2","2","2","2","2","2","2","3","2","4","4","4","3","4","4","3","4","4","1","0","1","1","0","0","1","1","0","1","1","0","1","0","1","3","4","4","4","5","2","3","3","3","2","1","732534816976932865","刘","137","","","","","","","","","","","","","","","","","","","","","","","","","","","","","","","","","","","","","","","","","",""
"684","<p style=""color:white; font-size: 35px;"">废物</p>","e","categorize-html","70","194503","0.0-6.0-0.0-6.0-1.5","2","3","2","2","2","2","2","1","2","2","2","2","2","2","2","2","2","2","3","2","4","4","4","3","4","4","3","4","4","1","0","1","1","0","0","1","1","0","1","1","0","1","0","1","3","4","4","4","5","2","3","3","3","2","1","732534816976932865","刘","137","","","","","","","","","","","","","","","","","","","false","3","3","ability","1297.4782608695652","negative","废物","","","","","","","","","","","","","","","","",""
"null","","null","html-keyboard-response","71","194753","0.0-6.0-0.0-6.0-0.6","2","3","2","2","2","2","2","1","2","2","2","2","2","2","2","2","2","2","3","2","4","4","4","3","4","4","3","4","4","1","0","1","1","0","0","1","1","0","1","1","0","1","0","1","3","4","4","4","5","2","3","3","3","2","1","732534816976932865","刘","137","","","","","","","","","","","","","","","","","","","","","","","","","","","","","","","","","","","","","","","","","",""
"725","<p style=""color:rgb(150, 250, 100); font-size: 35px;"">自己的</p>","i","categorize-html","72","195480","0.0-6.0-0.0-6.0-1.6","2","3","2","2","2","2","2","1","2","2","2","2","2","2","2","2","2","2","3","2","4","4","4","3","4","4","3","4","4","1","0","1","1","0","0","1","1","0","1","1","0","1","0","1","3","4","4","4","5","2","3","3","3","2","1","732534816976932865","刘","137","","","","","","","","","","","","","","","","","","","true","3","3","ability","725","self","自己的","","","","","","","","","","","","","","","","",""
"null","","null","html-keyboard-response","73","195732","0.0-6.0-0.0-6.0-0.7","2","3","2","2","2","2","2","1","2","2","2","2","2","2","2","2","2","2","3","2","4","4","4","3","4","4","3","4","4","1","0","1","1","0","0","1","1","0","1","1","0","1","0","1","3","4","4","4","5","2","3","3","3","2","1","732534816976932865","刘","137","","","","","","","","","","","","","","","","","","","","","","","","","","","","","","","","","","","","","","","","","",""
"683","<p style=""color:white; font-size: 35px;"">全能</p>","e","categorize-html","74","196416","0.0-6.0-0.0-6.0-1.7","2","3","2","2","2","2","2","1","2","2","2","2","2","2","2","2","2","2","3","2","4","4","4","3","4","4","3","4","4","1","0","1","1","0","0","1","1","0","1","1","0","1","0","1","3","4","4","4","5","2","3","3","3","2","1","732534816976932865","刘","137","","","","","","","","","","","","","","","","","","","true","3","3","ability","683","positive","全能","","","","","","","","","","","","","","","","",""
"null","","null","html-keyboard-response","75","196667","0.0-6.0-0.0-6.0-0.8","2","3","2","2","2","2","2","1","2","2","2","2","2","2","2","2","2","2","3","2","4","4","4","3","4","4","3","4","4","1","0","1","1","0","0","1","1","0","1","1","0","1","0","1","3","4","4","4","5","2","3","3","3","2","1","732534816976932865","刘","137","","","","","","","","","","","","","","","","","","","","","","","","","","","","","","","","","","","","","","","","","",""
"603","<p style=""color:rgb(150, 250, 100); font-size: 35px;"">他人</p>","e","categorize-html","76","197272","0.0-6.0-0.0-6.0-1.8","2","3","2","2","2","2","2","1","2","2","2","2","2","2","2","2","2","2","3","2","4","4","4","3","4","4","3","4","4","1","0","1","1","0","0","1","1","0","1","1","0","1","0","1","3","4","4","4","5","2","3","3","3","2","1","732534816976932865","刘","137","","","","","","","","","","","","","","","","","","","true","3","3","ability","603","other","他人","","","","","","","","","","","","","","","","",""
"null","","null","html-keyboard-response","77","197523","0.0-6.0-0.0-6.0-0.9","2","3","2","2","2","2","2","1","2","2","2","2","2","2","2","2","2","2","3","2","4","4","4","3","4","4","3","4","4","1","0","1","1","0","0","1","1","0","1","1","0","1","0","1","3","4","4","4","5","2","3","3","3","2","1","732534816976932865","刘","137","","","","","","","","","","","","","","","","","","","","","","","","","","","","","","","","","","","","","","","","","",""
"596","<p style=""color:white; font-size: 35px;"">高效</p>","e","categorize-html","78","198120","0.0-6.0-0.0-6.0-1.9","2","3","2","2","2","2","2","1","2","2","2","2","2","2","2","2","2","2","3","2","4","4","4","3","4","4","3","4","4","1","0","1","1","0","0","1","1","0","1","1","0","1","0","1","3","4","4","4","5","2","3","3","3","2","1","732534816976932865","刘","137","","","","","","","","","","","","","","","","","","","true","3","3","ability","596","positive","高效","","","","","","","","","","","","","","","","",""
"null","","null","html-keyboard-response","79","198371","0.0-6.0-0.0-6.0-0.10","2","3","2","2","2","2","2","1","2","2","2","2","2","2","2","2","2","2","3","2","4","4","4","3","4","4","3","4","4","1","0","1","1","0","0","1","1","0","1","1","0","1","0","1","3","4","4","4","5","2","3","3","3","2","1","732534816976932865","刘","137","","","","","","","","","","","","","","","","","","","","","","","","","","","","","","","","","","","","","","","","","",""
"828","<p style=""color:rgb(150, 250, 100); font-size: 35px;"">本人的</p>","i","categorize-html","80","199200","0.0-6.0-0.0-6.0-1.10","2","3","2","2","2","2","2","1","2","2","2","2","2","2","2","2","2","2","3","2","4","4","4","3","4","4","3","4","4","1","0","1","1","0","0","1","1","0","1","1","0","1","0","1","3","4","4","4","5","2","3","3","3","2","1","732534816976932865","刘","137","","","","","","","","","","","","","","","","","","","true","3","3","ability","828","self","本人的","","","","","","","","","","","","","","","","",""
"null","","null","html-keyboard-response","81","199451","0.0-6.0-0.0-6.0-0.11","2","3","2","2","2","2","2","1","2","2","2","2","2","2","2","2","2","2","3","2","4","4","4","3","4","4","3","4","4","1","0","1","1","0","0","1","1","0","1","1","0","1","0","1","3","4","4","4","5","2","3","3","3","2","1","732534816976932865","刘","137","","","","","","","","","","","","","","","","","","","","","","","","","","","","","","","","","","","","","","","","","",""
"556","<p style=""color:white; font-size: 35px;"">拙笨</p>","i","categorize-html","82","200008","0.0-6.0-0.0-6.0-1.11","2","3","2","2","2","2","2","1","2","2","2","2","2","2","2","2","2","2","3","2","4","4","4","3","4","4","3","4","4","1","0","1","1","0","0","1","1","0","1","1","0","1","0","1","3","4","4","4","5","2","3","3","3","2","1","732534816976932865","刘","137","","","","","","","","","","","","","","","","","","","true","3","3","ability","556","negative","拙笨","","","","","","","","","","","","","","","","",""
"null","","null","html-keyboard-response","83","200260","0.0-6.0-0.0-6.0-0.12","2","3","2","2","2","2","2","1","2","2","2","2","2","2","2","2","2","2","3","2","4","4","4","3","4","4","3","4","4","1","0","1","1","0","0","1","1","0","1","1","0","1","0","1","3","4","4","4","5","2","3","3","3","2","1","732534816976932865","刘","137","","","","","","","","","","","","","","","","","","","","","","","","","","","","","","","","","","","","","","","","","",""
"547","<p style=""color:rgb(150, 250, 100); font-size: 35px;"">他</p>","e","categorize-html","84","200808","0.0-6.0-0.0-6.0-1.12","2","3","2","2","2","2","2","1","2","2","2","2","2","2","2","2","2","2","3","2","4","4","4","3","4","4","3","4","4","1","0","1","1","0","0","1","1","0","1","1","0","1","0","1","3","4","4","4","5","2","3","3","3","2","1","732534816976932865","刘","137","","","","","","","","","","","","","","","","","","","true","3","3","ability","547","other","他","","","","","","","","","","","","","","","","",""
"null","","null","html-keyboard-response","85","201059","0.0-6.0-0.0-6.0-0.13","2","3","2","2","2","2","2","1","2","2","2","2","2","2","2","2","2","2","3","2","4","4","4","3","4","4","3","4","4","1","0","1","1","0","0","1","1","0","1","1","0","1","0","1","3","4","4","4","5","2","3","3","3","2","1","732534816976932865","刘","137","","","","","","","","","","","","","","","","","","","","","","","","","","","","","","","","","","","","","","","","","",""
"964","<p style=""color:white; font-size: 35px;"">愚钝</p>","i","categorize-html","86","202024","0.0-6.0-0.0-6.0-1.13","2","3","2","2","2","2","2","1","2","2","2","2","2","2","2","2","2","2","3","2","4","4","4","3","4","4","3","4","4","1","0","1","1","0","0","1","1","0","1","1","0","1","0","1","3","4","4","4","5","2","3","3","3","2","1","732534816976932865","刘","137","","","","","","","","","","","","","","","","","","","true","3","3","ability","964","negative","愚钝","","","","","","","","","","","","","","","","",""
"null","","null","html-keyboard-response","87","202274","0.0-6.0-0.0-6.0-0.14","2","3","2","2","2","2","2","1","2","2","2","2","2","2","2","2","2","2","3","2","4","4","4","3","4","4","3","4","4","1","0","1","1","0","0","1","1","0","1","1","0","1","0","1","3","4","4","4","5","2","3","3","3","2","1","732534816976932865","刘","137","","","","","","","","","","","","","","","","","","","","","","","","","","","","","","","","","","","","","","","","","",""
"548","<p style=""color:rgb(150, 250, 100); font-size: 35px;"">我</p>","i","categorize-html","88","202824","0.0-6.0-0.0-6.0-1.14","2","3","2","2","2","2","2","1","2","2","2","2","2","2","2","2","2","2","3","2","4","4","4","3","4","4","3","4","4","1","0","1","1","0","0","1","1","0","1","1","0","1","0","1","3","4","4","4","5","2","3","3","3","2","1","732534816976932865","刘","137","","","","","","","","","","","","","","","","","","","true","3","3","ability","548","self","我","","","","","","","","","","","","","","","","",""
"null","","null","html-keyboard-response","89","203075","0.0-6.0-0.0-6.0-0.15","2","3","2","2","2","2","2","1","2","2","2","2","2","2","2","2","2","2","3","2","4","4","4","3","4","4","3","4","4","1","0","1","1","0","0","1","1","0","1","1","0","1","0","1","3","4","4","4","5","2","3","3","3","2","1","732534816976932865","刘","137","","","","","","","","","","","","","","","","","","","","","","","","","","","","","","","","","","","","","","","","","",""
"860","<p style=""color:white; font-size: 35px;"">能干</p>","e","categorize-html","90","203936","0.0-6.0-0.0-6.0-1.15","2","3","2","2","2","2","2","1","2","2","2","2","2","2","2","2","2","2","3","2","4","4","4","3","4","4","3","4","4","1","0","1","1","0","0","1","1","0","1","1","0","1","0","1","3","4","4","4","5","2","3","3","3","2","1","732534816976932865","刘","137","","","","","","","","","","","","","","","","","","","true","3","3","ability","860","positive","能干","","","","","","","","","","","","","","","","",""
"null","","null","html-keyboard-response","91","204186","0.0-6.0-0.0-6.0-0.16","2","3","2","2","2","2","2","1","2","2","2","2","2","2","2","2","2","2","3","2","4","4","4","3","4","4","3","4","4","1","0","1","1","0","0","1","1","0","1","1","0","1","0","1","3","4","4","4","5","2","3","3","3","2","1","732534816976932865","刘","137","","","","","","","","","","","","","","","","","","","","","","","","","","","","","","","","","","","","","","","","","",""
"748","<p style=""color:rgb(150, 250, 100); font-size: 35px;"">他的</p>","e","categorize-html","92","204936","0.0-6.0-0.0-6.0-1.16","2","3","2","2","2","2","2","1","2","2","2","2","2","2","2","2","2","2","3","2","4","4","4","3","4","4","3","4","4","1","0","1","1","0","0","1","1","0","1","1","0","1","0","1","3","4","4","4","5","2","3","3","3","2","1","732534816976932865","刘","137","","","","","","","","","","","","","","","","","","","true","3","3","ability","748","other","他的","","","","","","","","","","","","","","","","",""
"null","","null","html-keyboard-response","93","205187","0.0-6.0-0.0-6.0-0.17","2","3","2","2","2","2","2","1","2","2","2","2","2","2","2","2","2","2","3","2","4","4","4","3","4","4","3","4","4","1","0","1","1","0","0","1","1","0","1","1","0","1","0","1","3","4","4","4","5","2","3","3","3","2","1","732534816976932865","刘","137","","","","","","","","","","","","","","","","","","","","","","","","","","","","","","","","","","","","","","","","","",""
"628","<p style=""color:white; font-size: 35px;"">精干</p>","e","categorize-html","94","205816","0.0-6.0-0.0-6.0-1.17","2","3","2","2","2","2","2","1","2","2","2","2","2","2","2","2","2","2","3","2","4","4","4","3","4","4","3","4","4","1","0","1","1","0","0","1","1","0","1","1","0","1","0","1","3","4","4","4","5","2","3","3","3","2","1","732534816976932865","刘","137","","","","","","","","","","","","","","","","","","","true","3","3","ability","628","positive","精干","","","","","","","","","","","","","","","","",""
"null","","null","html-keyboard-response","95","206067","0.0-6.0-0.0-6.0-0.18","2","3","2","2","2","2","2","1","2","2","2","2","2","2","2","2","2","2","3","2","4","4","4","3","4","4","3","4","4","1","0","1","1","0","0","1","1","0","1","1","0","1","0","1","3","4","4","4","5","2","3","3","3","2","1","732534816976932865","刘","137","","","","","","","","","","","","","","","","","","","","","","","","","","","","","","","","","","","","","","","","","",""
"692","<p style=""color:rgb(150, 250, 100); font-size: 35px;"">我的</p>","i","categorize-html","96","206760","0.0-6.0-0.0-6.0-1.18","2","3","2","2","2","2","2","1","2","2","2","2","2","2","2","2","2","2","3","2","4","4","4","3","4","4","3","4","4","1","0","1","1","0","0","1","1","0","1","1","0","1","0","1","3","4","4","4","5","2","3","3","3","2","1","732534816976932865","刘","137","","","","","","","","","","","","","","","","","","","true","3","3","ability","692","self","我的","","","","","","","","","","","","","","","","",""
"null","","null","html-keyboard-response","97","207011","0.0-6.0-0.0-6.0-0.19","2","3","2","2","2","2","2","1","2","2","2","2","2","2","2","2","2","2","3","2","4","4","4","3","4","4","3","4","4","1","0","1","1","0","0","1","1","0","1","1","0","1","0","1","3","4","4","4","5","2","3","3","3","2","1","732534816976932865","刘","137","","","","","","","","","","","","","","","","","","","","","","","","","","","","","","","","","","","","","","","","","",""
"764","<p style=""color:white; font-size: 35px;"">低能</p>","i","categorize-html","98","207776","0.0-6.0-0.0-6.0-1.19","2","3","2","2","2","2","2","1","2","2","2","2","2","2","2","2","2","2","3","2","4","4","4","3","4","4","3","4","4","1","0","1","1","0","0","1","1","0","1","1","0","1","0","1","3","4","4","4","5","2","3","3","3","2","1","732534816976932865","刘","137","","","","","","","","","","","","","","","","","","","true","3","3","ability","764","negative","低能","","","","","","","","","","","","","","","","",""
"null","","null","html-keyboard-response","99","208026","0.0-6.0-0.0-6.0-0.20","2","3","2","2","2","2","2","1","2","2","2","2","2","2","2","2","2","2","3","2","4","4","4","3","4","4","3","4","4","1","0","1","1","0","0","1","1","0","1","1","0","1","0","1","3","4","4","4","5","2","3","3","3","2","1","732534816976932865","刘","137","","","","","","","","","","","","","","","","","","","","","","","","","","","","","","","","","","","","","","","","","",""
"516","<p style=""color:rgb(150, 250, 100); font-size: 35px;"">别人的</p>","e","categorize-html","100","208544","0.0-6.0-0.0-6.0-1.20","2","3","2","2","2","2","2","1","2","2","2","2","2","2","2","2","2","2","3","2","4","4","4","3","4","4","3","4","4","1","0","1","1","0","0","1","1","0","1","1","0","1","0","1","3","4","4","4","5","2","3","3","3","2","1","732534816976932865","刘","137","","","","","","","","","","","","","","","","","","","true","3","3","ability","516","other","别人的","","","","","","","","","","","","","","","","",""
"null","","null","html-keyboard-response","101","208795","0.0-6.0-0.0-6.0-0.21","2","3","2","2","2","2","2","1","2","2","2","2","2","2","2","2","2","2","3","2","4","4","4","3","4","4","3","4","4","1","0","1","1","0","0","1","1","0","1","1","0","1","0","1","3","4","4","4","5","2","3","3","3","2","1","732534816976932865","刘","137","","","","","","","","","","","","","","","","","","","","","","","","","","","","","","","","","","","","","","","","","",""
"652","<p style=""color:white; font-size: 35px;"">全才</p>","e","categorize-html","102","209448","0.0-6.0-0.0-6.0-1.21","2","3","2","2","2","2","2","1","2","2","2","2","2","2","2","2","2","2","3","2","4","4","4","3","4","4","3","4","4","1","0","1","1","0","0","1","1","0","1","1","0","1","0","1","3","4","4","4","5","2","3","3","3","2","1","732534816976932865","刘","137","","","","","","","","","","","","","","","","","","","true","3","3","ability","652","positive","全才","","","","","","","","","","","","","","","","",""
"null","","null","html-keyboard-response","103","209698","0.0-6.0-0.0-6.0-0.22","2","3","2","2","2","2","2","1","2","2","2","2","2","2","2","2","2","2","3","2","4","4","4","3","4","4","3","4","4","1","0","1","1","0","0","1","1","0","1","1","0","1","0","1","3","4","4","4","5","2","3","3","3","2","1","732534816976932865","刘","137","","","","","","","","","","","","","","","","","","","","","","","","","","","","","","","","","","","","","","","","","",""
"588","<p style=""color:rgb(150, 250, 100); font-size: 35px;"">本人</p>","i","categorize-html","104","210288","0.0-6.0-0.0-6.0-1.22","2","3","2","2","2","2","2","1","2","2","2","2","2","2","2","2","2","2","3","2","4","4","4","3","4","4","3","4","4","1","0","1","1","0","0","1","1","0","1","1","0","1","0","1","3","4","4","4","5","2","3","3","3","2","1","732534816976932865","刘","137","","","","","","","","","","","","","","","","","","","true","3","3","ability","588","self","本人","","","","","","","","","","","","","","","","",""
"null","","null","html-keyboard-response","105","210539","0.0-6.0-0.0-6.0-0.23","2","3","2","2","2","2","2","1","2","2","2","2","2","2","2","2","2","2","3","2","4","4","4","3","4","4","3","4","4","1","0","1","1","0","0","1","1","0","1","1","0","1","0","1","3","4","4","4","5","2","3","3","3","2","1","732534816976932865","刘","137","","","","","","","","","","","","","","","","","","","","","","","","","","","","","","","","","","","","","","","","","",""
"556","<p style=""color:white; font-size: 35px;"">蠢笨</p>","i","categorize-html","106","211096","0.0-6.0-0.0-6.0-1.23","2","3","2","2","2","2","2","1","2","2","2","2","2","2","2","2","2","2","3","2","4","4","4","3","4","4","3","4","4","1","0","1","1","0","0","1","1","0","1","1","0","1","0","1","3","4","4","4","5","2","3","3","3","2","1","732534816976932865","刘","137","","","","","","","","","","","","","","","","","","","true","3","3","ability","556","negative","蠢笨","","","","","","","","","","","","","","","","",""
"887","
    <div class=""tag-bottom""><p>
    —— 任务4：对“他人/积极”词和“自我/消极”词分类 ——<p/>
    <span style=""color:#78DCE8""><b>与刚才的任务完全相同，请再次对这四类词语分类</b></span><p/>
    <span style=""color:#FFD866""><b>请根据上方标签的提示，尽可能正确并且快速地做出按键反应</b></span><p/>
    当按键错误时屏幕中会出现<span style=""color:red""> X </span>，需要按另一个键纠正才能继续<br/><p/>
    请把双手食指分别放在键盘的“E”键和“I”键上<p/>
    按<空格键>开始
    </p></div>"," ","html-keyboard-response","107","211983","0.0-6.0-0.0-7.0","2","3","2","2","2","2","2","1","2","2","2","2","2","2","2","2","2","2","3","2","4","4","4","3","4","4","3","4","4","1","0","1","1","0","0","1","1","0","1","1","0","1","0","1","3","4","4","4","5","2","3","3","3","2","1","732534816976932865","刘","137","","","","","","","","","","","","","","","","","","","","","","","","","","","","","","","","","","","","","","","","","",""
"null","","null","html-keyboard-response","108","212235","0.0-6.0-0.0-8.0-0.0","2","3","2","2","2","2","2","1","2","2","2","2","2","2","2","2","2","2","3","2","4","4","4","3","4","4","3","4","4","1","0","1","1","0","0","1","1","0","1","1","0","1","0","1","3","4","4","4","5","2","3","3","3","2","1","732534816976932865","刘","137","","","","","","","","","","","","","","","","","","","","","","","","","","","","","","","","","","","","","","","","","",""
"1100","<p style=""color:rgb(150, 250, 100); font-size: 35px;"">他人的</p>","e","categorize-html","109","213336","0.0-6.0-0.0-8.0-1.0","2","3","2","2","2","2","2","1","2","2","2","2","2","2","2","2","2","2","3","2","4","4","4","3","4","4","3","4","4","1","0","1","1","0","0","1","1","0","1","1","0","1","0","1","3","4","4","4","5","2","3","3","3","2","1","732534816976932865","刘","137","","","","","","","","","","","","","","","","","","","true","4","4","ability","1100","other","他人的","","","","","","","","","","","","","","","","",""
"null","","null","html-keyboard-response","110","213587","0.0-6.0-0.0-8.0-0.1","2","3","2","2","2","2","2","1","2","2","2","2","2","2","2","2","2","2","3","2","4","4","4","3","4","4","3","4","4","1","0","1","1","0","0","1","1","0","1","1","0","1","0","1","3","4","4","4","5","2","3","3","3","2","1","732534816976932865","刘","137","","","","","","","","","","","","","","","","","","","","","","","","","","","","","","","","","","","","","","","","","",""
"684","<p style=""color:white; font-size: 35px;"">全才</p>","e","categorize-html","111","214272","0.0-6.0-0.0-8.0-1.1","2","3","2","2","2","2","2","1","2","2","2","2","2","2","2","2","2","2","3","2","4","4","4","3","4","4","3","4","4","1","0","1","1","0","0","1","1","0","1","1","0","1","0","1","3","4","4","4","5","2","3","3","3","2","1","732534816976932865","刘","137","","","","","","","","","","","","","","","","","","","true","4","4","ability","684","positive","全才","","","","","","","","","","","","","","","","",""
"null","","null","html-keyboard-response","112","214522","0.0-6.0-0.0-8.0-0.2","2","3","2","2","2","2","2","1","2","2","2","2","2","2","2","2","2","2","3","2","4","4","4","3","4","4","3","4","4","1","0","1","1","0","0","1","1","0","1","1","0","1","0","1","3","4","4","4","5","2","3","3","3","2","1","732534816976932865","刘","137","","","","","","","","","","","","","","","","","","","","","","","","","","","","","","","","","","","","","","","","","",""
"588","<p style=""color:rgb(150, 250, 100); font-size: 35px;"">我</p>","i","categorize-html","113","215112","0.0-6.0-0.0-8.0-1.2","2","3","2","2","2","2","2","1","2","2","2","2","2","2","2","2","2","2","3","2","4","4","4","3","4","4","3","4","4","1","0","1","1","0","0","1","1","0","1","1","0","1","0","1","3","4","4","4","5","2","3","3","3","2","1","732534816976932865","刘","137","","","","","","","","","","","","","","","","","","","true","4","4","ability","588","self","我","","","","","","","","","","","","","","","","",""
"null","","null","html-keyboard-response","114","215363","0.0-6.0-0.0-8.0-0.3","2","3","2","2","2","2","2","1","2","2","2","2","2","2","2","2","2","2","3","2","4","4","4","3","4","4","3","4","4","1","0","1","1","0","0","1","1","0","1","1","0","1","0","1","3","4","4","4","5","2","3","3","3","2","1","732534816976932865","刘","137","","","","","","","","","","","","","","","","","","","","","","","","","","","","","","","","","","","","","","","","","",""
"788","<p style=""color:white; font-size: 35px;"">拙笨</p>","i","categorize-html","115","216152","0.0-6.0-0.0-8.0-1.3","2","3","2","2","2","2","2","1","2","2","2","2","2","2","2","2","2","2","3","2","4","4","4","3","4","4","3","4","4","1","0","1","1","0","0","1","1","0","1","1","0","1","0","1","3","4","4","4","5","2","3","3","3","2","1","732534816976932865","刘","137","","","","","","","","","","","","","","","","","","","true","4","4","ability","788","negative","拙笨","","","","","","","","","","","","","","","","",""
"null","","null","html-keyboard-response","116","216403","0.0-6.0-0.0-8.0-0.4","2","3","2","2","2","2","2","1","2","2","2","2","2","2","2","2","2","2","3","2","4","4","4","3","4","4","3","4","4","1","0","1","1","0","0","1","1","0","1","1","0","1","0","1","3","4","4","4","5","2","3","3","3","2","1","732534816976932865","刘","137","","","","","","","","","","","","","","","","","","","","","","","","","","","","","","","","","","","","","","","","","",""
"844","<p style=""color:rgb(150, 250, 100); font-size: 35px;"">本人</p>","i","categorize-html","117","217248","0.0-6.0-0.0-8.0-1.4","2","3","2","2","2","2","2","1","2","2","2","2","2","2","2","2","2","2","3","2","4","4","4","3","4","4","3","4","4","1","0","1","1","0","0","1","1","0","1","1","0","1","0","1","3","4","4","4","5","2","3","3","3","2","1","732534816976932865","刘","137","","","","","","","","","","","","","","","","","","","true","4","4","ability","844","self","本人","","","","","","","","","","","","","","","","",""
"null","","null","html-keyboard-response","118","217499","0.0-6.0-0.0-8.0-0.5","2","3","2","2","2","2","2","1","2","2","2","2","2","2","2","2","2","2","3","2","4","4","4","3","4","4","3","4","4","1","0","1","1","0","0","1","1","0","1","1","0","1","0","1","3","4","4","4","5","2","3","3","3","2","1","732534816976932865","刘","137","","","","","","","","","","","","","","","","","","","","","","","","","","","","","","","","","","","","","","","","","",""
"676","<p style=""color:white; font-size: 35px;"">高效</p>","e","categorize-html","119","218176","0.0-6.0-0.0-8.0-1.5","2","3","2","2","2","2","2","1","2","2","2","2","2","2","2","2","2","2","3","2","4","4","4","3","4","4","3","4","4","1","0","1","1","0","0","1","1","0","1","1","0","1","0","1","3","4","4","4","5","2","3","3","3","2","1","732534816976932865","刘","137","","","","","","","","","","","","","","","","","","","true","4","4","ability","676","positive","高效","","","","","","","","","","","","","","","","",""
"null","","null","html-keyboard-response","120","218427","0.0-6.0-0.0-8.0-0.6","2","3","2","2","2","2","2","1","2","2","2","2","2","2","2","2","2","2","3","2","4","4","4","3","4","4","3","4","4","1","0","1","1","0","0","1","1","0","1","1","0","1","0","1","3","4","4","4","5","2","3","3","3","2","1","732534816976932865","刘","137","","","","","","","","","","","","","","","","","","","","","","","","","","","","","","","","","","","","","","","","","",""
"1540","<p style=""color:rgb(150, 250, 100); font-size: 35px;"">他人</p>","e","categorize-html","121","219968","0.0-6.0-0.0-8.0-1.6","2","3","2","2","2","2","2","1","2","2","2","2","2","2","2","2","2","2","3","2","4","4","4","3","4","4","3","4","4","1","0","1","1","0","0","1","1","0","1","1","0","1","0","1","3","4","4","4","5","2","3","3","3","2","1","732534816976932865","刘","137","","","","","","","","","","","","","","","","","","","true","4","4","ability","1540","other","他人","","","","","","","","","","","","","","","","",""
"null","","null","html-keyboard-response","122","220219","0.0-6.0-0.0-8.0-0.7","2","3","2","2","2","2","2","1","2","2","2","2","2","2","2","2","2","2","3","2","4","4","4","3","4","4","3","4","4","1","0","1","1","0","0","1","1","0","1","1","0","1","0","1","3","4","4","4","5","2","3","3","3","2","1","732534816976932865","刘","137","","","","","","","","","","","","","","","","","","","","","","","","","","","","","","","","","","","","","","","","","",""
"605","<p style=""color:white; font-size: 35px;"">低能</p>","i","categorize-html","123","220825","0.0-6.0-0.0-8.0-1.7","2","3","2","2","2","2","2","1","2","2","2","2","2","2","2","2","2","2","3","2","4","4","4","3","4","4","3","4","4","1","0","1","1","0","0","1","1","0","1","1","0","1","0","1","3","4","4","4","5","2","3","3","3","2","1","732534816976932865","刘","137","","","","","","","","","","","","","","","","","","","true","4","4","ability","605","negative","低能","","","","","","","","","","","","","","","","",""
"null","","null","html-keyboard-response","124","221076","0.0-6.0-0.0-8.0-0.8","2","3","2","2","2","2","2","1","2","2","2","2","2","2","2","2","2","2","3","2","4","4","4","3","4","4","3","4","4","1","0","1","1","0","0","1","1","0","1","1","0","1","0","1","3","4","4","4","5","2","3","3","3","2","1","732534816976932865","刘","137","","","","","","","","","","","","","","","","","","","","","","","","","","","","","","","","","","","","","","","","","",""
"659","<p style=""color:rgb(150, 250, 100); font-size: 35px;"">他</p>","e","categorize-html","125","221736","0.0-6.0-0.0-8.0-1.8","2","3","2","2","2","2","2","1","2","2","2","2","2","2","2","2","2","2","3","2","4","4","4","3","4","4","3","4","4","1","0","1","1","0","0","1","1","0","1","1","0","1","0","1","3","4","4","4","5","2","3","3","3","2","1","732534816976932865","刘","137","","","","","","","","","","","","","","","","","","","true","4","4","ability","659","other","他","","","","","","","","","","","","","","","","",""
"null","","null","html-keyboard-response","126","221987","0.0-6.0-0.0-8.0-0.9","2","3","2","2","2","2","2","1","2","2","2","2","2","2","2","2","2","2","3","2","4","4","4","3","4","4","3","4","4","1","0","1","1","0","0","1","1","0","1","1","0","1","0","1","3","4","4","4","5","2","3","3","3","2","1","732534816976932865","刘","137","","","","","","","","","","","","","","","","","","","","","","","","","","","","","","","","","","","","","","","","","",""
"748","<p style=""color:white; font-size: 35px;"">废物</p>","i","categorize-html","127","222736","0.0-6.0-0.0-8.0-1.9","2","3","2","2","2","2","2","1","2","2","2","2","2","2","2","2","2","2","3","2","4","4","4","3","4","4","3","4","4","1","0","1","1","0","0","1","1","0","1","1","0","1","0","1","3","4","4","4","5","2","3","3","3","2","1","732534816976932865","刘","137","","","","","","","","","","","","","","","","","","","true","4","4","ability","748","negative","废物","","","","","","","","","","","","","","","","",""
"null","","null","html-keyboard-response","128","222986","0.0-6.0-0.0-8.0-0.10","2","3","2","2","2","2","2","1","2","2","2","2","2","2","2","2","2","2","3","2","4","4","4","3","4","4","3","4","4","1","0","1","1","0","0","1","1","0","1","1","0","1","0","1","3","4","4","4","5","2","3","3","3","2","1","732534816976932865","刘","137","","","","","","","","","","","","","","","","","","","","","","","","","","","","","","","","","","","","","","","","","",""
"612","<p style=""color:rgb(150, 250, 100); font-size: 35px;"">自己</p>","i","categorize-html","129","223600","0.0-6.0-0.0-8.0-1.10","2","3","2","2","2","2","2","1","2","2","2","2","2","2","2","2","2","2","3","2","4","4","4","3","4","4","3","4","4","1","0","1","1","0","0","1","1","0","1","1","0","1","0","1","3","4","4","4","5","2","3","3","3","2","1","732534816976932865","刘","137","","","","","","","","","","","","","","","","","","","true","4","4","ability","612","self","自己","","","","","","","","","","","","","","","","",""
"null","","null","html-keyboard-response","130","223851","0.0-6.0-0.0-8.0-0.11","2","3","2","2","2","2","2","1","2","2","2","2","2","2","2","2","2","2","3","2","4","4","4","3","4","4","3","4","4","1","0","1","1","0","0","1","1","0","1","1","0","1","0","1","3","4","4","4","5","2","3","3","3","2","1","732534816976932865","刘","137","","","","","","","","","","","","","","","","","","","","","","","","","","","","","","","","","","","","","","","","","",""
"651","<p style=""color:white; font-size: 35px;"">精干</p>","e","categorize-html","131","224504","0.0-6.0-0.0-8.0-1.11","2","3","2","2","2","2","2","1","2","2","2","2","2","2","2","2","2","2","3","2","4","4","4","3","4","4","3","4","4","1","0","1","1","0","0","1","1","0","1","1","0","1","0","1","3","4","4","4","5","2","3","3","3","2","1","732534816976932865","刘","137","","","","","","","","","","","","","","","","","","","true","4","4","ability","651","positive","精干","","","","","","","","","","","","","","","","",""
"null","","null","html-keyboard-response","132","224755","0.0-6.0-0.0-8.0-0.12","2","3","2","2","2","2","2","1","2","2","2","2","2","2","2","2","2","2","3","2","4","4","4","3","4","4","3","4","4","1","0","1","1","0","0","1","1","0","1","1","0","1","0","1","3","4","4","4","5","2","3","3","3","2","1","732534816976932865","刘","137","","","","","","","","","","","","","","","","","","","","","","","","","","","","","","","","","","","","","","","","","",""
"533","<p style=""color:rgb(150, 250, 100); font-size: 35px;"">自己的</p>","i","categorize-html","133","225289","0.0-6.0-0.0-8.0-1.12","2","3","2","2","2","2","2","1","2","2","2","2","2","2","2","2","2","2","3","2","4","4","4","3","4","4","3","4","4","1","0","1","1","0","0","1","1","0","1","1","0","1","0","1","3","4","4","4","5","2","3","3","3","2","1","732534816976932865","刘","137","","","","","","","","","","","","","","","","","","","true","4","4","ability","533","self","自己的","","","","","","","","","","","","","","","","",""
"null","","null","html-keyboard-response","134","225540","0.0-6.0-0.0-8.0-0.13","2","3","2","2","2","2","2","1","2","2","2","2","2","2","2","2","2","2","3","2","4","4","4","3","4","4","3","4","4","1","0","1","1","0","0","1","1","0","1","1","0","1","0","1","3","4","4","4","5","2","3","3","3","2","1","732534816976932865","刘","137","","","","","","","","","","","","","","","","","","","","","","","","","","","","","","","","","","","","","","","","","",""
"675","<p style=""color:white; font-size: 35px;"">能干</p>","e","categorize-html","135","226216","0.0-6.0-0.0-8.0-1.13","2","3","2","2","2","2","2","1","2","2","2","2","2","2","2","2","2","2","3","2","4","4","4","3","4","4","3","4","4","1","0","1","1","0","0","1","1","0","1","1","0","1","0","1","3","4","4","4","5","2","3","3","3","2","1","732534816976932865","刘","137","","","","","","","","","","","","","","","","","","","true","4","4","ability","675","positive","能干","","","","","","","","","","","","","","","","",""
"null","","null","html-keyboard-response","136","226467","0.0-6.0-0.0-8.0-0.14","2","3","2","2","2","2","2","1","2","2","2","2","2","2","2","2","2","2","3","2","4","4","4","3","4","4","3","4","4","1","0","1","1","0","0","1","1","0","1","1","0","1","0","1","3","4","4","4","5","2","3","3","3","2","1","732534816976932865","刘","137","","","","","","","","","","","","","","","","","","","","","","","","","","","","","","","","","","","","","","","","","",""
"611","<p style=""color:rgb(150, 250, 100); font-size: 35px;"">别人的</p>","e","categorize-html","137","227080","0.0-6.0-0.0-8.0-1.14","2","3","2","2","2","2","2","1","2","2","2","2","2","2","2","2","2","2","3","2","4","4","4","3","4","4","3","4","4","1","0","1","1","0","0","1","1","0","1","1","0","1","0","1","3","4","4","4","5","2","3","3","3","2","1","732534816976932865","刘","137","","","","","","","","","","","","","","","","","","","true","4","4","ability","611","other","别人的","","","","","","","","","","","","","","","","",""
"null","","null","html-keyboard-response","138","227331","0.0-6.0-0.0-8.0-0.15","2","3","2","2","2","2","2","1","2","2","2","2","2","2","2","2","2","2","3","2","4","4","4","3","4","4","3","4","4","1","0","1","1","0","0","1","1","0","1","1","0","1","0","1","3","4","4","4","5","2","3","3","3","2","1","732534816976932865","刘","137","","","","","","","","","","","","","","","","","","","","","","","","","","","","","","","","","","","","","","","","","",""
"564","<p style=""color:white; font-size: 35px;"">蠢笨</p>","i","categorize-html","139","227896","0.0-6.0-0.0-8.0-1.15","2","3","2","2","2","2","2","1","2","2","2","2","2","2","2","2","2","2","3","2","4","4","4","3","4","4","3","4","4","1","0","1","1","0","0","1","1","0","1","1","0","1","0","1","3","4","4","4","5","2","3","3","3","2","1","732534816976932865","刘","137","","","","","","","","","","","","","","","","","","","true","4","4","ability","564","negative","蠢笨","","","","","","","","","","","","","","","","",""
"null","","null","html-keyboard-response","140","228147","0.0-6.0-0.0-8.0-0.16","2","3","2","2","2","2","2","1","2","2","2","2","2","2","2","2","2","2","3","2","4","4","4","3","4","4","3","4","4","1","0","1","1","0","0","1","1","0","1","1","0","1","0","1","3","4","4","4","5","2","3","3","3","2","1","732534816976932865","刘","137","","","","","","","","","","","","","","","","","","","","","","","","","","","","","","","","","","","","","","","","","",""
"628","<p style=""color:rgb(150, 250, 100); font-size: 35px;"">本人的</p>","i","categorize-html","141","228776","0.0-6.0-0.0-8.0-1.16","2","3","2","2","2","2","2","1","2","2","2","2","2","2","2","2","2","2","3","2","4","4","4","3","4","4","3","4","4","1","0","1","1","0","0","1","1","0","1","1","0","1","0","1","3","4","4","4","5","2","3","3","3","2","1","732534816976932865","刘","137","","","","","","","","","","","","","","","","","","","true","4","4","ability","628","self","本人的","","","","","","","","","","","","","","","","",""
"null","","null","html-keyboard-response","142","229027","0.0-6.0-0.0-8.0-0.17","2","3","2","2","2","2","2","1","2","2","2","2","2","2","2","2","2","2","3","2","4","4","4","3","4","4","3","4","4","1","0","1","1","0","0","1","1","0","1","1","0","1","0","1","3","4","4","4","5","2","3","3","3","2","1","732534816976932865","刘","137","","","","","","","","","","","","","","","","","","","","","","","","","","","","","","","","","","","","","","","","","",""
"636","<p style=""color:white; font-size: 35px;"">愚钝</p>","i","categorize-html","143","229664","0.0-6.0-0.0-8.0-1.17","2","3","2","2","2","2","2","1","2","2","2","2","2","2","2","2","2","2","3","2","4","4","4","3","4","4","3","4","4","1","0","1","1","0","0","1","1","0","1","1","0","1","0","1","3","4","4","4","5","2","3","3","3","2","1","732534816976932865","刘","137","","","","","","","","","","","","","","","","","","","true","4","4","ability","636","negative","愚钝","","","","","","","","","","","","","","","","",""
"null","","null","html-keyboard-response","144","229915","0.0-6.0-0.0-8.0-0.18","2","3","2","2","2","2","2","1","2","2","2","2","2","2","2","2","2","2","3","2","4","4","4","3","4","4","3","4","4","1","0","1","1","0","0","1","1","0","1","1","0","1","0","1","3","4","4","4","5","2","3","3","3","2","1","732534816976932865","刘","137","","","","","","","","","","","","","","","","","","","","","","","","","","","","","","","","","","","","","","","","","",""
"548","<p style=""color:rgb(150, 250, 100); font-size: 35px;"">他人</p>","e","categorize-html","145","230464","0.0-6.0-0.0-8.0-1.18","2","3","2","2","2","2","2","1","2","2","2","2","2","2","2","2","2","2","3","2","4","4","4","3","4","4","3","4","4","1","0","1","1","0","0","1","1","0","1","1","0","1","0","1","3","4","4","4","5","2","3","3","3","2","1","732534816976932865","刘","137","","","","","","","","","","","","","","","","","","","true","4","4","ability","548","other","他人","","","","","","","","","","","","","","","","",""
"null","","null","html-keyboard-response","146","230715","0.0-6.0-0.0-8.0-0.19","2","3","2","2","2","2","2","1","2","2","2","2","2","2","2","2","2","2","3","2","4","4","4","3","4","4","3","4","4","1","0","1","1","0","0","1","1","0","1","1","0","1","0","1","3","4","4","4","5","2","3","3","3","2","1","732534816976932865","刘","137","","","","","","","","","","","","","","","","","","","","","","","","","","","","","","","","","","","","","","","","","",""
"773","<p style=""color:white; font-size: 35px;"">天才</p>","e","categorize-html","147","231489","0.0-6.0-0.0-8.0-1.19","2","3","2","2","2","2","2","1","2","2","2","2","2","2","2","2","2","2","3","2","4","4","4","3","4","4","3","4","4","1","0","1","1","0","0","1","1","0","1","1","0","1","0","1","3","4","4","4","5","2","3","3","3","2","1","732534816976932865","刘","137","","","","","","","","","","","","","","","","","","","true","4","4","ability","773","positive","天才","","","","","","","","","","","","","","","","",""
"null","","null","html-keyboard-response","148","231740","0.0-6.0-0.0-8.0-0.20","2","3","2","2","2","2","2","1","2","2","2","2","2","2","2","2","2","2","3","2","4","4","4","3","4","4","3","4","4","1","0","1","1","0","0","1","1","0","1","1","0","1","0","1","3","4","4","4","5","2","3","3","3","2","1","732534816976932865","刘","137","","","","","","","","","","","","","","","","","","","","","","","","","","","","","","","","","","","","","","","","","",""
"467","<p style=""color:rgb(150, 250, 100); font-size: 35px;"">我的</p>","i","categorize-html","149","232208","0.0-6.0-0.0-8.0-1.20","2","3","2","2","2","2","2","1","2","2","2","2","2","2","2","2","2","2","3","2","4","4","4","3","4","4","3","4","4","1","0","1","1","0","0","1","1","0","1","1","0","1","0","1","3","4","4","4","5","2","3","3","3","2","1","732534816976932865","刘","137","","","","","","","","","","","","","","","","","","","true","4","4","ability","467","self","我的","","","","","","","","","","","","","","","","",""
"null","","null","html-keyboard-response","150","232458","0.0-6.0-0.0-8.0-0.21","2","3","2","2","2","2","2","1","2","2","2","2","2","2","2","2","2","2","3","2","4","4","4","3","4","4","3","4","4","1","0","1","1","0","0","1","1","0","1","1","0","1","0","1","3","4","4","4","5","2","3","3","3","2","1","732534816976932865","刘","137","","","","","","","","","","","","","","","","","","","","","","","","","","","","","","","","","","","","","","","","","",""
"1052","<p style=""color:white; font-size: 35px;"">愚钝</p>","i","categorize-html","151","233512","0.0-6.0-0.0-8.0-1.21","2","3","2","2","2","2","2","1","2","2","2","2","2","2","2","2","2","2","3","2","4","4","4","3","4","4","3","4","4","1","0","1","1","0","0","1","1","0","1","1","0","1","0","1","3","4","4","4","5","2","3","3","3","2","1","732534816976932865","刘","137","","","","","","","","","","","","","","","","","","","true","4","4","ability","1052","negative","愚钝","","","","","","","","","","","","","","","","",""
"null","","null","html-keyboard-response","152","233763","0.0-6.0-0.0-8.0-0.22","2","3","2","2","2","2","2","1","2","2","2","2","2","2","2","2","2","2","3","2","4","4","4","3","4","4","3","4","4","1","0","1","1","0","0","1","1","0","1","1","0","1","0","1","3","4","4","4","5","2","3","3","3","2","1","732534816976932865","刘","137","","","","","","","","","","","","","","","","","","","","","","","","","","","","","","","","","","","","","","","","","",""
"571","<p style=""color:rgb(150, 250, 100); font-size: 35px;"">他人的</p>","e","categorize-html","153","234336","0.0-6.0-0.0-8.0-1.22","2","3","2","2","2","2","2","1","2","2","2","2","2","2","2","2","2","2","3","2","4","4","4","3","4","4","3","4","4","1","0","1","1","0","0","1","1","0","1","1","0","1","0","1","3","4","4","4","5","2","3","3","3","2","1","732534816976932865","刘","137","","","","","","","","","","","","","","","","","","","true","4","4","ability","571","other","他人的","","","","","","","","","","","","","","","","",""
"null","","null","html-keyboard-response","154","234587","0.0-6.0-0.0-8.0-0.23","2","3","2","2","2","2","2","1","2","2","2","2","2","2","2","2","2","2","3","2","4","4","4","3","4","4","3","4","4","1","0","1","1","0","0","1","1","0","1","1","0","1","0","1","3","4","4","4","5","2","3","3","3","2","1","732534816976932865","刘","137","","","","","","","","","","","","","","","","","","","","","","","","","","","","","","","","","","","","","","","","","",""
"1326","<p style=""color:white; font-size: 35px;"">全能</p>","e","categorize-html","155","235914","0.0-6.0-0.0-8.0-1.23","2","3","2","2","2","2","2","1","2","2","2","2","2","2","2","2","2","2","3","2","4","4","4","3","4","4","3","4","4","1","0","1","1","0","0","1","1","0","1","1","0","1","0","1","3","4","4","4","5","2","3","3","3","2","1","732534816976932865","刘","137","","","","","","","","","","","","","","","","","","","true","4","4","ability","1326","positive","全能","","","","","","","","","","","","","","","","",""
"null","","null","html-keyboard-response","156","236165","0.0-6.0-0.0-8.0-0.24","2","3","2","2","2","2","2","1","2","2","2","2","2","2","2","2","2","2","3","2","4","4","4","3","4","4","3","4","4","1","0","1","1","0","0","1","1","0","1","1","0","1","0","1","3","4","4","4","5","2","3","3","3","2","1","732534816976932865","刘","137","","","","","","","","","","","","","","","","","","","","","","","","","","","","","","","","","","","","","","","","","",""
"610","<p style=""color:rgb(150, 250, 100); font-size: 35px;"">别人</p>","e","categorize-html","157","236776","0.0-6.0-0.0-8.0-1.24","2","3","2","2","2","2","2","1","2","2","2","2","2","2","2","2","2","2","3","2","4","4","4","3","4","4","3","4","4","1","0","1","1","0","0","1","1","0","1","1","0","1","0","1","3","4","4","4","5","2","3","3","3","2","1","732534816976932865","刘","137","","","","","","","","","","","","","","","","","","","true","4","4","ability","610","other","别人","","","","","","","","","","","","","","","","",""
"null","","null","html-keyboard-response","158","237035","0.0-6.0-0.0-8.0-0.25","2","3","2","2","2","2","2","1","2","2","2","2","2","2","2","2","2","2","3","2","4","4","4","3","4","4","3","4","4","1","0","1","1","0","0","1","1","0","1","1","0","1","0","1","3","4","4","4","5","2","3","3","3","2","1","732534816976932865","刘","137","","","","","","","","","","","","","","","","","","","","","","","","","","","","","","","","","","","","","","","","","",""
"740","<p style=""color:white; font-size: 35px;"">能干</p>","e","categorize-html","159","237776","0.0-6.0-0.0-8.0-1.25","2","3","2","2","2","2","2","1","2","2","2","2","2","2","2","2","2","2","3","2","4","4","4","3","4","4","3","4","4","1","0","1","1","0","0","1","1","0","1","1","0","1","0","1","3","4","4","4","5","2","3","3","3","2","1","732534816976932865","刘","137","","","","","","","","","","","","","","","","","","","true","4","4","ability","740","positive","能干","","","","","","","","","","","","","","","","",""
"null","","null","html-keyboard-response","160","238027","0.0-6.0-0.0-8.0-0.26","2","3","2","2","2","2","2","1","2","2","2","2","2","2","2","2","2","2","3","2","4","4","4","3","4","4","3","4","4","1","0","1","1","0","0","1","1","0","1","1","0","1","0","1","3","4","4","4","5","2","3","3","3","2","1","732534816976932865","刘","137","","","","","","","","","","","","","","","","","","","","","","","","","","","","","","","","","","","","","","","","","",""
"524","<p style=""color:rgb(150, 250, 100); font-size: 35px;"">我的</p>","i","categorize-html","161","238552","0.0-6.0-0.0-8.0-1.26","2","3","2","2","2","2","2","1","2","2","2","2","2","2","2","2","2","2","3","2","4","4","4","3","4","4","3","4","4","1","0","1","1","0","0","1","1","0","1","1","0","1","0","1","3","4","4","4","5","2","3","3","3","2","1","732534816976932865","刘","137","","","","","","","","","","","","","","","","","","","true","4","4","ability","524","self","我的","","","","","","","","","","","","","","","","",""
"null","","null","html-keyboard-response","162","238803","0.0-6.0-0.0-8.0-0.27","2","3","2","2","2","2","2","1","2","2","2","2","2","2","2","2","2","2","3","2","4","4","4","3","4","4","3","4","4","1","0","1","1","0","0","1","1","0","1","1","0","1","0","1","3","4","4","4","5","2","3","3","3","2","1","732534816976932865","刘","137","","","","","","","","","","","","","","","","","","","","","","","","","","","","","","","","","","","","","","","","","",""
"829","<p style=""color:white; font-size: 35px;"">无能</p>","i","categorize-html","163","239633","0.0-6.0-0.0-8.0-1.27","2","3","2","2","2","2","2","1","2","2","2","2","2","2","2","2","2","2","3","2","4","4","4","3","4","4","3","4","4","1","0","1","1","0","0","1","1","0","1","1","0","1","0","1","3","4","4","4","5","2","3","3","3","2","1","732534816976932865","刘","137","","","","","","","","","","","","","","","","","","","true","4","4","ability","829","negative","无能","","","","","","","","","","","","","","","","",""
"null","","null","html-keyboard-response","164","239884","0.0-6.0-0.0-8.0-0.28","2","3","2","2","2","2","2","1","2","2","2","2","2","2","2","2","2","2","3","2","4","4","4","3","4","4","3","4","4","1","0","1","1","0","0","1","1","0","1","1","0","1","0","1","3","4","4","4","5","2","3","3","3","2","1","732534816976932865","刘","137","","","","","","","","","","","","","","","","","","","","","","","","","","","","","","","","","","","","","","","","","",""
"523","<p style=""color:rgb(150, 250, 100); font-size: 35px;"">他</p>","e","categorize-html","165","240408","0.0-6.0-0.0-8.0-1.28","2","3","2","2","2","2","2","1","2","2","2","2","2","2","2","2","2","2","3","2","4","4","4","3","4","4","3","4","4","1","0","1","1","0","0","1","1","0","1","1","0","1","0","1","3","4","4","4","5","2","3","3","3","2","1","732534816976932865","刘","137","","","","","","","","","","","","","","","","","","","true","4","4","ability","523","other","他","","","","","","","","","","","","","","","","",""
"null","","null","html-keyboard-response","166","240659","0.0-6.0-0.0-8.0-0.29","2","3","2","2","2","2","2","1","2","2","2","2","2","2","2","2","2","2","3","2","4","4","4","3","4","4","3","4","4","1","0","1","1","0","0","1","1","0","1","1","0","1","0","1","3","4","4","4","5","2","3","3","3","2","1","732534816976932865","刘","137","","","","","","","","","","","","","","","","","","","","","","","","","","","","","","","","","","","","","","","","","",""
"716","<p style=""color:white; font-size: 35px;"">全能</p>","e","categorize-html","167","241376","0.0-6.0-0.0-8.0-1.29","2","3","2","2","2","2","2","1","2","2","2","2","2","2","2","2","2","2","3","2","4","4","4","3","4","4","3","4","4","1","0","1","1","0","0","1","1","0","1","1","0","1","0","1","3","4","4","4","5","2","3","3","3","2","1","732534816976932865","刘","137","","","","","","","","","","","","","","","","","","","true","4","4","ability","716","positive","全能","","","","","","","","","","","","","","","","",""
"null","","null","html-keyboard-response","168","241627","0.0-6.0-0.0-8.0-0.30","2","3","2","2","2","2","2","1","2","2","2","2","2","2","2","2","2","2","3","2","4","4","4","3","4","4","3","4","4","1","0","1","1","0","0","1","1","0","1","1","0","1","0","1","3","4","4","4","5","2","3","3","3","2","1","732534816976932865","刘","137","","","","","","","","","","","","","","","","","","","","","","","","","","","","","","","","","","","","","","","","","",""
"588","<p style=""color:rgb(150, 250, 100); font-size: 35px;"">自己的</p>","i","categorize-html","169","242216","0.0-6.0-0.0-8.0-1.30","2","3","2","2","2","2","2","1","2","2","2","2","2","2","2","2","2","2","3","2","4","4","4","3","4","4","3","4","4","1","0","1","1","0","0","1","1","0","1","1","0","1","0","1","3","4","4","4","5","2","3","3","3","2","1","732534816976932865","刘","137","","","","","","","","","","","","","","","","","","","true","4","4","ability","588","self","自己的","","","","","","","","","","","","","","","","",""
"null","","null","html-keyboard-response","170","242467","0.0-6.0-0.0-8.0-0.31","2","3","2","2","2","2","2","1","2","2","2","2","2","2","2","2","2","2","3","2","4","4","4","3","4","4","3","4","4","1","0","1","1","0","0","1","1","0","1","1","0","1","0","1","3","4","4","4","5","2","3","3","3","2","1","732534816976932865","刘","137","","","","","","","","","","","","","","","","","","","","","","","","","","","","","","","","","","","","","","","","","",""
"740","<p style=""color:white; font-size: 35px;"">低能</p>","i","categorize-html","171","243208","0.0-6.0-0.0-8.0-1.31","2","3","2","2","2","2","2","1","2","2","2","2","2","2","2","2","2","2","3","2","4","4","4","3","4","4","3","4","4","1","0","1","1","0","0","1","1","0","1","1","0","1","0","1","3","4","4","4","5","2","3","3","3","2","1","732534816976932865","刘","137","","","","","","","","","","","","","","","","","","","true","4","4","ability","740","negative","低能","","","","","","","","","","","","","","","","",""
"null","","null","html-keyboard-response","172","243459","0.0-6.0-0.0-8.0-0.32","2","3","2","2","2","2","2","1","2","2","2","2","2","2","2","2","2","2","3","2","4","4","4","3","4","4","3","4","4","1","0","1","1","0","0","1","1","0","1","1","0","1","0","1","3","4","4","4","5","2","3","3","3","2","1","732534816976932865","刘","137","","","","","","","","","","","","","","","","","","","","","","","","","","","","","","","","","","","","","","","","","",""
"540","<p style=""color:rgb(150, 250, 100); font-size: 35px;"">别人</p>","e","categorize-html","173","244000","0.0-6.0-0.0-8.0-1.32","2","3","2","2","2","2","2","1","2","2","2","2","2","2","2","2","2","2","3","2","4","4","4","3","4","4","3","4","4","1","0","1","1","0","0","1","1","0","1","1","0","1","0","1","3","4","4","4","5","2","3","3","3","2","1","732534816976932865","刘","137","","","","","","","","","","","","","","","","","","","true","4","4","ability","540","other","别人","","","","","","","","","","","","","","","","",""
"null","","null","html-keyboard-response","174","244252","0.0-6.0-0.0-8.0-0.33","2","3","2","2","2","2","2","1","2","2","2","2","2","2","2","2","2","2","3","2","4","4","4","3","4","4","3","4","4","1","0","1","1","0","0","1","1","0","1","1","0","1","0","1","3","4","4","4","5","2","3","3","3","2","1","732534816976932865","刘","137","","","","","","","","","","","","","","","","","","","","","","","","","","","","","","","","","","","","","","","","","",""
"747","<p style=""color:white; font-size: 35px;"">拙笨</p>","i","categorize-html","175","245000","0.0-6.0-0.0-8.0-1.33","2","3","2","2","2","2","2","1","2","2","2","2","2","2","2","2","2","2","3","2","4","4","4","3","4","4","3","4","4","1","0","1","1","0","0","1","1","0","1","1","0","1","0","1","3","4","4","4","5","2","3","3","3","2","1","732534816976932865","刘","137","","","","","","","","","","","","","","","","","","","true","4","4","ability","747","negative","拙笨","","","","","","","","","","","","","","","","",""
"null","","null","html-keyboard-response","176","245252","0.0-6.0-0.0-8.0-0.34","2","3","2","2","2","2","2","1","2","2","2","2","2","2","2","2","2","2","3","2","4","4","4","3","4","4","3","4","4","1","0","1","1","0","0","1","1","0","1","1","0","1","0","1","3","4","4","4","5","2","3","3","3","2","1","732534816976932865","刘","137","","","","","","","","","","","","","","","","","","","","","","","","","","","","","","","","","","","","","","","","","",""
"675","<p style=""color:rgb(150, 250, 100); font-size: 35px;"">本人的</p>","e","categorize-html","177","246448","0.0-6.0-0.0-8.0-1.34","2","3","2","2","2","2","2","1","2","2","2","2","2","2","2","2","2","2","3","2","4","4","4","3","4","4","3","4","4","1","0","1","1","0","0","1","1","0","1","1","0","1","0","1","3","4","4","4","5","2","3","3","3","2","1","732534816976932865","刘","137","","","","","","","","","","","","","","","","","","","false","4","4","ability","1299.0217391304348","self","本人的","","","","","","","","","","","","","","","","",""
"null","","null","html-keyboard-response","178","246698","0.0-6.0-0.0-8.0-0.35","2","3","2","2","2","2","2","1","2","2","2","2","2","2","2","2","2","2","3","2","4","4","4","3","4","4","3","4","4","1","0","1","1","0","0","1","1","0","1","1","0","1","0","1","3","4","4","4","5","2","3","3","3","2","1","732534816976932865","刘","137","","","","","","","","","","","","","","","","","","","","","","","","","","","","","","","","","","","","","","","","","",""
"637","<p style=""color:white; font-size: 35px;"">精干</p>","i","categorize-html","179","247840","0.0-6.0-0.0-8.0-1.35","2","3","2","2","2","2","2","1","2","2","2","2","2","2","2","2","2","2","3","2","4","4","4","3","4","4","3","4","4","1","0","1","1","0","0","1","1","0","1","1","0","1","0","1","3","4","4","4","5","2","3","3","3","2","1","732534816976932865","刘","137","","","","","","","","","","","","","","","","","","","false","4","4","ability","1299.0217391304348","positive","精干","","","","","","","","","","","","","","","","",""
"null","","null","html-keyboard-response","180","248099","0.0-6.0-0.0-8.0-0.36","2","3","2","2","2","2","2","1","2","2","2","2","2","2","2","2","2","2","3","2","4","4","4","3","4","4","3","4","4","1","0","1","1","0","0","1","1","0","1","1","0","1","0","1","3","4","4","4","5","2","3","3","3","2","1","732534816976932865","刘","137","","","","","","","","","","","","","","","","","","","","","","","","","","","","","","","","","","","","","","","","","",""
"654","<p style=""color:rgb(150, 250, 100); font-size: 35px;"">他的</p>","e","categorize-html","181","248754","0.0-6.0-0.0-8.0-1.36","2","3","2","2","2","2","2","1","2","2","2","2","2","2","2","2","2","2","3","2","4","4","4","3","4","4","3","4","4","1","0","1","1","0","0","1","1","0","1","1","0","1","0","1","3","4","4","4","5","2","3","3","3","2","1","732534816976932865","刘","137","","","","","","","","","","","","","","","","","","","true","4","4","ability","654","other","他的","","","","","","","","","","","","","","","","",""
"null","","null","html-keyboard-response","182","249005","0.0-6.0-0.0-8.0-0.37","2","3","2","2","2","2","2","1","2","2","2","2","2","2","2","2","2","2","3","2","4","4","4","3","4","4","3","4","4","1","0","1","1","0","0","1","1","0","1","1","0","1","0","1","3","4","4","4","5","2","3","3","3","2","1","732534816976932865","刘","137","","","","","","","","","","","","","","","","","","","","","","","","","","","","","","","","","","","","","","","","","",""
"539","<p style=""color:white; font-size: 35px;"">天才</p>","e","categorize-html","183","249544","0.0-6.0-0.0-8.0-1.37","2","3","2","2","2","2","2","1","2","2","2","2","2","2","2","2","2","2","3","2","4","4","4","3","4","4","3","4","4","1","0","1","1","0","0","1","1","0","1","1","0","1","0","1","3","4","4","4","5","2","3","3","3","2","1","732534816976932865","刘","137","","","","","","","","","","","","","","","","","","","true","4","4","ability","539","positive","天才","","","","","","","","","","","","","","","","",""
"null","","null","html-keyboard-response","184","249796","0.0-6.0-0.0-8.0-0.38","2","3","2","2","2","2","2","1","2","2","2","2","2","2","2","2","2","2","3","2","4","4","4","3","4","4","3","4","4","1","0","1","1","0","0","1","1","0","1","1","0","1","0","1","3","4","4","4","5","2","3","3","3","2","1","732534816976932865","刘","137","","","","","","","","","","","","","","","","","","","","","","","","","","","","","","","","","","","","","","","","","",""
"579","<p style=""color:rgb(150, 250, 100); font-size: 35px;"">自己</p>","i","categorize-html","185","250376","0.0-6.0-0.0-8.0-1.38","2","3","2","2","2","2","2","1","2","2","2","2","2","2","2","2","2","2","3","2","4","4","4","3","4","4","3","4","4","1","0","1","1","0","0","1","1","0","1","1","0","1","0","1","3","4","4","4","5","2","3","3","3","2","1","732534816976932865","刘","137","","","","","","","","","","","","","","","","","","","true","4","4","ability","579","self","自己","","","","","","","","","","","","","","","","",""
"null","","null","html-keyboard-response","186","250627","0.0-6.0-0.0-8.0-0.39","2","3","2","2","2","2","2","1","2","2","2","2","2","2","2","2","2","2","3","2","4","4","4","3","4","4","3","4","4","1","0","1","1","0","0","1","1","0","1","1","0","1","0","1","3","4","4","4","5","2","3","3","3","2","1","732534816976932865","刘","137","","","","","","","","","","","","","","","","","","","","","","","","","","","","","","","","","","","","","","","","","",""
"541","<p style=""color:white; font-size: 35px;"">废物</p>","i","categorize-html","187","251170","0.0-6.0-0.0-8.0-1.39","2","3","2","2","2","2","2","1","2","2","2","2","2","2","2","2","2","2","3","2","4","4","4","3","4","4","3","4","4","1","0","1","1","0","0","1","1","0","1","1","0","1","0","1","3","4","4","4","5","2","3","3","3","2","1","732534816976932865","刘","137","","","","","","","","","","","","","","","","","","","true","4","4","ability","541","negative","废物","","","","","","","","","","","","","","","","",""
"null","","null","html-keyboard-response","188","251421","0.0-6.0-0.0-8.0-0.40","2","3","2","2","2","2","2","1","2","2","2","2","2","2","2","2","2","2","3","2","4","4","4","3","4","4","3","4","4","1","0","1","1","0","0","1","1","0","1","1","0","1","0","1","3","4","4","4","5","2","3","3","3","2","1","732534816976932865","刘","137","","","","","","","","","","","","","","","","","","","","","","","","","","","","","","","","","","","","","","","","","",""
"546","<p style=""color:rgb(150, 250, 100); font-size: 35px;"">他的</p>","e","categorize-html","189","251969","0.0-6.0-0.0-8.0-1.40","2","3","2","2","2","2","2","1","2","2","2","2","2","2","2","2","2","2","3","2","4","4","4","3","4","4","3","4","4","1","0","1","1","0","0","1","1","0","1","1","0","1","0","1","3","4","4","4","5","2","3","3","3","2","1","732534816976932865","刘","137","","","","","","","","","","","","","","","","","","","true","4","4","ability","546","other","他的","","","","","","","","","","","","","","","","",""
"null","","null","html-keyboard-response","190","252220","0.0-6.0-0.0-8.0-0.41","2","3","2","2","2","2","2","1","2","2","2","2","2","2","2","2","2","2","3","2","4","4","4","3","4","4","3","4","4","1","0","1","1","0","0","1","1","0","1","1","0","1","0","1","3","4","4","4","5","2","3","3","3","2","1","732534816976932865","刘","137","","","","","","","","","","","","","","","","","","","","","","","","","","","","","","","","","","","","","","","","","",""
"877","<p style=""color:white; font-size: 35px;"">无能</p>","i","categorize-html","191","253097","0.0-6.0-0.0-8.0-1.41","2","3","2","2","2","2","2","1","2","2","2","2","2","2","2","2","2","2","3","2","4","4","4","3","4","4","3","4","4","1","0","1","1","0","0","1","1","0","1","1","0","1","0","1","3","4","4","4","5","2","3","3","3","2","1","732534816976932865","刘","137","","","","","","","","","","","","","","","","","","","true","4","4","ability","877","negative","无能","","","","","","","","","","","","","","","","",""
"null","","null","html-keyboard-response","192","253348","0.0-6.0-0.0-8.0-0.42","2","3","2","2","2","2","2","1","2","2","2","2","2","2","2","2","2","2","3","2","4","4","4","3","4","4","3","4","4","1","0","1","1","0","0","1","1","0","1","1","0","1","0","1","3","4","4","4","5","2","3","3","3","2","1","732534816976932865","刘","137","","","","","","","","","","","","","","","","","","","","","","","","","","","","","","","","","","","","","","","","","",""
