"rt","stimulus","response","trial_type","trial_index","time_elapsed","internal_node_id","ses_1","ses_2","ses_3","ses_4","ses_5","ses_6","ses_7","ses_8","ses_9","ses_10","coreself_1","coreself_2","coreself_3","coreself_4","coreself_5","coreself_6","coreself_7","coreself_8","coreself_9","coreself_10","SGPS_1","SGPS_2","SGPS_3","SGPS_4","SGPS_5","SGPS_6","SGPS_7","SGPS_8","SGPS_9","NPI1","NPI2","NPI3","NPI4","NPI5","NPI6","NPI7","NPI8","NPI9","NPI10","NPI11","NPI12","NPI13","NPI14","NPI15","hsns_1","hsns_2","hsns_3","hsns_4","hsns_5","trap1","hsns_6","hsns_7","hsns_8","hsns_9","hsns_10","subj_idx","friend_name","ParticipantID","value","success","user_agent","responses","item_order","radio_event_ids","radio_event_times","key_event_times","mouse_event_times","straightlining","zigzagging","honeypot","timeout","failed_images","failed_audio","failed_video","version_attrib","version_target","correct","IAT","screen_id","task_id","RT","condition","word","varname","summary","version_attrib2","version_target2","time_stamp","view_history","response_type","key_press","avg_frame_time","center_x","center_y","correct_response","identity","Image","question_order","correct_answer","trap1_item"
"4149","
   <p><div style = ""color: white;font-size:25px;"">您好，欢迎参加本次实验。</div> </p>
   <p><div style = ""color: white;font-size:25px;"">为充分保障您的权利，请确保您已经知晓并同意《参与实验同意书》以及《数据公开知情同意书》。</div></p>
   <p><div style = ""color: white;font-size:25px;"">如果您未见过上述内容，请咨询实验员。</div></p>
   <p><div style = ""color: white;font-size:25px;"">如果您选择继续实验，则表示您已经清楚两份知情同意书的内容并同意。</div></p>
   <p><div style = ""color: pink;font-size:30px;"">请确保您记得day0的实验编号，您将在本次实验输入该编号，若您忘记，请咨询实验员后作答。</div></p>
   <p><div style = ""color: lightblue;font-size:25px;"">请您尽可能认真地作答，我们将依据您在各问卷和按键任务中的作答质量发放报酬。</div></p>
   <p> <div style = ""color: green;font-size:25px;""><按空格键至下页></div> </p>
   "," ","html-keyboard-response","0","4153","0.0-0.0","3","4","4","3","4","4","3","4","3","4","4","5","4","4","4","5","5","4","4","5","1","2","2","1","2","1","4","2","1","1","0","1","1","0","0","0","1","1","1","1","1","1","0","1","5","2","1","4","4","2","1","5","4","2","1","625294467993174016","陈","140","","","","","","","","","","","","","","","","","","","","","","","","","","","","","","","","","","","","","","","","","",""
"","","","call-function","1","4156","0.0-1.0-0.0","3","4","4","3","4","4","3","4","3","4","4","5","4","4","4","5","5","4","4","5","1","2","2","1","2","1","4","2","1","1","0","1","1","0","0","0","1","1","1","1","1","1","0","1","5","2","1","4","4","2","1","5","4","2","1","625294467993174016","陈","140","","","","","","","","","","","","","","","","","","","","","","","","","","","","","","","","","","","","","","","","","",""
"60255","","{""friend_name"":""陈"",""ParticipantID"":""140""}","survey-html-form","2","64415","0.0-1.0-1.0","3","4","4","3","4","4","3","4","3","4","4","5","4","4","4","5","5","4","4","5","1","2","2","1","2","1","4","2","1","1","0","1","1","0","0","0","1","1","1","1","1","1","0","1","5","2","1","4","4","2","1","5","4","2","1","625294467993174016","陈","140","","","","","","","","","","","","","","","","","","","","","","","","","","","","","","","","","","","","","","","","","",""
"","","","fullscreen","3","65534","0.0-2.0","3","4","4","3","4","4","3","4","3","4","4","5","4","4","4","5","5","4","4","5","1","2","2","1","2","1","4","2","1","1","0","1","1","0","0","0","1","1","1","1","1","1","0","1","5","2","1","4","4","2","1","5","4","2","1","625294467993174016","陈","140","","true","{}","","","","","","","","","","","","","","","","","","","","","","","","","","","","","","","","","","","","","","",""
"41502.79999998212","","{""Q01"":""3"",""Q02"":""4"",""Q03"":""4"",""Q04"":""3"",""Q05"":""4"",""Q06"":""4"",""Q07"":""3"",""Q08"":""4"",""Q09"":""3"",""Q10"":""4""}","survey-template","4","107050","0.0-3.0","3","4","4","3","4","4","3","4","3","4","4","5","4","4","4","5","5","4","4","5","1","2","2","1","2","1","4","2","1","1","0","1","1","0","0","0","1","1","1","1","1","1","0","1","5","2","1","4","4","2","1","5","4","2","1","625294467993174016","陈","140","","","","{""Q01"":""3"",""Q02"":""4"",""Q03"":""4"",""Q04"":""3"",""Q05"":""4"",""Q06"":""4"",""Q07"":""3"",""Q08"":""4"",""Q09"":""3"",""Q10"":""4""}","[0,1,2,3,4,5,6,7,8,9]","[""Q01"",""Q02"",""Q03"",""Q04"",""Q05"",""Q06"",""Q07"",""Q08"",""Q09"",""Q10""]","[6105.0999999940395,8025.299999982119,10219.59999999404,11254.299999982119,13299.699999988079,14999.699999988079,19569.59999999404,22567.69999998808,24885.399999976158,26023.399999976158]","[]","[6105.0999999940395,7689.799999982119,8025.299999982119,9145.699999988079,10219.59999999404,11254.299999982119,13299.699999988079,14999.699999988079,18571.69999998808,19016,19569.59999999404,22567.69999998808,24885.399999976158,26023.399999976158,41500.59999999404]","0.4","0.6666666666666666","0","","","","","","","","","","","","","","","","","","","","","","","","","","","","","",""
"44157.5","","{""Q01"":""4"",""Q02"":""5"",""Q03"":""4"",""Q04"":""4"",""Q05"":""4"",""Q06"":""5"",""Q07"":""5"",""Q08"":""4"",""Q09"":""4"",""Q10"":""5""}","survey-template","5","151215","0.0-4.0","3","4","4","3","4","4","3","4","3","4","4","5","4","4","4","5","5","4","4","5","1","2","2","1","2","1","4","2","1","1","0","1","1","0","0","0","1","1","1","1","1","1","0","1","5","2","1","4","4","2","1","5","4","2","1","625294467993174016","陈","140","","","","{""Q01"":""4"",""Q02"":""5"",""Q03"":""4"",""Q04"":""4"",""Q05"":""4"",""Q06"":""5"",""Q07"":""5"",""Q08"":""4"",""Q09"":""4"",""Q10"":""5""}","[0,1,2,3,4,5,6,7,8,9]","[""Q01"",""Q02"",""Q03"",""Q04"",""Q05"",""Q06"",""Q07"",""Q08"",""Q09"",""Q10""]","[2674.699999988079,4101,6821.0999999940395,7772.799999982119,9113,10834.90000000596,12617,14099,15448.799999982119,16653.09999999404]","[]","[2674.699999988079,4101,6821.0999999940395,7772.799999982119,9113,10834.90000000596,12617,14099,15448.799999982119,16653.09999999404,44154.90000000596]","0.3","0.3333333333333333","0","","","","","","","","","","","","","","","","","","","","","","","","","","","","","",""
"","","","preload","6","151562","0.0-5.0","3","4","4","3","4","4","3","4","3","4","4","5","4","4","4","5","5","4","4","5","1","2","2","1","2","1","4","2","1","1","0","1","1","0","0","0","1","1","1","1","1","1","0","1","5","2","1","4","4","2","1","5","4","2","1","625294467993174016","陈","140","","true","","","","","","","","","","","false","[]","[]","[]","","","","","","","","","","","","","","","","","","","","","","","","","",""
"16804","
    <h3>词语分类任务</h3>
    <p>在接下来的任务中，你需要对一系列词语进行分类。</p>
    <p>请先熟悉这些词语，这有利于你完成接下来的任务。</p>
    <table align=""center"" border=1 cellpadding=3 cellspacing=0>
    <tr> <th>类别</th> <th>词语</th> </tr>
    <tr> <td>&emsp;积极&emsp;</td> <td>&emsp;能干、全能、全才、高效、精干、天才&emsp;</td> </tr>
    <tr> <td>&emsp;消极&emsp;</td> <td>&emsp;无能、低能、废物、拙笨、愚钝、蠢笨&emsp;</td> </tr>
    <tr> <td>&emsp;自我&emsp;</td> <td>&emsp;我、我的、自己、自己的、本人、本人的&emsp;</td> </tr>
    <tr> <td>&emsp;他人&emsp;</td> <td>&emsp;他、他的、别人、别人的、他人、他人的&emsp;</td> </tr>
    </table><br/>","0","html-button-response","7","168370","0.0-6.0-0.0-0.0","3","4","4","3","4","4","3","4","3","4","4","5","4","4","4","5","5","4","4","5","1","2","2","1","2","1","4","2","1","1","0","1","1","0","0","0","1","1","1","1","1","1","0","1","5","2","1","4","4","2","1","5","4","2","1","625294467993174016","陈","140","","","","","","","","","","","","","","","","","2","2","","","","","","","","","","","","","","","","","","","","","","","",""
"6324","
    <div class=""tag-bottom"">
    <p> —— 任务1：对“他人”词和“自我”词分类 ——<p/>
    不同词语会出现在屏幕中央，类别标签将始终显示在屏幕上方<p/>   
    <span style=""color:#FFD866""><b>请根据上方标签的提示，尽可能正确并且快速地做出按键反应</b></span><p/>
    当按键错误时屏幕中会出现<span style=""color:red""> X </span>，需要按另一个键纠正才能继续<br/><p/>
    请把双手食指分别放在键盘的“E”键和“I”键上<p/>
    按<空格键>开始
    </p></div>"," ","html-keyboard-response","8","174697","0.0-6.0-0.0-1.0","3","4","4","3","4","4","3","4","3","4","4","5","4","4","4","5","5","4","4","5","1","2","2","1","2","1","4","2","1","1","0","1","1","0","0","0","1","1","1","1","1","1","0","1","5","2","1","4","4","2","1","5","4","2","1","625294467993174016","陈","140","","","","","","","","","","","","","","","","","","","","","","","","","","","","","","","","","","","","","","","","","",""
"null","","null","html-keyboard-response","9","174949","0.0-6.0-0.0-2.0-0.0","3","4","4","3","4","4","3","4","3","4","4","5","4","4","4","5","5","4","4","5","1","2","2","1","2","1","4","2","1","1","0","1","1","0","0","0","1","1","1","1","1","1","0","1","5","2","1","4","4","2","1","5","4","2","1","625294467993174016","陈","140","","","","","","","","","","","","","","","","","","","","","","","","","","","","","","","","","","","","","","","","","",""
"627","<p style=""color:rgb(150, 250, 100); font-size: 35px;"">我</p>","i","categorize-html","10","175583","0.0-6.0-0.0-2.0-1.0","3","4","4","3","4","4","3","4","3","4","4","5","4","4","4","5","5","4","4","5","1","2","2","1","2","1","4","2","1","1","0","1","1","0","0","0","1","1","1","1","1","1","0","1","5","2","1","4","4","2","1","5","4","2","1","625294467993174016","陈","140","","","","","","","","","","","","","","","","","","","true","1","1","ability","627","self","我","","","","","","","","","","","","","","","","",""
"null","","null","html-keyboard-response","11","175835","0.0-6.0-0.0-2.0-0.1","3","4","4","3","4","4","3","4","3","4","4","5","4","4","4","5","5","4","4","5","1","2","2","1","2","1","4","2","1","1","0","1","1","0","0","0","1","1","1","1","1","1","0","1","5","2","1","4","4","2","1","5","4","2","1","625294467993174016","陈","140","","","","","","","","","","","","","","","","","","","","","","","","","","","","","","","","","","","","","","","","","",""
"674","<p style=""color:rgb(150, 250, 100); font-size: 35px;"">我的</p>","i","categorize-html","12","176511","0.0-6.0-0.0-2.0-1.1","3","4","4","3","4","4","3","4","3","4","4","5","4","4","4","5","5","4","4","5","1","2","2","1","2","1","4","2","1","1","0","1","1","0","0","0","1","1","1","1","1","1","0","1","5","2","1","4","4","2","1","5","4","2","1","625294467993174016","陈","140","","","","","","","","","","","","","","","","","","","true","1","1","ability","674","self","我的","","","","","","","","","","","","","","","","",""
"null","","null","html-keyboard-response","13","176764","0.0-6.0-0.0-2.0-0.2","3","4","4","3","4","4","3","4","3","4","4","5","4","4","4","5","5","4","4","5","1","2","2","1","2","1","4","2","1","1","0","1","1","0","0","0","1","1","1","1","1","1","0","1","5","2","1","4","4","2","1","5","4","2","1","625294467993174016","陈","140","","","","","","","","","","","","","","","","","","","","","","","","","","","","","","","","","","","","","","","","","",""
"620","<p style=""color:rgb(150, 250, 100); font-size: 35px;"">自己的</p>","i","categorize-html","14","177386","0.0-6.0-0.0-2.0-1.2","3","4","4","3","4","4","3","4","3","4","4","5","4","4","4","5","5","4","4","5","1","2","2","1","2","1","4","2","1","1","0","1","1","0","0","0","1","1","1","1","1","1","0","1","5","2","1","4","4","2","1","5","4","2","1","625294467993174016","陈","140","","","","","","","","","","","","","","","","","","","true","1","1","ability","620","self","自己的","","","","","","","","","","","","","","","","",""
"null","","null","html-keyboard-response","15","177639","0.0-6.0-0.0-2.0-0.3","3","4","4","3","4","4","3","4","3","4","4","5","4","4","4","5","5","4","4","5","1","2","2","1","2","1","4","2","1","1","0","1","1","0","0","0","1","1","1","1","1","1","0","1","5","2","1","4","4","2","1","5","4","2","1","625294467993174016","陈","140","","","","","","","","","","","","","","","","","","","","","","","","","","","","","","","","","","","","","","","","","",""
"650","<p style=""color:rgb(150, 250, 100); font-size: 35px;"">他</p>","e","categorize-html","16","178291","0.0-6.0-0.0-2.0-1.3","3","4","4","3","4","4","3","4","3","4","4","5","4","4","4","5","5","4","4","5","1","2","2","1","2","1","4","2","1","1","0","1","1","0","0","0","1","1","1","1","1","1","0","1","5","2","1","4","4","2","1","5","4","2","1","625294467993174016","陈","140","","","","","","","","","","","","","","","","","","","true","1","1","ability","650","other","他","","","","","","","","","","","","","","","","",""
"null","","null","html-keyboard-response","17","178543","0.0-6.0-0.0-2.0-0.4","3","4","4","3","4","4","3","4","3","4","4","5","4","4","4","5","5","4","4","5","1","2","2","1","2","1","4","2","1","1","0","1","1","0","0","0","1","1","1","1","1","1","0","1","5","2","1","4","4","2","1","5","4","2","1","625294467993174016","陈","140","","","","","","","","","","","","","","","","","","","","","","","","","","","","","","","","","","","","","","","","","",""
"566","<p style=""color:rgb(150, 250, 100); font-size: 35px;"">他人的</p>","e","categorize-html","18","179112","0.0-6.0-0.0-2.0-1.4","3","4","4","3","4","4","3","4","3","4","4","5","4","4","4","5","5","4","4","5","1","2","2","1","2","1","4","2","1","1","0","1","1","0","0","0","1","1","1","1","1","1","0","1","5","2","1","4","4","2","1","5","4","2","1","625294467993174016","陈","140","","","","","","","","","","","","","","","","","","","true","1","1","ability","566","other","他人的","","","","","","","","","","","","","","","","",""
"null","","null","html-keyboard-response","19","179364","0.0-6.0-0.0-2.0-0.5","3","4","4","3","4","4","3","4","3","4","4","5","4","4","4","5","5","4","4","5","1","2","2","1","2","1","4","2","1","1","0","1","1","0","0","0","1","1","1","1","1","1","0","1","5","2","1","4","4","2","1","5","4","2","1","625294467993174016","陈","140","","","","","","","","","","","","","","","","","","","","","","","","","","","","","","","","","","","","","","","","","",""
"632","<p style=""color:rgb(150, 250, 100); font-size: 35px;"">他人</p>","e","categorize-html","20","179999","0.0-6.0-0.0-2.0-1.5","3","4","4","3","4","4","3","4","3","4","4","5","4","4","4","5","5","4","4","5","1","2","2","1","2","1","4","2","1","1","0","1","1","0","0","0","1","1","1","1","1","1","0","1","5","2","1","4","4","2","1","5","4","2","1","625294467993174016","陈","140","","","","","","","","","","","","","","","","","","","true","1","1","ability","632","other","他人","","","","","","","","","","","","","","","","",""
"null","","null","html-keyboard-response","21","180251","0.0-6.0-0.0-2.0-0.6","3","4","4","3","4","4","3","4","3","4","4","5","4","4","4","5","5","4","4","5","1","2","2","1","2","1","4","2","1","1","0","1","1","0","0","0","1","1","1","1","1","1","0","1","5","2","1","4","4","2","1","5","4","2","1","625294467993174016","陈","140","","","","","","","","","","","","","","","","","","","","","","","","","","","","","","","","","","","","","","","","","",""
"620","<p style=""color:rgb(150, 250, 100); font-size: 35px;"">别人</p>","e","categorize-html","22","180874","0.0-6.0-0.0-2.0-1.6","3","4","4","3","4","4","3","4","3","4","4","5","4","4","4","5","5","4","4","5","1","2","2","1","2","1","4","2","1","1","0","1","1","0","0","0","1","1","1","1","1","1","0","1","5","2","1","4","4","2","1","5","4","2","1","625294467993174016","陈","140","","","","","","","","","","","","","","","","","","","true","1","1","ability","620","other","别人","","","","","","","","","","","","","","","","",""
"null","","null","html-keyboard-response","23","181125","0.0-6.0-0.0-2.0-0.7","3","4","4","3","4","4","3","4","3","4","4","5","4","4","4","5","5","4","4","5","1","2","2","1","2","1","4","2","1","1","0","1","1","0","0","0","1","1","1","1","1","1","0","1","5","2","1","4","4","2","1","5","4","2","1","625294467993174016","陈","140","","","","","","","","","","","","","","","","","","","","","","","","","","","","","","","","","","","","","","","","","",""
"530","<p style=""color:rgb(150, 250, 100); font-size: 35px;"">自己</p>","i","categorize-html","24","181657","0.0-6.0-0.0-2.0-1.7","3","4","4","3","4","4","3","4","3","4","4","5","4","4","4","5","5","4","4","5","1","2","2","1","2","1","4","2","1","1","0","1","1","0","0","0","1","1","1","1","1","1","0","1","5","2","1","4","4","2","1","5","4","2","1","625294467993174016","陈","140","","","","","","","","","","","","","","","","","","","true","1","1","ability","530","self","自己","","","","","","","","","","","","","","","","",""
"null","","null","html-keyboard-response","25","181908","0.0-6.0-0.0-2.0-0.8","3","4","4","3","4","4","3","4","3","4","4","5","4","4","4","5","5","4","4","5","1","2","2","1","2","1","4","2","1","1","0","1","1","0","0","0","1","1","1","1","1","1","0","1","5","2","1","4","4","2","1","5","4","2","1","625294467993174016","陈","140","","","","","","","","","","","","","","","","","","","","","","","","","","","","","","","","","","","","","","","","","",""
"733","<p style=""color:rgb(150, 250, 100); font-size: 35px;"">本人的</p>","i","categorize-html","26","182644","0.0-6.0-0.0-2.0-1.8","3","4","4","3","4","4","3","4","3","4","4","5","4","4","4","5","5","4","4","5","1","2","2","1","2","1","4","2","1","1","0","1","1","0","0","0","1","1","1","1","1","1","0","1","5","2","1","4","4","2","1","5","4","2","1","625294467993174016","陈","140","","","","","","","","","","","","","","","","","","","true","1","1","ability","733","self","本人的","","","","","","","","","","","","","","","","",""
"null","","null","html-keyboard-response","27","182895","0.0-6.0-0.0-2.0-0.9","3","4","4","3","4","4","3","4","3","4","4","5","4","4","4","5","5","4","4","5","1","2","2","1","2","1","4","2","1","1","0","1","1","0","0","0","1","1","1","1","1","1","0","1","5","2","1","4","4","2","1","5","4","2","1","625294467993174016","陈","140","","","","","","","","","","","","","","","","","","","","","","","","","","","","","","","","","","","","","","","","","",""
"645","<p style=""color:rgb(150, 250, 100); font-size: 35px;"">本人</p>","i","categorize-html","28","183544","0.0-6.0-0.0-2.0-1.9","3","4","4","3","4","4","3","4","3","4","4","5","4","4","4","5","5","4","4","5","1","2","2","1","2","1","4","2","1","1","0","1","1","0","0","0","1","1","1","1","1","1","0","1","5","2","1","4","4","2","1","5","4","2","1","625294467993174016","陈","140","","","","","","","","","","","","","","","","","","","true","1","1","ability","645","self","本人","","","","","","","","","","","","","","","","",""
"null","","null","html-keyboard-response","29","183795","0.0-6.0-0.0-2.0-0.10","3","4","4","3","4","4","3","4","3","4","4","5","4","4","4","5","5","4","4","5","1","2","2","1","2","1","4","2","1","1","0","1","1","0","0","0","1","1","1","1","1","1","0","1","5","2","1","4","4","2","1","5","4","2","1","625294467993174016","陈","140","","","","","","","","","","","","","","","","","","","","","","","","","","","","","","","","","","","","","","","","","",""
"632","<p style=""color:rgb(150, 250, 100); font-size: 35px;"">别人的</p>","e","categorize-html","30","184431","0.0-6.0-0.0-2.0-1.10","3","4","4","3","4","4","3","4","3","4","4","5","4","4","4","5","5","4","4","5","1","2","2","1","2","1","4","2","1","1","0","1","1","0","0","0","1","1","1","1","1","1","0","1","5","2","1","4","4","2","1","5","4","2","1","625294467993174016","陈","140","","","","","","","","","","","","","","","","","","","true","1","1","ability","632","other","别人的","","","","","","","","","","","","","","","","",""
"null","","null","html-keyboard-response","31","184697","0.0-6.0-0.0-2.0-0.11","3","4","4","3","4","4","3","4","3","4","4","5","4","4","4","5","5","4","4","5","1","2","2","1","2","1","4","2","1","1","0","1","1","0","0","0","1","1","1","1","1","1","0","1","5","2","1","4","4","2","1","5","4","2","1","625294467993174016","陈","140","","","","","","","","","","","","","","","","","","","","","","","","","","","","","","","","","","","","","","","","","",""
"754","<p style=""color:rgb(150, 250, 100); font-size: 35px;"">他的</p>","e","categorize-html","32","185453","0.0-6.0-0.0-2.0-1.11","3","4","4","3","4","4","3","4","3","4","4","5","4","4","4","5","5","4","4","5","1","2","2","1","2","1","4","2","1","1","0","1","1","0","0","0","1","1","1","1","1","1","0","1","5","2","1","4","4","2","1","5","4","2","1","625294467993174016","陈","140","","","","","","","","","","","","","","","","","","","true","1","1","ability","754","other","他的","","","","","","","","","","","","","","","","",""
"2621","
    <div class=""tag-bottom""><p>
    —— 任务2：对“消极”词和“积极”词分类 ——<p/>   
    <span style=""color:#78DCE8""><b>注意上方，类别标签和需要分类的词语都已经改变</b></span><p/>
    <span style=""color:#FFD866""><b>请根据上方标签的提示，尽可能正确并且快速地做出按键反应</b></span><p/>
    当按键错误时屏幕中会出现<span style=""color:red""> X </span>，需要按另一个键纠正才能继续<br/><p/>
    请把双手食指分别放在键盘的“E”键和“I”键上<p/>
    按<空格键>开始
    </p></div>"," ","html-keyboard-response","33","188075","0.0-6.0-0.0-3.0","3","4","4","3","4","4","3","4","3","4","4","5","4","4","4","5","5","4","4","5","1","2","2","1","2","1","4","2","1","1","0","1","1","0","0","0","1","1","1","1","1","1","0","1","5","2","1","4","4","2","1","5","4","2","1","625294467993174016","陈","140","","","","","","","","","","","","","","","","","","","","","","","","","","","","","","","","","","","","","","","","","",""
"null","","null","html-keyboard-response","34","188326","0.0-6.0-0.0-4.0-0.0","3","4","4","3","4","4","3","4","3","4","4","5","4","4","4","5","5","4","4","5","1","2","2","1","2","1","4","2","1","1","0","1","1","0","0","0","1","1","1","1","1","1","0","1","5","2","1","4","4","2","1","5","4","2","1","625294467993174016","陈","140","","","","","","","","","","","","","","","","","","","","","","","","","","","","","","","","","","","","","","","","","",""
"939","<p style=""color:white; font-size: 35px;"">能干</p>","i","categorize-html","35","189268","0.0-6.0-0.0-4.0-1.0","3","4","4","3","4","4","3","4","3","4","4","5","4","4","4","5","5","4","4","5","1","2","2","1","2","1","4","2","1","1","0","1","1","0","0","0","1","1","1","1","1","1","0","1","5","2","1","4","4","2","1","5","4","2","1","625294467993174016","陈","140","","","","","","","","","","","","","","","","","","","true","2","2","ability","939","positive","能干","","","","","","","","","","","","","","","","",""
"null","","null","html-keyboard-response","36","189520","0.0-6.0-0.0-4.0-0.1","3","4","4","3","4","4","3","4","3","4","4","5","4","4","4","5","5","4","4","5","1","2","2","1","2","1","4","2","1","1","0","1","1","0","0","0","1","1","1","1","1","1","0","1","5","2","1","4","4","2","1","5","4","2","1","625294467993174016","陈","140","","","","","","","","","","","","","","","","","","","","","","","","","","","","","","","","","","","","","","","","","",""
"807","<p style=""color:white; font-size: 35px;"">精干</p>","i","categorize-html","37","190331","0.0-6.0-0.0-4.0-1.1","3","4","4","3","4","4","3","4","3","4","4","5","4","4","4","5","5","4","4","5","1","2","2","1","2","1","4","2","1","1","0","1","1","0","0","0","1","1","1","1","1","1","0","1","5","2","1","4","4","2","1","5","4","2","1","625294467993174016","陈","140","","","","","","","","","","","","","","","","","","","true","2","2","ability","807","positive","精干","","","","","","","","","","","","","","","","",""
"null","","null","html-keyboard-response","38","190583","0.0-6.0-0.0-4.0-0.2","3","4","4","3","4","4","3","4","3","4","4","5","4","4","4","5","5","4","4","5","1","2","2","1","2","1","4","2","1","1","0","1","1","0","0","0","1","1","1","1","1","1","0","1","5","2","1","4","4","2","1","5","4","2","1","625294467993174016","陈","140","","","","","","","","","","","","","","","","","","","","","","","","","","","","","","","","","","","","","","","","","",""
"510","<p style=""color:white; font-size: 35px;"">全能</p>","i","categorize-html","39","191094","0.0-6.0-0.0-4.0-1.2","3","4","4","3","4","4","3","4","3","4","4","5","4","4","4","5","5","4","4","5","1","2","2","1","2","1","4","2","1","1","0","1","1","0","0","0","1","1","1","1","1","1","0","1","5","2","1","4","4","2","1","5","4","2","1","625294467993174016","陈","140","","","","","","","","","","","","","","","","","","","true","2","2","ability","510","positive","全能","","","","","","","","","","","","","","","","",""
"null","","null","html-keyboard-response","40","191346","0.0-6.0-0.0-4.0-0.3","3","4","4","3","4","4","3","4","3","4","4","5","4","4","4","5","5","4","4","5","1","2","2","1","2","1","4","2","1","1","0","1","1","0","0","0","1","1","1","1","1","1","0","1","5","2","1","4","4","2","1","5","4","2","1","625294467993174016","陈","140","","","","","","","","","","","","","","","","","","","","","","","","","","","","","","","","","","","","","","","","","",""
"825","<p style=""color:white; font-size: 35px;"">天才</p>","i","categorize-html","41","192174","0.0-6.0-0.0-4.0-1.3","3","4","4","3","4","4","3","4","3","4","4","5","4","4","4","5","5","4","4","5","1","2","2","1","2","1","4","2","1","1","0","1","1","0","0","0","1","1","1","1","1","1","0","1","5","2","1","4","4","2","1","5","4","2","1","625294467993174016","陈","140","","","","","","","","","","","","","","","","","","","true","2","2","ability","825","positive","天才","","","","","","","","","","","","","","","","",""
"null","","null","html-keyboard-response","42","192425","0.0-6.0-0.0-4.0-0.4","3","4","4","3","4","4","3","4","3","4","4","5","4","4","4","5","5","4","4","5","1","2","2","1","2","1","4","2","1","1","0","1","1","0","0","0","1","1","1","1","1","1","0","1","5","2","1","4","4","2","1","5","4","2","1","625294467993174016","陈","140","","","","","","","","","","","","","","","","","","","","","","","","","","","","","","","","","","","","","","","","","",""
"709","<p style=""color:white; font-size: 35px;"">无能</p>","e","categorize-html","43","193134","0.0-6.0-0.0-4.0-1.4","3","4","4","3","4","4","3","4","3","4","4","5","4","4","4","5","5","4","4","5","1","2","2","1","2","1","4","2","1","1","0","1","1","0","0","0","1","1","1","1","1","1","0","1","5","2","1","4","4","2","1","5","4","2","1","625294467993174016","陈","140","","","","","","","","","","","","","","","","","","","true","2","2","ability","709","negative","无能","","","","","","","","","","","","","","","","",""
"null","","null","html-keyboard-response","44","193386","0.0-6.0-0.0-4.0-0.5","3","4","4","3","4","4","3","4","3","4","4","5","4","4","4","5","5","4","4","5","1","2","2","1","2","1","4","2","1","1","0","1","1","0","0","0","1","1","1","1","1","1","0","1","5","2","1","4","4","2","1","5","4","2","1","625294467993174016","陈","140","","","","","","","","","","","","","","","","","","","","","","","","","","","","","","","","","","","","","","","","","",""
"720","<p style=""color:white; font-size: 35px;"">拙笨</p>","e","categorize-html","45","194109","0.0-6.0-0.0-4.0-1.5","3","4","4","3","4","4","3","4","3","4","4","5","4","4","4","5","5","4","4","5","1","2","2","1","2","1","4","2","1","1","0","1","1","0","0","0","1","1","1","1","1","1","0","1","5","2","1","4","4","2","1","5","4","2","1","625294467993174016","陈","140","","","","","","","","","","","","","","","","","","","true","2","2","ability","720","negative","拙笨","","","","","","","","","","","","","","","","",""
"null","","null","html-keyboard-response","46","194361","0.0-6.0-0.0-4.0-0.6","3","4","4","3","4","4","3","4","3","4","4","5","4","4","4","5","5","4","4","5","1","2","2","1","2","1","4","2","1","1","0","1","1","0","0","0","1","1","1","1","1","1","0","1","5","2","1","4","4","2","1","5","4","2","1","625294467993174016","陈","140","","","","","","","","","","","","","","","","","","","","","","","","","","","","","","","","","","","","","","","","","",""
"707","<p style=""color:white; font-size: 35px;"">愚钝</p>","e","categorize-html","47","195071","0.0-6.0-0.0-4.0-1.6","3","4","4","3","4","4","3","4","3","4","4","5","4","4","4","5","5","4","4","5","1","2","2","1","2","1","4","2","1","1","0","1","1","0","0","0","1","1","1","1","1","1","0","1","5","2","1","4","4","2","1","5","4","2","1","625294467993174016","陈","140","","","","","","","","","","","","","","","","","","","true","2","2","ability","707","negative","愚钝","","","","","","","","","","","","","","","","",""
"null","","null","html-keyboard-response","48","195322","0.0-6.0-0.0-4.0-0.7","3","4","4","3","4","4","3","4","3","4","4","5","4","4","4","5","5","4","4","5","1","2","2","1","2","1","4","2","1","1","0","1","1","0","0","0","1","1","1","1","1","1","0","1","5","2","1","4","4","2","1","5","4","2","1","625294467993174016","陈","140","","","","","","","","","","","","","","","","","","","","","","","","","","","","","","","","","","","","","","","","","",""
"1089","<p style=""color:white; font-size: 35px;"">高效</p>","i","categorize-html","49","196413","0.0-6.0-0.0-4.0-1.7","3","4","4","3","4","4","3","4","3","4","4","5","4","4","4","5","5","4","4","5","1","2","2","1","2","1","4","2","1","1","0","1","1","0","0","0","1","1","1","1","1","1","0","1","5","2","1","4","4","2","1","5","4","2","1","625294467993174016","陈","140","","","","","","","","","","","","","","","","","","","true","2","2","ability","1089","positive","高效","","","","","","","","","","","","","","","","",""
"null","","null","html-keyboard-response","50","196665","0.0-6.0-0.0-4.0-0.8","3","4","4","3","4","4","3","4","3","4","4","5","4","4","4","5","5","4","4","5","1","2","2","1","2","1","4","2","1","1","0","1","1","0","0","0","1","1","1","1","1","1","0","1","5","2","1","4","4","2","1","5","4","2","1","625294467993174016","陈","140","","","","","","","","","","","","","","","","","","","","","","","","","","","","","","","","","","","","","","","","","",""
"743","<p style=""color:white; font-size: 35px;"">蠢笨</p>","e","categorize-html","51","197410","0.0-6.0-0.0-4.0-1.8","3","4","4","3","4","4","3","4","3","4","4","5","4","4","4","5","5","4","4","5","1","2","2","1","2","1","4","2","1","1","0","1","1","0","0","0","1","1","1","1","1","1","0","1","5","2","1","4","4","2","1","5","4","2","1","625294467993174016","陈","140","","","","","","","","","","","","","","","","","","","true","2","2","ability","743","negative","蠢笨","","","","","","","","","","","","","","","","",""
"null","","null","html-keyboard-response","52","197661","0.0-6.0-0.0-4.0-0.9","3","4","4","3","4","4","3","4","3","4","4","5","4","4","4","5","5","4","4","5","1","2","2","1","2","1","4","2","1","1","0","1","1","0","0","0","1","1","1","1","1","1","0","1","5","2","1","4","4","2","1","5","4","2","1","625294467993174016","陈","140","","","","","","","","","","","","","","","","","","","","","","","","","","","","","","","","","","","","","","","","","",""
"739","<p style=""color:white; font-size: 35px;"">全才</p>","i","categorize-html","53","198403","0.0-6.0-0.0-4.0-1.9","3","4","4","3","4","4","3","4","3","4","4","5","4","4","4","5","5","4","4","5","1","2","2","1","2","1","4","2","1","1","0","1","1","0","0","0","1","1","1","1","1","1","0","1","5","2","1","4","4","2","1","5","4","2","1","625294467993174016","陈","140","","","","","","","","","","","","","","","","","","","true","2","2","ability","739","positive","全才","","","","","","","","","","","","","","","","",""
"null","","null","html-keyboard-response","54","198655","0.0-6.0-0.0-4.0-0.10","3","4","4","3","4","4","3","4","3","4","4","5","4","4","4","5","5","4","4","5","1","2","2","1","2","1","4","2","1","1","0","1","1","0","0","0","1","1","1","1","1","1","0","1","5","2","1","4","4","2","1","5","4","2","1","625294467993174016","陈","140","","","","","","","","","","","","","","","","","","","","","","","","","","","","","","","","","","","","","","","","","",""
"2107","<p style=""color:white; font-size: 35px;"">低能</p>","e","categorize-html","55","200765","0.0-6.0-0.0-4.0-1.10","3","4","4","3","4","4","3","4","3","4","4","5","4","4","4","5","5","4","4","5","1","2","2","1","2","1","4","2","1","1","0","1","1","0","0","0","1","1","1","1","1","1","0","1","5","2","1","4","4","2","1","5","4","2","1","625294467993174016","陈","140","","","","","","","","","","","","","","","","","","","true","2","2","ability","2107","negative","低能","","","","","","","","","","","","","","","","",""
"null","","null","html-keyboard-response","56","201016","0.0-6.0-0.0-4.0-0.11","3","4","4","3","4","4","3","4","3","4","4","5","4","4","4","5","5","4","4","5","1","2","2","1","2","1","4","2","1","1","0","1","1","0","0","0","1","1","1","1","1","1","0","1","5","2","1","4","4","2","1","5","4","2","1","625294467993174016","陈","140","","","","","","","","","","","","","","","","","","","","","","","","","","","","","","","","","","","","","","","","","",""
"844","<p style=""color:white; font-size: 35px;"">废物</p>","e","categorize-html","57","201862","0.0-6.0-0.0-4.0-1.11","3","4","4","3","4","4","3","4","3","4","4","5","4","4","4","5","5","4","4","5","1","2","2","1","2","1","4","2","1","1","0","1","1","0","0","0","1","1","1","1","1","1","0","1","5","2","1","4","4","2","1","5","4","2","1","625294467993174016","陈","140","","","","","","","","","","","","","","","","","","","true","2","2","ability","844","negative","废物","","","","","","","","","","","","","","","","",""
"11324","
    <div class=""tag-bottom""><p>
    —— 任务3：对“他人/消极”词和“自我/积极”词分类 ——<p/>
    <span style=""color:#78DCE8""><b>注意上方，之前的四类词语将混合在一起交替呈现</b></span><p/>
    <span style=""color:#FFD866""><b>请根据上方标签的提示，尽可能正确并且快速地做出按键反应</b></span><p/>
    当按键错误时屏幕中会出现<span style=""color:red""> X </span>，需要按另一个键纠正才能继续<br/><p/>
    请把双手食指分别放在键盘的“E”键和“I”键上<p/>
    按<空格键>开始
    </p></div>"," ","html-keyboard-response","58","213188","0.0-6.0-0.0-5.0","3","4","4","3","4","4","3","4","3","4","4","5","4","4","4","5","5","4","4","5","1","2","2","1","2","1","4","2","1","1","0","1","1","0","0","0","1","1","1","1","1","1","0","1","5","2","1","4","4","2","1","5","4","2","1","625294467993174016","陈","140","","","","","","","","","","","","","","","","","","","","","","","","","","","","","","","","","","","","","","","","","",""
"null","","null","html-keyboard-response","59","213439","0.0-6.0-0.0-6.0-0.0","3","4","4","3","4","4","3","4","3","4","4","5","4","4","4","5","5","4","4","5","1","2","2","1","2","1","4","2","1","1","0","1","1","0","0","0","1","1","1","1","1","1","0","1","5","2","1","4","4","2","1","5","4","2","1","625294467993174016","陈","140","","","","","","","","","","","","","","","","","","","","","","","","","","","","","","","","","","","","","","","","","",""
"1416","<p style=""color:rgb(150, 250, 100); font-size: 35px;"">本人的</p>","i","categorize-html","60","214858","0.0-6.0-0.0-6.0-1.0","3","4","4","3","4","4","3","4","3","4","4","5","4","4","4","5","5","4","4","5","1","2","2","1","2","1","4","2","1","1","0","1","1","0","0","0","1","1","1","1","1","1","0","1","5","2","1","4","4","2","1","5","4","2","1","625294467993174016","陈","140","","","","","","","","","","","","","","","","","","","true","3","3","ability","1416","self","本人的","","","","","","","","","","","","","","","","",""
"null","","null","html-keyboard-response","61","215110","0.0-6.0-0.0-6.0-0.1","3","4","4","3","4","4","3","4","3","4","4","5","4","4","4","5","5","4","4","5","1","2","2","1","2","1","4","2","1","1","0","1","1","0","0","0","1","1","1","1","1","1","0","1","5","2","1","4","4","2","1","5","4","2","1","625294467993174016","陈","140","","","","","","","","","","","","","","","","","","","","","","","","","","","","","","","","","","","","","","","","","",""
"1416","<p style=""color:white; font-size: 35px;"">无能</p>","e","categorize-html","62","216528","0.0-6.0-0.0-6.0-1.1","3","4","4","3","4","4","3","4","3","4","4","5","4","4","4","5","5","4","4","5","1","2","2","1","2","1","4","2","1","1","0","1","1","0","0","0","1","1","1","1","1","1","0","1","5","2","1","4","4","2","1","5","4","2","1","625294467993174016","陈","140","","","","","","","","","","","","","","","","","","","true","3","3","ability","1416","negative","无能","","","","","","","","","","","","","","","","",""
"null","","null","html-keyboard-response","63","216779","0.0-6.0-0.0-6.0-0.2","3","4","4","3","4","4","3","4","3","4","4","5","4","4","4","5","5","4","4","5","1","2","2","1","2","1","4","2","1","1","0","1","1","0","0","0","1","1","1","1","1","1","0","1","5","2","1","4","4","2","1","5","4","2","1","625294467993174016","陈","140","","","","","","","","","","","","","","","","","","","","","","","","","","","","","","","","","","","","","","","","","",""
"617","<p style=""color:rgb(150, 250, 100); font-size: 35px;"">他人的</p>","e","categorize-html","64","217400","0.0-6.0-0.0-6.0-1.2","3","4","4","3","4","4","3","4","3","4","4","5","4","4","4","5","5","4","4","5","1","2","2","1","2","1","4","2","1","1","0","1","1","0","0","0","1","1","1","1","1","1","0","1","5","2","1","4","4","2","1","5","4","2","1","625294467993174016","陈","140","","","","","","","","","","","","","","","","","","","true","3","3","ability","617","other","他人的","","","","","","","","","","","","","","","","",""
"null","","null","html-keyboard-response","65","217652","0.0-6.0-0.0-6.0-0.3","3","4","4","3","4","4","3","4","3","4","4","5","4","4","4","5","5","4","4","5","1","2","2","1","2","1","4","2","1","1","0","1","1","0","0","0","1","1","1","1","1","1","0","1","5","2","1","4","4","2","1","5","4","2","1","625294467993174016","陈","140","","","","","","","","","","","","","","","","","","","","","","","","","","","","","","","","","","","","","","","","","",""
"795","<p style=""color:white; font-size: 35px;"">全能</p>","i","categorize-html","66","218451","0.0-6.0-0.0-6.0-1.3","3","4","4","3","4","4","3","4","3","4","4","5","4","4","4","5","5","4","4","5","1","2","2","1","2","1","4","2","1","1","0","1","1","0","0","0","1","1","1","1","1","1","0","1","5","2","1","4","4","2","1","5","4","2","1","625294467993174016","陈","140","","","","","","","","","","","","","","","","","","","true","3","3","ability","795","positive","全能","","","","","","","","","","","","","","","","",""
"null","","null","html-keyboard-response","67","218702","0.0-6.0-0.0-6.0-0.4","3","4","4","3","4","4","3","4","3","4","4","5","4","4","4","5","5","4","4","5","1","2","2","1","2","1","4","2","1","1","0","1","1","0","0","0","1","1","1","1","1","1","0","1","5","2","1","4","4","2","1","5","4","2","1","625294467993174016","陈","140","","","","","","","","","","","","","","","","","","","","","","","","","","","","","","","","","","","","","","","","","",""
"890","<p style=""color:rgb(150, 250, 100); font-size: 35px;"">自己的</p>","i","categorize-html","68","219595","0.0-6.0-0.0-6.0-1.4","3","4","4","3","4","4","3","4","3","4","4","5","4","4","4","5","5","4","4","5","1","2","2","1","2","1","4","2","1","1","0","1","1","0","0","0","1","1","1","1","1","1","0","1","5","2","1","4","4","2","1","5","4","2","1","625294467993174016","陈","140","","","","","","","","","","","","","","","","","","","true","3","3","ability","890","self","自己的","","","","","","","","","","","","","","","","",""
"null","","null","html-keyboard-response","69","219847","0.0-6.0-0.0-6.0-0.5","3","4","4","3","4","4","3","4","3","4","4","5","4","4","4","5","5","4","4","5","1","2","2","1","2","1","4","2","1","1","0","1","1","0","0","0","1","1","1","1","1","1","0","1","5","2","1","4","4","2","1","5","4","2","1","625294467993174016","陈","140","","","","","","","","","","","","","","","","","","","","","","","","","","","","","","","","","","","","","","","","","",""
"1082","<p style=""color:white; font-size: 35px;"">天才</p>","i","categorize-html","70","220933","0.0-6.0-0.0-6.0-1.5","3","4","4","3","4","4","3","4","3","4","4","5","4","4","4","5","5","4","4","5","1","2","2","1","2","1","4","2","1","1","0","1","1","0","0","0","1","1","1","1","1","1","0","1","5","2","1","4","4","2","1","5","4","2","1","625294467993174016","陈","140","","","","","","","","","","","","","","","","","","","true","3","3","ability","1082","positive","天才","","","","","","","","","","","","","","","","",""
"null","","null","html-keyboard-response","71","221185","0.0-6.0-0.0-6.0-0.6","3","4","4","3","4","4","3","4","3","4","4","5","4","4","4","5","5","4","4","5","1","2","2","1","2","1","4","2","1","1","0","1","1","0","0","0","1","1","1","1","1","1","0","1","5","2","1","4","4","2","1","5","4","2","1","625294467993174016","陈","140","","","","","","","","","","","","","","","","","","","","","","","","","","","","","","","","","","","","","","","","","",""
"688","<p style=""color:rgb(150, 250, 100); font-size: 35px;"">他</p>","e","categorize-html","72","221875","0.0-6.0-0.0-6.0-1.6","3","4","4","3","4","4","3","4","3","4","4","5","4","4","4","5","5","4","4","5","1","2","2","1","2","1","4","2","1","1","0","1","1","0","0","0","1","1","1","1","1","1","0","1","5","2","1","4","4","2","1","5","4","2","1","625294467993174016","陈","140","","","","","","","","","","","","","","","","","","","true","3","3","ability","688","other","他","","","","","","","","","","","","","","","","",""
"null","","null","html-keyboard-response","73","222127","0.0-6.0-0.0-6.0-0.7","3","4","4","3","4","4","3","4","3","4","4","5","4","4","4","5","5","4","4","5","1","2","2","1","2","1","4","2","1","1","0","1","1","0","0","0","1","1","1","1","1","1","0","1","5","2","1","4","4","2","1","5","4","2","1","625294467993174016","陈","140","","","","","","","","","","","","","","","","","","","","","","","","","","","","","","","","","","","","","","","","","",""
"986","<p style=""color:white; font-size: 35px;"">蠢笨</p>","e","categorize-html","74","223115","0.0-6.0-0.0-6.0-1.7","3","4","4","3","4","4","3","4","3","4","4","5","4","4","4","5","5","4","4","5","1","2","2","1","2","1","4","2","1","1","0","1","1","0","0","0","1","1","1","1","1","1","0","1","5","2","1","4","4","2","1","5","4","2","1","625294467993174016","陈","140","","","","","","","","","","","","","","","","","","","true","3","3","ability","986","negative","蠢笨","","","","","","","","","","","","","","","","",""
"null","","null","html-keyboard-response","75","223368","0.0-6.0-0.0-6.0-0.8","3","4","4","3","4","4","3","4","3","4","4","5","4","4","4","5","5","4","4","5","1","2","2","1","2","1","4","2","1","1","0","1","1","0","0","0","1","1","1","1","1","1","0","1","5","2","1","4","4","2","1","5","4","2","1","625294467993174016","陈","140","","","","","","","","","","","","","","","","","","","","","","","","","","","","","","","","","","","","","","","","","",""
"713","<p style=""color:rgb(150, 250, 100); font-size: 35px;"">他的</p>","e","categorize-html","76","224084","0.0-6.0-0.0-6.0-1.8","3","4","4","3","4","4","3","4","3","4","4","5","4","4","4","5","5","4","4","5","1","2","2","1","2","1","4","2","1","1","0","1","1","0","0","0","1","1","1","1","1","1","0","1","5","2","1","4","4","2","1","5","4","2","1","625294467993174016","陈","140","","","","","","","","","","","","","","","","","","","true","3","3","ability","713","other","他的","","","","","","","","","","","","","","","","",""
"null","","null","html-keyboard-response","77","224336","0.0-6.0-0.0-6.0-0.9","3","4","4","3","4","4","3","4","3","4","4","5","4","4","4","5","5","4","4","5","1","2","2","1","2","1","4","2","1","1","0","1","1","0","0","0","1","1","1","1","1","1","0","1","5","2","1","4","4","2","1","5","4","2","1","625294467993174016","陈","140","","","","","","","","","","","","","","","","","","","","","","","","","","","","","","","","","","","","","","","","","",""
"696","<p style=""color:white; font-size: 35px;"">能干</p>","i","categorize-html","78","225034","0.0-6.0-0.0-6.0-1.9","3","4","4","3","4","4","3","4","3","4","4","5","4","4","4","5","5","4","4","5","1","2","2","1","2","1","4","2","1","1","0","1","1","0","0","0","1","1","1","1","1","1","0","1","5","2","1","4","4","2","1","5","4","2","1","625294467993174016","陈","140","","","","","","","","","","","","","","","","","","","true","3","3","ability","696","positive","能干","","","","","","","","","","","","","","","","",""
"null","","null","html-keyboard-response","79","225286","0.0-6.0-0.0-6.0-0.10","3","4","4","3","4","4","3","4","3","4","4","5","4","4","4","5","5","4","4","5","1","2","2","1","2","1","4","2","1","1","0","1","1","0","0","0","1","1","1","1","1","1","0","1","5","2","1","4","4","2","1","5","4","2","1","625294467993174016","陈","140","","","","","","","","","","","","","","","","","","","","","","","","","","","","","","","","","","","","","","","","","",""
"548","<p style=""color:rgb(150, 250, 100); font-size: 35px;"">我的</p>","i","categorize-html","80","225837","0.0-6.0-0.0-6.0-1.10","3","4","4","3","4","4","3","4","3","4","4","5","4","4","4","5","5","4","4","5","1","2","2","1","2","1","4","2","1","1","0","1","1","0","0","0","1","1","1","1","1","1","0","1","5","2","1","4","4","2","1","5","4","2","1","625294467993174016","陈","140","","","","","","","","","","","","","","","","","","","true","3","3","ability","548","self","我的","","","","","","","","","","","","","","","","",""
"null","","null","html-keyboard-response","81","226090","0.0-6.0-0.0-6.0-0.11","3","4","4","3","4","4","3","4","3","4","4","5","4","4","4","5","5","4","4","5","1","2","2","1","2","1","4","2","1","1","0","1","1","0","0","0","1","1","1","1","1","1","0","1","5","2","1","4","4","2","1","5","4","2","1","625294467993174016","陈","140","","","","","","","","","","","","","","","","","","","","","","","","","","","","","","","","","","","","","","","","","",""
"1236","<p style=""color:white; font-size: 35px;"">低能</p>","e","categorize-html","82","227328","0.0-6.0-0.0-6.0-1.11","3","4","4","3","4","4","3","4","3","4","4","5","4","4","4","5","5","4","4","5","1","2","2","1","2","1","4","2","1","1","0","1","1","0","0","0","1","1","1","1","1","1","0","1","5","2","1","4","4","2","1","5","4","2","1","625294467993174016","陈","140","","","","","","","","","","","","","","","","","","","true","3","3","ability","1236","negative","低能","","","","","","","","","","","","","","","","",""
"null","","null","html-keyboard-response","83","227579","0.0-6.0-0.0-6.0-0.12","3","4","4","3","4","4","3","4","3","4","4","5","4","4","4","5","5","4","4","5","1","2","2","1","2","1","4","2","1","1","0","1","1","0","0","0","1","1","1","1","1","1","0","1","5","2","1","4","4","2","1","5","4","2","1","625294467993174016","陈","140","","","","","","","","","","","","","","","","","","","","","","","","","","","","","","","","","","","","","","","","","",""
"880","<p style=""color:rgb(150, 250, 100); font-size: 35px;"">别人的</p>","e","categorize-html","84","228461","0.0-6.0-0.0-6.0-1.12","3","4","4","3","4","4","3","4","3","4","4","5","4","4","4","5","5","4","4","5","1","2","2","1","2","1","4","2","1","1","0","1","1","0","0","0","1","1","1","1","1","1","0","1","5","2","1","4","4","2","1","5","4","2","1","625294467993174016","陈","140","","","","","","","","","","","","","","","","","","","true","3","3","ability","880","other","别人的","","","","","","","","","","","","","","","","",""
"null","","null","html-keyboard-response","85","228713","0.0-6.0-0.0-6.0-0.13","3","4","4","3","4","4","3","4","3","4","4","5","4","4","4","5","5","4","4","5","1","2","2","1","2","1","4","2","1","1","0","1","1","0","0","0","1","1","1","1","1","1","0","1","5","2","1","4","4","2","1","5","4","2","1","625294467993174016","陈","140","","","","","","","","","","","","","","","","","","","","","","","","","","","","","","","","","","","","","","","","","",""
"621","<p style=""color:white; font-size: 35px;"">高效</p>","i","categorize-html","86","229338","0.0-6.0-0.0-6.0-1.13","3","4","4","3","4","4","3","4","3","4","4","5","4","4","4","5","5","4","4","5","1","2","2","1","2","1","4","2","1","1","0","1","1","0","0","0","1","1","1","1","1","1","0","1","5","2","1","4","4","2","1","5","4","2","1","625294467993174016","陈","140","","","","","","","","","","","","","","","","","","","true","3","3","ability","621","positive","高效","","","","","","","","","","","","","","","","",""
"null","","null","html-keyboard-response","87","229590","0.0-6.0-0.0-6.0-0.14","3","4","4","3","4","4","3","4","3","4","4","5","4","4","4","5","5","4","4","5","1","2","2","1","2","1","4","2","1","1","0","1","1","0","0","0","1","1","1","1","1","1","0","1","5","2","1","4","4","2","1","5","4","2","1","625294467993174016","陈","140","","","","","","","","","","","","","","","","","","","","","","","","","","","","","","","","","","","","","","","","","",""
"575","<p style=""color:rgb(150, 250, 100); font-size: 35px;"">我</p>","i","categorize-html","88","230168","0.0-6.0-0.0-6.0-1.14","3","4","4","3","4","4","3","4","3","4","4","5","4","4","4","5","5","4","4","5","1","2","2","1","2","1","4","2","1","1","0","1","1","0","0","0","1","1","1","1","1","1","0","1","5","2","1","4","4","2","1","5","4","2","1","625294467993174016","陈","140","","","","","","","","","","","","","","","","","","","true","3","3","ability","575","self","我","","","","","","","","","","","","","","","","",""
"null","","null","html-keyboard-response","89","230419","0.0-6.0-0.0-6.0-0.15","3","4","4","3","4","4","3","4","3","4","4","5","4","4","4","5","5","4","4","5","1","2","2","1","2","1","4","2","1","1","0","1","1","0","0","0","1","1","1","1","1","1","0","1","5","2","1","4","4","2","1","5","4","2","1","625294467993174016","陈","140","","","","","","","","","","","","","","","","","","","","","","","","","","","","","","","","","","","","","","","","","",""
"983","<p style=""color:white; font-size: 35px;"">愚钝</p>","e","categorize-html","90","231404","0.0-6.0-0.0-6.0-1.15","3","4","4","3","4","4","3","4","3","4","4","5","4","4","4","5","5","4","4","5","1","2","2","1","2","1","4","2","1","1","0","1","1","0","0","0","1","1","1","1","1","1","0","1","5","2","1","4","4","2","1","5","4","2","1","625294467993174016","陈","140","","","","","","","","","","","","","","","","","","","true","3","3","ability","983","negative","愚钝","","","","","","","","","","","","","","","","",""
"null","","null","html-keyboard-response","91","231655","0.0-6.0-0.0-6.0-0.16","3","4","4","3","4","4","3","4","3","4","4","5","4","4","4","5","5","4","4","5","1","2","2","1","2","1","4","2","1","1","0","1","1","0","0","0","1","1","1","1","1","1","0","1","5","2","1","4","4","2","1","5","4","2","1","625294467993174016","陈","140","","","","","","","","","","","","","","","","","","","","","","","","","","","","","","","","","","","","","","","","","",""
"584","<p style=""color:rgb(150, 250, 100); font-size: 35px;"">本人</p>","i","categorize-html","92","232243","0.0-6.0-0.0-6.0-1.16","3","4","4","3","4","4","3","4","3","4","4","5","4","4","4","5","5","4","4","5","1","2","2","1","2","1","4","2","1","1","0","1","1","0","0","0","1","1","1","1","1","1","0","1","5","2","1","4","4","2","1","5","4","2","1","625294467993174016","陈","140","","","","","","","","","","","","","","","","","","","true","3","3","ability","584","self","本人","","","","","","","","","","","","","","","","",""
"null","","null","html-keyboard-response","93","232495","0.0-6.0-0.0-6.0-0.17","3","4","4","3","4","4","3","4","3","4","4","5","4","4","4","5","5","4","4","5","1","2","2","1","2","1","4","2","1","1","0","1","1","0","0","0","1","1","1","1","1","1","0","1","5","2","1","4","4","2","1","5","4","2","1","625294467993174016","陈","140","","","","","","","","","","","","","","","","","","","","","","","","","","","","","","","","","","","","","","","","","",""
"1021","<p style=""color:white; font-size: 35px;"">拙笨</p>","e","categorize-html","94","233518","0.0-6.0-0.0-6.0-1.17","3","4","4","3","4","4","3","4","3","4","4","5","4","4","4","5","5","4","4","5","1","2","2","1","2","1","4","2","1","1","0","1","1","0","0","0","1","1","1","1","1","1","0","1","5","2","1","4","4","2","1","5","4","2","1","625294467993174016","陈","140","","","","","","","","","","","","","","","","","","","true","3","3","ability","1021","negative","拙笨","","","","","","","","","","","","","","","","",""
"null","","null","html-keyboard-response","95","233770","0.0-6.0-0.0-6.0-0.18","3","4","4","3","4","4","3","4","3","4","4","5","4","4","4","5","5","4","4","5","1","2","2","1","2","1","4","2","1","1","0","1","1","0","0","0","1","1","1","1","1","1","0","1","5","2","1","4","4","2","1","5","4","2","1","625294467993174016","陈","140","","","","","","","","","","","","","","","","","","","","","","","","","","","","","","","","","","","","","","","","","",""
"626","<p style=""color:rgb(150, 250, 100); font-size: 35px;"">他人</p>","e","categorize-html","96","234397","0.0-6.0-0.0-6.0-1.18","3","4","4","3","4","4","3","4","3","4","4","5","4","4","4","5","5","4","4","5","1","2","2","1","2","1","4","2","1","1","0","1","1","0","0","0","1","1","1","1","1","1","0","1","5","2","1","4","4","2","1","5","4","2","1","625294467993174016","陈","140","","","","","","","","","","","","","","","","","","","true","3","3","ability","626","other","他人","","","","","","","","","","","","","","","","",""
"null","","null","html-keyboard-response","97","234649","0.0-6.0-0.0-6.0-0.19","3","4","4","3","4","4","3","4","3","4","4","5","4","4","4","5","5","4","4","5","1","2","2","1","2","1","4","2","1","1","0","1","1","0","0","0","1","1","1","1","1","1","0","1","5","2","1","4","4","2","1","5","4","2","1","625294467993174016","陈","140","","","","","","","","","","","","","","","","","","","","","","","","","","","","","","","","","","","","","","","","","",""
"712","<p style=""color:white; font-size: 35px;"">全才</p>","i","categorize-html","98","235364","0.0-6.0-0.0-6.0-1.19","3","4","4","3","4","4","3","4","3","4","4","5","4","4","4","5","5","4","4","5","1","2","2","1","2","1","4","2","1","1","0","1","1","0","0","0","1","1","1","1","1","1","0","1","5","2","1","4","4","2","1","5","4","2","1","625294467993174016","陈","140","","","","","","","","","","","","","","","","","","","true","3","3","ability","712","positive","全才","","","","","","","","","","","","","","","","",""
"null","","null","html-keyboard-response","99","235615","0.0-6.0-0.0-6.0-0.20","3","4","4","3","4","4","3","4","3","4","4","5","4","4","4","5","5","4","4","5","1","2","2","1","2","1","4","2","1","1","0","1","1","0","0","0","1","1","1","1","1","1","0","1","5","2","1","4","4","2","1","5","4","2","1","625294467993174016","陈","140","","","","","","","","","","","","","","","","","","","","","","","","","","","","","","","","","","","","","","","","","",""
"1442","<p style=""color:rgb(150, 250, 100); font-size: 35px;"">别人</p>","e","categorize-html","100","237059","0.0-6.0-0.0-6.0-1.20","3","4","4","3","4","4","3","4","3","4","4","5","4","4","4","5","5","4","4","5","1","2","2","1","2","1","4","2","1","1","0","1","1","0","0","0","1","1","1","1","1","1","0","1","5","2","1","4","4","2","1","5","4","2","1","625294467993174016","陈","140","","","","","","","","","","","","","","","","","","","true","3","3","ability","1442","other","别人","","","","","","","","","","","","","","","","",""
"null","","null","html-keyboard-response","101","237313","0.0-6.0-0.0-6.0-0.21","3","4","4","3","4","4","3","4","3","4","4","5","4","4","4","5","5","4","4","5","1","2","2","1","2","1","4","2","1","1","0","1","1","0","0","0","1","1","1","1","1","1","0","1","5","2","1","4","4","2","1","5","4","2","1","625294467993174016","陈","140","","","","","","","","","","","","","","","","","","","","","","","","","","","","","","","","","","","","","","","","","",""
"1196","<p style=""color:white; font-size: 35px;"">废物</p>","e","categorize-html","102","238511","0.0-6.0-0.0-6.0-1.21","3","4","4","3","4","4","3","4","3","4","4","5","4","4","4","5","5","4","4","5","1","2","2","1","2","1","4","2","1","1","0","1","1","0","0","0","1","1","1","1","1","1","0","1","5","2","1","4","4","2","1","5","4","2","1","625294467993174016","陈","140","","","","","","","","","","","","","","","","","","","true","3","3","ability","1196","negative","废物","","","","","","","","","","","","","","","","",""
"null","","null","html-keyboard-response","103","238763","0.0-6.0-0.0-6.0-0.22","3","4","4","3","4","4","3","4","3","4","4","5","4","4","4","5","5","4","4","5","1","2","2","1","2","1","4","2","1","1","0","1","1","0","0","0","1","1","1","1","1","1","0","1","5","2","1","4","4","2","1","5","4","2","1","625294467993174016","陈","140","","","","","","","","","","","","","","","","","","","","","","","","","","","","","","","","","","","","","","","","","",""
"885","<p style=""color:rgb(150, 250, 100); font-size: 35px;"">自己</p>","i","categorize-html","104","239651","0.0-6.0-0.0-6.0-1.22","3","4","4","3","4","4","3","4","3","4","4","5","4","4","4","5","5","4","4","5","1","2","2","1","2","1","4","2","1","1","0","1","1","0","0","0","1","1","1","1","1","1","0","1","5","2","1","4","4","2","1","5","4","2","1","625294467993174016","陈","140","","","","","","","","","","","","","","","","","","","true","3","3","ability","885","self","自己","","","","","","","","","","","","","","","","",""
"null","","null","html-keyboard-response","105","239902","0.0-6.0-0.0-6.0-0.23","3","4","4","3","4","4","3","4","3","4","4","5","4","4","4","5","5","4","4","5","1","2","2","1","2","1","4","2","1","1","0","1","1","0","0","0","1","1","1","1","1","1","0","1","5","2","1","4","4","2","1","5","4","2","1","625294467993174016","陈","140","","","","","","","","","","","","","","","","","","","","","","","","","","","","","","","","","","","","","","","","","",""
"719","<p style=""color:white; font-size: 35px;"">精干</p>","i","categorize-html","106","240625","0.0-6.0-0.0-6.0-1.23","3","4","4","3","4","4","3","4","3","4","4","5","4","4","4","5","5","4","4","5","1","2","2","1","2","1","4","2","1","1","0","1","1","0","0","0","1","1","1","1","1","1","0","1","5","2","1","4","4","2","1","5","4","2","1","625294467993174016","陈","140","","","","","","","","","","","","","","","","","","","true","3","3","ability","719","positive","精干","","","","","","","","","","","","","","","","",""
"9468","
    <div class=""tag-bottom""><p>
    —— 任务4：对“他人/消极”词和“自我/积极”词分类 ——<p/>
    <span style=""color:#78DCE8""><b>与刚才的任务完全相同，请再次对这四类词语分类</b></span><p/>
    <span style=""color:#FFD866""><b>请根据上方标签的提示，尽可能正确并且快速地做出按键反应</b></span><p/>
    当按键错误时屏幕中会出现<span style=""color:red""> X </span>，需要按另一个键纠正才能继续<br/><p/>
    请把双手食指分别放在键盘的“E”键和“I”键上<p/>
    按<空格键>开始
    </p></div>"," ","html-keyboard-response","107","250094","0.0-6.0-0.0-7.0","3","4","4","3","4","4","3","4","3","4","4","5","4","4","4","5","5","4","4","5","1","2","2","1","2","1","4","2","1","1","0","1","1","0","0","0","1","1","1","1","1","1","0","1","5","2","1","4","4","2","1","5","4","2","1","625294467993174016","陈","140","","","","","","","","","","","","","","","","","","","","","","","","","","","","","","","","","","","","","","","","","",""
"null","","null","html-keyboard-response","108","250345","0.0-6.0-0.0-8.0-0.0","3","4","4","3","4","4","3","4","3","4","4","5","4","4","4","5","5","4","4","5","1","2","2","1","2","1","4","2","1","1","0","1","1","0","0","0","1","1","1","1","1","1","0","1","5","2","1","4","4","2","1","5","4","2","1","625294467993174016","陈","140","","","","","","","","","","","","","","","","","","","","","","","","","","","","","","","","","","","","","","","","","",""
"661","<p style=""color:rgb(150, 250, 100); font-size: 35px;"">他的</p>","e","categorize-html","109","251010","0.0-6.0-0.0-8.0-1.0","3","4","4","3","4","4","3","4","3","4","4","5","4","4","4","5","5","4","4","5","1","2","2","1","2","1","4","2","1","1","0","1","1","0","0","0","1","1","1","1","1","1","0","1","5","2","1","4","4","2","1","5","4","2","1","625294467993174016","陈","140","","","","","","","","","","","","","","","","","","","true","4","4","ability","661","other","他的","","","","","","","","","","","","","","","","",""
"null","","null","html-keyboard-response","110","251261","0.0-6.0-0.0-8.0-0.1","3","4","4","3","4","4","3","4","3","4","4","5","4","4","4","5","5","4","4","5","1","2","2","1","2","1","4","2","1","1","0","1","1","0","0","0","1","1","1","1","1","1","0","1","5","2","1","4","4","2","1","5","4","2","1","625294467993174016","陈","140","","","","","","","","","","","","","","","","","","","","","","","","","","","","","","","","","","","","","","","","","",""
"587","<p style=""color:white; font-size: 35px;"">全才</p>","i","categorize-html","111","251850","0.0-6.0-0.0-8.0-1.1","3","4","4","3","4","4","3","4","3","4","4","5","4","4","4","5","5","4","4","5","1","2","2","1","2","1","4","2","1","1","0","1","1","0","0","0","1","1","1","1","1","1","0","1","5","2","1","4","4","2","1","5","4","2","1","625294467993174016","陈","140","","","","","","","","","","","","","","","","","","","true","4","4","ability","587","positive","全才","","","","","","","","","","","","","","","","",""
"null","","null","html-keyboard-response","112","252101","0.0-6.0-0.0-8.0-0.2","3","4","4","3","4","4","3","4","3","4","4","5","4","4","4","5","5","4","4","5","1","2","2","1","2","1","4","2","1","1","0","1","1","0","0","0","1","1","1","1","1","1","0","1","5","2","1","4","4","2","1","5","4","2","1","625294467993174016","陈","140","","","","","","","","","","","","","","","","","","","","","","","","","","","","","","","","","","","","","","","","","",""
"548","<p style=""color:rgb(150, 250, 100); font-size: 35px;"">本人的</p>","i","categorize-html","113","252651","0.0-6.0-0.0-8.0-1.2","3","4","4","3","4","4","3","4","3","4","4","5","4","4","4","5","5","4","4","5","1","2","2","1","2","1","4","2","1","1","0","1","1","0","0","0","1","1","1","1","1","1","0","1","5","2","1","4","4","2","1","5","4","2","1","625294467993174016","陈","140","","","","","","","","","","","","","","","","","","","true","4","4","ability","548","self","本人的","","","","","","","","","","","","","","","","",""
"null","","null","html-keyboard-response","114","252903","0.0-6.0-0.0-8.0-0.3","3","4","4","3","4","4","3","4","3","4","4","5","4","4","4","5","5","4","4","5","1","2","2","1","2","1","4","2","1","1","0","1","1","0","0","0","1","1","1","1","1","1","0","1","5","2","1","4","4","2","1","5","4","2","1","625294467993174016","陈","140","","","","","","","","","","","","","","","","","","","","","","","","","","","","","","","","","","","","","","","","","",""
"940","<p style=""color:white; font-size: 35px;"">废物</p>","e","categorize-html","115","253846","0.0-6.0-0.0-8.0-1.3","3","4","4","3","4","4","3","4","3","4","4","5","4","4","4","5","5","4","4","5","1","2","2","1","2","1","4","2","1","1","0","1","1","0","0","0","1","1","1","1","1","1","0","1","5","2","1","4","4","2","1","5","4","2","1","625294467993174016","陈","140","","","","","","","","","","","","","","","","","","","true","4","4","ability","940","negative","废物","","","","","","","","","","","","","","","","",""
"null","","null","html-keyboard-response","116","254097","0.0-6.0-0.0-8.0-0.4","3","4","4","3","4","4","3","4","3","4","4","5","4","4","4","5","5","4","4","5","1","2","2","1","2","1","4","2","1","1","0","1","1","0","0","0","1","1","1","1","1","1","0","1","5","2","1","4","4","2","1","5","4","2","1","625294467993174016","陈","140","","","","","","","","","","","","","","","","","","","","","","","","","","","","","","","","","","","","","","","","","",""
"802","<p style=""color:rgb(150, 250, 100); font-size: 35px;"">他</p>","e","categorize-html","117","254900","0.0-6.0-0.0-8.0-1.4","3","4","4","3","4","4","3","4","3","4","4","5","4","4","4","5","5","4","4","5","1","2","2","1","2","1","4","2","1","1","0","1","1","0","0","0","1","1","1","1","1","1","0","1","5","2","1","4","4","2","1","5","4","2","1","625294467993174016","陈","140","","","","","","","","","","","","","","","","","","","true","4","4","ability","802","other","他","","","","","","","","","","","","","","","","",""
"null","","null","html-keyboard-response","118","255154","0.0-6.0-0.0-8.0-0.5","3","4","4","3","4","4","3","4","3","4","4","5","4","4","4","5","5","4","4","5","1","2","2","1","2","1","4","2","1","1","0","1","1","0","0","0","1","1","1","1","1","1","0","1","5","2","1","4","4","2","1","5","4","2","1","625294467993174016","陈","140","","","","","","","","","","","","","","","","","","","","","","","","","","","","","","","","","","","","","","","","","",""
"853","<p style=""color:white; font-size: 35px;"">天才</p>","i","categorize-html","119","256010","0.0-6.0-0.0-8.0-1.5","3","4","4","3","4","4","3","4","3","4","4","5","4","4","4","5","5","4","4","5","1","2","2","1","2","1","4","2","1","1","0","1","1","0","0","0","1","1","1","1","1","1","0","1","5","2","1","4","4","2","1","5","4","2","1","625294467993174016","陈","140","","","","","","","","","","","","","","","","","","","true","4","4","ability","853","positive","天才","","","","","","","","","","","","","","","","",""
"null","","null","html-keyboard-response","120","256262","0.0-6.0-0.0-8.0-0.6","3","4","4","3","4","4","3","4","3","4","4","5","4","4","4","5","5","4","4","5","1","2","2","1","2","1","4","2","1","1","0","1","1","0","0","0","1","1","1","1","1","1","0","1","5","2","1","4","4","2","1","5","4","2","1","625294467993174016","陈","140","","","","","","","","","","","","","","","","","","","","","","","","","","","","","","","","","","","","","","","","","",""
"709","<p style=""color:rgb(150, 250, 100); font-size: 35px;"">本人的</p>","i","categorize-html","121","256974","0.0-6.0-0.0-8.0-1.6","3","4","4","3","4","4","3","4","3","4","4","5","4","4","4","5","5","4","4","5","1","2","2","1","2","1","4","2","1","1","0","1","1","0","0","0","1","1","1","1","1","1","0","1","5","2","1","4","4","2","1","5","4","2","1","625294467993174016","陈","140","","","","","","","","","","","","","","","","","","","true","4","4","ability","709","self","本人的","","","","","","","","","","","","","","","","",""
"null","","null","html-keyboard-response","122","257225","0.0-6.0-0.0-8.0-0.7","3","4","4","3","4","4","3","4","3","4","4","5","4","4","4","5","5","4","4","5","1","2","2","1","2","1","4","2","1","1","0","1","1","0","0","0","1","1","1","1","1","1","0","1","5","2","1","4","4","2","1","5","4","2","1","625294467993174016","陈","140","","","","","","","","","","","","","","","","","","","","","","","","","","","","","","","","","","","","","","","","","",""
"999","<p style=""color:white; font-size: 35px;"">无能</p>","e","categorize-html","123","258227","0.0-6.0-0.0-8.0-1.7","3","4","4","3","4","4","3","4","3","4","4","5","4","4","4","5","5","4","4","5","1","2","2","1","2","1","4","2","1","1","0","1","1","0","0","0","1","1","1","1","1","1","0","1","5","2","1","4","4","2","1","5","4","2","1","625294467993174016","陈","140","","","","","","","","","","","","","","","","","","","true","4","4","ability","999","negative","无能","","","","","","","","","","","","","","","","",""
"null","","null","html-keyboard-response","124","258479","0.0-6.0-0.0-8.0-0.8","3","4","4","3","4","4","3","4","3","4","4","5","4","4","4","5","5","4","4","5","1","2","2","1","2","1","4","2","1","1","0","1","1","0","0","0","1","1","1","1","1","1","0","1","5","2","1","4","4","2","1","5","4","2","1","625294467993174016","陈","140","","","","","","","","","","","","","","","","","","","","","","","","","","","","","","","","","","","","","","","","","",""
"691","<p style=""color:rgb(150, 250, 100); font-size: 35px;"">他人的</p>","e","categorize-html","125","259173","0.0-6.0-0.0-8.0-1.8","3","4","4","3","4","4","3","4","3","4","4","5","4","4","4","5","5","4","4","5","1","2","2","1","2","1","4","2","1","1","0","1","1","0","0","0","1","1","1","1","1","1","0","1","5","2","1","4","4","2","1","5","4","2","1","625294467993174016","陈","140","","","","","","","","","","","","","","","","","","","true","4","4","ability","691","other","他人的","","","","","","","","","","","","","","","","",""
"null","","null","html-keyboard-response","126","259425","0.0-6.0-0.0-8.0-0.9","3","4","4","3","4","4","3","4","3","4","4","5","4","4","4","5","5","4","4","5","1","2","2","1","2","1","4","2","1","1","0","1","1","0","0","0","1","1","1","1","1","1","0","1","5","2","1","4","4","2","1","5","4","2","1","625294467993174016","陈","140","","","","","","","","","","","","","","","","","","","","","","","","","","","","","","","","","","","","","","","","","",""
"709","<p style=""color:white; font-size: 35px;"">能干</p>","i","categorize-html","127","260137","0.0-6.0-0.0-8.0-1.9","3","4","4","3","4","4","3","4","3","4","4","5","4","4","4","5","5","4","4","5","1","2","2","1","2","1","4","2","1","1","0","1","1","0","0","0","1","1","1","1","1","1","0","1","5","2","1","4","4","2","1","5","4","2","1","625294467993174016","陈","140","","","","","","","","","","","","","","","","","","","true","4","4","ability","709","positive","能干","","","","","","","","","","","","","","","","",""
"null","","null","html-keyboard-response","128","260389","0.0-6.0-0.0-8.0-0.10","3","4","4","3","4","4","3","4","3","4","4","5","4","4","4","5","5","4","4","5","1","2","2","1","2","1","4","2","1","1","0","1","1","0","0","0","1","1","1","1","1","1","0","1","5","2","1","4","4","2","1","5","4","2","1","625294467993174016","陈","140","","","","","","","","","","","","","","","","","","","","","","","","","","","","","","","","","","","","","","","","","",""
"585","<p style=""color:rgb(150, 250, 100); font-size: 35px;"">自己</p>","i","categorize-html","129","260977","0.0-6.0-0.0-8.0-1.10","3","4","4","3","4","4","3","4","3","4","4","5","4","4","4","5","5","4","4","5","1","2","2","1","2","1","4","2","1","1","0","1","1","0","0","0","1","1","1","1","1","1","0","1","5","2","1","4","4","2","1","5","4","2","1","625294467993174016","陈","140","","","","","","","","","","","","","","","","","","","true","4","4","ability","585","self","自己","","","","","","","","","","","","","","","","",""
"null","","null","html-keyboard-response","130","261229","0.0-6.0-0.0-8.0-0.11","3","4","4","3","4","4","3","4","3","4","4","5","4","4","4","5","5","4","4","5","1","2","2","1","2","1","4","2","1","1","0","1","1","0","0","0","1","1","1","1","1","1","0","1","5","2","1","4","4","2","1","5","4","2","1","625294467993174016","陈","140","","","","","","","","","","","","","","","","","","","","","","","","","","","","","","","","","","","","","","","","","",""
"577","<p style=""color:white; font-size: 35px;"">废物</p>","e","categorize-html","131","261808","0.0-6.0-0.0-8.0-1.11","3","4","4","3","4","4","3","4","3","4","4","5","4","4","4","5","5","4","4","5","1","2","2","1","2","1","4","2","1","1","0","1","1","0","0","0","1","1","1","1","1","1","0","1","5","2","1","4","4","2","1","5","4","2","1","625294467993174016","陈","140","","","","","","","","","","","","","","","","","","","true","4","4","ability","577","negative","废物","","","","","","","","","","","","","","","","",""
"null","","null","html-keyboard-response","132","262061","0.0-6.0-0.0-8.0-0.12","3","4","4","3","4","4","3","4","3","4","4","5","4","4","4","5","5","4","4","5","1","2","2","1","2","1","4","2","1","1","0","1","1","0","0","0","1","1","1","1","1","1","0","1","5","2","1","4","4","2","1","5","4","2","1","625294467993174016","陈","140","","","","","","","","","","","","","","","","","","","","","","","","","","","","","","","","","","","","","","","","","",""
"764","<p style=""color:rgb(150, 250, 100); font-size: 35px;"">别人</p>","e","categorize-html","133","262827","0.0-6.0-0.0-8.0-1.12","3","4","4","3","4","4","3","4","3","4","4","5","4","4","4","5","5","4","4","5","1","2","2","1","2","1","4","2","1","1","0","1","1","0","0","0","1","1","1","1","1","1","0","1","5","2","1","4","4","2","1","5","4","2","1","625294467993174016","陈","140","","","","","","","","","","","","","","","","","","","true","4","4","ability","764","other","别人","","","","","","","","","","","","","","","","",""
"null","","null","html-keyboard-response","134","263078","0.0-6.0-0.0-8.0-0.13","3","4","4","3","4","4","3","4","3","4","4","5","4","4","4","5","5","4","4","5","1","2","2","1","2","1","4","2","1","1","0","1","1","0","0","0","1","1","1","1","1","1","0","1","5","2","1","4","4","2","1","5","4","2","1","625294467993174016","陈","140","","","","","","","","","","","","","","","","","","","","","","","","","","","","","","","","","","","","","","","","","",""
"1022","<p style=""color:white; font-size: 35px;"">能干</p>","i","categorize-html","135","264103","0.0-6.0-0.0-8.0-1.13","3","4","4","3","4","4","3","4","3","4","4","5","4","4","4","5","5","4","4","5","1","2","2","1","2","1","4","2","1","1","0","1","1","0","0","0","1","1","1","1","1","1","0","1","5","2","1","4","4","2","1","5","4","2","1","625294467993174016","陈","140","","","","","","","","","","","","","","","","","","","true","4","4","ability","1022","positive","能干","","","","","","","","","","","","","","","","",""
"null","","null","html-keyboard-response","136","264355","0.0-6.0-0.0-8.0-0.14","3","4","4","3","4","4","3","4","3","4","4","5","4","4","4","5","5","4","4","5","1","2","2","1","2","1","4","2","1","1","0","1","1","0","0","0","1","1","1","1","1","1","0","1","5","2","1","4","4","2","1","5","4","2","1","625294467993174016","陈","140","","","","","","","","","","","","","","","","","","","","","","","","","","","","","","","","","","","","","","","","","",""
"619","<p style=""color:rgb(150, 250, 100); font-size: 35px;"">我</p>","i","categorize-html","137","264977","0.0-6.0-0.0-8.0-1.14","3","4","4","3","4","4","3","4","3","4","4","5","4","4","4","5","5","4","4","5","1","2","2","1","2","1","4","2","1","1","0","1","1","0","0","0","1","1","1","1","1","1","0","1","5","2","1","4","4","2","1","5","4","2","1","625294467993174016","陈","140","","","","","","","","","","","","","","","","","","","true","4","4","ability","619","self","我","","","","","","","","","","","","","","","","",""
"null","","null","html-keyboard-response","138","265228","0.0-6.0-0.0-8.0-0.15","3","4","4","3","4","4","3","4","3","4","4","5","4","4","4","5","5","4","4","5","1","2","2","1","2","1","4","2","1","1","0","1","1","0","0","0","1","1","1","1","1","1","0","1","5","2","1","4","4","2","1","5","4","2","1","625294467993174016","陈","140","","","","","","","","","","","","","","","","","","","","","","","","","","","","","","","","","","","","","","","","","",""
"1333","<p style=""color:white; font-size: 35px;"">拙笨</p>","e","categorize-html","139","266564","0.0-6.0-0.0-8.0-1.15","3","4","4","3","4","4","3","4","3","4","4","5","4","4","4","5","5","4","4","5","1","2","2","1","2","1","4","2","1","1","0","1","1","0","0","0","1","1","1","1","1","1","0","1","5","2","1","4","4","2","1","5","4","2","1","625294467993174016","陈","140","","","","","","","","","","","","","","","","","","","true","4","4","ability","1333","negative","拙笨","","","","","","","","","","","","","","","","",""
"null","","null","html-keyboard-response","140","266815","0.0-6.0-0.0-8.0-0.16","3","4","4","3","4","4","3","4","3","4","4","5","4","4","4","5","5","4","4","5","1","2","2","1","2","1","4","2","1","1","0","1","1","0","0","0","1","1","1","1","1","1","0","1","5","2","1","4","4","2","1","5","4","2","1","625294467993174016","陈","140","","","","","","","","","","","","","","","","","","","","","","","","","","","","","","","","","","","","","","","","","",""
"940","<p style=""color:rgb(150, 250, 100); font-size: 35px;"">自己的</p>","i","categorize-html","141","267758","0.0-6.0-0.0-8.0-1.16","3","4","4","3","4","4","3","4","3","4","4","5","4","4","4","5","5","4","4","5","1","2","2","1","2","1","4","2","1","1","0","1","1","0","0","0","1","1","1","1","1","1","0","1","5","2","1","4","4","2","1","5","4","2","1","625294467993174016","陈","140","","","","","","","","","","","","","","","","","","","true","4","4","ability","940","self","自己的","","","","","","","","","","","","","","","","",""
"null","","null","html-keyboard-response","142","268010","0.0-6.0-0.0-8.0-0.17","3","4","4","3","4","4","3","4","3","4","4","5","4","4","4","5","5","4","4","5","1","2","2","1","2","1","4","2","1","1","0","1","1","0","0","0","1","1","1","1","1","1","0","1","5","2","1","4","4","2","1","5","4","2","1","625294467993174016","陈","140","","","","","","","","","","","","","","","","","","","","","","","","","","","","","","","","","","","","","","","","","",""
"2209","<p style=""color:white; font-size: 35px;"">全才</p>","i","categorize-html","143","270221","0.0-6.0-0.0-8.0-1.17","3","4","4","3","4","4","3","4","3","4","4","5","4","4","4","5","5","4","4","5","1","2","2","1","2","1","4","2","1","1","0","1","1","0","0","0","1","1","1","1","1","1","0","1","5","2","1","4","4","2","1","5","4","2","1","625294467993174016","陈","140","","","","","","","","","","","","","","","","","","","true","4","4","ability","2209","positive","全才","","","","","","","","","","","","","","","","",""
"null","","null","html-keyboard-response","144","270485","0.0-6.0-0.0-8.0-0.18","3","4","4","3","4","4","3","4","3","4","4","5","4","4","4","5","5","4","4","5","1","2","2","1","2","1","4","2","1","1","0","1","1","0","0","0","1","1","1","1","1","1","0","1","5","2","1","4","4","2","1","5","4","2","1","625294467993174016","陈","140","","","","","","","","","","","","","","","","","","","","","","","","","","","","","","","","","","","","","","","","","",""
"719","<p style=""color:rgb(150, 250, 100); font-size: 35px;"">别人的</p>","e","categorize-html","145","271206","0.0-6.0-0.0-8.0-1.18","3","4","4","3","4","4","3","4","3","4","4","5","4","4","4","5","5","4","4","5","1","2","2","1","2","1","4","2","1","1","0","1","1","0","0","0","1","1","1","1","1","1","0","1","5","2","1","4","4","2","1","5","4","2","1","625294467993174016","陈","140","","","","","","","","","","","","","","","","","","","true","4","4","ability","719","other","别人的","","","","","","","","","","","","","","","","",""
"null","","null","html-keyboard-response","146","271458","0.0-6.0-0.0-8.0-0.19","3","4","4","3","4","4","3","4","3","4","4","5","4","4","4","5","5","4","4","5","1","2","2","1","2","1","4","2","1","1","0","1","1","0","0","0","1","1","1","1","1","1","0","1","5","2","1","4","4","2","1","5","4","2","1","625294467993174016","陈","140","","","","","","","","","","","","","","","","","","","","","","","","","","","","","","","","","","","","","","","","","",""
"1761","<p style=""color:white; font-size: 35px;"">无能</p>","e","categorize-html","147","273222","0.0-6.0-0.0-8.0-1.19","3","4","4","3","4","4","3","4","3","4","4","5","4","4","4","5","5","4","4","5","1","2","2","1","2","1","4","2","1","1","0","1","1","0","0","0","1","1","1","1","1","1","0","1","5","2","1","4","4","2","1","5","4","2","1","625294467993174016","陈","140","","","","","","","","","","","","","","","","","","","true","4","4","ability","1761","negative","无能","","","","","","","","","","","","","","","","",""
"null","","null","html-keyboard-response","148","273473","0.0-6.0-0.0-8.0-0.20","3","4","4","3","4","4","3","4","3","4","4","5","4","4","4","5","5","4","4","5","1","2","2","1","2","1","4","2","1","1","0","1","1","0","0","0","1","1","1","1","1","1","0","1","5","2","1","4","4","2","1","5","4","2","1","625294467993174016","陈","140","","","","","","","","","","","","","","","","","","","","","","","","","","","","","","","","","","","","","","","","","",""
"781","<p style=""color:rgb(150, 250, 100); font-size: 35px;"">自己的</p>","i","categorize-html","149","274256","0.0-6.0-0.0-8.0-1.20","3","4","4","3","4","4","3","4","3","4","4","5","4","4","4","5","5","4","4","5","1","2","2","1","2","1","4","2","1","1","0","1","1","0","0","0","1","1","1","1","1","1","0","1","5","2","1","4","4","2","1","5","4","2","1","625294467993174016","陈","140","","","","","","","","","","","","","","","","","","","true","4","4","ability","781","self","自己的","","","","","","","","","","","","","","","","",""
"null","","null","html-keyboard-response","150","274508","0.0-6.0-0.0-8.0-0.21","3","4","4","3","4","4","3","4","3","4","4","5","4","4","4","5","5","4","4","5","1","2","2","1","2","1","4","2","1","1","0","1","1","0","0","0","1","1","1","1","1","1","0","1","5","2","1","4","4","2","1","5","4","2","1","625294467993174016","陈","140","","","","","","","","","","","","","","","","","","","","","","","","","","","","","","","","","","","","","","","","","",""
"1005","<p style=""color:white; font-size: 35px;"">全能</p>","i","categorize-html","151","275515","0.0-6.0-0.0-8.0-1.21","3","4","4","3","4","4","3","4","3","4","4","5","4","4","4","5","5","4","4","5","1","2","2","1","2","1","4","2","1","1","0","1","1","0","0","0","1","1","1","1","1","1","0","1","5","2","1","4","4","2","1","5","4","2","1","625294467993174016","陈","140","","","","","","","","","","","","","","","","","","","true","4","4","ability","1005","positive","全能","","","","","","","","","","","","","","","","",""
"null","","null","html-keyboard-response","152","275768","0.0-6.0-0.0-8.0-0.22","3","4","4","3","4","4","3","4","3","4","4","5","4","4","4","5","5","4","4","5","1","2","2","1","2","1","4","2","1","1","0","1","1","0","0","0","1","1","1","1","1","1","0","1","5","2","1","4","4","2","1","5","4","2","1","625294467993174016","陈","140","","","","","","","","","","","","","","","","","","","","","","","","","","","","","","","","","","","","","","","","","",""
"961","<p style=""color:rgb(150, 250, 100); font-size: 35px;"">别人</p>","e","categorize-html","153","276731","0.0-6.0-0.0-8.0-1.22","3","4","4","3","4","4","3","4","3","4","4","5","4","4","4","5","5","4","4","5","1","2","2","1","2","1","4","2","1","1","0","1","1","0","0","0","1","1","1","1","1","1","0","1","5","2","1","4","4","2","1","5","4","2","1","625294467993174016","陈","140","","","","","","","","","","","","","","","","","","","true","4","4","ability","961","other","别人","","","","","","","","","","","","","","","","",""
"null","","null","html-keyboard-response","154","276982","0.0-6.0-0.0-8.0-0.23","3","4","4","3","4","4","3","4","3","4","4","5","4","4","4","5","5","4","4","5","1","2","2","1","2","1","4","2","1","1","0","1","1","0","0","0","1","1","1","1","1","1","0","1","5","2","1","4","4","2","1","5","4","2","1","625294467993174016","陈","140","","","","","","","","","","","","","","","","","","","","","","","","","","","","","","","","","","","","","","","","","",""
"895","<p style=""color:white; font-size: 35px;"">蠢笨</p>","e","categorize-html","155","277880","0.0-6.0-0.0-8.0-1.23","3","4","4","3","4","4","3","4","3","4","4","5","4","4","4","5","5","4","4","5","1","2","2","1","2","1","4","2","1","1","0","1","1","0","0","0","1","1","1","1","1","1","0","1","5","2","1","4","4","2","1","5","4","2","1","625294467993174016","陈","140","","","","","","","","","","","","","","","","","","","true","4","4","ability","895","negative","蠢笨","","","","","","","","","","","","","","","","",""
"null","","null","html-keyboard-response","156","278135","0.0-6.0-0.0-8.0-0.24","3","4","4","3","4","4","3","4","3","4","4","5","4","4","4","5","5","4","4","5","1","2","2","1","2","1","4","2","1","1","0","1","1","0","0","0","1","1","1","1","1","1","0","1","5","2","1","4","4","2","1","5","4","2","1","625294467993174016","陈","140","","","","","","","","","","","","","","","","","","","","","","","","","","","","","","","","","","","","","","","","","",""
"560","<p style=""color:rgb(150, 250, 100); font-size: 35px;"">我</p>","i","categorize-html","157","278698","0.0-6.0-0.0-8.0-1.24","3","4","4","3","4","4","3","4","3","4","4","5","4","4","4","5","5","4","4","5","1","2","2","1","2","1","4","2","1","1","0","1","1","0","0","0","1","1","1","1","1","1","0","1","5","2","1","4","4","2","1","5","4","2","1","625294467993174016","陈","140","","","","","","","","","","","","","","","","","","","true","4","4","ability","560","self","我","","","","","","","","","","","","","","","","",""
"null","","null","html-keyboard-response","158","278950","0.0-6.0-0.0-8.0-0.25","3","4","4","3","4","4","3","4","3","4","4","5","4","4","4","5","5","4","4","5","1","2","2","1","2","1","4","2","1","1","0","1","1","0","0","0","1","1","1","1","1","1","0","1","5","2","1","4","4","2","1","5","4","2","1","625294467993174016","陈","140","","","","","","","","","","","","","","","","","","","","","","","","","","","","","","","","","","","","","","","","","",""
"1044","<p style=""color:white; font-size: 35px;"">蠢笨</p>","e","categorize-html","159","279997","0.0-6.0-0.0-8.0-1.25","3","4","4","3","4","4","3","4","3","4","4","5","4","4","4","5","5","4","4","5","1","2","2","1","2","1","4","2","1","1","0","1","1","0","0","0","1","1","1","1","1","1","0","1","5","2","1","4","4","2","1","5","4","2","1","625294467993174016","陈","140","","","","","","","","","","","","","","","","","","","true","4","4","ability","1044","negative","蠢笨","","","","","","","","","","","","","","","","",""
"null","","null","html-keyboard-response","160","280248","0.0-6.0-0.0-8.0-0.26","3","4","4","3","4","4","3","4","3","4","4","5","4","4","4","5","5","4","4","5","1","2","2","1","2","1","4","2","1","1","0","1","1","0","0","0","1","1","1","1","1","1","0","1","5","2","1","4","4","2","1","5","4","2","1","625294467993174016","陈","140","","","","","","","","","","","","","","","","","","","","","","","","","","","","","","","","","","","","","","","","","",""
"1453","<p style=""color:rgb(150, 250, 100); font-size: 35px;"">他人的</p>","e","categorize-html","161","281703","0.0-6.0-0.0-8.0-1.26","3","4","4","3","4","4","3","4","3","4","4","5","4","4","4","5","5","4","4","5","1","2","2","1","2","1","4","2","1","1","0","1","1","0","0","0","1","1","1","1","1","1","0","1","5","2","1","4","4","2","1","5","4","2","1","625294467993174016","陈","140","","","","","","","","","","","","","","","","","","","true","4","4","ability","1453","other","他人的","","","","","","","","","","","","","","","","",""
"null","","null","html-keyboard-response","162","281955","0.0-6.0-0.0-8.0-0.27","3","4","4","3","4","4","3","4","3","4","4","5","4","4","4","5","5","4","4","5","1","2","2","1","2","1","4","2","1","1","0","1","1","0","0","0","1","1","1","1","1","1","0","1","5","2","1","4","4","2","1","5","4","2","1","625294467993174016","陈","140","","","","","","","","","","","","","","","","","","","","","","","","","","","","","","","","","","","","","","","","","",""
"1038","<p style=""color:white; font-size: 35px;"">高效</p>","i","categorize-html","163","282995","0.0-6.0-0.0-8.0-1.27","3","4","4","3","4","4","3","4","3","4","4","5","4","4","4","5","5","4","4","5","1","2","2","1","2","1","4","2","1","1","0","1","1","0","0","0","1","1","1","1","1","1","0","1","5","2","1","4","4","2","1","5","4","2","1","625294467993174016","陈","140","","","","","","","","","","","","","","","","","","","true","4","4","ability","1038","positive","高效","","","","","","","","","","","","","","","","",""
"null","","null","html-keyboard-response","164","283247","0.0-6.0-0.0-8.0-0.28","3","4","4","3","4","4","3","4","3","4","4","5","4","4","4","5","5","4","4","5","1","2","2","1","2","1","4","2","1","1","0","1","1","0","0","0","1","1","1","1","1","1","0","1","5","2","1","4","4","2","1","5","4","2","1","625294467993174016","陈","140","","","","","","","","","","","","","","","","","","","","","","","","","","","","","","","","","","","","","","","","","",""
"680","<p style=""color:rgb(150, 250, 100); font-size: 35px;"">自己</p>","i","categorize-html","165","283930","0.0-6.0-0.0-8.0-1.28","3","4","4","3","4","4","3","4","3","4","4","5","4","4","4","5","5","4","4","5","1","2","2","1","2","1","4","2","1","1","0","1","1","0","0","0","1","1","1","1","1","1","0","1","5","2","1","4","4","2","1","5","4","2","1","625294467993174016","陈","140","","","","","","","","","","","","","","","","","","","true","4","4","ability","680","self","自己","","","","","","","","","","","","","","","","",""
"null","","null","html-keyboard-response","166","284181","0.0-6.0-0.0-8.0-0.29","3","4","4","3","4","4","3","4","3","4","4","5","4","4","4","5","5","4","4","5","1","2","2","1","2","1","4","2","1","1","0","1","1","0","0","0","1","1","1","1","1","1","0","1","5","2","1","4","4","2","1","5","4","2","1","625294467993174016","陈","140","","","","","","","","","","","","","","","","","","","","","","","","","","","","","","","","","","","","","","","","","",""
"1581","<p style=""color:white; font-size: 35px;"">精干</p>","i","categorize-html","167","285764","0.0-6.0-0.0-8.0-1.29","3","4","4","3","4","4","3","4","3","4","4","5","4","4","4","5","5","4","4","5","1","2","2","1","2","1","4","2","1","1","0","1","1","0","0","0","1","1","1","1","1","1","0","1","5","2","1","4","4","2","1","5","4","2","1","625294467993174016","陈","140","","","","","","","","","","","","","","","","","","","true","4","4","ability","1581","positive","精干","","","","","","","","","","","","","","","","",""
"null","","null","html-keyboard-response","168","286016","0.0-6.0-0.0-8.0-0.30","3","4","4","3","4","4","3","4","3","4","4","5","4","4","4","5","5","4","4","5","1","2","2","1","2","1","4","2","1","1","0","1","1","0","0","0","1","1","1","1","1","1","0","1","5","2","1","4","4","2","1","5","4","2","1","625294467993174016","陈","140","","","","","","","","","","","","","","","","","","","","","","","","","","","","","","","","","","","","","","","","","",""
"593","<p style=""color:rgb(150, 250, 100); font-size: 35px;"">他的</p>","e","categorize-html","169","286611","0.0-6.0-0.0-8.0-1.30","3","4","4","3","4","4","3","4","3","4","4","5","4","4","4","5","5","4","4","5","1","2","2","1","2","1","4","2","1","1","0","1","1","0","0","0","1","1","1","1","1","1","0","1","5","2","1","4","4","2","1","5","4","2","1","625294467993174016","陈","140","","","","","","","","","","","","","","","","","","","true","4","4","ability","593","other","他的","","","","","","","","","","","","","","","","",""
"null","","null","html-keyboard-response","170","286862","0.0-6.0-0.0-8.0-0.31","3","4","4","3","4","4","3","4","3","4","4","5","4","4","4","5","5","4","4","5","1","2","2","1","2","1","4","2","1","1","0","1","1","0","0","0","1","1","1","1","1","1","0","1","5","2","1","4","4","2","1","5","4","2","1","625294467993174016","陈","140","","","","","","","","","","","","","","","","","","","","","","","","","","","","","","","","","","","","","","","","","",""
"4062","<p style=""color:white; font-size: 35px;"">低能</p>","e","categorize-html","171","290926","0.0-6.0-0.0-8.0-1.31","3","4","4","3","4","4","3","4","3","4","4","5","4","4","4","5","5","4","4","5","1","2","2","1","2","1","4","2","1","1","0","1","1","0","0","0","1","1","1","1","1","1","0","1","5","2","1","4","4","2","1","5","4","2","1","625294467993174016","陈","140","","","","","","","","","","","","","","","","","","","true","4","4","ability","4062","negative","低能","","","","","","","","","","","","","","","","",""
"null","","null","html-keyboard-response","172","291177","0.0-6.0-0.0-8.0-0.32","3","4","4","3","4","4","3","4","3","4","4","5","4","4","4","5","5","4","4","5","1","2","2","1","2","1","4","2","1","1","0","1","1","0","0","0","1","1","1","1","1","1","0","1","5","2","1","4","4","2","1","5","4","2","1","625294467993174016","陈","140","","","","","","","","","","","","","","","","","","","","","","","","","","","","","","","","","","","","","","","","","",""
"800","<p style=""color:rgb(150, 250, 100); font-size: 35px;"">我的</p>","i","categorize-html","173","291980","0.0-6.0-0.0-8.0-1.32","3","4","4","3","4","4","3","4","3","4","4","5","4","4","4","5","5","4","4","5","1","2","2","1","2","1","4","2","1","1","0","1","1","0","0","0","1","1","1","1","1","1","0","1","5","2","1","4","4","2","1","5","4","2","1","625294467993174016","陈","140","","","","","","","","","","","","","","","","","","","true","4","4","ability","800","self","我的","","","","","","","","","","","","","","","","",""
"null","","null","html-keyboard-response","174","292231","0.0-6.0-0.0-8.0-0.33","3","4","4","3","4","4","3","4","3","4","4","5","4","4","4","5","5","4","4","5","1","2","2","1","2","1","4","2","1","1","0","1","1","0","0","0","1","1","1","1","1","1","0","1","5","2","1","4","4","2","1","5","4","2","1","625294467993174016","陈","140","","","","","","","","","","","","","","","","","","","","","","","","","","","","","","","","","","","","","","","","","",""
"2098","<p style=""color:white; font-size: 35px;"">全能</p>","i","categorize-html","175","294332","0.0-6.0-0.0-8.0-1.33","3","4","4","3","4","4","3","4","3","4","4","5","4","4","4","5","5","4","4","5","1","2","2","1","2","1","4","2","1","1","0","1","1","0","0","0","1","1","1","1","1","1","0","1","5","2","1","4","4","2","1","5","4","2","1","625294467993174016","陈","140","","","","","","","","","","","","","","","","","","","true","4","4","ability","2098","positive","全能","","","","","","","","","","","","","","","","",""
"null","","null","html-keyboard-response","176","294584","0.0-6.0-0.0-8.0-0.34","3","4","4","3","4","4","3","4","3","4","4","5","4","4","4","5","5","4","4","5","1","2","2","1","2","1","4","2","1","1","0","1","1","0","0","0","1","1","1","1","1","1","0","1","5","2","1","4","4","2","1","5","4","2","1","625294467993174016","陈","140","","","","","","","","","","","","","","","","","","","","","","","","","","","","","","","","","","","","","","","","","",""
"5472","<p style=""color:rgb(150, 250, 100); font-size: 35px;"">他人</p>","e","categorize-html","177","300059","0.0-6.0-0.0-8.0-1.34","3","4","4","3","4","4","3","4","3","4","4","5","4","4","4","5","5","4","4","5","1","2","2","1","2","1","4","2","1","1","0","1","1","0","0","0","1","1","1","1","1","1","0","1","5","2","1","4","4","2","1","5","4","2","1","625294467993174016","陈","140","","","","","","","","","","","","","","","","","","","true","4","4","ability","5472","other","他人","","","","","","","","","","","","","","","","",""
"null","","null","html-keyboard-response","178","300310","0.0-6.0-0.0-8.0-0.35","3","4","4","3","4","4","3","4","3","4","4","5","4","4","4","5","5","4","4","5","1","2","2","1","2","1","4","2","1","1","0","1","1","0","0","0","1","1","1","1","1","1","0","1","5","2","1","4","4","2","1","5","4","2","1","625294467993174016","陈","140","","","","","","","","","","","","","","","","","","","","","","","","","","","","","","","","","","","","","","","","","",""
"1298","<p style=""color:white; font-size: 35px;"">愚钝</p>","e","categorize-html","179","301611","0.0-6.0-0.0-8.0-1.35","3","4","4","3","4","4","3","4","3","4","4","5","4","4","4","5","5","4","4","5","1","2","2","1","2","1","4","2","1","1","0","1","1","0","0","0","1","1","1","1","1","1","0","1","5","2","1","4","4","2","1","5","4","2","1","625294467993174016","陈","140","","","","","","","","","","","","","","","","","","","true","4","4","ability","1298","negative","愚钝","","","","","","","","","","","","","","","","",""
"null","","null","html-keyboard-response","180","301863","0.0-6.0-0.0-8.0-0.36","3","4","4","3","4","4","3","4","3","4","4","5","4","4","4","5","5","4","4","5","1","2","2","1","2","1","4","2","1","1","0","1","1","0","0","0","1","1","1","1","1","1","0","1","5","2","1","4","4","2","1","5","4","2","1","625294467993174016","陈","140","","","","","","","","","","","","","","","","","","","","","","","","","","","","","","","","","","","","","","","","","",""
"2371","<p style=""color:rgb(150, 250, 100); font-size: 35px;"">本人</p>","i","categorize-html","181","304236","0.0-6.0-0.0-8.0-1.36","3","4","4","3","4","4","3","4","3","4","4","5","4","4","4","5","5","4","4","5","1","2","2","1","2","1","4","2","1","1","0","1","1","0","0","0","1","1","1","1","1","1","0","1","5","2","1","4","4","2","1","5","4","2","1","625294467993174016","陈","140","","","","","","","","","","","","","","","","","","","true","4","4","ability","2371","self","本人","","","","","","","","","","","","","","","","",""
"null","","null","html-keyboard-response","182","304487","0.0-6.0-0.0-8.0-0.37","3","4","4","3","4","4","3","4","3","4","4","5","4","4","4","5","5","4","4","5","1","2","2","1","2","1","4","2","1","1","0","1","1","0","0","0","1","1","1","1","1","1","0","1","5","2","1","4","4","2","1","5","4","2","1","625294467993174016","陈","140","","","","","","","","","","","","","","","","","","","","","","","","","","","","","","","","","","","","","","","","","",""
"2388","<p style=""color:white; font-size: 35px;"">高效</p>","i","categorize-html","183","306877","0.0-6.0-0.0-8.0-1.37","3","4","4","3","4","4","3","4","3","4","4","5","4","4","4","5","5","4","4","5","1","2","2","1","2","1","4","2","1","1","0","1","1","0","0","0","1","1","1","1","1","1","0","1","5","2","1","4","4","2","1","5","4","2","1","625294467993174016","陈","140","","","","","","","","","","","","","","","","","","","true","4","4","ability","2388","positive","高效","","","","","","","","","","","","","","","","",""
"null","","null","html-keyboard-response","184","307129","0.0-6.0-0.0-8.0-0.38","3","4","4","3","4","4","3","4","3","4","4","5","4","4","4","5","5","4","4","5","1","2","2","1","2","1","4","2","1","1","0","1","1","0","0","0","1","1","1","1","1","1","0","1","5","2","1","4","4","2","1","5","4","2","1","625294467993174016","陈","140","","","","","","","","","","","","","","","","","","","","","","","","","","","","","","","","","","","","","","","","","",""
"719","<p style=""color:rgb(150, 250, 100); font-size: 35px;"">他</p>","e","categorize-html","185","307851","0.0-6.0-0.0-8.0-1.38","3","4","4","3","4","4","3","4","3","4","4","5","4","4","4","5","5","4","4","5","1","2","2","1","2","1","4","2","1","1","0","1","1","0","0","0","1","1","1","1","1","1","0","1","5","2","1","4","4","2","1","5","4","2","1","625294467993174016","陈","140","","","","","","","","","","","","","","","","","","","true","4","4","ability","719","other","他","","","","","","","","","","","","","","","","",""
"null","","null","html-keyboard-response","186","308103","0.0-6.0-0.0-8.0-0.39","3","4","4","3","4","4","3","4","3","4","4","5","4","4","4","5","5","4","4","5","1","2","2","1","2","1","4","2","1","1","0","1","1","0","0","0","1","1","1","1","1","1","0","1","5","2","1","4","4","2","1","5","4","2","1","625294467993174016","陈","140","","","","","","","","","","","","","","","","","","","","","","","","","","","","","","","","","","","","","","","","","",""
"809","<p style=""color:white; font-size: 35px;"">愚钝</p>","e","categorize-html","187","308915","0.0-6.0-0.0-8.0-1.39","3","4","4","3","4","4","3","4","3","4","4","5","4","4","4","5","5","4","4","5","1","2","2","1","2","1","4","2","1","1","0","1","1","0","0","0","1","1","1","1","1","1","0","1","5","2","1","4","4","2","1","5","4","2","1","625294467993174016","陈","140","","","","","","","","","","","","","","","","","","","true","4","4","ability","809","negative","愚钝","","","","","","","","","","","","","","","","",""
"null","","null","html-keyboard-response","188","309167","0.0-6.0-0.0-8.0-0.40","3","4","4","3","4","4","3","4","3","4","4","5","4","4","4","5","5","4","4","5","1","2","2","1","2","1","4","2","1","1","0","1","1","0","0","0","1","1","1","1","1","1","0","1","5","2","1","4","4","2","1","5","4","2","1","625294467993174016","陈","140","","","","","","","","","","","","","","","","","","","","","","","","","","","","","","","","","","","","","","","","","",""
"648","<p style=""color:rgb(150, 250, 100); font-size: 35px;"">我的</p>","i","categorize-html","189","309818","0.0-6.0-0.0-8.0-1.40","3","4","4","3","4","4","3","4","3","4","4","5","4","4","4","5","5","4","4","5","1","2","2","1","2","1","4","2","1","1","0","1","1","0","0","0","1","1","1","1","1","1","0","1","5","2","1","4","4","2","1","5","4","2","1","625294467993174016","陈","140","","","","","","","","","","","","","","","","","","","true","4","4","ability","648","self","我的","","","","","","","","","","","","","","","","",""
"null","","null","html-keyboard-response","190","310069","0.0-6.0-0.0-8.0-0.41","3","4","4","3","4","4","3","4","3","4","4","5","4","4","4","5","5","4","4","5","1","2","2","1","2","1","4","2","1","1","0","1","1","0","0","0","1","1","1","1","1","1","0","1","5","2","1","4","4","2","1","5","4","2","1","625294467993174016","陈","140","","","","","","","","","","","","","","","","","","","","","","","","","","","","","","","","","","","","","","","","","",""
"1265","<p style=""color:white; font-size: 35px;"">天才</p>","i","categorize-html","191","311337","0.0-6.0-0.0-8.0-1.41","3","4","4","3","4","4","3","4","3","4","4","5","4","4","4","5","5","4","4","5","1","2","2","1","2","1","4","2","1","1","0","1","1","0","0","0","1","1","1","1","1","1","0","1","5","2","1","4","4","2","1","5","4","2","1","625294467993174016","陈","140","","","","","","","","","","","","","","","","","","","true","4","4","ability","1265","positive","天才","","","","","","","","","","","","","","","","",""
"null","","null","html-keyboard-response","192","311588","0.0-6.0-0.0-8.0-0.42","3","4","4","3","4","4","3","4","3","4","4","5","4","4","4","5","5","4","4","5","1","2","2","1","2","1","4","2","1","1","0","1","1","0","0","0","1","1","1","1","1","1","0","1","5","2","1","4","4","2","1","5","4","2","1","625294467993174016","陈","140","","","","","","","","","","","","","","","","","","","","","","","","","","","","","","","","","","","","","","","","","",""
"791","<p style=""color:rgb(150, 250, 100); font-size: 35px;"">别人的</p>","e","categorize-html","193","312381","0.0-6.0-0.0-8.0-1.42","3","4","4","3","4","4","3","4","3","4","4","5","4","4","4","5","5","4","4","5","1","2","2","1","2","1","4","2","1","1","0","1","1","0","0","0","1","1","1","1","1","1","0","1","5","2","1","4","4","2","1","5","4","2","1","625294467993174016","陈","140","","","","","","","","","","","","","","","","","","","true","4","4","ability","791","other","别人的","","","","","","","","","","","","","","","","",""
