"rt","stimulus","response","trial_type","trial_index","time_elapsed","internal_node_id","ses_1","ses_2","ses_3","ses_4","ses_5","ses_6","ses_7","ses_8","ses_9","ses_10","coreself_1","coreself_2","coreself_3","coreself_4","coreself_5","coreself_6","coreself_7","coreself_8","coreself_9","coreself_10","SGPS_1","SGPS_2","SGPS_3","SGPS_4","SGPS_5","SGPS_6","SGPS_7","SGPS_8","SGPS_9","NPI1","NPI2","NPI3","NPI4","NPI5","NPI6","NPI7","NPI8","NPI9","NPI10","NPI11","NPI12","NPI13","NPI14","NPI15","hsns_1","hsns_2","hsns_3","hsns_4","hsns_5","trap1","hsns_6","hsns_7","hsns_8","hsns_9","hsns_10","subj_idx","friend_name","ParticipantID","value","success","user_agent","responses","item_order","radio_event_ids","radio_event_times","key_event_times","mouse_event_times","straightlining","zigzagging","honeypot","timeout","failed_images","failed_audio","failed_video","version_attrib2","version_target2","correct","IAT","screen_id","task_id","RT","condition","word","varname","summary","version_attrib","version_target","time_stamp","view_history","response_type","key_press","avg_frame_time","center_x","center_y","correct_response","identity","Image","question_order","correct_answer","trap1_item"
"4409","
   <p><div style = ""color: white;font-size:25px;"">您好，欢迎参加本次实验。</div> </p>
   <p><div style = ""color: white;font-size:25px;"">为充分保障您的权利，请确保您已经知晓并同意《参与实验同意书》以及《数据公开知情同意书》。</div></p>
   <p><div style = ""color: white;font-size:25px;"">如果您未见过上述内容，请咨询实验员。</div></p>
   <p><div style = ""color: white;font-size:25px;"">如果您选择继续实验，则表示您已经清楚两份知情同意书的内容并同意。</div></p>
   <p><div style = ""color: pink;font-size:30px;"">请确保您记得day0的实验编号，您将在本次实验输入该编号，若您忘记，请咨询实验员后作答。</div></p>
   <p><div style = ""color: lightblue;font-size:25px;"">请您尽可能认真地作答，我们将依据您在各问卷和按键任务中的作答质量发放报酬。</div></p>
   <p> <div style = ""color: green;font-size:25px;""><按空格键至下页></div> </p>
   "," ","html-keyboard-response","0","4411","0.0-0.0","4","3","4","3","3","3","3","3","4","4","4","4","2","3","4","4","3","3","4","4","2","3","4","3","4","3","4","3","2","1","0","1","1","0","1","0","1","0","1","1","0","1","0","1","4","3","2","1","3","1","1","3","4","2","3","717817858293235712","钟","27","","","","","","","","","","","","","","","","","","","","","","","","","","","","","","","","","","","","","","","","","",""
"","","","call-function","1","4411","0.0-1.0-0.0","4","3","4","3","3","3","3","3","4","4","4","4","2","3","4","4","3","3","4","4","2","3","4","3","4","3","4","3","2","1","0","1","1","0","1","0","1","0","1","1","0","1","0","1","4","3","2","1","3","1","1","3","4","2","3","717817858293235712","钟","27","","","","","","","","","","","","","","","","","","","","","","","","","","","","","","","","","","","","","","","","","",""
"60034","","{""friend_name"":""钟"",""ParticipantID"":""27""}","survey-html-form","2","64446","0.0-1.0-1.0","4","3","4","3","3","3","3","3","4","4","4","4","2","3","4","4","3","3","4","4","2","3","4","3","4","3","4","3","2","1","0","1","1","0","1","0","1","0","1","1","0","1","0","1","4","3","2","1","3","1","1","3","4","2","3","717817858293235712","钟","27","","","","","","","","","","","","","","","","","","","","","","","","","","","","","","","","","","","","","","","","","",""
"","","","fullscreen","3","65664","0.0-2.0","4","3","4","3","3","3","3","3","4","4","4","4","2","3","4","4","3","3","4","4","2","3","4","3","4","3","4","3","2","1","0","1","1","0","1","0","1","0","1","1","0","1","0","1","4","3","2","1","3","1","1","3","4","2","3","717817858293235712","钟","27","","true","{}","","","","","","","","","","","","","","","","","","","","","","","","","","","","","","","","","","","","","","",""
"24982","","{""Q01"":""4"",""Q02"":""3"",""Q03"":""4"",""Q04"":""3"",""Q05"":""3"",""Q06"":""3"",""Q07"":""3"",""Q08"":""3"",""Q09"":""4"",""Q10"":""4""}","survey-template","4","90648","0.0-3.0","4","3","4","3","3","3","3","3","4","4","4","4","2","3","4","4","3","3","4","4","2","3","4","3","4","3","4","3","2","1","0","1","1","0","1","0","1","0","1","1","0","1","0","1","4","3","2","1","3","1","1","3","4","2","3","717817858293235712","钟","27","","","","{""Q01"":""4"",""Q02"":""3"",""Q03"":""4"",""Q04"":""3"",""Q05"":""3"",""Q06"":""3"",""Q07"":""3"",""Q08"":""3"",""Q09"":""4"",""Q10"":""4""}","[0,1,2,3,4,5,6,7,8,9]","[""Q02"",""Q01"",""Q03"",""Q04"",""Q05"",""Q06"",""Q07"",""Q08"",""Q09"",""Q10""]","[6135.299999982119,7951,10264.399999976158,11752.799999982119,14816.5,16248.59999999404,17718.69999998808,20434.69999998808,23064,23890.59999999404]","[]","[4430.399999976158,5442.5,6135.299999982119,7294.799999982119,7951,10264.399999976158,11752.799999982119,14816.5,16248.59999999404,17718.69999998808,20434.69999998808,23064,23890.59999999404,24980.899999976158]","0.4","0.5555555555555556","0","","","","","","","","","","","","","","","","","","","","","","","","","","","","","",""
"28277.600000023842","","{""Q01"":""4"",""Q02"":""4"",""Q03"":""2"",""Q04"":""3"",""Q05"":""4"",""Q06"":""4"",""Q07"":""3"",""Q08"":""3"",""Q09"":""4"",""Q10"":""4""}","survey-template","5","118929","0.0-4.0","4","3","4","3","3","3","3","3","4","4","4","4","2","3","4","4","3","3","4","4","2","3","4","3","4","3","4","3","2","1","0","1","1","0","1","0","1","0","1","1","0","1","0","1","4","3","2","1","3","1","1","3","4","2","3","717817858293235712","钟","27","","","","{""Q01"":""4"",""Q02"":""4"",""Q03"":""2"",""Q04"":""3"",""Q05"":""4"",""Q06"":""4"",""Q07"":""3"",""Q08"":""3"",""Q09"":""4"",""Q10"":""4""}","[0,1,2,3,4,5,6,7,8,9]","[""Q01"",""Q02"",""Q03"",""Q04"",""Q05"",""Q06"",""Q07"",""Q08"",""Q09"",""Q10""]","[3671.100000023842,7821.800000011921,8817.5,11513.90000000596,13729.100000023842,16091,19155.40000000596,23713.100000023842,25057.5,27341.100000023842]","[]","[3671.100000023842,6051.200000017881,7821.800000011921,8817.5,10373.200000017881,11513.90000000596,13729.100000023842,16091,17726.90000000596,19155.40000000596,19963.20000001788,23713.100000023842,25057.5,27341.100000023842,28277]","0.4","0.4444444444444444","0","","","","","","","","","","","","","","","","","","","","","","","","","","","","","",""
"","","","preload","6","119140","0.0-5.0","4","3","4","3","3","3","3","3","4","4","4","4","2","3","4","4","3","3","4","4","2","3","4","3","4","3","4","3","2","1","0","1","1","0","1","0","1","0","1","1","0","1","0","1","4","3","2","1","3","1","1","3","4","2","3","717817858293235712","钟","27","","true","","","","","","","","","","","false","[]","[]","[]","","","","","","","","","","","","","","","","","","","","","","","","","",""
"14536","
    <h3>词语分类任务</h3>
    <p>在接下来的任务中，你需要对一系列词语进行分类。<p/>
    请先熟悉这些词语，这有利于你完成接下来的任务。</p>
    <table align=""center"" border=1 cellpadding=3 cellspacing=0>
    <tr> <th>类别</th> <th>词语</th> </tr>
    <tr> <td>&emsp;积极&emsp;</td> <td>&emsp;高尚、诚信、善良、君子、廉正、正直&emsp;</td> </tr>
    <tr> <td>&emsp;消极&emsp;</td> <td>&emsp;缺德、卑鄙、不孝、不仁、小人、黑心&emsp;</td> </tr>
    <tr> <td>&emsp;自我&emsp;</td> <td>&emsp;我、我的、自己、自己的、本人、本人的&emsp;</td> </tr>
    <tr> <td>&emsp;他人&emsp;</td> <td>&emsp;他、他的、别人、别人的、他人、他人的&emsp;</td> </tr>
    </table><br/>","0","html-button-response","7","133677","0.0-6.0-1.0-0.0","4","3","4","3","3","3","3","3","4","4","4","4","2","3","4","4","3","3","4","4","2","3","4","3","4","3","4","3","2","1","0","1","1","0","1","0","1","0","1","1","0","1","0","1","4","3","2","1","3","1","1","3","4","2","3","717817858293235712","钟","27","","","","","","","","","","","","","","","","","1","1","","","","","","","","","","","","","","","","","","","","","","","",""
"17468","
    <div class=""tag-bottom""><p>
    —— 任务1：对“自我”词和“他人”词分类 ——<p/>
    不同词语会出现在屏幕中央，类别标签将始终显示在屏幕上方<p/>   
    <span style=""color:#FFD866""><b>请根据上方标签的提示，尽可能正确并且快速地做出按键反应</b></span><p/>
    当按键错误时屏幕中会出现<span style=""color:red""> X </span>，需要按另一个键纠正才能继续<br/><p/>
    请把双手食指分别放在键盘的“E”键和“I”键上<p/>
    按<空格键>开始
    </p></div>"," ","html-keyboard-response","8","151146","0.0-6.0-1.0-1.0","4","3","4","3","3","3","3","3","4","4","4","4","2","3","4","4","3","3","4","4","2","3","4","3","4","3","4","3","2","1","0","1","1","0","1","0","1","0","1","1","0","1","0","1","4","3","2","1","3","1","1","3","4","2","3","717817858293235712","钟","27","","","","","","","","","","","","","","","","","","","","","","","","","","","","","","","","","","","","","","","","","",""
"null","","null","html-keyboard-response","9","151398","0.0-6.0-1.0-2.0-0.0","4","3","4","3","3","3","3","3","4","4","4","4","2","3","4","4","3","3","4","4","2","3","4","3","4","3","4","3","2","1","0","1","1","0","1","0","1","0","1","1","0","1","0","1","4","3","2","1","3","1","1","3","4","2","3","717817858293235712","钟","27","","","","","","","","","","","","","","","","","","","","","","","","","","","","","","","","","","","","","","","","","",""
"815","<p style=""color:rgb(150, 250, 100); font-size: 35px;"">他人的</p>","i","categorize-html","10","152215","0.0-6.0-1.0-2.0-1.0","4","3","4","3","3","3","3","3","4","4","4","4","2","3","4","4","3","3","4","4","2","3","4","3","4","3","4","3","2","1","0","1","1","0","1","0","1","0","1","1","0","1","0","1","4","3","2","1","3","1","1","3","4","2","3","717817858293235712","钟","27","","","","","","","","","","","","","","","","","","","true","11","1","moral","815","other","他人的","","","","","","","","","","","","","","","","",""
"null","","null","html-keyboard-response","11","152466","0.0-6.0-1.0-2.0-0.1","4","3","4","3","3","3","3","3","4","4","4","4","2","3","4","4","3","3","4","4","2","3","4","3","4","3","4","3","2","1","0","1","1","0","1","0","1","0","1","1","0","1","0","1","4","3","2","1","3","1","1","3","4","2","3","717817858293235712","钟","27","","","","","","","","","","","","","","","","","","","","","","","","","","","","","","","","","","","","","","","","","",""
"742","<p style=""color:rgb(150, 250, 100); font-size: 35px;"">他人</p>","i","categorize-html","12","153209","0.0-6.0-1.0-2.0-1.1","4","3","4","3","3","3","3","3","4","4","4","4","2","3","4","4","3","3","4","4","2","3","4","3","4","3","4","3","2","1","0","1","1","0","1","0","1","0","1","1","0","1","0","1","4","3","2","1","3","1","1","3","4","2","3","717817858293235712","钟","27","","","","","","","","","","","","","","","","","","","true","11","1","moral","742","other","他人","","","","","","","","","","","","","","","","",""
"null","","null","html-keyboard-response","13","153460","0.0-6.0-1.0-2.0-0.2","4","3","4","3","3","3","3","3","4","4","4","4","2","3","4","4","3","3","4","4","2","3","4","3","4","3","4","3","2","1","0","1","1","0","1","0","1","0","1","1","0","1","0","1","4","3","2","1","3","1","1","3","4","2","3","717817858293235712","钟","27","","","","","","","","","","","","","","","","","","","","","","","","","","","","","","","","","","","","","","","","","",""
"394","<p style=""color:rgb(150, 250, 100); font-size: 35px;"">本人的</p>","e","categorize-html","14","153855","0.0-6.0-1.0-2.0-1.2","4","3","4","3","3","3","3","3","4","4","4","4","2","3","4","4","3","3","4","4","2","3","4","3","4","3","4","3","2","1","0","1","1","0","1","0","1","0","1","1","0","1","0","1","4","3","2","1","3","1","1","3","4","2","3","717817858293235712","钟","27","","","","","","","","","","","","","","","","","","","true","11","1","moral","394","self","本人的","","","","","","","","","","","","","","","","",""
"null","","null","html-keyboard-response","15","154106","0.0-6.0-1.0-2.0-0.3","4","3","4","3","3","3","3","3","4","4","4","4","2","3","4","4","3","3","4","4","2","3","4","3","4","3","4","3","2","1","0","1","1","0","1","0","1","0","1","1","0","1","0","1","4","3","2","1","3","1","1","3","4","2","3","717817858293235712","钟","27","","","","","","","","","","","","","","","","","","","","","","","","","","","","","","","","","","","","","","","","","",""
"456","<p style=""color:rgb(150, 250, 100); font-size: 35px;"">我的</p>","e","categorize-html","16","154562","0.0-6.0-1.0-2.0-1.3","4","3","4","3","3","3","3","3","4","4","4","4","2","3","4","4","3","3","4","4","2","3","4","3","4","3","4","3","2","1","0","1","1","0","1","0","1","0","1","1","0","1","0","1","4","3","2","1","3","1","1","3","4","2","3","717817858293235712","钟","27","","","","","","","","","","","","","","","","","","","true","11","1","moral","456","self","我的","","","","","","","","","","","","","","","","",""
"null","","null","html-keyboard-response","17","154814","0.0-6.0-1.0-2.0-0.4","4","3","4","3","3","3","3","3","4","4","4","4","2","3","4","4","3","3","4","4","2","3","4","3","4","3","4","3","2","1","0","1","1","0","1","0","1","0","1","1","0","1","0","1","4","3","2","1","3","1","1","3","4","2","3","717817858293235712","钟","27","","","","","","","","","","","","","","","","","","","","","","","","","","","","","","","","","","","","","","","","","",""
"481","<p style=""color:rgb(150, 250, 100); font-size: 35px;"">别人</p>","i","categorize-html","18","155295","0.0-6.0-1.0-2.0-1.4","4","3","4","3","3","3","3","3","4","4","4","4","2","3","4","4","3","3","4","4","2","3","4","3","4","3","4","3","2","1","0","1","1","0","1","0","1","0","1","1","0","1","0","1","4","3","2","1","3","1","1","3","4","2","3","717817858293235712","钟","27","","","","","","","","","","","","","","","","","","","true","11","1","moral","481","other","别人","","","","","","","","","","","","","","","","",""
"null","","null","html-keyboard-response","19","155546","0.0-6.0-1.0-2.0-0.5","4","3","4","3","3","3","3","3","4","4","4","4","2","3","4","4","3","3","4","4","2","3","4","3","4","3","4","3","2","1","0","1","1","0","1","0","1","0","1","1","0","1","0","1","4","3","2","1","3","1","1","3","4","2","3","717817858293235712","钟","27","","","","","","","","","","","","","","","","","","","","","","","","","","","","","","","","","","","","","","","","","",""
"375","<p style=""color:rgb(150, 250, 100); font-size: 35px;"">本人</p>","e","categorize-html","20","155922","0.0-6.0-1.0-2.0-1.5","4","3","4","3","3","3","3","3","4","4","4","4","2","3","4","4","3","3","4","4","2","3","4","3","4","3","4","3","2","1","0","1","1","0","1","0","1","0","1","1","0","1","0","1","4","3","2","1","3","1","1","3","4","2","3","717817858293235712","钟","27","","","","","","","","","","","","","","","","","","","true","11","1","moral","375","self","本人","","","","","","","","","","","","","","","","",""
"null","","null","html-keyboard-response","21","156173","0.0-6.0-1.0-2.0-0.6","4","3","4","3","3","3","3","3","4","4","4","4","2","3","4","4","3","3","4","4","2","3","4","3","4","3","4","3","2","1","0","1","1","0","1","0","1","0","1","1","0","1","0","1","4","3","2","1","3","1","1","3","4","2","3","717817858293235712","钟","27","","","","","","","","","","","","","","","","","","","","","","","","","","","","","","","","","","","","","","","","","",""
"360","<p style=""color:rgb(150, 250, 100); font-size: 35px;"">自己的</p>","e","categorize-html","22","156534","0.0-6.0-1.0-2.0-1.6","4","3","4","3","3","3","3","3","4","4","4","4","2","3","4","4","3","3","4","4","2","3","4","3","4","3","4","3","2","1","0","1","1","0","1","0","1","0","1","1","0","1","0","1","4","3","2","1","3","1","1","3","4","2","3","717817858293235712","钟","27","","","","","","","","","","","","","","","","","","","true","11","1","moral","360","self","自己的","","","","","","","","","","","","","","","","",""
"null","","null","html-keyboard-response","23","156785","0.0-6.0-1.0-2.0-0.7","4","3","4","3","3","3","3","3","4","4","4","4","2","3","4","4","3","3","4","4","2","3","4","3","4","3","4","3","2","1","0","1","1","0","1","0","1","0","1","1","0","1","0","1","4","3","2","1","3","1","1","3","4","2","3","717817858293235712","钟","27","","","","","","","","","","","","","","","","","","","","","","","","","","","","","","","","","","","","","","","","","",""
"327","<p style=""color:rgb(150, 250, 100); font-size: 35px;"">我</p>","e","categorize-html","24","157114","0.0-6.0-1.0-2.0-1.7","4","3","4","3","3","3","3","3","4","4","4","4","2","3","4","4","3","3","4","4","2","3","4","3","4","3","4","3","2","1","0","1","1","0","1","0","1","0","1","1","0","1","0","1","4","3","2","1","3","1","1","3","4","2","3","717817858293235712","钟","27","","","","","","","","","","","","","","","","","","","true","11","1","moral","327","self","我","","","","","","","","","","","","","","","","",""
"null","","null","html-keyboard-response","25","157365","0.0-6.0-1.0-2.0-0.8","4","3","4","3","3","3","3","3","4","4","4","4","2","3","4","4","3","3","4","4","2","3","4","3","4","3","4","3","2","1","0","1","1","0","1","0","1","0","1","1","0","1","0","1","4","3","2","1","3","1","1","3","4","2","3","717817858293235712","钟","27","","","","","","","","","","","","","","","","","","","","","","","","","","","","","","","","","","","","","","","","","",""
"315","<p style=""color:rgb(150, 250, 100); font-size: 35px;"">自己</p>","e","categorize-html","26","157680","0.0-6.0-1.0-2.0-1.8","4","3","4","3","3","3","3","3","4","4","4","4","2","3","4","4","3","3","4","4","2","3","4","3","4","3","4","3","2","1","0","1","1","0","1","0","1","0","1","1","0","1","0","1","4","3","2","1","3","1","1","3","4","2","3","717817858293235712","钟","27","","","","","","","","","","","","","","","","","","","true","11","1","moral","315","self","自己","","","","","","","","","","","","","","","","",""
"null","","null","html-keyboard-response","27","157932","0.0-6.0-1.0-2.0-0.9","4","3","4","3","3","3","3","3","4","4","4","4","2","3","4","4","3","3","4","4","2","3","4","3","4","3","4","3","2","1","0","1","1","0","1","0","1","0","1","1","0","1","0","1","4","3","2","1","3","1","1","3","4","2","3","717817858293235712","钟","27","","","","","","","","","","","","","","","","","","","","","","","","","","","","","","","","","","","","","","","","","",""
"308","<p style=""color:rgb(150, 250, 100); font-size: 35px;"">他的</p>","e","categorize-html","28","158624","0.0-6.0-1.0-2.0-1.9","4","3","4","3","3","3","3","3","4","4","4","4","2","3","4","4","3","3","4","4","2","3","4","3","4","3","4","3","2","1","0","1","1","0","1","0","1","0","1","1","0","1","0","1","4","3","2","1","3","1","1","3","4","2","3","717817858293235712","钟","27","","","","","","","","","","","","","","","","","","","false","11","1","moral","308","other","他的","","","","","","","","","","","","","","","","",""
"null","","null","html-keyboard-response","29","158875","0.0-6.0-1.0-2.0-0.10","4","3","4","3","3","3","3","3","4","4","4","4","2","3","4","4","3","3","4","4","2","3","4","3","4","3","4","3","2","1","0","1","1","0","1","0","1","0","1","1","0","1","0","1","4","3","2","1","3","1","1","3","4","2","3","717817858293235712","钟","27","","","","","","","","","","","","","","","","","","","","","","","","","","","","","","","","","","","","","","","","","",""
"564","<p style=""color:rgb(150, 250, 100); font-size: 35px;"">他</p>","i","categorize-html","30","159440","0.0-6.0-1.0-2.0-1.10","4","3","4","3","3","3","3","3","4","4","4","4","2","3","4","4","3","3","4","4","2","3","4","3","4","3","4","3","2","1","0","1","1","0","1","0","1","0","1","1","0","1","0","1","4","3","2","1","3","1","1","3","4","2","3","717817858293235712","钟","27","","","","","","","","","","","","","","","","","","","true","11","1","moral","564","other","他","","","","","","","","","","","","","","","","",""
"null","","null","html-keyboard-response","31","159691","0.0-6.0-1.0-2.0-0.11","4","3","4","3","3","3","3","3","4","4","4","4","2","3","4","4","3","3","4","4","2","3","4","3","4","3","4","3","2","1","0","1","1","0","1","0","1","0","1","1","0","1","0","1","4","3","2","1","3","1","1","3","4","2","3","717817858293235712","钟","27","","","","","","","","","","","","","","","","","","","","","","","","","","","","","","","","","","","","","","","","","",""
"443","<p style=""color:rgb(150, 250, 100); font-size: 35px;"">别人的</p>","i","categorize-html","32","160135","0.0-6.0-1.0-2.0-1.11","4","3","4","3","3","3","3","3","4","4","4","4","2","3","4","4","3","3","4","4","2","3","4","3","4","3","4","3","2","1","0","1","1","0","1","0","1","0","1","1","0","1","0","1","4","3","2","1","3","1","1","3","4","2","3","717817858293235712","钟","27","","","","","","","","","","","","","","","","","","","true","11","1","moral","443","other","别人的","","","","","","","","","","","","","","","","",""
"3135","
    <div class=""tag-bottom""><p>
    —— 任务2：对“积极”词和“消极”词分类 ——<p/>   
    <span style=""color:#78DCE8""><b>注意上方，类别标签和需要分类的词语都已经改变</b></span><p/>
    <span style=""color:#FFD866""><b>请根据上方标签的提示，尽可能正确并且快速地做出按键反应</b></span><p/>
    当按键错误时屏幕中会出现<span style=""color:red""> X </span>，需要按另一个键纠正才能继续<br/><p/>
    请把双手食指分别放在键盘的“E”键和“I”键上<p/>
    按<空格键>开始
    </p></div>"," ","html-keyboard-response","33","163270","0.0-6.0-1.0-3.0","4","3","4","3","3","3","3","3","4","4","4","4","2","3","4","4","3","3","4","4","2","3","4","3","4","3","4","3","2","1","0","1","1","0","1","0","1","0","1","1","0","1","0","1","4","3","2","1","3","1","1","3","4","2","3","717817858293235712","钟","27","","","","","","","","","","","","","","","","","","","","","","","","","","","","","","","","","","","","","","","","","",""
"null","","null","html-keyboard-response","34","163521","0.0-6.0-1.0-4.0-0.0","4","3","4","3","3","3","3","3","4","4","4","4","2","3","4","4","3","3","4","4","2","3","4","3","4","3","4","3","2","1","0","1","1","0","1","0","1","0","1","1","0","1","0","1","4","3","2","1","3","1","1","3","4","2","3","717817858293235712","钟","27","","","","","","","","","","","","","","","","","","","","","","","","","","","","","","","","","","","","","","","","","",""
"623","<p style=""color:white; font-size: 35px;"">缺德</p>","i","categorize-html","35","164146","0.0-6.0-1.0-4.0-1.0","4","3","4","3","3","3","3","3","4","4","4","4","2","3","4","4","3","3","4","4","2","3","4","3","4","3","4","3","2","1","0","1","1","0","1","0","1","0","1","1","0","1","0","1","4","3","2","1","3","1","1","3","4","2","3","717817858293235712","钟","27","","","","","","","","","","","","","","","","","","","true","12","2","moral","623","negative","缺德","","","","","","","","","","","","","","","","",""
"null","","null","html-keyboard-response","36","164396","0.0-6.0-1.0-4.0-0.1","4","3","4","3","3","3","3","3","4","4","4","4","2","3","4","4","3","3","4","4","2","3","4","3","4","3","4","3","2","1","0","1","1","0","1","0","1","0","1","1","0","1","0","1","4","3","2","1","3","1","1","3","4","2","3","717817858293235712","钟","27","","","","","","","","","","","","","","","","","","","","","","","","","","","","","","","","","","","","","","","","","",""
"486","<p style=""color:white; font-size: 35px;"">正直</p>","e","categorize-html","37","164883","0.0-6.0-1.0-4.0-1.1","4","3","4","3","3","3","3","3","4","4","4","4","2","3","4","4","3","3","4","4","2","3","4","3","4","3","4","3","2","1","0","1","1","0","1","0","1","0","1","1","0","1","0","1","4","3","2","1","3","1","1","3","4","2","3","717817858293235712","钟","27","","","","","","","","","","","","","","","","","","","true","12","2","moral","486","positive","正直","","","","","","","","","","","","","","","","",""
"null","","null","html-keyboard-response","38","165134","0.0-6.0-1.0-4.0-0.2","4","3","4","3","3","3","3","3","4","4","4","4","2","3","4","4","3","3","4","4","2","3","4","3","4","3","4","3","2","1","0","1","1","0","1","0","1","0","1","1","0","1","0","1","4","3","2","1","3","1","1","3","4","2","3","717817858293235712","钟","27","","","","","","","","","","","","","","","","","","","","","","","","","","","","","","","","","","","","","","","","","",""
"430","<p style=""color:white; font-size: 35px;"">君子</p>","e","categorize-html","39","165565","0.0-6.0-1.0-4.0-1.2","4","3","4","3","3","3","3","3","4","4","4","4","2","3","4","4","3","3","4","4","2","3","4","3","4","3","4","3","2","1","0","1","1","0","1","0","1","0","1","1","0","1","0","1","4","3","2","1","3","1","1","3","4","2","3","717817858293235712","钟","27","","","","","","","","","","","","","","","","","","","true","12","2","moral","430","positive","君子","","","","","","","","","","","","","","","","",""
"null","","null","html-keyboard-response","40","165815","0.0-6.0-1.0-4.0-0.3","4","3","4","3","3","3","3","3","4","4","4","4","2","3","4","4","3","3","4","4","2","3","4","3","4","3","4","3","2","1","0","1","1","0","1","0","1","0","1","1","0","1","0","1","4","3","2","1","3","1","1","3","4","2","3","717817858293235712","钟","27","","","","","","","","","","","","","","","","","","","","","","","","","","","","","","","","","","","","","","","","","",""
"485","<p style=""color:white; font-size: 35px;"">不仁</p>","i","categorize-html","41","166301","0.0-6.0-1.0-4.0-1.3","4","3","4","3","3","3","3","3","4","4","4","4","2","3","4","4","3","3","4","4","2","3","4","3","4","3","4","3","2","1","0","1","1","0","1","0","1","0","1","1","0","1","0","1","4","3","2","1","3","1","1","3","4","2","3","717817858293235712","钟","27","","","","","","","","","","","","","","","","","","","true","12","2","moral","485","negative","不仁","","","","","","","","","","","","","","","","",""
"null","","null","html-keyboard-response","42","166552","0.0-6.0-1.0-4.0-0.4","4","3","4","3","3","3","3","3","4","4","4","4","2","3","4","4","3","3","4","4","2","3","4","3","4","3","4","3","2","1","0","1","1","0","1","0","1","0","1","1","0","1","0","1","4","3","2","1","3","1","1","3","4","2","3","717817858293235712","钟","27","","","","","","","","","","","","","","","","","","","","","","","","","","","","","","","","","","","","","","","","","",""
"445","<p style=""color:white; font-size: 35px;"">黑心</p>","i","categorize-html","43","166998","0.0-6.0-1.0-4.0-1.4","4","3","4","3","3","3","3","3","4","4","4","4","2","3","4","4","3","3","4","4","2","3","4","3","4","3","4","3","2","1","0","1","1","0","1","0","1","0","1","1","0","1","0","1","4","3","2","1","3","1","1","3","4","2","3","717817858293235712","钟","27","","","","","","","","","","","","","","","","","","","true","12","2","moral","445","negative","黑心","","","","","","","","","","","","","","","","",""
"null","","null","html-keyboard-response","44","167249","0.0-6.0-1.0-4.0-0.5","4","3","4","3","3","3","3","3","4","4","4","4","2","3","4","4","3","3","4","4","2","3","4","3","4","3","4","3","2","1","0","1","1","0","1","0","1","0","1","1","0","1","0","1","4","3","2","1","3","1","1","3","4","2","3","717817858293235712","钟","27","","","","","","","","","","","","","","","","","","","","","","","","","","","","","","","","","","","","","","","","","",""
"433","<p style=""color:white; font-size: 35px;"">廉正</p>","i","categorize-html","45","168132","0.0-6.0-1.0-4.0-1.5","4","3","4","3","3","3","3","3","4","4","4","4","2","3","4","4","3","3","4","4","2","3","4","3","4","3","4","3","2","1","0","1","1","0","1","0","1","0","1","1","0","1","0","1","4","3","2","1","3","1","1","3","4","2","3","717817858293235712","钟","27","","","","","","","","","","","","","","","","","","","false","12","2","moral","433","positive","廉正","","","","","","","","","","","","","","","","",""
"null","","null","html-keyboard-response","46","168384","0.0-6.0-1.0-4.0-0.6","4","3","4","3","3","3","3","3","4","4","4","4","2","3","4","4","3","3","4","4","2","3","4","3","4","3","4","3","2","1","0","1","1","0","1","0","1","0","1","1","0","1","0","1","4","3","2","1","3","1","1","3","4","2","3","717817858293235712","钟","27","","","","","","","","","","","","","","","","","","","","","","","","","","","","","","","","","","","","","","","","","",""
"461","<p style=""color:white; font-size: 35px;"">卑鄙</p>","i","categorize-html","47","168846","0.0-6.0-1.0-4.0-1.6","4","3","4","3","3","3","3","3","4","4","4","4","2","3","4","4","3","3","4","4","2","3","4","3","4","3","4","3","2","1","0","1","1","0","1","0","1","0","1","1","0","1","0","1","4","3","2","1","3","1","1","3","4","2","3","717817858293235712","钟","27","","","","","","","","","","","","","","","","","","","true","12","2","moral","461","negative","卑鄙","","","","","","","","","","","","","","","","",""
"null","","null","html-keyboard-response","48","169097","0.0-6.0-1.0-4.0-0.7","4","3","4","3","3","3","3","3","4","4","4","4","2","3","4","4","3","3","4","4","2","3","4","3","4","3","4","3","2","1","0","1","1","0","1","0","1","0","1","1","0","1","0","1","4","3","2","1","3","1","1","3","4","2","3","717817858293235712","钟","27","","","","","","","","","","","","","","","","","","","","","","","","","","","","","","","","","","","","","","","","","",""
"472","<p style=""color:white; font-size: 35px;"">不孝</p>","i","categorize-html","49","169571","0.0-6.0-1.0-4.0-1.7","4","3","4","3","3","3","3","3","4","4","4","4","2","3","4","4","3","3","4","4","2","3","4","3","4","3","4","3","2","1","0","1","1","0","1","0","1","0","1","1","0","1","0","1","4","3","2","1","3","1","1","3","4","2","3","717817858293235712","钟","27","","","","","","","","","","","","","","","","","","","true","12","2","moral","472","negative","不孝","","","","","","","","","","","","","","","","",""
"null","","null","html-keyboard-response","50","169822","0.0-6.0-1.0-4.0-0.8","4","3","4","3","3","3","3","3","4","4","4","4","2","3","4","4","3","3","4","4","2","3","4","3","4","3","4","3","2","1","0","1","1","0","1","0","1","0","1","1","0","1","0","1","4","3","2","1","3","1","1","3","4","2","3","717817858293235712","钟","27","","","","","","","","","","","","","","","","","","","","","","","","","","","","","","","","","","","","","","","","","",""
"363","<p style=""color:white; font-size: 35px;"">高尚</p>","e","categorize-html","51","170186","0.0-6.0-1.0-4.0-1.8","4","3","4","3","3","3","3","3","4","4","4","4","2","3","4","4","3","3","4","4","2","3","4","3","4","3","4","3","2","1","0","1","1","0","1","0","1","0","1","1","0","1","0","1","4","3","2","1","3","1","1","3","4","2","3","717817858293235712","钟","27","","","","","","","","","","","","","","","","","","","true","12","2","moral","363","positive","高尚","","","","","","","","","","","","","","","","",""
"null","","null","html-keyboard-response","52","170437","0.0-6.0-1.0-4.0-0.9","4","3","4","3","3","3","3","3","4","4","4","4","2","3","4","4","3","3","4","4","2","3","4","3","4","3","4","3","2","1","0","1","1","0","1","0","1","0","1","1","0","1","0","1","4","3","2","1","3","1","1","3","4","2","3","717817858293235712","钟","27","","","","","","","","","","","","","","","","","","","","","","","","","","","","","","","","","","","","","","","","","",""
"321","<p style=""color:white; font-size: 35px;"">诚信</p>","e","categorize-html","53","170758","0.0-6.0-1.0-4.0-1.9","4","3","4","3","3","3","3","3","4","4","4","4","2","3","4","4","3","3","4","4","2","3","4","3","4","3","4","3","2","1","0","1","1","0","1","0","1","0","1","1","0","1","0","1","4","3","2","1","3","1","1","3","4","2","3","717817858293235712","钟","27","","","","","","","","","","","","","","","","","","","true","12","2","moral","321","positive","诚信","","","","","","","","","","","","","","","","",""
"null","","null","html-keyboard-response","54","171009","0.0-6.0-1.0-4.0-0.10","4","3","4","3","3","3","3","3","4","4","4","4","2","3","4","4","3","3","4","4","2","3","4","3","4","3","4","3","2","1","0","1","1","0","1","0","1","0","1","1","0","1","0","1","4","3","2","1","3","1","1","3","4","2","3","717817858293235712","钟","27","","","","","","","","","","","","","","","","","","","","","","","","","","","","","","","","","","","","","","","","","",""
"531","<p style=""color:white; font-size: 35px;"">小人</p>","i","categorize-html","55","171540","0.0-6.0-1.0-4.0-1.10","4","3","4","3","3","3","3","3","4","4","4","4","2","3","4","4","3","3","4","4","2","3","4","3","4","3","4","3","2","1","0","1","1","0","1","0","1","0","1","1","0","1","0","1","4","3","2","1","3","1","1","3","4","2","3","717817858293235712","钟","27","","","","","","","","","","","","","","","","","","","true","12","2","moral","531","negative","小人","","","","","","","","","","","","","","","","",""
"null","","null","html-keyboard-response","56","171791","0.0-6.0-1.0-4.0-0.11","4","3","4","3","3","3","3","3","4","4","4","4","2","3","4","4","3","3","4","4","2","3","4","3","4","3","4","3","2","1","0","1","1","0","1","0","1","0","1","1","0","1","0","1","4","3","2","1","3","1","1","3","4","2","3","717817858293235712","钟","27","","","","","","","","","","","","","","","","","","","","","","","","","","","","","","","","","","","","","","","","","",""
"377","<p style=""color:white; font-size: 35px;"">善良</p>","e","categorize-html","57","172169","0.0-6.0-1.0-4.0-1.11","4","3","4","3","3","3","3","3","4","4","4","4","2","3","4","4","3","3","4","4","2","3","4","3","4","3","4","3","2","1","0","1","1","0","1","0","1","0","1","1","0","1","0","1","4","3","2","1","3","1","1","3","4","2","3","717817858293235712","钟","27","","","","","","","","","","","","","","","","","","","true","12","2","moral","377","positive","善良","","","","","","","","","","","","","","","","",""
"1175","
    <div class=""tag-bottom""><p>
    —— 任务3：对“自我/积极”词和“他人/消极”词分类 ——<p/>
    <span style=""color:#78DCE8""><b>注意上方，之前的四类词语将混合在一起交替呈现</b></span><p/>
    <span style=""color:#FFD866""><b>请根据上方标签的提示，尽可能正确并且快速地做出按键反应</b></span><p/>
    当按键错误时屏幕中会出现<span style=""color:red""> X </span>，需要按另一个键纠正才能继续<br/><p/>
    请把双手食指分别放在键盘的“E”键和“I”键上<p/>
    按<空格键>开始
    </p></div>"," ","html-keyboard-response","58","173344","0.0-6.0-1.0-5.0","4","3","4","3","3","3","3","3","4","4","4","4","2","3","4","4","3","3","4","4","2","3","4","3","4","3","4","3","2","1","0","1","1","0","1","0","1","0","1","1","0","1","0","1","4","3","2","1","3","1","1","3","4","2","3","717817858293235712","钟","27","","","","","","","","","","","","","","","","","","","","","","","","","","","","","","","","","","","","","","","","","",""
"null","","null","html-keyboard-response","59","173596","0.0-6.0-1.0-6.0-0.0","4","3","4","3","3","3","3","3","4","4","4","4","2","3","4","4","3","3","4","4","2","3","4","3","4","3","4","3","2","1","0","1","1","0","1","0","1","0","1","1","0","1","0","1","4","3","2","1","3","1","1","3","4","2","3","717817858293235712","钟","27","","","","","","","","","","","","","","","","","","","","","","","","","","","","","","","","","","","","","","","","","",""
"676","<p style=""color:rgb(150, 250, 100); font-size: 35px;"">别人的</p>","i","categorize-html","60","174272","0.0-6.0-1.0-6.0-1.0","4","3","4","3","3","3","3","3","4","4","4","4","2","3","4","4","3","3","4","4","2","3","4","3","4","3","4","3","2","1","0","1","1","0","1","0","1","0","1","1","0","1","0","1","4","3","2","1","3","1","1","3","4","2","3","717817858293235712","钟","27","","","","","","","","","","","","","","","","","","","true","13","3","moral","676","other","别人的","","","","","","","","","","","","","","","","",""
"null","","null","html-keyboard-response","61","174523","0.0-6.0-1.0-6.0-0.1","4","3","4","3","3","3","3","3","4","4","4","4","2","3","4","4","3","3","4","4","2","3","4","3","4","3","4","3","2","1","0","1","1","0","1","0","1","0","1","1","0","1","0","1","4","3","2","1","3","1","1","3","4","2","3","717817858293235712","钟","27","","","","","","","","","","","","","","","","","","","","","","","","","","","","","","","","","","","","","","","","","",""
"537","<p style=""color:white; font-size: 35px;"">卑鄙</p>","i","categorize-html","62","175062","0.0-6.0-1.0-6.0-1.1","4","3","4","3","3","3","3","3","4","4","4","4","2","3","4","4","3","3","4","4","2","3","4","3","4","3","4","3","2","1","0","1","1","0","1","0","1","0","1","1","0","1","0","1","4","3","2","1","3","1","1","3","4","2","3","717817858293235712","钟","27","","","","","","","","","","","","","","","","","","","true","13","3","moral","537","negative","卑鄙","","","","","","","","","","","","","","","","",""
"null","","null","html-keyboard-response","63","175313","0.0-6.0-1.0-6.0-0.2","4","3","4","3","3","3","3","3","4","4","4","4","2","3","4","4","3","3","4","4","2","3","4","3","4","3","4","3","2","1","0","1","1","0","1","0","1","0","1","1","0","1","0","1","4","3","2","1","3","1","1","3","4","2","3","717817858293235712","钟","27","","","","","","","","","","","","","","","","","","","","","","","","","","","","","","","","","","","","","","","","","",""
"487","<p style=""color:rgb(150, 250, 100); font-size: 35px;"">自己的</p>","e","categorize-html","64","175801","0.0-6.0-1.0-6.0-1.2","4","3","4","3","3","3","3","3","4","4","4","4","2","3","4","4","3","3","4","4","2","3","4","3","4","3","4","3","2","1","0","1","1","0","1","0","1","0","1","1","0","1","0","1","4","3","2","1","3","1","1","3","4","2","3","717817858293235712","钟","27","","","","","","","","","","","","","","","","","","","true","13","3","moral","487","self","自己的","","","","","","","","","","","","","","","","",""
"null","","null","html-keyboard-response","65","176052","0.0-6.0-1.0-6.0-0.3","4","3","4","3","3","3","3","3","4","4","4","4","2","3","4","4","3","3","4","4","2","3","4","3","4","3","4","3","2","1","0","1","1","0","1","0","1","0","1","1","0","1","0","1","4","3","2","1","3","1","1","3","4","2","3","717817858293235712","钟","27","","","","","","","","","","","","","","","","","","","","","","","","","","","","","","","","","","","","","","","","","",""
"332","<p style=""color:white; font-size: 35px;"">善良</p>","e","categorize-html","66","176384","0.0-6.0-1.0-6.0-1.3","4","3","4","3","3","3","3","3","4","4","4","4","2","3","4","4","3","3","4","4","2","3","4","3","4","3","4","3","2","1","0","1","1","0","1","0","1","0","1","1","0","1","0","1","4","3","2","1","3","1","1","3","4","2","3","717817858293235712","钟","27","","","","","","","","","","","","","","","","","","","true","13","3","moral","332","positive","善良","","","","","","","","","","","","","","","","",""
"null","","null","html-keyboard-response","67","176636","0.0-6.0-1.0-6.0-0.4","4","3","4","3","3","3","3","3","4","4","4","4","2","3","4","4","3","3","4","4","2","3","4","3","4","3","4","3","2","1","0","1","1","0","1","0","1","0","1","1","0","1","0","1","4","3","2","1","3","1","1","3","4","2","3","717817858293235712","钟","27","","","","","","","","","","","","","","","","","","","","","","","","","","","","","","","","","","","","","","","","","",""
"405","<p style=""color:rgb(150, 250, 100); font-size: 35px;"">别人</p>","i","categorize-html","68","177041","0.0-6.0-1.0-6.0-1.4","4","3","4","3","3","3","3","3","4","4","4","4","2","3","4","4","3","3","4","4","2","3","4","3","4","3","4","3","2","1","0","1","1","0","1","0","1","0","1","1","0","1","0","1","4","3","2","1","3","1","1","3","4","2","3","717817858293235712","钟","27","","","","","","","","","","","","","","","","","","","true","13","3","moral","405","other","别人","","","","","","","","","","","","","","","","",""
"null","","null","html-keyboard-response","69","177292","0.0-6.0-1.0-6.0-0.5","4","3","4","3","3","3","3","3","4","4","4","4","2","3","4","4","3","3","4","4","2","3","4","3","4","3","4","3","2","1","0","1","1","0","1","0","1","0","1","1","0","1","0","1","4","3","2","1","3","1","1","3","4","2","3","717817858293235712","钟","27","","","","","","","","","","","","","","","","","","","","","","","","","","","","","","","","","","","","","","","","","",""
"461","<p style=""color:white; font-size: 35px;"">诚信</p>","e","categorize-html","70","177753","0.0-6.0-1.0-6.0-1.5","4","3","4","3","3","3","3","3","4","4","4","4","2","3","4","4","3","3","4","4","2","3","4","3","4","3","4","3","2","1","0","1","1","0","1","0","1","0","1","1","0","1","0","1","4","3","2","1","3","1","1","3","4","2","3","717817858293235712","钟","27","","","","","","","","","","","","","","","","","","","true","13","3","moral","461","positive","诚信","","","","","","","","","","","","","","","","",""
"null","","null","html-keyboard-response","71","178004","0.0-6.0-1.0-6.0-0.6","4","3","4","3","3","3","3","3","4","4","4","4","2","3","4","4","3","3","4","4","2","3","4","3","4","3","4","3","2","1","0","1","1","0","1","0","1","0","1","1","0","1","0","1","4","3","2","1","3","1","1","3","4","2","3","717817858293235712","钟","27","","","","","","","","","","","","","","","","","","","","","","","","","","","","","","","","","","","","","","","","","",""
"388","<p style=""color:rgb(150, 250, 100); font-size: 35px;"">本人的</p>","e","categorize-html","72","178393","0.0-6.0-1.0-6.0-1.6","4","3","4","3","3","3","3","3","4","4","4","4","2","3","4","4","3","3","4","4","2","3","4","3","4","3","4","3","2","1","0","1","1","0","1","0","1","0","1","1","0","1","0","1","4","3","2","1","3","1","1","3","4","2","3","717817858293235712","钟","27","","","","","","","","","","","","","","","","","","","true","13","3","moral","388","self","本人的","","","","","","","","","","","","","","","","",""
"null","","null","html-keyboard-response","73","178645","0.0-6.0-1.0-6.0-0.7","4","3","4","3","3","3","3","3","4","4","4","4","2","3","4","4","3","3","4","4","2","3","4","3","4","3","4","3","2","1","0","1","1","0","1","0","1","0","1","1","0","1","0","1","4","3","2","1","3","1","1","3","4","2","3","717817858293235712","钟","27","","","","","","","","","","","","","","","","","","","","","","","","","","","","","","","","","","","","","","","","","",""
"399","<p style=""color:white; font-size: 35px;"">不仁</p>","i","categorize-html","74","179044","0.0-6.0-1.0-6.0-1.7","4","3","4","3","3","3","3","3","4","4","4","4","2","3","4","4","3","3","4","4","2","3","4","3","4","3","4","3","2","1","0","1","1","0","1","0","1","0","1","1","0","1","0","1","4","3","2","1","3","1","1","3","4","2","3","717817858293235712","钟","27","","","","","","","","","","","","","","","","","","","true","13","3","moral","399","negative","不仁","","","","","","","","","","","","","","","","",""
"null","","null","html-keyboard-response","75","179295","0.0-6.0-1.0-6.0-0.8","4","3","4","3","3","3","3","3","4","4","4","4","2","3","4","4","3","3","4","4","2","3","4","3","4","3","4","3","2","1","0","1","1","0","1","0","1","0","1","1","0","1","0","1","4","3","2","1","3","1","1","3","4","2","3","717817858293235712","钟","27","","","","","","","","","","","","","","","","","","","","","","","","","","","","","","","","","","","","","","","","","",""
"481","<p style=""color:rgb(150, 250, 100); font-size: 35px;"">他人</p>","i","categorize-html","76","179777","0.0-6.0-1.0-6.0-1.8","4","3","4","3","3","3","3","3","4","4","4","4","2","3","4","4","3","3","4","4","2","3","4","3","4","3","4","3","2","1","0","1","1","0","1","0","1","0","1","1","0","1","0","1","4","3","2","1","3","1","1","3","4","2","3","717817858293235712","钟","27","","","","","","","","","","","","","","","","","","","true","13","3","moral","481","other","他人","","","","","","","","","","","","","","","","",""
"null","","null","html-keyboard-response","77","180027","0.0-6.0-1.0-6.0-0.9","4","3","4","3","3","3","3","3","4","4","4","4","2","3","4","4","3","3","4","4","2","3","4","3","4","3","4","3","2","1","0","1","1","0","1","0","1","0","1","1","0","1","0","1","4","3","2","1","3","1","1","3","4","2","3","717817858293235712","钟","27","","","","","","","","","","","","","","","","","","","","","","","","","","","","","","","","","","","","","","","","","",""
"400","<p style=""color:white; font-size: 35px;"">黑心</p>","i","categorize-html","78","180428","0.0-6.0-1.0-6.0-1.9","4","3","4","3","3","3","3","3","4","4","4","4","2","3","4","4","3","3","4","4","2","3","4","3","4","3","4","3","2","1","0","1","1","0","1","0","1","0","1","1","0","1","0","1","4","3","2","1","3","1","1","3","4","2","3","717817858293235712","钟","27","","","","","","","","","","","","","","","","","","","true","13","3","moral","400","negative","黑心","","","","","","","","","","","","","","","","",""
"null","","null","html-keyboard-response","79","180679","0.0-6.0-1.0-6.0-0.10","4","3","4","3","3","3","3","3","4","4","4","4","2","3","4","4","3","3","4","4","2","3","4","3","4","3","4","3","2","1","0","1","1","0","1","0","1","0","1","1","0","1","0","1","4","3","2","1","3","1","1","3","4","2","3","717817858293235712","钟","27","","","","","","","","","","","","","","","","","","","","","","","","","","","","","","","","","","","","","","","","","",""
"396","<p style=""color:rgb(150, 250, 100); font-size: 35px;"">自己</p>","e","categorize-html","80","181077","0.0-6.0-1.0-6.0-1.10","4","3","4","3","3","3","3","3","4","4","4","4","2","3","4","4","3","3","4","4","2","3","4","3","4","3","4","3","2","1","0","1","1","0","1","0","1","0","1","1","0","1","0","1","4","3","2","1","3","1","1","3","4","2","3","717817858293235712","钟","27","","","","","","","","","","","","","","","","","","","true","13","3","moral","396","self","自己","","","","","","","","","","","","","","","","",""
"null","","null","html-keyboard-response","81","181327","0.0-6.0-1.0-6.0-0.11","4","3","4","3","3","3","3","3","4","4","4","4","2","3","4","4","3","3","4","4","2","3","4","3","4","3","4","3","2","1","0","1","1","0","1","0","1","0","1","1","0","1","0","1","4","3","2","1","3","1","1","3","4","2","3","717817858293235712","钟","27","","","","","","","","","","","","","","","","","","","","","","","","","","","","","","","","","","","","","","","","","",""
"321","<p style=""color:white; font-size: 35px;"">正直</p>","e","categorize-html","82","181650","0.0-6.0-1.0-6.0-1.11","4","3","4","3","3","3","3","3","4","4","4","4","2","3","4","4","3","3","4","4","2","3","4","3","4","3","4","3","2","1","0","1","1","0","1","0","1","0","1","1","0","1","0","1","4","3","2","1","3","1","1","3","4","2","3","717817858293235712","钟","27","","","","","","","","","","","","","","","","","","","true","13","3","moral","321","positive","正直","","","","","","","","","","","","","","","","",""
"null","","null","html-keyboard-response","83","181900","0.0-6.0-1.0-6.0-0.12","4","3","4","3","3","3","3","3","4","4","4","4","2","3","4","4","3","3","4","4","2","3","4","3","4","3","4","3","2","1","0","1","1","0","1","0","1","0","1","1","0","1","0","1","4","3","2","1","3","1","1","3","4","2","3","717817858293235712","钟","27","","","","","","","","","","","","","","","","","","","","","","","","","","","","","","","","","","","","","","","","","",""
"626","<p style=""color:rgb(150, 250, 100); font-size: 35px;"">我</p>","e","categorize-html","84","182527","0.0-6.0-1.0-6.0-1.12","4","3","4","3","3","3","3","3","4","4","4","4","2","3","4","4","3","3","4","4","2","3","4","3","4","3","4","3","2","1","0","1","1","0","1","0","1","0","1","1","0","1","0","1","4","3","2","1","3","1","1","3","4","2","3","717817858293235712","钟","27","","","","","","","","","","","","","","","","","","","true","13","3","moral","626","self","我","","","","","","","","","","","","","","","","",""
"null","","null","html-keyboard-response","85","182778","0.0-6.0-1.0-6.0-0.13","4","3","4","3","3","3","3","3","4","4","4","4","2","3","4","4","3","3","4","4","2","3","4","3","4","3","4","3","2","1","0","1","1","0","1","0","1","0","1","1","0","1","0","1","4","3","2","1","3","1","1","3","4","2","3","717817858293235712","钟","27","","","","","","","","","","","","","","","","","","","","","","","","","","","","","","","","","","","","","","","","","",""
"509","<p style=""color:white; font-size: 35px;"">小人</p>","i","categorize-html","86","183288","0.0-6.0-1.0-6.0-1.13","4","3","4","3","3","3","3","3","4","4","4","4","2","3","4","4","3","3","4","4","2","3","4","3","4","3","4","3","2","1","0","1","1","0","1","0","1","0","1","1","0","1","0","1","4","3","2","1","3","1","1","3","4","2","3","717817858293235712","钟","27","","","","","","","","","","","","","","","","","","","true","13","3","moral","509","negative","小人","","","","","","","","","","","","","","","","",""
"null","","null","html-keyboard-response","87","183539","0.0-6.0-1.0-6.0-0.14","4","3","4","3","3","3","3","3","4","4","4","4","2","3","4","4","3","3","4","4","2","3","4","3","4","3","4","3","2","1","0","1","1","0","1","0","1","0","1","1","0","1","0","1","4","3","2","1","3","1","1","3","4","2","3","717817858293235712","钟","27","","","","","","","","","","","","","","","","","","","","","","","","","","","","","","","","","","","","","","","","","",""
"426","<p style=""color:rgb(150, 250, 100); font-size: 35px;"">他</p>","i","categorize-html","88","183966","0.0-6.0-1.0-6.0-1.14","4","3","4","3","3","3","3","3","4","4","4","4","2","3","4","4","3","3","4","4","2","3","4","3","4","3","4","3","2","1","0","1","1","0","1","0","1","0","1","1","0","1","0","1","4","3","2","1","3","1","1","3","4","2","3","717817858293235712","钟","27","","","","","","","","","","","","","","","","","","","true","13","3","moral","426","other","他","","","","","","","","","","","","","","","","",""
"null","","null","html-keyboard-response","89","184216","0.0-6.0-1.0-6.0-0.15","4","3","4","3","3","3","3","3","4","4","4","4","2","3","4","4","3","3","4","4","2","3","4","3","4","3","4","3","2","1","0","1","1","0","1","0","1","0","1","1","0","1","0","1","4","3","2","1","3","1","1","3","4","2","3","717817858293235712","钟","27","","","","","","","","","","","","","","","","","","","","","","","","","","","","","","","","","","","","","","","","","",""
"446","<p style=""color:white; font-size: 35px;"">高尚</p>","e","categorize-html","90","184663","0.0-6.0-1.0-6.0-1.15","4","3","4","3","3","3","3","3","4","4","4","4","2","3","4","4","3","3","4","4","2","3","4","3","4","3","4","3","2","1","0","1","1","0","1","0","1","0","1","1","0","1","0","1","4","3","2","1","3","1","1","3","4","2","3","717817858293235712","钟","27","","","","","","","","","","","","","","","","","","","true","13","3","moral","446","positive","高尚","","","","","","","","","","","","","","","","",""
"null","","null","html-keyboard-response","91","184914","0.0-6.0-1.0-6.0-0.16","4","3","4","3","3","3","3","3","4","4","4","4","2","3","4","4","3","3","4","4","2","3","4","3","4","3","4","3","2","1","0","1","1","0","1","0","1","0","1","1","0","1","0","1","4","3","2","1","3","1","1","3","4","2","3","717817858293235712","钟","27","","","","","","","","","","","","","","","","","","","","","","","","","","","","","","","","","","","","","","","","","",""
"411","<p style=""color:rgb(150, 250, 100); font-size: 35px;"">我的</p>","e","categorize-html","92","185325","0.0-6.0-1.0-6.0-1.16","4","3","4","3","3","3","3","3","4","4","4","4","2","3","4","4","3","3","4","4","2","3","4","3","4","3","4","3","2","1","0","1","1","0","1","0","1","0","1","1","0","1","0","1","4","3","2","1","3","1","1","3","4","2","3","717817858293235712","钟","27","","","","","","","","","","","","","","","","","","","true","13","3","moral","411","self","我的","","","","","","","","","","","","","","","","",""
"null","","null","html-keyboard-response","93","185577","0.0-6.0-1.0-6.0-0.17","4","3","4","3","3","3","3","3","4","4","4","4","2","3","4","4","3","3","4","4","2","3","4","3","4","3","4","3","2","1","0","1","1","0","1","0","1","0","1","1","0","1","0","1","4","3","2","1","3","1","1","3","4","2","3","717817858293235712","钟","27","","","","","","","","","","","","","","","","","","","","","","","","","","","","","","","","","","","","","","","","","",""
"527","<p style=""color:white; font-size: 35px;"">不孝</p>","i","categorize-html","94","186106","0.0-6.0-1.0-6.0-1.17","4","3","4","3","3","3","3","3","4","4","4","4","2","3","4","4","3","3","4","4","2","3","4","3","4","3","4","3","2","1","0","1","1","0","1","0","1","0","1","1","0","1","0","1","4","3","2","1","3","1","1","3","4","2","3","717817858293235712","钟","27","","","","","","","","","","","","","","","","","","","true","13","3","moral","527","negative","不孝","","","","","","","","","","","","","","","","",""
"null","","null","html-keyboard-response","95","186357","0.0-6.0-1.0-6.0-0.18","4","3","4","3","3","3","3","3","4","4","4","4","2","3","4","4","3","3","4","4","2","3","4","3","4","3","4","3","2","1","0","1","1","0","1","0","1","0","1","1","0","1","0","1","4","3","2","1","3","1","1","3","4","2","3","717817858293235712","钟","27","","","","","","","","","","","","","","","","","","","","","","","","","","","","","","","","","","","","","","","","","",""
"512","<p style=""color:rgb(150, 250, 100); font-size: 35px;"">他人的</p>","i","categorize-html","96","186869","0.0-6.0-1.0-6.0-1.18","4","3","4","3","3","3","3","3","4","4","4","4","2","3","4","4","3","3","4","4","2","3","4","3","4","3","4","3","2","1","0","1","1","0","1","0","1","0","1","1","0","1","0","1","4","3","2","1","3","1","1","3","4","2","3","717817858293235712","钟","27","","","","","","","","","","","","","","","","","","","true","13","3","moral","512","other","他人的","","","","","","","","","","","","","","","","",""
"null","","null","html-keyboard-response","97","187120","0.0-6.0-1.0-6.0-0.19","4","3","4","3","3","3","3","3","4","4","4","4","2","3","4","4","3","3","4","4","2","3","4","3","4","3","4","3","2","1","0","1","1","0","1","0","1","0","1","1","0","1","0","1","4","3","2","1","3","1","1","3","4","2","3","717817858293235712","钟","27","","","","","","","","","","","","","","","","","","","","","","","","","","","","","","","","","","","","","","","","","",""
"532","<p style=""color:white; font-size: 35px;"">君子</p>","e","categorize-html","98","187653","0.0-6.0-1.0-6.0-1.19","4","3","4","3","3","3","3","3","4","4","4","4","2","3","4","4","3","3","4","4","2","3","4","3","4","3","4","3","2","1","0","1","1","0","1","0","1","0","1","1","0","1","0","1","4","3","2","1","3","1","1","3","4","2","3","717817858293235712","钟","27","","","","","","","","","","","","","","","","","","","true","13","3","moral","532","positive","君子","","","","","","","","","","","","","","","","",""
"null","","null","html-keyboard-response","99","187904","0.0-6.0-1.0-6.0-0.20","4","3","4","3","3","3","3","3","4","4","4","4","2","3","4","4","3","3","4","4","2","3","4","3","4","3","4","3","2","1","0","1","1","0","1","0","1","0","1","1","0","1","0","1","4","3","2","1","3","1","1","3","4","2","3","717817858293235712","钟","27","","","","","","","","","","","","","","","","","","","","","","","","","","","","","","","","","","","","","","","","","",""
"427","<p style=""color:rgb(150, 250, 100); font-size: 35px;"">本人</p>","e","categorize-html","100","188332","0.0-6.0-1.0-6.0-1.20","4","3","4","3","3","3","3","3","4","4","4","4","2","3","4","4","3","3","4","4","2","3","4","3","4","3","4","3","2","1","0","1","1","0","1","0","1","0","1","1","0","1","0","1","4","3","2","1","3","1","1","3","4","2","3","717817858293235712","钟","27","","","","","","","","","","","","","","","","","","","true","13","3","moral","427","self","本人","","","","","","","","","","","","","","","","",""
"null","","null","html-keyboard-response","101","188583","0.0-6.0-1.0-6.0-0.21","4","3","4","3","3","3","3","3","4","4","4","4","2","3","4","4","3","3","4","4","2","3","4","3","4","3","4","3","2","1","0","1","1","0","1","0","1","0","1","1","0","1","0","1","4","3","2","1","3","1","1","3","4","2","3","717817858293235712","钟","27","","","","","","","","","","","","","","","","","","","","","","","","","","","","","","","","","","","","","","","","","",""
"450","<p style=""color:white; font-size: 35px;"">缺德</p>","i","categorize-html","102","189034","0.0-6.0-1.0-6.0-1.21","4","3","4","3","3","3","3","3","4","4","4","4","2","3","4","4","3","3","4","4","2","3","4","3","4","3","4","3","2","1","0","1","1","0","1","0","1","0","1","1","0","1","0","1","4","3","2","1","3","1","1","3","4","2","3","717817858293235712","钟","27","","","","","","","","","","","","","","","","","","","true","13","3","moral","450","negative","缺德","","","","","","","","","","","","","","","","",""
"null","","null","html-keyboard-response","103","189286","0.0-6.0-1.0-6.0-0.22","4","3","4","3","3","3","3","3","4","4","4","4","2","3","4","4","3","3","4","4","2","3","4","3","4","3","4","3","2","1","0","1","1","0","1","0","1","0","1","1","0","1","0","1","4","3","2","1","3","1","1","3","4","2","3","717817858293235712","钟","27","","","","","","","","","","","","","","","","","","","","","","","","","","","","","","","","","","","","","","","","","",""
"514","<p style=""color:rgb(150, 250, 100); font-size: 35px;"">他的</p>","i","categorize-html","104","189800","0.0-6.0-1.0-6.0-1.22","4","3","4","3","3","3","3","3","4","4","4","4","2","3","4","4","3","3","4","4","2","3","4","3","4","3","4","3","2","1","0","1","1","0","1","0","1","0","1","1","0","1","0","1","4","3","2","1","3","1","1","3","4","2","3","717817858293235712","钟","27","","","","","","","","","","","","","","","","","","","true","13","3","moral","514","other","他的","","","","","","","","","","","","","","","","",""
"null","","null","html-keyboard-response","105","190052","0.0-6.0-1.0-6.0-0.23","4","3","4","3","3","3","3","3","4","4","4","4","2","3","4","4","3","3","4","4","2","3","4","3","4","3","4","3","2","1","0","1","1","0","1","0","1","0","1","1","0","1","0","1","4","3","2","1","3","1","1","3","4","2","3","717817858293235712","钟","27","","","","","","","","","","","","","","","","","","","","","","","","","","","","","","","","","","","","","","","","","",""
"539","<p style=""color:white; font-size: 35px;"">廉正</p>","e","categorize-html","106","190591","0.0-6.0-1.0-6.0-1.23","4","3","4","3","3","3","3","3","4","4","4","4","2","3","4","4","3","3","4","4","2","3","4","3","4","3","4","3","2","1","0","1","1","0","1","0","1","0","1","1","0","1","0","1","4","3","2","1","3","1","1","3","4","2","3","717817858293235712","钟","27","","","","","","","","","","","","","","","","","","","true","13","3","moral","539","positive","廉正","","","","","","","","","","","","","","","","",""
"4298","
    <div class=""tag-bottom""><p>
    —— 任务4：对“自我/积极”词和“他人/消极”词分类 ——<p/>
    <span style=""color:#78DCE8""><b>与刚才的任务完全相同，请再次对这四类词语分类</b></span><p/>
    <span style=""color:#FFD866""><b>请根据上方标签的提示，尽可能正确并且快速地做出按键反应</b></span><p/>
    当按键错误时屏幕中会出现<span style=""color:red""> X </span>，需要按另一个键纠正才能继续<br/><p/>
    请把双手食指分别放在键盘的“E”键和“I”键上<p/>
    按<空格键>开始
    </p></div>"," ","html-keyboard-response","107","194889","0.0-6.0-1.0-7.0","4","3","4","3","3","3","3","3","4","4","4","4","2","3","4","4","3","3","4","4","2","3","4","3","4","3","4","3","2","1","0","1","1","0","1","0","1","0","1","1","0","1","0","1","4","3","2","1","3","1","1","3","4","2","3","717817858293235712","钟","27","","","","","","","","","","","","","","","","","","","","","","","","","","","","","","","","","","","","","","","","","",""
"null","","null","html-keyboard-response","108","195141","0.0-6.0-1.0-8.0-0.0","4","3","4","3","3","3","3","3","4","4","4","4","2","3","4","4","3","3","4","4","2","3","4","3","4","3","4","3","2","1","0","1","1","0","1","0","1","0","1","1","0","1","0","1","4","3","2","1","3","1","1","3","4","2","3","717817858293235712","钟","27","","","","","","","","","","","","","","","","","","","","","","","","","","","","","","","","","","","","","","","","","",""
"507","<p style=""color:rgb(150, 250, 100); font-size: 35px;"">他的</p>","i","categorize-html","109","195650","0.0-6.0-1.0-8.0-1.0","4","3","4","3","3","3","3","3","4","4","4","4","2","3","4","4","3","3","4","4","2","3","4","3","4","3","4","3","2","1","0","1","1","0","1","0","1","0","1","1","0","1","0","1","4","3","2","1","3","1","1","3","4","2","3","717817858293235712","钟","27","","","","","","","","","","","","","","","","","","","true","14","4","moral","507","other","他的","","","","","","","","","","","","","","","","",""
"null","","null","html-keyboard-response","110","195900","0.0-6.0-1.0-8.0-0.1","4","3","4","3","3","3","3","3","4","4","4","4","2","3","4","4","3","3","4","4","2","3","4","3","4","3","4","3","2","1","0","1","1","0","1","0","1","0","1","1","0","1","0","1","4","3","2","1","3","1","1","3","4","2","3","717817858293235712","钟","27","","","","","","","","","","","","","","","","","","","","","","","","","","","","","","","","","","","","","","","","","",""
"490","<p style=""color:white; font-size: 35px;"">正直</p>","e","categorize-html","111","196391","0.0-6.0-1.0-8.0-1.1","4","3","4","3","3","3","3","3","4","4","4","4","2","3","4","4","3","3","4","4","2","3","4","3","4","3","4","3","2","1","0","1","1","0","1","0","1","0","1","1","0","1","0","1","4","3","2","1","3","1","1","3","4","2","3","717817858293235712","钟","27","","","","","","","","","","","","","","","","","","","true","14","4","moral","490","positive","正直","","","","","","","","","","","","","","","","",""
"null","","null","html-keyboard-response","112","196641","0.0-6.0-1.0-8.0-0.2","4","3","4","3","3","3","3","3","4","4","4","4","2","3","4","4","3","3","4","4","2","3","4","3","4","3","4","3","2","1","0","1","1","0","1","0","1","0","1","1","0","1","0","1","4","3","2","1","3","1","1","3","4","2","3","717817858293235712","钟","27","","","","","","","","","","","","","","","","","","","","","","","","","","","","","","","","","","","","","","","","","",""
"351","<p style=""color:rgb(150, 250, 100); font-size: 35px;"">本人</p>","e","categorize-html","113","196993","0.0-6.0-1.0-8.0-1.2","4","3","4","3","3","3","3","3","4","4","4","4","2","3","4","4","3","3","4","4","2","3","4","3","4","3","4","3","2","1","0","1","1","0","1","0","1","0","1","1","0","1","0","1","4","3","2","1","3","1","1","3","4","2","3","717817858293235712","钟","27","","","","","","","","","","","","","","","","","","","true","14","4","moral","351","self","本人","","","","","","","","","","","","","","","","",""
"null","","null","html-keyboard-response","114","197245","0.0-6.0-1.0-8.0-0.3","4","3","4","3","3","3","3","3","4","4","4","4","2","3","4","4","3","3","4","4","2","3","4","3","4","3","4","3","2","1","0","1","1","0","1","0","1","0","1","1","0","1","0","1","4","3","2","1","3","1","1","3","4","2","3","717817858293235712","钟","27","","","","","","","","","","","","","","","","","","","","","","","","","","","","","","","","","","","","","","","","","",""
"423","<p style=""color:white; font-size: 35px;"">黑心</p>","i","categorize-html","115","197668","0.0-6.0-1.0-8.0-1.3","4","3","4","3","3","3","3","3","4","4","4","4","2","3","4","4","3","3","4","4","2","3","4","3","4","3","4","3","2","1","0","1","1","0","1","0","1","0","1","1","0","1","0","1","4","3","2","1","3","1","1","3","4","2","3","717817858293235712","钟","27","","","","","","","","","","","","","","","","","","","true","14","4","moral","423","negative","黑心","","","","","","","","","","","","","","","","",""
"null","","null","html-keyboard-response","116","197920","0.0-6.0-1.0-8.0-0.4","4","3","4","3","3","3","3","3","4","4","4","4","2","3","4","4","3","3","4","4","2","3","4","3","4","3","4","3","2","1","0","1","1","0","1","0","1","0","1","1","0","1","0","1","4","3","2","1","3","1","1","3","4","2","3","717817858293235712","钟","27","","","","","","","","","","","","","","","","","","","","","","","","","","","","","","","","","","","","","","","","","",""
"401","<p style=""color:rgb(150, 250, 100); font-size: 35px;"">自己的</p>","e","categorize-html","117","198321","0.0-6.0-1.0-8.0-1.4","4","3","4","3","3","3","3","3","4","4","4","4","2","3","4","4","3","3","4","4","2","3","4","3","4","3","4","3","2","1","0","1","1","0","1","0","1","0","1","1","0","1","0","1","4","3","2","1","3","1","1","3","4","2","3","717817858293235712","钟","27","","","","","","","","","","","","","","","","","","","true","14","4","moral","401","self","自己的","","","","","","","","","","","","","","","","",""
"null","","null","html-keyboard-response","118","198572","0.0-6.0-1.0-8.0-0.5","4","3","4","3","3","3","3","3","4","4","4","4","2","3","4","4","3","3","4","4","2","3","4","3","4","3","4","3","2","1","0","1","1","0","1","0","1","0","1","1","0","1","0","1","4","3","2","1","3","1","1","3","4","2","3","717817858293235712","钟","27","","","","","","","","","","","","","","","","","","","","","","","","","","","","","","","","","","","","","","","","","",""
"363","<p style=""color:white; font-size: 35px;"">君子</p>","e","categorize-html","119","198937","0.0-6.0-1.0-8.0-1.5","4","3","4","3","3","3","3","3","4","4","4","4","2","3","4","4","3","3","4","4","2","3","4","3","4","3","4","3","2","1","0","1","1","0","1","0","1","0","1","1","0","1","0","1","4","3","2","1","3","1","1","3","4","2","3","717817858293235712","钟","27","","","","","","","","","","","","","","","","","","","true","14","4","moral","363","positive","君子","","","","","","","","","","","","","","","","",""
"null","","null","html-keyboard-response","120","199188","0.0-6.0-1.0-8.0-0.6","4","3","4","3","3","3","3","3","4","4","4","4","2","3","4","4","3","3","4","4","2","3","4","3","4","3","4","3","2","1","0","1","1","0","1","0","1","0","1","1","0","1","0","1","4","3","2","1","3","1","1","3","4","2","3","717817858293235712","钟","27","","","","","","","","","","","","","","","","","","","","","","","","","","","","","","","","","","","","","","","","","",""
"465","<p style=""color:rgb(150, 250, 100); font-size: 35px;"">他人</p>","i","categorize-html","121","199654","0.0-6.0-1.0-8.0-1.6","4","3","4","3","3","3","3","3","4","4","4","4","2","3","4","4","3","3","4","4","2","3","4","3","4","3","4","3","2","1","0","1","1","0","1","0","1","0","1","1","0","1","0","1","4","3","2","1","3","1","1","3","4","2","3","717817858293235712","钟","27","","","","","","","","","","","","","","","","","","","true","14","4","moral","465","other","他人","","","","","","","","","","","","","","","","",""
"null","","null","html-keyboard-response","122","199905","0.0-6.0-1.0-8.0-0.7","4","3","4","3","3","3","3","3","4","4","4","4","2","3","4","4","3","3","4","4","2","3","4","3","4","3","4","3","2","1","0","1","1","0","1","0","1","0","1","1","0","1","0","1","4","3","2","1","3","1","1","3","4","2","3","717817858293235712","钟","27","","","","","","","","","","","","","","","","","","","","","","","","","","","","","","","","","","","","","","","","","",""
"486","<p style=""color:white; font-size: 35px;"">不孝</p>","i","categorize-html","123","200392","0.0-6.0-1.0-8.0-1.7","4","3","4","3","3","3","3","3","4","4","4","4","2","3","4","4","3","3","4","4","2","3","4","3","4","3","4","3","2","1","0","1","1","0","1","0","1","0","1","1","0","1","0","1","4","3","2","1","3","1","1","3","4","2","3","717817858293235712","钟","27","","","","","","","","","","","","","","","","","","","true","14","4","moral","486","negative","不孝","","","","","","","","","","","","","","","","",""
"null","","null","html-keyboard-response","124","200643","0.0-6.0-1.0-8.0-0.8","4","3","4","3","3","3","3","3","4","4","4","4","2","3","4","4","3","3","4","4","2","3","4","3","4","3","4","3","2","1","0","1","1","0","1","0","1","0","1","1","0","1","0","1","4","3","2","1","3","1","1","3","4","2","3","717817858293235712","钟","27","","","","","","","","","","","","","","","","","","","","","","","","","","","","","","","","","","","","","","","","","",""
"399","<p style=""color:rgb(150, 250, 100); font-size: 35px;"">他人的</p>","i","categorize-html","125","201042","0.0-6.0-1.0-8.0-1.8","4","3","4","3","3","3","3","3","4","4","4","4","2","3","4","4","3","3","4","4","2","3","4","3","4","3","4","3","2","1","0","1","1","0","1","0","1","0","1","1","0","1","0","1","4","3","2","1","3","1","1","3","4","2","3","717817858293235712","钟","27","","","","","","","","","","","","","","","","","","","true","14","4","moral","399","other","他人的","","","","","","","","","","","","","","","","",""
"null","","null","html-keyboard-response","126","201294","0.0-6.0-1.0-8.0-0.9","4","3","4","3","3","3","3","3","4","4","4","4","2","3","4","4","3","3","4","4","2","3","4","3","4","3","4","3","2","1","0","1","1","0","1","0","1","0","1","1","0","1","0","1","4","3","2","1","3","1","1","3","4","2","3","717817858293235712","钟","27","","","","","","","","","","","","","","","","","","","","","","","","","","","","","","","","","","","","","","","","","",""
"482","<p style=""color:white; font-size: 35px;"">廉正</p>","e","categorize-html","127","201776","0.0-6.0-1.0-8.0-1.9","4","3","4","3","3","3","3","3","4","4","4","4","2","3","4","4","3","3","4","4","2","3","4","3","4","3","4","3","2","1","0","1","1","0","1","0","1","0","1","1","0","1","0","1","4","3","2","1","3","1","1","3","4","2","3","717817858293235712","钟","27","","","","","","","","","","","","","","","","","","","true","14","4","moral","482","positive","廉正","","","","","","","","","","","","","","","","",""
"null","","null","html-keyboard-response","128","202028","0.0-6.0-1.0-8.0-0.10","4","3","4","3","3","3","3","3","4","4","4","4","2","3","4","4","3","3","4","4","2","3","4","3","4","3","4","3","2","1","0","1","1","0","1","0","1","0","1","1","0","1","0","1","4","3","2","1","3","1","1","3","4","2","3","717817858293235712","钟","27","","","","","","","","","","","","","","","","","","","","","","","","","","","","","","","","","","","","","","","","","",""
"308","<p style=""color:rgb(150, 250, 100); font-size: 35px;"">我</p>","e","categorize-html","129","202336","0.0-6.0-1.0-8.0-1.10","4","3","4","3","3","3","3","3","4","4","4","4","2","3","4","4","3","3","4","4","2","3","4","3","4","3","4","3","2","1","0","1","1","0","1","0","1","0","1","1","0","1","0","1","4","3","2","1","3","1","1","3","4","2","3","717817858293235712","钟","27","","","","","","","","","","","","","","","","","","","true","14","4","moral","308","self","我","","","","","","","","","","","","","","","","",""
"null","","null","html-keyboard-response","130","202588","0.0-6.0-1.0-8.0-0.11","4","3","4","3","3","3","3","3","4","4","4","4","2","3","4","4","3","3","4","4","2","3","4","3","4","3","4","3","2","1","0","1","1","0","1","0","1","0","1","1","0","1","0","1","4","3","2","1","3","1","1","3","4","2","3","717817858293235712","钟","27","","","","","","","","","","","","","","","","","","","","","","","","","","","","","","","","","","","","","","","","","",""
"390","<p style=""color:white; font-size: 35px;"">黑心</p>","i","categorize-html","131","202978","0.0-6.0-1.0-8.0-1.11","4","3","4","3","3","3","3","3","4","4","4","4","2","3","4","4","3","3","4","4","2","3","4","3","4","3","4","3","2","1","0","1","1","0","1","0","1","0","1","1","0","1","0","1","4","3","2","1","3","1","1","3","4","2","3","717817858293235712","钟","27","","","","","","","","","","","","","","","","","","","true","14","4","moral","390","negative","黑心","","","","","","","","","","","","","","","","",""
"null","","null","html-keyboard-response","132","203229","0.0-6.0-1.0-8.0-0.12","4","3","4","3","3","3","3","3","4","4","4","4","2","3","4","4","3","3","4","4","2","3","4","3","4","3","4","3","2","1","0","1","1","0","1","0","1","0","1","1","0","1","0","1","4","3","2","1","3","1","1","3","4","2","3","717817858293235712","钟","27","","","","","","","","","","","","","","","","","","","","","","","","","","","","","","","","","","","","","","","","","",""
"477","<p style=""color:rgb(150, 250, 100); font-size: 35px;"">他</p>","i","categorize-html","133","203707","0.0-6.0-1.0-8.0-1.12","4","3","4","3","3","3","3","3","4","4","4","4","2","3","4","4","3","3","4","4","2","3","4","3","4","3","4","3","2","1","0","1","1","0","1","0","1","0","1","1","0","1","0","1","4","3","2","1","3","1","1","3","4","2","3","717817858293235712","钟","27","","","","","","","","","","","","","","","","","","","true","14","4","moral","477","other","他","","","","","","","","","","","","","","","","",""
"null","","null","html-keyboard-response","134","203958","0.0-6.0-1.0-8.0-0.13","4","3","4","3","3","3","3","3","4","4","4","4","2","3","4","4","3","3","4","4","2","3","4","3","4","3","4","3","2","1","0","1","1","0","1","0","1","0","1","1","0","1","0","1","4","3","2","1","3","1","1","3","4","2","3","717817858293235712","钟","27","","","","","","","","","","","","","","","","","","","","","","","","","","","","","","","","","","","","","","","","","",""
"406","<p style=""color:white; font-size: 35px;"">不孝</p>","i","categorize-html","135","204364","0.0-6.0-1.0-8.0-1.13","4","3","4","3","3","3","3","3","4","4","4","4","2","3","4","4","3","3","4","4","2","3","4","3","4","3","4","3","2","1","0","1","1","0","1","0","1","0","1","1","0","1","0","1","4","3","2","1","3","1","1","3","4","2","3","717817858293235712","钟","27","","","","","","","","","","","","","","","","","","","true","14","4","moral","406","negative","不孝","","","","","","","","","","","","","","","","",""
"null","","null","html-keyboard-response","136","204615","0.0-6.0-1.0-8.0-0.14","4","3","4","3","3","3","3","3","4","4","4","4","2","3","4","4","3","3","4","4","2","3","4","3","4","3","4","3","2","1","0","1","1","0","1","0","1","0","1","1","0","1","0","1","4","3","2","1","3","1","1","3","4","2","3","717817858293235712","钟","27","","","","","","","","","","","","","","","","","","","","","","","","","","","","","","","","","","","","","","","","","",""
"442","<p style=""color:rgb(150, 250, 100); font-size: 35px;"">自己</p>","e","categorize-html","137","205058","0.0-6.0-1.0-8.0-1.14","4","3","4","3","3","3","3","3","4","4","4","4","2","3","4","4","3","3","4","4","2","3","4","3","4","3","4","3","2","1","0","1","1","0","1","0","1","0","1","1","0","1","0","1","4","3","2","1","3","1","1","3","4","2","3","717817858293235712","钟","27","","","","","","","","","","","","","","","","","","","true","14","4","moral","442","self","自己","","","","","","","","","","","","","","","","",""
"null","","null","html-keyboard-response","138","205309","0.0-6.0-1.0-8.0-0.15","4","3","4","3","3","3","3","3","4","4","4","4","2","3","4","4","3","3","4","4","2","3","4","3","4","3","4","3","2","1","0","1","1","0","1","0","1","0","1","1","0","1","0","1","4","3","2","1","3","1","1","3","4","2","3","717817858293235712","钟","27","","","","","","","","","","","","","","","","","","","","","","","","","","","","","","","","","","","","","","","","","",""
"443","<p style=""color:white; font-size: 35px;"">善良</p>","e","categorize-html","139","205753","0.0-6.0-1.0-8.0-1.15","4","3","4","3","3","3","3","3","4","4","4","4","2","3","4","4","3","3","4","4","2","3","4","3","4","3","4","3","2","1","0","1","1","0","1","0","1","0","1","1","0","1","0","1","4","3","2","1","3","1","1","3","4","2","3","717817858293235712","钟","27","","","","","","","","","","","","","","","","","","","true","14","4","moral","443","positive","善良","","","","","","","","","","","","","","","","",""
"null","","null","html-keyboard-response","140","206004","0.0-6.0-1.0-8.0-0.16","4","3","4","3","3","3","3","3","4","4","4","4","2","3","4","4","3","3","4","4","2","3","4","3","4","3","4","3","2","1","0","1","1","0","1","0","1","0","1","1","0","1","0","1","4","3","2","1","3","1","1","3","4","2","3","717817858293235712","钟","27","","","","","","","","","","","","","","","","","","","","","","","","","","","","","","","","","","","","","","","","","",""
"321","<p style=""color:rgb(150, 250, 100); font-size: 35px;"">他的</p>","e","categorize-html","141","206754","0.0-6.0-1.0-8.0-1.16","4","3","4","3","3","3","3","3","4","4","4","4","2","3","4","4","3","3","4","4","2","3","4","3","4","3","4","3","2","1","0","1","1","0","1","0","1","0","1","1","0","1","0","1","4","3","2","1","3","1","1","3","4","2","3","717817858293235712","钟","27","","","","","","","","","","","","","","","","","","","false","14","4","moral","1031.086956521739","other","他的","","","","","","","","","","","","","","","","",""
"null","","null","html-keyboard-response","142","207006","0.0-6.0-1.0-8.0-0.17","4","3","4","3","3","3","3","3","4","4","4","4","2","3","4","4","3","3","4","4","2","3","4","3","4","3","4","3","2","1","0","1","1","0","1","0","1","0","1","1","0","1","0","1","4","3","2","1","3","1","1","3","4","2","3","717817858293235712","钟","27","","","","","","","","","","","","","","","","","","","","","","","","","","","","","","","","","","","","","","","","","",""
"406","<p style=""color:white; font-size: 35px;"">诚信</p>","e","categorize-html","143","207412","0.0-6.0-1.0-8.0-1.17","4","3","4","3","3","3","3","3","4","4","4","4","2","3","4","4","3","3","4","4","2","3","4","3","4","3","4","3","2","1","0","1","1","0","1","0","1","0","1","1","0","1","0","1","4","3","2","1","3","1","1","3","4","2","3","717817858293235712","钟","27","","","","","","","","","","","","","","","","","","","true","14","4","moral","406","positive","诚信","","","","","","","","","","","","","","","","",""
"null","","null","html-keyboard-response","144","207663","0.0-6.0-1.0-8.0-0.18","4","3","4","3","3","3","3","3","4","4","4","4","2","3","4","4","3","3","4","4","2","3","4","3","4","3","4","3","2","1","0","1","1","0","1","0","1","0","1","1","0","1","0","1","4","3","2","1","3","1","1","3","4","2","3","717817858293235712","钟","27","","","","","","","","","","","","","","","","","","","","","","","","","","","","","","","","","","","","","","","","","",""
"374","<p style=""color:rgb(150, 250, 100); font-size: 35px;"">自己的</p>","e","categorize-html","145","208038","0.0-6.0-1.0-8.0-1.18","4","3","4","3","3","3","3","3","4","4","4","4","2","3","4","4","3","3","4","4","2","3","4","3","4","3","4","3","2","1","0","1","1","0","1","0","1","0","1","1","0","1","0","1","4","3","2","1","3","1","1","3","4","2","3","717817858293235712","钟","27","","","","","","","","","","","","","","","","","","","true","14","4","moral","374","self","自己的","","","","","","","","","","","","","","","","",""
"null","","null","html-keyboard-response","146","208288","0.0-6.0-1.0-8.0-0.19","4","3","4","3","3","3","3","3","4","4","4","4","2","3","4","4","3","3","4","4","2","3","4","3","4","3","4","3","2","1","0","1","1","0","1","0","1","0","1","1","0","1","0","1","4","3","2","1","3","1","1","3","4","2","3","717817858293235712","钟","27","","","","","","","","","","","","","","","","","","","","","","","","","","","","","","","","","","","","","","","","","",""
"409","<p style=""color:white; font-size: 35px;"">缺德</p>","i","categorize-html","147","208698","0.0-6.0-1.0-8.0-1.19","4","3","4","3","3","3","3","3","4","4","4","4","2","3","4","4","3","3","4","4","2","3","4","3","4","3","4","3","2","1","0","1","1","0","1","0","1","0","1","1","0","1","0","1","4","3","2","1","3","1","1","3","4","2","3","717817858293235712","钟","27","","","","","","","","","","","","","","","","","","","true","14","4","moral","409","negative","缺德","","","","","","","","","","","","","","","","",""
"null","","null","html-keyboard-response","148","208949","0.0-6.0-1.0-8.0-0.20","4","3","4","3","3","3","3","3","4","4","4","4","2","3","4","4","3","3","4","4","2","3","4","3","4","3","4","3","2","1","0","1","1","0","1","0","1","0","1","1","0","1","0","1","4","3","2","1","3","1","1","3","4","2","3","717817858293235712","钟","27","","","","","","","","","","","","","","","","","","","","","","","","","","","","","","","","","","","","","","","","","",""
"484","<p style=""color:rgb(150, 250, 100); font-size: 35px;"">本人的</p>","e","categorize-html","149","209434","0.0-6.0-1.0-8.0-1.20","4","3","4","3","3","3","3","3","4","4","4","4","2","3","4","4","3","3","4","4","2","3","4","3","4","3","4","3","2","1","0","1","1","0","1","0","1","0","1","1","0","1","0","1","4","3","2","1","3","1","1","3","4","2","3","717817858293235712","钟","27","","","","","","","","","","","","","","","","","","","true","14","4","moral","484","self","本人的","","","","","","","","","","","","","","","","",""
"null","","null","html-keyboard-response","150","209684","0.0-6.0-1.0-8.0-0.21","4","3","4","3","3","3","3","3","4","4","4","4","2","3","4","4","3","3","4","4","2","3","4","3","4","3","4","3","2","1","0","1","1","0","1","0","1","0","1","1","0","1","0","1","4","3","2","1","3","1","1","3","4","2","3","717817858293235712","钟","27","","","","","","","","","","","","","","","","","","","","","","","","","","","","","","","","","","","","","","","","","",""
"417","<p style=""color:white; font-size: 35px;"">卑鄙</p>","i","categorize-html","151","210102","0.0-6.0-1.0-8.0-1.21","4","3","4","3","3","3","3","3","4","4","4","4","2","3","4","4","3","3","4","4","2","3","4","3","4","3","4","3","2","1","0","1","1","0","1","0","1","0","1","1","0","1","0","1","4","3","2","1","3","1","1","3","4","2","3","717817858293235712","钟","27","","","","","","","","","","","","","","","","","","","true","14","4","moral","417","negative","卑鄙","","","","","","","","","","","","","","","","",""
"null","","null","html-keyboard-response","152","210353","0.0-6.0-1.0-8.0-0.22","4","3","4","3","3","3","3","3","4","4","4","4","2","3","4","4","3","3","4","4","2","3","4","3","4","3","4","3","2","1","0","1","1","0","1","0","1","0","1","1","0","1","0","1","4","3","2","1","3","1","1","3","4","2","3","717817858293235712","钟","27","","","","","","","","","","","","","","","","","","","","","","","","","","","","","","","","","","","","","","","","","",""
"516","<p style=""color:rgb(150, 250, 100); font-size: 35px;"">他人</p>","i","categorize-html","153","210869","0.0-6.0-1.0-8.0-1.22","4","3","4","3","3","3","3","3","4","4","4","4","2","3","4","4","3","3","4","4","2","3","4","3","4","3","4","3","2","1","0","1","1","0","1","0","1","0","1","1","0","1","0","1","4","3","2","1","3","1","1","3","4","2","3","717817858293235712","钟","27","","","","","","","","","","","","","","","","","","","true","14","4","moral","516","other","他人","","","","","","","","","","","","","","","","",""
"null","","null","html-keyboard-response","154","211120","0.0-6.0-1.0-8.0-0.23","4","3","4","3","3","3","3","3","4","4","4","4","2","3","4","4","3","3","4","4","2","3","4","3","4","3","4","3","2","1","0","1","1","0","1","0","1","0","1","1","0","1","0","1","4","3","2","1","3","1","1","3","4","2","3","717817858293235712","钟","27","","","","","","","","","","","","","","","","","","","","","","","","","","","","","","","","","","","","","","","","","",""
"485","<p style=""color:white; font-size: 35px;"">诚信</p>","e","categorize-html","155","211606","0.0-6.0-1.0-8.0-1.23","4","3","4","3","3","3","3","3","4","4","4","4","2","3","4","4","3","3","4","4","2","3","4","3","4","3","4","3","2","1","0","1","1","0","1","0","1","0","1","1","0","1","0","1","4","3","2","1","3","1","1","3","4","2","3","717817858293235712","钟","27","","","","","","","","","","","","","","","","","","","true","14","4","moral","485","positive","诚信","","","","","","","","","","","","","","","","",""
"null","","null","html-keyboard-response","156","211858","0.0-6.0-1.0-8.0-0.24","4","3","4","3","3","3","3","3","4","4","4","4","2","3","4","4","3","3","4","4","2","3","4","3","4","3","4","3","2","1","0","1","1","0","1","0","1","0","1","1","0","1","0","1","4","3","2","1","3","1","1","3","4","2","3","717817858293235712","钟","27","","","","","","","","","","","","","","","","","","","","","","","","","","","","","","","","","","","","","","","","","",""
"499","<p style=""color:rgb(150, 250, 100); font-size: 35px;"">他人的</p>","i","categorize-html","157","212358","0.0-6.0-1.0-8.0-1.24","4","3","4","3","3","3","3","3","4","4","4","4","2","3","4","4","3","3","4","4","2","3","4","3","4","3","4","3","2","1","0","1","1","0","1","0","1","0","1","1","0","1","0","1","4","3","2","1","3","1","1","3","4","2","3","717817858293235712","钟","27","","","","","","","","","","","","","","","","","","","true","14","4","moral","499","other","他人的","","","","","","","","","","","","","","","","",""
"null","","null","html-keyboard-response","158","212608","0.0-6.0-1.0-8.0-0.25","4","3","4","3","3","3","3","3","4","4","4","4","2","3","4","4","3","3","4","4","2","3","4","3","4","3","4","3","2","1","0","1","1","0","1","0","1","0","1","1","0","1","0","1","4","3","2","1","3","1","1","3","4","2","3","717817858293235712","钟","27","","","","","","","","","","","","","","","","","","","","","","","","","","","","","","","","","","","","","","","","","",""
"557","<p style=""color:white; font-size: 35px;"">不仁</p>","i","categorize-html","159","213166","0.0-6.0-1.0-8.0-1.25","4","3","4","3","3","3","3","3","4","4","4","4","2","3","4","4","3","3","4","4","2","3","4","3","4","3","4","3","2","1","0","1","1","0","1","0","1","0","1","1","0","1","0","1","4","3","2","1","3","1","1","3","4","2","3","717817858293235712","钟","27","","","","","","","","","","","","","","","","","","","true","14","4","moral","557","negative","不仁","","","","","","","","","","","","","","","","",""
"null","","null","html-keyboard-response","160","213417","0.0-6.0-1.0-8.0-0.26","4","3","4","3","3","3","3","3","4","4","4","4","2","3","4","4","3","3","4","4","2","3","4","3","4","3","4","3","2","1","0","1","1","0","1","0","1","0","1","1","0","1","0","1","4","3","2","1","3","1","1","3","4","2","3","717817858293235712","钟","27","","","","","","","","","","","","","","","","","","","","","","","","","","","","","","","","","","","","","","","","","",""
"415","<p style=""color:rgb(150, 250, 100); font-size: 35px;"">本人的</p>","e","categorize-html","161","213832","0.0-6.0-1.0-8.0-1.26","4","3","4","3","3","3","3","3","4","4","4","4","2","3","4","4","3","3","4","4","2","3","4","3","4","3","4","3","2","1","0","1","1","0","1","0","1","0","1","1","0","1","0","1","4","3","2","1","3","1","1","3","4","2","3","717817858293235712","钟","27","","","","","","","","","","","","","","","","","","","true","14","4","moral","415","self","本人的","","","","","","","","","","","","","","","","",""
"null","","null","html-keyboard-response","162","214084","0.0-6.0-1.0-8.0-0.27","4","3","4","3","3","3","3","3","4","4","4","4","2","3","4","4","3","3","4","4","2","3","4","3","4","3","4","3","2","1","0","1","1","0","1","0","1","0","1","1","0","1","0","1","4","3","2","1","3","1","1","3","4","2","3","717817858293235712","钟","27","","","","","","","","","","","","","","","","","","","","","","","","","","","","","","","","","","","","","","","","","",""
"420","<p style=""color:white; font-size: 35px;"">高尚</p>","e","categorize-html","163","214505","0.0-6.0-1.0-8.0-1.27","4","3","4","3","3","3","3","3","4","4","4","4","2","3","4","4","3","3","4","4","2","3","4","3","4","3","4","3","2","1","0","1","1","0","1","0","1","0","1","1","0","1","0","1","4","3","2","1","3","1","1","3","4","2","3","717817858293235712","钟","27","","","","","","","","","","","","","","","","","","","true","14","4","moral","420","positive","高尚","","","","","","","","","","","","","","","","",""
"null","","null","html-keyboard-response","164","214755","0.0-6.0-1.0-8.0-0.28","4","3","4","3","3","3","3","3","4","4","4","4","2","3","4","4","3","3","4","4","2","3","4","3","4","3","4","3","2","1","0","1","1","0","1","0","1","0","1","1","0","1","0","1","4","3","2","1","3","1","1","3","4","2","3","717817858293235712","钟","27","","","","","","","","","","","","","","","","","","","","","","","","","","","","","","","","","","","","","","","","","",""
"393","<p style=""color:rgb(150, 250, 100); font-size: 35px;"">他</p>","i","categorize-html","165","215149","0.0-6.0-1.0-8.0-1.28","4","3","4","3","3","3","3","3","4","4","4","4","2","3","4","4","3","3","4","4","2","3","4","3","4","3","4","3","2","1","0","1","1","0","1","0","1","0","1","1","0","1","0","1","4","3","2","1","3","1","1","3","4","2","3","717817858293235712","钟","27","","","","","","","","","","","","","","","","","","","true","14","4","moral","393","other","他","","","","","","","","","","","","","","","","",""
"null","","null","html-keyboard-response","166","215400","0.0-6.0-1.0-8.0-0.29","4","3","4","3","3","3","3","3","4","4","4","4","2","3","4","4","3","3","4","4","2","3","4","3","4","3","4","3","2","1","0","1","1","0","1","0","1","0","1","1","0","1","0","1","4","3","2","1","3","1","1","3","4","2","3","717817858293235712","钟","27","","","","","","","","","","","","","","","","","","","","","","","","","","","","","","","","","","","","","","","","","",""
"445","<p style=""color:white; font-size: 35px;"">高尚</p>","e","categorize-html","167","215845","0.0-6.0-1.0-8.0-1.29","4","3","4","3","3","3","3","3","4","4","4","4","2","3","4","4","3","3","4","4","2","3","4","3","4","3","4","3","2","1","0","1","1","0","1","0","1","0","1","1","0","1","0","1","4","3","2","1","3","1","1","3","4","2","3","717817858293235712","钟","27","","","","","","","","","","","","","","","","","","","true","14","4","moral","445","positive","高尚","","","","","","","","","","","","","","","","",""
"null","","null","html-keyboard-response","168","216096","0.0-6.0-1.0-8.0-0.30","4","3","4","3","3","3","3","3","4","4","4","4","2","3","4","4","3","3","4","4","2","3","4","3","4","3","4","3","2","1","0","1","1","0","1","0","1","0","1","1","0","1","0","1","4","3","2","1","3","1","1","3","4","2","3","717817858293235712","钟","27","","","","","","","","","","","","","","","","","","","","","","","","","","","","","","","","","","","","","","","","","",""
"334","<p style=""color:rgb(150, 250, 100); font-size: 35px;"">我的</p>","e","categorize-html","169","216431","0.0-6.0-1.0-8.0-1.30","4","3","4","3","3","3","3","3","4","4","4","4","2","3","4","4","3","3","4","4","2","3","4","3","4","3","4","3","2","1","0","1","1","0","1","0","1","0","1","1","0","1","0","1","4","3","2","1","3","1","1","3","4","2","3","717817858293235712","钟","27","","","","","","","","","","","","","","","","","","","true","14","4","moral","334","self","我的","","","","","","","","","","","","","","","","",""
"null","","null","html-keyboard-response","170","216682","0.0-6.0-1.0-8.0-0.31","4","3","4","3","3","3","3","3","4","4","4","4","2","3","4","4","3","3","4","4","2","3","4","3","4","3","4","3","2","1","0","1","1","0","1","0","1","0","1","1","0","1","0","1","4","3","2","1","3","1","1","3","4","2","3","717817858293235712","钟","27","","","","","","","","","","","","","","","","","","","","","","","","","","","","","","","","","","","","","","","","","",""
"527","<p style=""color:white; font-size: 35px;"">小人</p>","i","categorize-html","171","217209","0.0-6.0-1.0-8.0-1.31","4","3","4","3","3","3","3","3","4","4","4","4","2","3","4","4","3","3","4","4","2","3","4","3","4","3","4","3","2","1","0","1","1","0","1","0","1","0","1","1","0","1","0","1","4","3","2","1","3","1","1","3","4","2","3","717817858293235712","钟","27","","","","","","","","","","","","","","","","","","","true","14","4","moral","527","negative","小人","","","","","","","","","","","","","","","","",""
"null","","null","html-keyboard-response","172","217460","0.0-6.0-1.0-8.0-0.32","4","3","4","3","3","3","3","3","4","4","4","4","2","3","4","4","3","3","4","4","2","3","4","3","4","3","4","3","2","1","0","1","1","0","1","0","1","0","1","1","0","1","0","1","4","3","2","1","3","1","1","3","4","2","3","717817858293235712","钟","27","","","","","","","","","","","","","","","","","","","","","","","","","","","","","","","","","","","","","","","","","",""
"475","<p style=""color:rgb(150, 250, 100); font-size: 35px;"">别人</p>","i","categorize-html","173","217937","0.0-6.0-1.0-8.0-1.32","4","3","4","3","3","3","3","3","4","4","4","4","2","3","4","4","3","3","4","4","2","3","4","3","4","3","4","3","2","1","0","1","1","0","1","0","1","0","1","1","0","1","0","1","4","3","2","1","3","1","1","3","4","2","3","717817858293235712","钟","27","","","","","","","","","","","","","","","","","","","true","14","4","moral","475","other","别人","","","","","","","","","","","","","","","","",""
"null","","null","html-keyboard-response","174","218187","0.0-6.0-1.0-8.0-0.33","4","3","4","3","3","3","3","3","4","4","4","4","2","3","4","4","3","3","4","4","2","3","4","3","4","3","4","3","2","1","0","1","1","0","1","0","1","0","1","1","0","1","0","1","4","3","2","1","3","1","1","3","4","2","3","717817858293235712","钟","27","","","","","","","","","","","","","","","","","","","","","","","","","","","","","","","","","","","","","","","","","",""
"401","<p style=""color:white; font-size: 35px;"">缺德</p>","i","categorize-html","175","218589","0.0-6.0-1.0-8.0-1.33","4","3","4","3","3","3","3","3","4","4","4","4","2","3","4","4","3","3","4","4","2","3","4","3","4","3","4","3","2","1","0","1","1","0","1","0","1","0","1","1","0","1","0","1","4","3","2","1","3","1","1","3","4","2","3","717817858293235712","钟","27","","","","","","","","","","","","","","","","","","","true","14","4","moral","401","negative","缺德","","","","","","","","","","","","","","","","",""
"null","","null","html-keyboard-response","176","218840","0.0-6.0-1.0-8.0-0.34","4","3","4","3","3","3","3","3","4","4","4","4","2","3","4","4","3","3","4","4","2","3","4","3","4","3","4","3","2","1","0","1","1","0","1","0","1","0","1","1","0","1","0","1","4","3","2","1","3","1","1","3","4","2","3","717817858293235712","钟","27","","","","","","","","","","","","","","","","","","","","","","","","","","","","","","","","","","","","","","","","","",""
"385","<p style=""color:rgb(150, 250, 100); font-size: 35px;"">我的</p>","e","categorize-html","177","219226","0.0-6.0-1.0-8.0-1.34","4","3","4","3","3","3","3","3","4","4","4","4","2","3","4","4","3","3","4","4","2","3","4","3","4","3","4","3","2","1","0","1","1","0","1","0","1","0","1","1","0","1","0","1","4","3","2","1","3","1","1","3","4","2","3","717817858293235712","钟","27","","","","","","","","","","","","","","","","","","","true","14","4","moral","385","self","我的","","","","","","","","","","","","","","","","",""
"null","","null","html-keyboard-response","178","219478","0.0-6.0-1.0-8.0-0.35","4","3","4","3","3","3","3","3","4","4","4","4","2","3","4","4","3","3","4","4","2","3","4","3","4","3","4","3","2","1","0","1","1","0","1","0","1","0","1","1","0","1","0","1","4","3","2","1","3","1","1","3","4","2","3","717817858293235712","钟","27","","","","","","","","","","","","","","","","","","","","","","","","","","","","","","","","","","","","","","","","","",""
"347","<p style=""color:white; font-size: 35px;"">君子</p>","e","categorize-html","179","219825","0.0-6.0-1.0-8.0-1.35","4","3","4","3","3","3","3","3","4","4","4","4","2","3","4","4","3","3","4","4","2","3","4","3","4","3","4","3","2","1","0","1","1","0","1","0","1","0","1","1","0","1","0","1","4","3","2","1","3","1","1","3","4","2","3","717817858293235712","钟","27","","","","","","","","","","","","","","","","","","","true","14","4","moral","347","positive","君子","","","","","","","","","","","","","","","","",""
"null","","null","html-keyboard-response","180","220076","0.0-6.0-1.0-8.0-0.36","4","3","4","3","3","3","3","3","4","4","4","4","2","3","4","4","3","3","4","4","2","3","4","3","4","3","4","3","2","1","0","1","1","0","1","0","1","0","1","1","0","1","0","1","4","3","2","1","3","1","1","3","4","2","3","717817858293235712","钟","27","","","","","","","","","","","","","","","","","","","","","","","","","","","","","","","","","","","","","","","","","",""
"444","<p style=""color:rgb(150, 250, 100); font-size: 35px;"">别人的</p>","i","categorize-html","181","220520","0.0-6.0-1.0-8.0-1.36","4","3","4","3","3","3","3","3","4","4","4","4","2","3","4","4","3","3","4","4","2","3","4","3","4","3","4","3","2","1","0","1","1","0","1","0","1","0","1","1","0","1","0","1","4","3","2","1","3","1","1","3","4","2","3","717817858293235712","钟","27","","","","","","","","","","","","","","","","","","","true","14","4","moral","444","other","别人的","","","","","","","","","","","","","","","","",""
"null","","null","html-keyboard-response","182","220772","0.0-6.0-1.0-8.0-0.37","4","3","4","3","3","3","3","3","4","4","4","4","2","3","4","4","3","3","4","4","2","3","4","3","4","3","4","3","2","1","0","1","1","0","1","0","1","0","1","1","0","1","0","1","4","3","2","1","3","1","1","3","4","2","3","717817858293235712","钟","27","","","","","","","","","","","","","","","","","","","","","","","","","","","","","","","","","","","","","","","","","",""
"488","<p style=""color:white; font-size: 35px;"">正直</p>","e","categorize-html","183","221261","0.0-6.0-1.0-8.0-1.37","4","3","4","3","3","3","3","3","4","4","4","4","2","3","4","4","3","3","4","4","2","3","4","3","4","3","4","3","2","1","0","1","1","0","1","0","1","0","1","1","0","1","0","1","4","3","2","1","3","1","1","3","4","2","3","717817858293235712","钟","27","","","","","","","","","","","","","","","","","","","true","14","4","moral","488","positive","正直","","","","","","","","","","","","","","","","",""
"null","","null","html-keyboard-response","184","221511","0.0-6.0-1.0-8.0-0.38","4","3","4","3","3","3","3","3","4","4","4","4","2","3","4","4","3","3","4","4","2","3","4","3","4","3","4","3","2","1","0","1","1","0","1","0","1","0","1","1","0","1","0","1","4","3","2","1","3","1","1","3","4","2","3","717817858293235712","钟","27","","","","","","","","","","","","","","","","","","","","","","","","","","","","","","","","","","","","","","","","","",""
"417","<p style=""color:rgb(150, 250, 100); font-size: 35px;"">自己</p>","e","categorize-html","185","221930","0.0-6.0-1.0-8.0-1.38","4","3","4","3","3","3","3","3","4","4","4","4","2","3","4","4","3","3","4","4","2","3","4","3","4","3","4","3","2","1","0","1","1","0","1","0","1","0","1","1","0","1","0","1","4","3","2","1","3","1","1","3","4","2","3","717817858293235712","钟","27","","","","","","","","","","","","","","","","","","","true","14","4","moral","417","self","自己","","","","","","","","","","","","","","","","",""
"null","","null","html-keyboard-response","186","222181","0.0-6.0-1.0-8.0-0.39","4","3","4","3","3","3","3","3","4","4","4","4","2","3","4","4","3","3","4","4","2","3","4","3","4","3","4","3","2","1","0","1","1","0","1","0","1","0","1","1","0","1","0","1","4","3","2","1","3","1","1","3","4","2","3","717817858293235712","钟","27","","","","","","","","","","","","","","","","","","","","","","","","","","","","","","","","","","","","","","","","","",""
"471","<p style=""color:white; font-size: 35px;"">不仁</p>","i","categorize-html","187","222653","0.0-6.0-1.0-8.0-1.39","4","3","4","3","3","3","3","3","4","4","4","4","2","3","4","4","3","3","4","4","2","3","4","3","4","3","4","3","2","1","0","1","1","0","1","0","1","0","1","1","0","1","0","1","4","3","2","1","3","1","1","3","4","2","3","717817858293235712","钟","27","","","","","","","","","","","","","","","","","","","true","14","4","moral","471","negative","不仁","","","","","","","","","","","","","","","","",""
"null","","null","html-keyboard-response","188","222903","0.0-6.0-1.0-8.0-0.40","4","3","4","3","3","3","3","3","4","4","4","4","2","3","4","4","3","3","4","4","2","3","4","3","4","3","4","3","2","1","0","1","1","0","1","0","1","0","1","1","0","1","0","1","4","3","2","1","3","1","1","3","4","2","3","717817858293235712","钟","27","","","","","","","","","","","","","","","","","","","","","","","","","","","","","","","","","","","","","","","","","",""
"489","<p style=""color:rgb(150, 250, 100); font-size: 35px;"">别人的</p>","i","categorize-html","189","223393","0.0-6.0-1.0-8.0-1.40","4","3","4","3","3","3","3","3","4","4","4","4","2","3","4","4","3","3","4","4","2","3","4","3","4","3","4","3","2","1","0","1","1","0","1","0","1","0","1","1","0","1","0","1","4","3","2","1","3","1","1","3","4","2","3","717817858293235712","钟","27","","","","","","","","","","","","","","","","","","","true","14","4","moral","489","other","别人的","","","","","","","","","","","","","","","","",""
"null","","null","html-keyboard-response","190","223643","0.0-6.0-1.0-8.0-0.41","4","3","4","3","3","3","3","3","4","4","4","4","2","3","4","4","3","3","4","4","2","3","4","3","4","3","4","3","2","1","0","1","1","0","1","0","1","0","1","1","0","1","0","1","4","3","2","1","3","1","1","3","4","2","3","717817858293235712","钟","27","","","","","","","","","","","","","","","","","","","","","","","","","","","","","","","","","","","","","","","","","",""
"446","<p style=""color:white; font-size: 35px;"">善良</p>","e","categorize-html","191","224090","0.0-6.0-1.0-8.0-1.41","4","3","4","3","3","3","3","3","4","4","4","4","2","3","4","4","3","3","4","4","2","3","4","3","4","3","4","3","2","1","0","1","1","0","1","0","1","0","1","1","0","1","0","1","4","3","2","1","3","1","1","3","4","2","3","717817858293235712","钟","27","","","","","","","","","","","","","","","","","","","true","14","4","moral","446","positive","善良","","","","","","","","","","","","","","","","",""
"null","","null","html-keyboard-response","192","224341","0.0-6.0-1.0-8.0-0.42","4","3","4","3","3","3","3","3","4","4","4","4","2","3","4","4","3","3","4","4","2","3","4","3","4","3","4","3","2","1","0","1","1","0","1","0","1","0","1","1","0","1","0","1","4","3","2","1","3","1","1","3","4","2","3","717817858293235712","钟","27","","","","","","","","","","","","","","","","","","","","","","","","","","","","","","","","","","","","","","","","","",""
"383","<p style=""color:rgb(150, 250, 100); font-size: 35px;"">本人</p>","e","categorize-html","193","224725","0.0-6.0-1.0-8.0-1.42","4","3","4","3","3","3","3","3","4","4","4","4","2","3","4","4","3","3","4","4","2","3","4","3","4","3","4","3","2","1","0","1","1","0","1","0","1","0","1","1","0","1","0","1","4","3","2","1","3","1","1","3","4","2","3","717817858293235712","钟","27","","","","","","","","","","","","","","","","","","","true","14","4","moral","383","self","本人","","","","","","","","","","","","","","","","",""
