"rt","stimulus","response","trial_type","trial_index","time_elapsed","internal_node_id","ses_1","ses_2","ses_3","ses_4","ses_5","ses_6","ses_7","ses_8","ses_9","ses_10","coreself_1","coreself_2","coreself_3","coreself_4","coreself_5","coreself_6","coreself_7","coreself_8","coreself_9","coreself_10","SGPS_1","SGPS_2","SGPS_3","SGPS_4","SGPS_5","SGPS_6","SGPS_7","SGPS_8","SGPS_9","NPI1","NPI2","NPI3","NPI4","NPI5","NPI6","NPI7","NPI8","NPI9","NPI10","NPI11","NPI12","NPI13","NPI14","NPI15","hsns_1","hsns_2","hsns_3","hsns_4","hsns_5","trap1","hsns_6","hsns_7","hsns_8","hsns_9","hsns_10","subj_idx","friend_name","ParticipantID","value","success","user_agent","responses","item_order","radio_event_ids","radio_event_times","key_event_times","mouse_event_times","straightlining","zigzagging","honeypot","timeout","failed_images","failed_audio","failed_video","view_history","response_type","key_press","avg_frame_time","center_x","center_y","correct_response","correct","identity","Image","word","condition","task_id","screen_id","time_stamp","version_attrib","version_target","IAT","RT","varname","summary","version_attrib2","version_target2","question_order","correct_answer","trap1_item"
"954","
   <p><div style = ""color: white;font-size:25px;"">您好，欢迎参加本次实验。</div> </p>
   <p><div style = ""color: white;font-size:25px;"">为充分保障您的权利，请确保您已经知晓并同意《参与实验同意书》以及《数据公开知情同意书》。</div></p>
   <p><div style = ""color: white;font-size:25px;"">如果您未见过上述内容，请咨询实验员。</div></p>
   <p><div style = ""color: white;font-size:25px;"">如果您选择继续实验，则表示您已经清楚两份知情同意书的内容并同意。</div></p>
   <p><div style = ""color: pink;font-size:30px;"">请确保您记得day0的实验编号，您将在本次实验输入该编号，若您忘记，请咨询实验员后作答。</div></p>
   <p><div style = ""color: lightblue;font-size:25px;"">请您尽可能认真地作答，我们将依据您在各问卷和按键任务中的作答质量发放报酬。</div></p>
   <p> <div style = ""color: green;font-size:25px;""><按空格键至下页></div> </p>
   "," ","html-keyboard-response","0","959","0.0-0.0","3","4","3","3","4","4","3","4","3","3","5","4","5","4","5","4","4","5","4","5","2","1","2","2","1","2","2","1","2","1","0","1","1","0","0","0","1","1","1","1","0","1","0","1","5","1","2","1","2","","2","1","2","4","2","714626757918982144","王","689","","","","","","","","","","","","","","","","","","","","","","","","","","","","","","","","","","","","","","","","","",""
"","","","call-function","1","961","0.0-1.0-0.0","3","4","3","3","4","4","3","4","3","3","5","4","5","4","5","4","4","5","4","5","2","1","2","2","1","2","2","1","2","1","0","1","1","0","0","0","1","1","1","1","0","1","0","1","5","1","2","1","2","","2","1","2","4","2","714626757918982144","王","689","","","","","","","","","","","","","","","","","","","","","","","","","","","","","","","","","","","","","","","","","",""
"36401","","{""friend_name"":""王"",""ParticipantID"":""689""}","survey-html-form","2","37365","0.0-1.0-1.0","3","4","3","3","4","4","3","4","3","3","5","4","5","4","5","4","4","5","4","5","2","1","2","2","1","2","2","1","2","1","0","1","1","0","0","0","1","1","1","1","0","1","0","1","5","1","2","1","2","","2","1","2","4","2","714626757918982144","王","689","","","","","","","","","","","","","","","","","","","","","","","","","","","","","","","","","","","","","","","","","",""
"","","","fullscreen","3","38505","0.0-2.0","3","4","3","3","4","4","3","4","3","3","5","4","5","4","5","4","4","5","4","5","2","1","2","2","1","2","2","1","2","1","0","1","1","0","0","0","1","1","1","1","0","1","0","1","5","1","2","1","2","","2","1","2","4","2","714626757918982144","王","689","","true","{""brands"":[{""brand"":""Edge"",""version"":""107""},{""brand"":""Chromium"",""version"":""107""},{""brand"":""Not=A?Brand"",""version"":""24""}],""mobile"":false,""platform"":""macOS""}","","","","","","","","","","","","","","","","","","","","","","","","","","","","","","","","","","","","","","",""
"111130.5","","{""Q01"":""3"",""Q02"":""4"",""Q03"":""3"",""Q04"":""3"",""Q05"":""4"",""Q06"":""4"",""Q07"":""3"",""Q08"":""4"",""Q09"":""3"",""Q10"":""3""}","survey-template","4","149647","0.0-3.0","3","4","3","3","4","4","3","4","3","3","5","4","5","4","5","4","4","5","4","5","2","1","2","2","1","2","2","1","2","1","0","1","1","0","0","0","1","1","1","1","0","1","0","1","5","1","2","1","2","","2","1","2","4","2","714626757918982144","王","689","","","","{""Q01"":""3"",""Q02"":""4"",""Q03"":""3"",""Q04"":""3"",""Q05"":""4"",""Q06"":""4"",""Q07"":""3"",""Q08"":""4"",""Q09"":""3"",""Q10"":""3""}","[0,1,2,3,4,5,6,7,8,9]","[""Q01"",""Q02"",""Q03"",""Q04"",""Q05"",""Q06"",""Q07"",""Q08"",""Q09"",""Q10""]","[3380.100000023842,5170.5,7876.4000000059605,9218.800000011921,10316.200000017881,11603.100000023842,12912,15377.90000000596,16262.100000023842,18204.80000001192]","[]","[3380.100000023842,5170.5,6780.800000011921,7380.5,7876.4000000059605,8910.100000023842,9218.800000011921,10316.200000017881,11603.100000023842,12912,14858.100000023842,15377.90000000596,16262.100000023842,18204.80000001192,111128.10000002384]","0.3","0.5555555555555556","0","","","","","","","","","","","","","","","","","","","","","","","","","","","","","",""
"266385","","{""Q01"":""5"",""Q02"":""4"",""Q03"":""5"",""Q04"":""4"",""Q05"":""5"",""Q06"":""4"",""Q07"":""4"",""Q08"":""5"",""Q09"":""4"",""Q10"":""5""}","survey-template","5","416046","0.0-4.0","3","4","3","3","4","4","3","4","3","3","5","4","5","4","5","4","4","5","4","5","2","1","2","2","1","2","2","1","2","1","0","1","1","0","0","0","1","1","1","1","0","1","0","1","5","1","2","1","2","","2","1","2","4","2","714626757918982144","王","689","","","","{""Q01"":""5"",""Q02"":""4"",""Q03"":""5"",""Q04"":""4"",""Q05"":""5"",""Q06"":""4"",""Q07"":""4"",""Q08"":""5"",""Q09"":""4"",""Q10"":""5""}","[0,1,2,3,4,5,6,7,8,9]","[""Q01"",""Q02"",""Q03"",""Q04"",""Q04"",""Q05"",""Q06"",""Q07"",""Q08"",""Q09"",""Q10"",""Q05""]","[17976.5,18807.30000001192,19926.90000000596,26204.30000001192,26492.80000001192,27513.100000023842,30686.90000000596,32741,35871.10000002384,37536.70000001788,38962.80000001192,60891.30000001192]","[]","[17317,17976.5,18807.30000001192,19926.90000000596,26204.30000001192,26492.80000001192,27513.100000023842,30686.90000000596,32741,35536.10000002384,35871.10000002384,37536.70000001788,38962.80000001192,51791.20000001788,60891.30000001192,266383.2000000179]","0.4","0.2222222222222222","0","","","","","","","","","","","","","","","","","","","","","","","","","","","","","",""
"","","","preload","6","416409","0.0-5.0","3","4","3","3","4","4","3","4","3","3","5","4","5","4","5","4","4","5","4","5","2","1","2","2","1","2","2","1","2","1","0","1","1","0","0","0","1","1","1","1","0","1","0","1","5","1","2","1","2","","2","1","2","4","2","714626757918982144","王","689","","true","","","","","","","","","","","false","[]","[]","[]","","","","","","","","","","","","","","","","","","","","","","","","","",""
"65061","","","instructions","7","481472","0.0-6.0","3","4","3","3","4","4","3","4","3","3","5","4","5","4","5","4","4","5","4","5","2","1","2","2","1","2","2","1","2","1","0","1","1","0","0","0","1","1","1","1","0","1","0","1","5","1","2","1","2","","2","1","2","4","2","714626757918982144","王","689","","","","","","","","","","","","","","","","","[{""page_index"":0,""viewing_time"":65060}]","","","","","","","","","","","","","","","","","","","","","","","","",""
"10095","","","instructions","8","491568","0.0-7.0-0.0-0.0","3","4","3","3","4","4","3","4","3","3","5","4","5","4","5","4","4","5","4","5","2","1","2","2","1","2","2","1","2","1","0","1","1","0","0","0","1","1","1","1","0","1","0","1","5","1","2","1","2","","2","1","2","4","2","714626757918982144","王","689","","","","","","","","","","","","","","","","","[{""page_index"":0,""viewing_time"":8135},{""page_index"":1,""viewing_time"":1070},{""page_index"":2,""viewing_time"":890}]","","","","","","","","","","","","","","","","","","","","","","","","",""
"1067","","f","psychophysics","9","493646","0.0-7.0-0.0-1.0-0.0-0.0","3","4","3","3","4","4","3","4","3","3","5","4","5","4","5","4","4","5","4","5","2","1","2","2","1","2","2","1","2","1","0","1","1","0","0","0","1","1","1","1","0","1","0","1","5","1","2","1","2","","2","1","2","4","2","714626757918982144","王","689","","","","nonmatch","","","","","","","","","","","","","","key","f","16.789704918033124","640","356","f","true","nonmatch","img/ellipse.png","六边","椭圆","ALT1_1","prac_ALT1_1","","","","","","","","","","","",""
"null","<span style='color:GreenYellow; font-size: 70px;'>正确! </span>","null","html-keyboard-response","10","494149","0.0-7.0-0.0-1.0-0.0-1.0","3","4","3","3","4","4","3","4","3","3","5","4","5","4","5","4","4","5","4","5","2","1","2","2","1","2","2","1","2","1","0","1","1","0","0","0","1","1","1","1","0","1","0","1","5","1","2","1","2","","2","1","2","4","2","714626757918982144","王","689","","","","","","","","","","","","","","","","","","","","","","","","","","","","","","feedback_test","","","","","","","","","","","",""
"713","","j","psychophysics","11","495864","0.0-7.0-0.0-1.0-0.0-0.1","3","4","3","3","4","4","3","4","3","3","5","4","5","4","5","4","4","5","4","5","2","1","2","2","1","2","2","1","2","1","0","1","1","0","0","0","1","1","1","1","0","1","0","1","5","1","2","1","2","","2","1","2","4","2","714626757918982144","王","689","","","","match","","","","","","","","","","","","","","key","j","16.653306930693038","640","356","j","true","match","img/square.png","方形","方形","ALT1_1","prac_ALT1_1","","","","","","","","","","","",""
"null","<span style='color:GreenYellow; font-size: 70px;'>正确! </span>","null","html-keyboard-response","12","496366","0.0-7.0-0.0-1.0-0.0-1.1","3","4","3","3","4","4","3","4","3","3","5","4","5","4","5","4","4","5","4","5","2","1","2","2","1","2","2","1","2","1","0","1","1","0","0","0","1","1","1","1","0","1","0","1","5","1","2","1","2","","2","1","2","4","2","714626757918982144","王","689","","","","","","","","","","","","","","","","","","","","","","","","","","","","","","feedback_test","","","","","","","","","","","",""
"786","","j","psychophysics","13","498157","0.0-7.0-0.0-1.0-0.0-0.2","3","4","3","3","4","4","3","4","3","3","5","4","5","4","5","4","4","5","4","5","2","1","2","2","1","2","2","1","2","1","0","1","1","0","0","0","1","1","1","1","0","1","0","1","5","1","2","1","2","","2","1","2","4","2","714626757918982144","王","689","","","","match","","","","","","","","","","","","","","key","j","16.653245283018926","640","356","j","true","match","img/hexagon.png","六边","六边","ALT1_1","prac_ALT1_1","","","","","","","","","","","",""
"null","<span style='color:GreenYellow; font-size: 70px;'>正确! </span>","null","html-keyboard-response","14","498659","0.0-7.0-0.0-1.0-0.0-1.2","3","4","3","3","4","4","3","4","3","3","5","4","5","4","5","4","4","5","4","5","2","1","2","2","1","2","2","1","2","1","0","1","1","0","0","0","1","1","1","1","0","1","0","1","5","1","2","1","2","","2","1","2","4","2","714626757918982144","王","689","","","","","","","","","","","","","","","","","","","","","","","","","","","","","","feedback_test","","","","","","","","","","","",""
"856","","j","psychophysics","15","500518","0.0-7.0-0.0-1.0-0.0-0.3","3","4","3","3","4","4","3","4","3","3","5","4","5","4","5","4","4","5","4","5","2","1","2","2","1","2","2","1","2","1","0","1","1","0","0","0","1","1","1","1","0","1","0","1","5","1","2","1","2","","2","1","2","4","2","714626757918982144","王","689","","","","match","","","","","","","","","","","","","","key","j","16.64648181818193","640","356","j","true","match","img/ellipse.png","椭圆","椭圆","ALT1_1","prac_ALT1_1","","","","","","","","","","","",""
"null","<span style='color:GreenYellow; font-size: 70px;'>正确! </span>","null","html-keyboard-response","16","501019","0.0-7.0-0.0-1.0-0.0-1.3","3","4","3","3","4","4","3","4","3","3","5","4","5","4","5","4","4","5","4","5","2","1","2","2","1","2","2","1","2","1","0","1","1","0","0","0","1","1","1","1","0","1","0","1","5","1","2","1","2","","2","1","2","4","2","714626757918982144","王","689","","","","","","","","","","","","","","","","","","","","","","","","","","","","","","feedback_test","","","","","","","","","","","",""
"777","","j","psychophysics","17","502800","0.0-7.0-0.0-1.0-0.0-0.4","3","4","3","3","4","4","3","4","3","3","5","4","5","4","5","4","4","5","4","5","2","1","2","2","1","2","2","1","2","1","0","1","1","0","0","0","1","1","1","1","0","1","0","1","5","1","2","1","2","","2","1","2","4","2","714626757918982144","王","689","","","","match","","","","","","","","","","","","","","key","j","16.81348076923034","640","356","j","true","match","img/square.png","方形","方形","ALT1_1","prac_ALT1_1","","","","","","","","","","","",""
"null","<span style='color:GreenYellow; font-size: 70px;'>正确! </span>","null","html-keyboard-response","18","503305","0.0-7.0-0.0-1.0-0.0-1.4","3","4","3","3","4","4","3","4","3","3","5","4","5","4","5","4","4","5","4","5","2","1","2","2","1","2","2","1","2","1","0","1","1","0","0","0","1","1","1","1","0","1","0","1","5","1","2","1","2","","2","1","2","4","2","714626757918982144","王","689","","","","","","","","","","","","","","","","","","","","","","","","","","","","","","feedback_test","","","","","","","","","","","",""
"637","","j","psychophysics","19","504944","0.0-7.0-0.0-1.0-0.0-0.5","3","4","3","3","4","4","3","4","3","3","5","4","5","4","5","4","4","5","4","5","2","1","2","2","1","2","2","1","2","1","0","1","1","0","0","0","1","1","1","1","0","1","0","1","5","1","2","1","2","","2","1","2","4","2","714626757918982144","王","689","","","","match","","","","","","","","","","","","","","key","j","17.007914893617087","640","356","j","true","match","img/hexagon.png","六边","六边","ALT1_1","prac_ALT1_1","","","","","","","","","","","",""
"null","<span style='color:GreenYellow; font-size: 70px;'>正确! </span>","null","html-keyboard-response","20","505450","0.0-7.0-0.0-1.0-0.0-1.5","3","4","3","3","4","4","3","4","3","3","5","4","5","4","5","4","4","5","4","5","2","1","2","2","1","2","2","1","2","1","0","1","1","0","0","0","1","1","1","1","0","1","0","1","5","1","2","1","2","","2","1","2","4","2","714626757918982144","王","689","","","","","","","","","","","","","","","","","","","","","","","","","","","","","","feedback_test","","","","","","","","","","","",""
"884","","f","psychophysics","21","507337","0.0-7.0-0.0-1.0-0.0-0.6","3","4","3","3","4","4","3","4","3","3","5","4","5","4","5","4","4","5","4","5","2","1","2","2","1","2","2","1","2","1","0","1","1","0","0","0","1","1","1","1","0","1","0","1","5","1","2","1","2","","2","1","2","4","2","714626757918982144","王","689","","","","nonmatch","","","","","","","","","","","","","","key","f","16.652720720720634","640","356","f","true","nonmatch","img/hexagon.png","三角","六边","ALT1_1","prac_ALT1_1","","","","","","","","","","","",""
"null","<span style='color:GreenYellow; font-size: 70px;'>正确! </span>","null","html-keyboard-response","22","507848","0.0-7.0-0.0-1.0-0.0-1.6","3","4","3","3","4","4","3","4","3","3","5","4","5","4","5","4","4","5","4","5","2","1","2","2","1","2","2","1","2","1","0","1","1","0","0","0","1","1","1","1","0","1","0","1","5","1","2","1","2","","2","1","2","4","2","714626757918982144","王","689","","","","","","","","","","","","","","","","","","","","","","","","","","","","","","feedback_test","","","","","","","","","","","",""
"746","","f","psychophysics","23","509597","0.0-7.0-0.0-1.0-0.0-0.7","3","4","3","3","4","4","3","4","3","3","5","4","5","4","5","4","4","5","4","5","2","1","2","2","1","2","2","1","2","1","0","1","1","0","0","0","1","1","1","1","0","1","0","1","5","1","2","1","2","","2","1","2","4","2","714626757918982144","王","689","","","","nonmatch","","","","","","","","","","","","","","key","f","16.653421568627785","640","356","f","true","nonmatch","img/hexagon.png","椭圆","六边","ALT1_1","prac_ALT1_1","","","","","","","","","","","",""
"null","<span style='color:GreenYellow; font-size: 70px;'>正确! </span>","null","html-keyboard-response","24","510100","0.0-7.0-0.0-1.0-0.0-1.7","3","4","3","3","4","4","3","4","3","3","5","4","5","4","5","4","4","5","4","5","2","1","2","2","1","2","2","1","2","1","0","1","1","0","0","0","1","1","1","1","0","1","0","1","5","1","2","1","2","","2","1","2","4","2","714626757918982144","王","689","","","","","","","","","","","","","","","","","","","","","","","","","","","","","","feedback_test","","","","","","","","","","","",""
"586","","f","psychophysics","25","511688","0.0-7.0-0.0-1.0-0.0-0.8","3","4","3","3","4","4","3","4","3","3","5","4","5","4","5","4","4","5","4","5","2","1","2","2","1","2","2","1","2","1","0","1","1","0","0","0","1","1","1","1","0","1","0","1","5","1","2","1","2","","2","1","2","4","2","714626757918982144","王","689","","","","nonmatch","","","","","","","","","","","","","","key","f","16.653387096774345","640","356","j","false","match","img/ellipse.png","椭圆","椭圆","ALT1_1","prac_ALT1_1","","","","","","","","","","","",""
"null","<span style='color:red; font-size: 70px;'>错误! </span>","null","html-keyboard-response","26","512191","0.0-7.0-0.0-1.0-0.0-1.8","3","4","3","3","4","4","3","4","3","3","5","4","5","4","5","4","4","5","4","5","2","1","2","2","1","2","2","1","2","1","0","1","1","0","0","0","1","1","1","1","0","1","0","1","5","1","2","1","2","","2","1","2","4","2","714626757918982144","王","689","","","","","","","","","","","","","","","","","","","","","","","","","","","","","","feedback_test","","","","","","","","","","","",""
"949","","f","psychophysics","27","514144","0.0-7.0-0.0-1.0-0.0-0.9","3","4","3","3","4","4","3","4","3","3","5","4","5","4","5","4","4","5","4","5","2","1","2","2","1","2","2","1","2","1","0","1","1","0","0","0","1","1","1","1","0","1","0","1","5","1","2","1","2","","2","1","2","4","2","714626757918982144","王","689","","","","nonmatch","","","","","","","","","","","","","","key","f","16.653258620689577","640","356","f","true","nonmatch","img/square.png","椭圆","方形","ALT1_1","prac_ALT1_1","","","","","","","","","","","",""
"null","<span style='color:GreenYellow; font-size: 70px;'>正确! </span>","null","html-keyboard-response","28","514647","0.0-7.0-0.0-1.0-0.0-1.9","3","4","3","3","4","4","3","4","3","3","5","4","5","4","5","4","4","5","4","5","2","1","2","2","1","2","2","1","2","1","0","1","1","0","0","0","1","1","1","1","0","1","0","1","5","1","2","1","2","","2","1","2","4","2","714626757918982144","王","689","","","","","","","","","","","","","","","","","","","","","","","","","","","","","","feedback_test","","","","","","","","","","","",""
"943","","f","psychophysics","29","516592","0.0-7.0-0.0-1.0-0.0-0.10","3","4","3","3","4","4","3","4","3","3","5","4","5","4","5","4","4","5","4","5","2","1","2","2","1","2","2","1","2","1","0","1","1","0","0","0","1","1","1","1","0","1","0","1","5","1","2","1","2","","2","1","2","4","2","714626757918982144","王","689","","","","nonmatch","","","","","","","","","","","","","","key","f","16.799394736842054","640","356","f","true","nonmatch","img/square.png","三角","方形","ALT1_1","prac_ALT1_1","","","","","","","","","","","",""
"null","<span style='color:GreenYellow; font-size: 70px;'>正确! </span>","null","html-keyboard-response","30","517094","0.0-7.0-0.0-1.0-0.0-1.10","3","4","3","3","4","4","3","4","3","3","5","4","5","4","5","4","4","5","4","5","2","1","2","2","1","2","2","1","2","1","0","1","1","0","0","0","1","1","1","1","0","1","0","1","5","1","2","1","2","","2","1","2","4","2","714626757918982144","王","689","","","","","","","","","","","","","","","","","","","","","","","","","","","","","","feedback_test","","","","","","","","","","","",""
"613","","f","psychophysics","31","518710","0.0-7.0-0.0-1.0-0.0-0.11","3","4","3","3","4","4","3","4","3","3","5","4","5","4","5","4","4","5","4","5","2","1","2","2","1","2","2","1","2","1","0","1","1","0","0","0","1","1","1","1","0","1","0","1","5","1","2","1","2","","2","1","2","4","2","714626757918982144","王","689","","","","nonmatch","","","","","","","","","","","","","","key","f","16.648572916666428","640","356","f","true","nonmatch","img/triangle.png","六边","三角","ALT1_1","prac_ALT1_1","","","","","","","","","","","",""
"null","<span style='color:GreenYellow; font-size: 70px;'>正确! </span>","null","html-keyboard-response","32","519211","0.0-7.0-0.0-1.0-0.0-1.11","3","4","3","3","4","4","3","4","3","3","5","4","5","4","5","4","4","5","4","5","2","1","2","2","1","2","2","1","2","1","0","1","1","0","0","0","1","1","1","1","0","1","0","1","5","1","2","1","2","","2","1","2","4","2","714626757918982144","王","689","","","","","","","","","","","","","","","","","","","","","","","","","","","","","","feedback_test","","","","","","","","","","","",""
"834","","f","psychophysics","33","521046","0.0-7.0-0.0-1.0-0.0-0.12","3","4","3","3","4","4","3","4","3","3","5","4","5","4","5","4","4","5","4","5","2","1","2","2","1","2","2","1","2","1","0","1","1","0","0","0","1","1","1","1","0","1","0","1","5","1","2","1","2","","2","1","2","4","2","714626757918982144","王","689","","","","nonmatch","","","","","","","","","","","","","","key","f","16.653299065421024","640","356","f","true","nonmatch","img/hexagon.png","方形","六边","ALT1_1","prac_ALT1_1","","","","","","","","","","","",""
"null","<span style='color:GreenYellow; font-size: 70px;'>正确! </span>","null","html-keyboard-response","34","521548","0.0-7.0-0.0-1.0-0.0-1.12","3","4","3","3","4","4","3","4","3","3","5","4","5","4","5","4","4","5","4","5","2","1","2","2","1","2","2","1","2","1","0","1","1","0","0","0","1","1","1","1","0","1","0","1","5","1","2","1","2","","2","1","2","4","2","714626757918982144","王","689","","","","","","","","","","","","","","","","","","","","","","","","","","","","","","feedback_test","","","","","","","","","","","",""
"734","","f","psychophysics","35","523285","0.0-7.0-0.0-1.0-0.0-0.13","3","4","3","3","4","4","3","4","3","3","5","4","5","4","5","4","4","5","4","5","2","1","2","2","1","2","2","1","2","1","0","1","1","0","0","0","1","1","1","1","0","1","0","1","5","1","2","1","2","","2","1","2","4","2","714626757918982144","王","689","","","","nonmatch","","","","","","","","","","","","","","key","f","16.816843137255752","640","356","f","true","nonmatch","img/triangle.png","方形","三角","ALT1_1","prac_ALT1_1","","","","","","","","","","","",""
"null","<span style='color:GreenYellow; font-size: 70px;'>正确! </span>","null","html-keyboard-response","36","523788","0.0-7.0-0.0-1.0-0.0-1.13","3","4","3","3","4","4","3","4","3","3","5","4","5","4","5","4","4","5","4","5","2","1","2","2","1","2","2","1","2","1","0","1","1","0","0","0","1","1","1","1","0","1","0","1","5","1","2","1","2","","2","1","2","4","2","714626757918982144","王","689","","","","","","","","","","","","","","","","","","","","","","","","","","","","","","feedback_test","","","","","","","","","","","",""
"842","","f","psychophysics","37","525635","0.0-7.0-0.0-1.0-0.0-0.14","3","4","3","3","4","4","3","4","3","3","5","4","5","4","5","4","4","5","4","5","2","1","2","2","1","2","2","1","2","1","0","1","1","0","0","0","1","1","1","1","0","1","0","1","5","1","2","1","2","","2","1","2","4","2","714626757918982144","王","689","","","","nonmatch","","","","","","","","","","","","","","key","f","16.653348623852914","640","356","f","true","nonmatch","img/square.png","六边","方形","ALT1_1","prac_ALT1_1","","","","","","","","","","","",""
"null","<span style='color:GreenYellow; font-size: 70px;'>正确! </span>","null","html-keyboard-response","38","526138","0.0-7.0-0.0-1.0-0.0-1.14","3","4","3","3","4","4","3","4","3","3","5","4","5","4","5","4","4","5","4","5","2","1","2","2","1","2","2","1","2","1","0","1","1","0","0","0","1","1","1","1","0","1","0","1","5","1","2","1","2","","2","1","2","4","2","714626757918982144","王","689","","","","","","","","","","","","","","","","","","","","","","","","","","","","","","feedback_test","","","","","","","","","","","",""
"656","","j","psychophysics","39","527796","0.0-7.0-0.0-1.0-0.0-0.15","3","4","3","3","4","4","3","4","3","3","5","4","5","4","5","4","4","5","4","5","2","1","2","2","1","2","2","1","2","1","0","1","1","0","0","0","1","1","1","1","0","1","0","1","5","1","2","1","2","","2","1","2","4","2","714626757918982144","王","689","","","","match","","","","","","","","","","","","","","key","j","16.653371134020396","640","356","j","true","match","img/triangle.png","三角","三角","ALT1_1","prac_ALT1_1","","","","","","","","","","","",""
"null","<span style='color:GreenYellow; font-size: 70px;'>正确! </span>","null","html-keyboard-response","40","528299","0.0-7.0-0.0-1.0-0.0-1.15","3","4","3","3","4","4","3","4","3","3","5","4","5","4","5","4","4","5","4","5","2","1","2","2","1","2","2","1","2","1","0","1","1","0","0","0","1","1","1","1","0","1","0","1","5","1","2","1","2","","2","1","2","4","2","714626757918982144","王","689","","","","","","","","","","","","","","","","","","","","","","","","","","","","","","feedback_test","","","","","","","","","","","",""
"714","","j","psychophysics","41","530015","0.0-7.0-0.0-1.0-0.0-0.16","3","4","3","3","4","4","3","4","3","3","5","4","5","4","5","4","4","5","4","5","2","1","2","2","1","2","2","1","2","1","0","1","1","0","0","0","1","1","1","1","0","1","0","1","5","1","2","1","2","","2","1","2","4","2","714626757918982144","王","689","","","","match","","","","","","","","","","","","","","key","j","16.653732673267346","640","356","j","true","match","img/ellipse.png","椭圆","椭圆","ALT1_1","prac_ALT1_1","","","","","","","","","","","",""
"null","<span style='color:GreenYellow; font-size: 70px;'>正确! </span>","null","html-keyboard-response","42","530517","0.0-7.0-0.0-1.0-0.0-1.16","3","4","3","3","4","4","3","4","3","3","5","4","5","4","5","4","4","5","4","5","2","1","2","2","1","2","2","1","2","1","0","1","1","0","0","0","1","1","1","1","0","1","0","1","5","1","2","1","2","","2","1","2","4","2","714626757918982144","王","689","","","","","","","","","","","","","","","","","","","","","","","","","","","","","","feedback_test","","","","","","","","","","","",""
"566","","j","psychophysics","43","532084","0.0-7.0-0.0-1.0-0.0-0.17","3","4","3","3","4","4","3","4","3","3","5","4","5","4","5","4","4","5","4","5","2","1","2","2","1","2","2","1","2","1","0","1","1","0","0","0","1","1","1","1","0","1","0","1","5","1","2","1","2","","2","1","2","4","2","714626757918982144","王","689","","","","match","","","","","","","","","","","","","","key","j","16.647548387097494","640","356","f","false","nonmatch","img/triangle.png","椭圆","三角","ALT1_1","prac_ALT1_1","","","","","","","","","","","",""
"null","<span style='color:red; font-size: 70px;'>错误! </span>","null","html-keyboard-response","44","532585","0.0-7.0-0.0-1.0-0.0-1.17","3","4","3","3","4","4","3","4","3","3","5","4","5","4","5","4","4","5","4","5","2","1","2","2","1","2","2","1","2","1","0","1","1","0","0","0","1","1","1","1","0","1","0","1","5","1","2","1","2","","2","1","2","4","2","714626757918982144","王","689","","","","","","","","","","","","","","","","","","","","","","","","","","","","","","feedback_test","","","","","","","","","","","",""
"868","","j","psychophysics","45","534455","0.0-7.0-0.0-1.0-0.0-0.18","3","4","3","3","4","4","3","4","3","3","5","4","5","4","5","4","4","5","4","5","2","1","2","2","1","2","2","1","2","1","0","1","1","0","0","0","1","1","1","1","0","1","0","1","5","1","2","1","2","","2","1","2","4","2","714626757918982144","王","689","","","","match","","","","","","","","","","","","","","key","j","16.653256880734627","640","356","j","true","match","img/triangle.png","三角","三角","ALT1_1","prac_ALT1_1","","","","","","","","","","","",""
"null","<span style='color:GreenYellow; font-size: 70px;'>正确! </span>","null","html-keyboard-response","46","534961","0.0-7.0-0.0-1.0-0.0-1.18","3","4","3","3","4","4","3","4","3","3","5","4","5","4","5","4","4","5","4","5","2","1","2","2","1","2","2","1","2","1","0","1","1","0","0","0","1","1","1","1","0","1","0","1","5","1","2","1","2","","2","1","2","4","2","714626757918982144","王","689","","","","","","","","","","","","","","","","","","","","","","","","","","","","","","feedback_test","","","","","","","","","","","",""
"791","","j","psychophysics","47","536754","0.0-7.0-0.0-1.0-0.0-0.19","3","4","3","3","4","4","3","4","3","3","5","4","5","4","5","4","4","5","4","5","2","1","2","2","1","2","2","1","2","1","0","1","1","0","0","0","1","1","1","1","0","1","0","1","5","1","2","1","2","","2","1","2","4","2","714626757918982144","王","689","","","","match","","","","","","","","","","","","","","key","j","16.652726415094463","640","356","j","true","match","img/hexagon.png","六边","六边","ALT1_1","prac_ALT1_1","","","","","","","","","","","",""
"null","<span style='color:GreenYellow; font-size: 70px;'>正确! </span>","null","html-keyboard-response","48","537263","0.0-7.0-0.0-1.0-0.0-1.19","3","4","3","3","4","4","3","4","3","3","5","4","5","4","5","4","4","5","4","5","2","1","2","2","1","2","2","1","2","1","0","1","1","0","0","0","1","1","1","1","0","1","0","1","5","1","2","1","2","","2","1","2","4","2","714626757918982144","王","689","","","","","","","","","","","","","","","","","","","","","","","","","","","","","","feedback_test","","","","","","","","","","","",""
"673","","f","psychophysics","49","538938","0.0-7.0-0.0-1.0-0.0-0.20","3","4","3","3","4","4","3","4","3","3","5","4","5","4","5","4","4","5","4","5","2","1","2","2","1","2","2","1","2","1","0","1","1","0","0","0","1","1","1","1","0","1","0","1","5","1","2","1","2","","2","1","2","4","2","714626757918982144","王","689","","","","nonmatch","","","","","","","","","","","","","","key","f","16.65253000000026","640","356","f","true","nonmatch","img/ellipse.png","三角","椭圆","ALT1_1","prac_ALT1_1","","","","","","","","","","","",""
"null","<span style='color:GreenYellow; font-size: 70px;'>正确! </span>","null","html-keyboard-response","50","539448","0.0-7.0-0.0-1.0-0.0-1.20","3","4","3","3","4","4","3","4","3","3","5","4","5","4","5","4","4","5","4","5","2","1","2","2","1","2","2","1","2","1","0","1","1","0","0","0","1","1","1","1","0","1","0","1","5","1","2","1","2","","2","1","2","4","2","714626757918982144","王","689","","","","","","","","","","","","","","","","","","","","","","","","","","","","","","feedback_test","","","","","","","","","","","",""
"622","","f","psychophysics","51","541076","0.0-7.0-0.0-1.0-0.0-0.21","3","4","3","3","4","4","3","4","3","3","5","4","5","4","5","4","4","5","4","5","2","1","2","2","1","2","2","1","2","1","0","1","1","0","0","0","1","1","1","1","0","1","0","1","5","1","2","1","2","","2","1","2","4","2","714626757918982144","王","689","","","","nonmatch","","","","","","","","","","","","","","key","f","16.65360416666711","640","356","j","false","match","img/square.png","方形","方形","ALT1_1","prac_ALT1_1","","","","","","","","","","","",""
"null","<span style='color:red; font-size: 70px;'>错误! </span>","null","html-keyboard-response","52","541577","0.0-7.0-0.0-1.0-0.0-1.21","3","4","3","3","4","4","3","4","3","3","5","4","5","4","5","4","4","5","4","5","2","1","2","2","1","2","2","1","2","1","0","1","1","0","0","0","1","1","1","1","0","1","0","1","5","1","2","1","2","","2","1","2","4","2","714626757918982144","王","689","","","","","","","","","","","","","","","","","","","","","","","","","","","","","","feedback_test","","","","","","","","","","","",""
"637","","j","psychophysics","53","543217","0.0-7.0-0.0-1.0-0.0-0.22","3","4","3","3","4","4","3","4","3","3","5","4","5","4","5","4","4","5","4","5","2","1","2","2","1","2","2","1","2","1","0","1","1","0","0","0","1","1","1","1","0","1","0","1","5","1","2","1","2","","2","1","2","4","2","714626757918982144","王","689","","","","match","","","","","","","","","","","","","","key","j","16.653437499999807","640","356","j","true","match","img/triangle.png","三角","三角","ALT1_1","prac_ALT1_1","","","","","","","","","","","",""
"null","<span style='color:GreenYellow; font-size: 70px;'>正确! </span>","null","html-keyboard-response","54","543727","0.0-7.0-0.0-1.0-0.0-1.22","3","4","3","3","4","4","3","4","3","3","5","4","5","4","5","4","4","5","4","5","2","1","2","2","1","2","2","1","2","1","0","1","1","0","0","0","1","1","1","1","0","1","0","1","5","1","2","1","2","","2","1","2","4","2","714626757918982144","王","689","","","","","","","","","","","","","","","","","","","","","","","","","","","","","","feedback_test","","","","","","","","","","","",""
"846","","f","psychophysics","55","545579","0.0-7.0-0.0-1.0-0.0-0.23","3","4","3","3","4","4","3","4","3","3","5","4","5","4","5","4","4","5","4","5","2","1","2","2","1","2","2","1","2","1","0","1","1","0","0","0","1","1","1","1","0","1","0","1","5","1","2","1","2","","2","1","2","4","2","714626757918982144","王","689","","","","nonmatch","","","","","","","","","","","","","","key","f","16.653212962963153","640","356","f","true","nonmatch","img/ellipse.png","方形","椭圆","ALT1_1","prac_ALT1_1","","","","","","","","","","","",""
"null","<span style='color:GreenYellow; font-size: 70px;'>正确! </span>","null","html-keyboard-response","56","546084","0.0-7.0-0.0-1.0-0.0-1.23","3","4","3","3","4","4","3","4","3","3","5","4","5","4","5","4","4","5","4","5","2","1","2","2","1","2","2","1","2","1","0","1","1","0","0","0","1","1","1","1","0","1","0","1","5","1","2","1","2","","2","1","2","4","2","714626757918982144","王","689","","","","","","","","","","","","","","","","","","","","","","","","","","","","","","feedback_test","","","","","","","","","","","",""
"610","","f","psychophysics","57","547699","0.0-7.0-0.0-1.0-0.0-0.24","3","4","3","3","4","4","3","4","3","3","5","4","5","4","5","4","4","5","4","5","2","1","2","2","1","2","2","1","2","1","0","1","1","0","0","0","1","1","1","1","0","1","0","1","5","1","2","1","2","","2","1","2","4","2","714626757918982144","王","689","","","","nonmatch","","","","","","","","","","","","","","key","f","16.653368421052093","640","356","f","true","nonmatch","img/ellipse.png","六边","椭圆","ALT1_1","prac_ALT1_1","","","","","","","","","","","",""
"null","<span style='color:GreenYellow; font-size: 70px;'>正确! </span>","null","html-keyboard-response","58","548202","0.0-7.0-0.0-1.0-0.0-1.24","3","4","3","3","4","4","3","4","3","3","5","4","5","4","5","4","4","5","4","5","2","1","2","2","1","2","2","1","2","1","0","1","1","0","0","0","1","1","1","1","0","1","0","1","5","1","2","1","2","","2","1","2","4","2","714626757918982144","王","689","","","","","","","","","","","","","","","","","","","","","","","","","","","","","","feedback_test","","","","","","","","","","","",""
"709","","j","psychophysics","59","549921","0.0-7.0-0.0-1.0-0.0-0.25","3","4","3","3","4","4","3","4","3","3","5","4","5","4","5","4","4","5","4","5","2","1","2","2","1","2","2","1","2","1","0","1","1","0","0","0","1","1","1","1","0","1","0","1","5","1","2","1","2","","2","1","2","4","2","714626757918982144","王","689","","","","match","","","","","","","","","","","","","","key","j","16.653326732672447","640","356","j","true","match","img/triangle.png","三角","三角","ALT1_1","prac_ALT1_1","","","","","","","","","","","",""
"null","<span style='color:GreenYellow; font-size: 70px;'>正确! </span>","null","html-keyboard-response","60","550423","0.0-7.0-0.0-1.0-0.0-1.25","3","4","3","3","4","4","3","4","3","3","5","4","5","4","5","4","4","5","4","5","2","1","2","2","1","2","2","1","2","1","0","1","1","0","0","0","1","1","1","1","0","1","0","1","5","1","2","1","2","","2","1","2","4","2","714626757918982144","王","689","","","","","","","","","","","","","","","","","","","","","","","","","","","","","","feedback_test","","","","","","","","","","","",""
"855","","j","psychophysics","61","552279","0.0-7.0-0.0-1.0-0.0-0.26","3","4","3","3","4","4","3","4","3","3","5","4","5","4","5","4","4","5","4","5","2","1","2","2","1","2","2","1","2","1","0","1","1","0","0","0","1","1","1","1","0","1","0","1","5","1","2","1","2","","2","1","2","4","2","714626757918982144","王","689","","","","match","","","","","","","","","","","","","","key","j","16.653009174311524","640","356","j","true","match","img/ellipse.png","椭圆","椭圆","ALT1_1","prac_ALT1_1","","","","","","","","","","","",""
"null","<span style='color:GreenYellow; font-size: 70px;'>正确! </span>","null","html-keyboard-response","62","552781","0.0-7.0-0.0-1.0-0.0-1.26","3","4","3","3","4","4","3","4","3","3","5","4","5","4","5","4","4","5","4","5","2","1","2","2","1","2","2","1","2","1","0","1","1","0","0","0","1","1","1","1","0","1","0","1","5","1","2","1","2","","2","1","2","4","2","714626757918982144","王","689","","","","","","","","","","","","","","","","","","","","","","","","","","","","","","feedback_test","","","","","","","","","","","",""
"793","","f","psychophysics","63","554576","0.0-7.0-0.0-1.0-0.0-0.27","3","4","3","3","4","4","3","4","3","3","5","4","5","4","5","4","4","5","4","5","2","1","2","2","1","2","2","1","2","1","0","1","1","0","0","0","1","1","1","1","0","1","0","1","5","1","2","1","2","","2","1","2","4","2","714626757918982144","王","689","","","","nonmatch","","","","","","","","","","","","","","key","f","16.653490566037913","640","356","f","true","nonmatch","img/square.png","六边","方形","ALT1_1","prac_ALT1_1","","","","","","","","","","","",""
"null","<span style='color:GreenYellow; font-size: 70px;'>正确! </span>","null","html-keyboard-response","64","555076","0.0-7.0-0.0-1.0-0.0-1.27","3","4","3","3","4","4","3","4","3","3","5","4","5","4","5","4","4","5","4","5","2","1","2","2","1","2","2","1","2","1","0","1","1","0","0","0","1","1","1","1","0","1","0","1","5","1","2","1","2","","2","1","2","4","2","714626757918982144","王","689","","","","","","","","","","","","","","","","","","","","","","","","","","","","","","feedback_test","","","","","","","","","","","",""
"648","","j","psychophysics","65","556726","0.0-7.0-0.0-1.0-0.0-0.28","3","4","3","3","4","4","3","4","3","3","5","4","5","4","5","4","4","5","4","5","2","1","2","2","1","2","2","1","2","1","0","1","1","0","0","0","1","1","1","1","0","1","0","1","5","1","2","1","2","","2","1","2","4","2","714626757918982144","王","689","","","","match","","","","","","","","","","","","","","key","j","16.65275510204053","640","356","j","true","match","img/triangle.png","三角","三角","ALT1_1","prac_ALT1_1","","","","","","","","","","","",""
"null","<span style='color:GreenYellow; font-size: 70px;'>正确! </span>","null","html-keyboard-response","66","557229","0.0-7.0-0.0-1.0-0.0-1.28","3","4","3","3","4","4","3","4","3","3","5","4","5","4","5","4","4","5","4","5","2","1","2","2","1","2","2","1","2","1","0","1","1","0","0","0","1","1","1","1","0","1","0","1","5","1","2","1","2","","2","1","2","4","2","714626757918982144","王","689","","","","","","","","","","","","","","","","","","","","","","","","","","","","","","feedback_test","","","","","","","","","","","",""
"915","","j","psychophysics","67","559145","0.0-7.0-0.0-1.0-0.0-0.29","3","4","3","3","4","4","3","4","3","3","5","4","5","4","5","4","4","5","4","5","2","1","2","2","1","2","2","1","2","1","0","1","1","0","0","0","1","1","1","1","0","1","0","1","5","1","2","1","2","","2","1","2","4","2","714626757918982144","王","689","","","","match","","","","","","","","","","","","","","key","j","16.65330088495656","640","356","j","true","match","img/ellipse.png","椭圆","椭圆","ALT1_1","prac_ALT1_1","","","","","","","","","","","",""
"null","<span style='color:GreenYellow; font-size: 70px;'>正确! </span>","null","html-keyboard-response","68","559648","0.0-7.0-0.0-1.0-0.0-1.29","3","4","3","3","4","4","3","4","3","3","5","4","5","4","5","4","4","5","4","5","2","1","2","2","1","2","2","1","2","1","0","1","1","0","0","0","1","1","1","1","0","1","0","1","5","1","2","1","2","","2","1","2","4","2","714626757918982144","王","689","","","","","","","","","","","","","","","","","","","","","","","","","","","","","","feedback_test","","","","","","","","","","","",""
"703","","f","psychophysics","69","561354","0.0-7.0-0.0-1.0-0.0-0.30","3","4","3","3","4","4","3","4","3","3","5","4","5","4","5","4","4","5","4","5","2","1","2","2","1","2","2","1","2","1","0","1","1","0","0","0","1","1","1","1","0","1","0","1","5","1","2","1","2","","2","1","2","4","2","714626757918982144","王","689","","","","nonmatch","","","","","","","","","","","","","","key","f","16.653343137254364","640","356","f","true","nonmatch","img/ellipse.png","方形","椭圆","ALT1_1","prac_ALT1_1","","","","","","","","","","","",""
"null","<span style='color:GreenYellow; font-size: 70px;'>正确! </span>","null","html-keyboard-response","70","561854","0.0-7.0-0.0-1.0-0.0-1.30","3","4","3","3","4","4","3","4","3","3","5","4","5","4","5","4","4","5","4","5","2","1","2","2","1","2","2","1","2","1","0","1","1","0","0","0","1","1","1","1","0","1","0","1","5","1","2","1","2","","2","1","2","4","2","714626757918982144","王","689","","","","","","","","","","","","","","","","","","","","","","","","","","","","","","feedback_test","","","","","","","","","","","",""
"712","","j","psychophysics","71","563569","0.0-7.0-0.0-1.0-0.0-0.31","3","4","3","3","4","4","3","4","3","3","5","4","5","4","5","4","4","5","4","5","2","1","2","2","1","2","2","1","2","1","0","1","1","0","0","0","1","1","1","1","0","1","0","1","5","1","2","1","2","","2","1","2","4","2","714626757918982144","王","689","","","","match","","","","","","","","","","","","","","key","j","16.649078431372605","640","356","j","true","match","img/square.png","方形","方形","ALT1_1","prac_ALT1_1","","","","","","","","","","","",""
"null","<span style='color:GreenYellow; font-size: 70px;'>正确! </span>","null","html-keyboard-response","72","564070","0.0-7.0-0.0-1.0-0.0-1.31","3","4","3","3","4","4","3","4","3","3","5","4","5","4","5","4","4","5","4","5","2","1","2","2","1","2","2","1","2","1","0","1","1","0","0","0","1","1","1","1","0","1","0","1","5","1","2","1","2","","2","1","2","4","2","714626757918982144","王","689","","","","","","","","","","","","","","","","","","","","","","","","","","","","","","feedback_test","","","","","","","","","","","",""
"1066","","j","psychophysics","73","566140","0.0-7.0-0.0-1.0-0.0-0.32","3","4","3","3","4","4","3","4","3","3","5","4","5","4","5","4","4","5","4","5","2","1","2","2","1","2","2","1","2","1","0","1","1","0","0","0","1","1","1","1","0","1","0","1","5","1","2","1","2","","2","1","2","4","2","714626757918982144","王","689","","","","match","","","","","","","","","","","","","","key","j","16.653418032786444","640","356","j","true","match","img/hexagon.png","六边","六边","ALT1_1","prac_ALT1_1","","","","","","","","","","","",""
"null","<span style='color:GreenYellow; font-size: 70px;'>正确! </span>","null","html-keyboard-response","74","566641","0.0-7.0-0.0-1.0-0.0-1.32","3","4","3","3","4","4","3","4","3","3","5","4","5","4","5","4","4","5","4","5","2","1","2","2","1","2","2","1","2","1","0","1","1","0","0","0","1","1","1","1","0","1","0","1","5","1","2","1","2","","2","1","2","4","2","714626757918982144","王","689","","","","","","","","","","","","","","","","","","","","","","","","","","","","","","feedback_test","","","","","","","","","","","",""
"736","","f","psychophysics","75","568380","0.0-7.0-0.0-1.0-0.0-0.33","3","4","3","3","4","4","3","4","3","3","5","4","5","4","5","4","4","5","4","5","2","1","2","2","1","2","2","1","2","1","0","1","1","0","0","0","1","1","1","1","0","1","0","1","5","1","2","1","2","","2","1","2","4","2","714626757918982144","王","689","","","","nonmatch","","","","","","","","","","","","","","key","f","16.653558823528847","640","356","f","true","nonmatch","img/square.png","三角","方形","ALT1_1","prac_ALT1_1","","","","","","","","","","","",""
"null","<span style='color:GreenYellow; font-size: 70px;'>正确! </span>","null","html-keyboard-response","76","568883","0.0-7.0-0.0-1.0-0.0-1.33","3","4","3","3","4","4","3","4","3","3","5","4","5","4","5","4","4","5","4","5","2","1","2","2","1","2","2","1","2","1","0","1","1","0","0","0","1","1","1","1","0","1","0","1","5","1","2","1","2","","2","1","2","4","2","714626757918982144","王","689","","","","","","","","","","","","","","","","","","","","","","","","","","","","","","feedback_test","","","","","","","","","","","",""
"652","","f","psychophysics","77","570537","0.0-7.0-0.0-1.0-0.0-0.34","3","4","3","3","4","4","3","4","3","3","5","4","5","4","5","4","4","5","4","5","2","1","2","2","1","2","2","1","2","1","0","1","1","0","0","0","1","1","1","1","0","1","0","1","5","1","2","1","2","","2","1","2","4","2","714626757918982144","王","689","","","","nonmatch","","","","","","","","","","","","","","key","f","16.65371134020652","640","356","f","true","nonmatch","img/hexagon.png","三角","六边","ALT1_1","prac_ALT1_1","","","","","","","","","","","",""
"null","<span style='color:GreenYellow; font-size: 70px;'>正确! </span>","null","html-keyboard-response","78","571047","0.0-7.0-0.0-1.0-0.0-1.34","3","4","3","3","4","4","3","4","3","3","5","4","5","4","5","4","4","5","4","5","2","1","2","2","1","2","2","1","2","1","0","1","1","0","0","0","1","1","1","1","0","1","0","1","5","1","2","1","2","","2","1","2","4","2","714626757918982144","王","689","","","","","","","","","","","","","","","","","","","","","","","","","","","","","","feedback_test","","","","","","","","","","","",""
"740","","j","psychophysics","79","572790","0.0-7.0-0.0-1.0-0.0-0.35","3","4","3","3","4","4","3","4","3","3","5","4","5","4","5","4","4","5","4","5","2","1","2","2","1","2","2","1","2","1","0","1","1","0","0","0","1","1","1","1","0","1","0","1","5","1","2","1","2","","2","1","2","4","2","714626757918982144","王","689","","","","match","","","","","","","","","","","","","","key","j","16.81663725490216","640","356","j","true","match","img/hexagon.png","六边","六边","ALT1_1","prac_ALT1_1","","","","","","","","","","","",""
"null","<span style='color:GreenYellow; font-size: 70px;'>正确! </span>","null","html-keyboard-response","80","573296","0.0-7.0-0.0-1.0-0.0-1.35","3","4","3","3","4","4","3","4","3","3","5","4","5","4","5","4","4","5","4","5","2","1","2","2","1","2","2","1","2","1","0","1","1","0","0","0","1","1","1","1","0","1","0","1","5","1","2","1","2","","2","1","2","4","2","714626757918982144","王","689","","","","","","","","","","","","","","","","","","","","","","","","","","","","","","feedback_test","","","","","","","","","","","",""
"712","","j","psychophysics","81","575010","0.0-7.0-0.0-1.0-0.0-0.36","3","4","3","3","4","4","3","4","3","3","5","4","5","4","5","4","4","5","4","5","2","1","2","2","1","2","2","1","2","1","0","1","1","0","0","0","1","1","1","1","0","1","0","1","5","1","2","1","2","","2","1","2","4","2","714626757918982144","王","689","","","","match","","","","","","","","","","","","","","key","j","16.648666666666568","640","356","j","true","match","img/square.png","方形","方形","ALT1_1","prac_ALT1_1","","","","","","","","","","","",""
"null","<span style='color:GreenYellow; font-size: 70px;'>正确! </span>","null","html-keyboard-response","82","575511","0.0-7.0-0.0-1.0-0.0-1.36","3","4","3","3","4","4","3","4","3","3","5","4","5","4","5","4","4","5","4","5","2","1","2","2","1","2","2","1","2","1","0","1","1","0","0","0","1","1","1","1","0","1","0","1","5","1","2","1","2","","2","1","2","4","2","714626757918982144","王","689","","","","","","","","","","","","","","","","","","","","","","","","","","","","","","feedback_test","","","","","","","","","","","",""
"612","","j","psychophysics","83","577124","0.0-7.0-0.0-1.0-0.0-0.37","3","4","3","3","4","4","3","4","3","3","5","4","5","4","5","4","4","5","4","5","2","1","2","2","1","2","2","1","2","1","0","1","1","0","0","0","1","1","1","1","0","1","0","1","5","1","2","1","2","","2","1","2","4","2","714626757918982144","王","689","","","","match","","","","","","","","","","","","","","key","j","16.65353684210537","640","356","j","true","match","img/ellipse.png","椭圆","椭圆","ALT1_1","prac_ALT1_1","","","","","","","","","","","",""
"null","<span style='color:GreenYellow; font-size: 70px;'>正确! </span>","null","html-keyboard-response","84","577628","0.0-7.0-0.0-1.0-0.0-1.37","3","4","3","3","4","4","3","4","3","3","5","4","5","4","5","4","4","5","4","5","2","1","2","2","1","2","2","1","2","1","0","1","1","0","0","0","1","1","1","1","0","1","0","1","5","1","2","1","2","","2","1","2","4","2","714626757918982144","王","689","","","","","","","","","","","","","","","","","","","","","","","","","","","","","","feedback_test","","","","","","","","","","","",""
"663","","f","psychophysics","85","579292","0.0-7.0-0.0-1.0-0.0-0.38","3","4","3","3","4","4","3","4","3","3","5","4","5","4","5","4","4","5","4","5","2","1","2","2","1","2","2","1","2","1","0","1","1","0","0","0","1","1","1","1","0","1","0","1","5","1","2","1","2","","2","1","2","4","2","714626757918982144","王","689","","","","nonmatch","","","","","","","","","","","","","","key","f","16.649343434343763","640","356","f","true","nonmatch","img/triangle.png","椭圆","三角","ALT1_1","prac_ALT1_1","","","","","","","","","","","",""
"null","<span style='color:GreenYellow; font-size: 70px;'>正确! </span>","null","html-keyboard-response","86","579794","0.0-7.0-0.0-1.0-0.0-1.38","3","4","3","3","4","4","3","4","3","3","5","4","5","4","5","4","4","5","4","5","2","1","2","2","1","2","2","1","2","1","0","1","1","0","0","0","1","1","1","1","0","1","0","1","5","1","2","1","2","","2","1","2","4","2","714626757918982144","王","689","","","","","","","","","","","","","","","","","","","","","","","","","","","","","","feedback_test","","","","","","","","","","","",""
"710","","f","psychophysics","87","581506","0.0-7.0-0.0-1.0-0.0-0.39","3","4","3","3","4","4","3","4","3","3","5","4","5","4","5","4","4","5","4","5","2","1","2","2","1","2","2","1","2","1","0","1","1","0","0","0","1","1","1","1","0","1","0","1","5","1","2","1","2","","2","1","2","4","2","714626757918982144","王","689","","","","nonmatch","","","","","","","","","","","","","","key","f","16.653420000000622","640","356","f","true","nonmatch","img/triangle.png","方形","三角","ALT1_1","prac_ALT1_1","","","","","","","","","","","",""
"null","<span style='color:GreenYellow; font-size: 70px;'>正确! </span>","null","html-keyboard-response","88","582008","0.0-7.0-0.0-1.0-0.0-1.39","3","4","3","3","4","4","3","4","3","3","5","4","5","4","5","4","4","5","4","5","2","1","2","2","1","2","2","1","2","1","0","1","1","0","0","0","1","1","1","1","0","1","0","1","5","1","2","1","2","","2","1","2","4","2","714626757918982144","王","689","","","","","","","","","","","","","","","","","","","","","","","","","","","","","","feedback_test","","","","","","","","","","","",""
"612","","j","psychophysics","89","583622","0.0-7.0-0.0-1.0-0.0-0.40","3","4","3","3","4","4","3","4","3","3","5","4","5","4","5","4","4","5","4","5","2","1","2","2","1","2","2","1","2","1","0","1","1","0","0","0","1","1","1","1","0","1","0","1","5","1","2","1","2","","2","1","2","4","2","714626757918982144","王","689","","","","match","","","","","","","","","","","","","","key","j","16.653821052631706","640","356","j","true","match","img/hexagon.png","六边","六边","ALT1_1","prac_ALT1_1","","","","","","","","","","","",""
"null","<span style='color:GreenYellow; font-size: 70px;'>正确! </span>","null","html-keyboard-response","90","584123","0.0-7.0-0.0-1.0-0.0-1.40","3","4","3","3","4","4","3","4","3","3","5","4","5","4","5","4","4","5","4","5","2","1","2","2","1","2","2","1","2","1","0","1","1","0","0","0","1","1","1","1","0","1","0","1","5","1","2","1","2","","2","1","2","4","2","714626757918982144","王","689","","","","","","","","","","","","","","","","","","","","","","","","","","","","","","feedback_test","","","","","","","","","","","",""
"652","","f","psychophysics","91","585805","0.0-7.0-0.0-1.0-0.0-0.41","3","4","3","3","4","4","3","4","3","3","5","4","5","4","5","4","4","5","4","5","2","1","2","2","1","2","2","1","2","1","0","1","1","0","0","0","1","1","1","1","0","1","0","1","5","1","2","1","2","","2","1","2","4","2","714626757918982144","王","689","","","","nonmatch","","","","","","","","","","","","","","key","f","16.65345454545494","640","356","f","true","nonmatch","img/hexagon.png","椭圆","六边","ALT1_1","prac_ALT1_1","","","","","","","","","","","",""
"null","<span style='color:GreenYellow; font-size: 70px;'>正确! </span>","null","html-keyboard-response","92","586307","0.0-7.0-0.0-1.0-0.0-1.41","3","4","3","3","4","4","3","4","3","3","5","4","5","4","5","4","4","5","4","5","2","1","2","2","1","2","2","1","2","1","0","1","1","0","0","0","1","1","1","1","0","1","0","1","5","1","2","1","2","","2","1","2","4","2","714626757918982144","王","689","","","","","","","","","","","","","","","","","","","","","","","","","","","","","","feedback_test","","","","","","","","","","","",""
"593","","j","psychophysics","93","587902","0.0-7.0-0.0-1.0-0.0-0.42","3","4","3","3","4","4","3","4","3","3","5","4","5","4","5","4","4","5","4","5","2","1","2","2","1","2","2","1","2","1","0","1","1","0","0","0","1","1","1","1","0","1","0","1","5","1","2","1","2","","2","1","2","4","2","714626757918982144","王","689","","","","match","","","","","","","","","","","","","","key","j","16.65355319148945","640","356","j","true","match","img/triangle.png","三角","三角","ALT1_1","prac_ALT1_1","","","","","","","","","","","",""
"null","<span style='color:GreenYellow; font-size: 70px;'>正确! </span>","null","html-keyboard-response","94","588404","0.0-7.0-0.0-1.0-0.0-1.42","3","4","3","3","4","4","3","4","3","3","5","4","5","4","5","4","4","5","4","5","2","1","2","2","1","2","2","1","2","1","0","1","1","0","0","0","1","1","1","1","0","1","0","1","5","1","2","1","2","","2","1","2","4","2","714626757918982144","王","689","","","","","","","","","","","","","","","","","","","","","","","","","","","","","","feedback_test","","","","","","","","","","","",""
"759","","j","psychophysics","95","590165","0.0-7.0-0.0-1.0-0.0-0.43","3","4","3","3","4","4","3","4","3","3","5","4","5","4","5","4","4","5","4","5","2","1","2","2","1","2","2","1","2","1","0","1","1","0","0","0","1","1","1","1","0","1","0","1","5","1","2","1","2","","2","1","2","4","2","714626757918982144","王","689","","","","match","","","","","","","","","","","","","","key","j","16.6519809523808","640","356","j","true","match","img/square.png","方形","方形","ALT1_1","prac_ALT1_1","","","","","","","","","","","",""
"null","<span style='color:GreenYellow; font-size: 70px;'>正确! </span>","null","html-keyboard-response","96","590668","0.0-7.0-0.0-1.0-0.0-1.43","3","4","3","3","4","4","3","4","3","3","5","4","5","4","5","4","4","5","4","5","2","1","2","2","1","2","2","1","2","1","0","1","1","0","0","0","1","1","1","1","0","1","0","1","5","1","2","1","2","","2","1","2","4","2","714626757918982144","王","689","","","","","","","","","","","","","","","","","","","","","","","","","","","","","","feedback_test","","","","","","","","","","","",""
"1185","","f","psychophysics","97","592855","0.0-7.0-0.0-1.0-0.0-0.44","3","4","3","3","4","4","3","4","3","3","5","4","5","4","5","4","4","5","4","5","2","1","2","2","1","2","2","1","2","1","0","1","1","0","0","0","1","1","1","1","0","1","0","1","5","1","2","1","2","","2","1","2","4","2","714626757918982144","王","689","","","","nonmatch","","","","","","","","","","","","","","key","f","16.653558139534947","640","356","f","true","nonmatch","img/hexagon.png","方形","六边","ALT1_1","prac_ALT1_1","","","","","","","","","","","",""
"null","<span style='color:GreenYellow; font-size: 70px;'>正确! </span>","null","html-keyboard-response","98","593361","0.0-7.0-0.0-1.0-0.0-1.44","3","4","3","3","4","4","3","4","3","3","5","4","5","4","5","4","4","5","4","5","2","1","2","2","1","2","2","1","2","1","0","1","1","0","0","0","1","1","1","1","0","1","0","1","5","1","2","1","2","","2","1","2","4","2","714626757918982144","王","689","","","","","","","","","","","","","","","","","","","","","","","","","","","","","","feedback_test","","","","","","","","","","","",""
"737","","f","psychophysics","99","595105","0.0-7.0-0.0-1.0-0.0-0.45","3","4","3","3","4","4","3","4","3","3","5","4","5","4","5","4","4","5","4","5","2","1","2","2","1","2","2","1","2","1","0","1","1","0","0","0","1","1","1","1","0","1","0","1","5","1","2","1","2","","2","1","2","4","2","714626757918982144","王","689","","","","nonmatch","","","","","","","","","","","","","","key","f","16.653549019607954","640","356","f","true","nonmatch","img/triangle.png","六边","三角","ALT1_1","prac_ALT1_1","","","","","","","","","","","",""
"null","<span style='color:GreenYellow; font-size: 70px;'>正确! </span>","null","html-keyboard-response","100","595610","0.0-7.0-0.0-1.0-0.0-1.45","3","4","3","3","4","4","3","4","3","3","5","4","5","4","5","4","4","5","4","5","2","1","2","2","1","2","2","1","2","1","0","1","1","0","0","0","1","1","1","1","0","1","0","1","5","1","2","1","2","","2","1","2","4","2","714626757918982144","王","689","","","","","","","","","","","","","","","","","","","","","","","","","","","","","","feedback_test","","","","","","","","","","","",""
"699","","f","psychophysics","101","597312","0.0-7.0-0.0-1.0-0.0-0.46","3","4","3","3","4","4","3","4","3","3","5","4","5","4","5","4","4","5","4","5","2","1","2","2","1","2","2","1","2","1","0","1","1","0","0","0","1","1","1","1","0","1","0","1","5","1","2","1","2","","2","1","2","4","2","714626757918982144","王","689","","","","nonmatch","","","","","","","","","","","","","","key","f","16.653940000000876","640","356","f","true","nonmatch","img/ellipse.png","三角","椭圆","ALT1_1","prac_ALT1_1","","","","","","","","","","","",""
"null","<span style='color:GreenYellow; font-size: 70px;'>正确! </span>","null","html-keyboard-response","102","597815","0.0-7.0-0.0-1.0-0.0-1.46","3","4","3","3","4","4","3","4","3","3","5","4","5","4","5","4","4","5","4","5","2","1","2","2","1","2","2","1","2","1","0","1","1","0","0","0","1","1","1","1","0","1","0","1","5","1","2","1","2","","2","1","2","4","2","714626757918982144","王","689","","","","","","","","","","","","","","","","","","","","","","","","","","","","","","feedback_test","","","","","","","","","","","",""
"762","","f","psychophysics","103","599579","0.0-7.0-0.0-1.0-0.0-0.47","3","4","3","3","4","4","3","4","3","3","5","4","5","4","5","4","4","5","4","5","2","1","2","2","1","2","2","1","2","1","0","1","1","0","0","0","1","1","1","1","0","1","0","1","5","1","2","1","2","","2","1","2","4","2","714626757918982144","王","689","","","","nonmatch","","","","","","","","","","","","","","key","f","16.653721153846934","640","356","f","true","nonmatch","img/square.png","椭圆","方形","ALT1_1","prac_ALT1_1","","","","","","","","","","","",""
"null","<span style='color:GreenYellow; font-size: 70px;'>正确! </span>","null","html-keyboard-response","104","600080","0.0-7.0-0.0-1.0-0.0-1.47","3","4","3","3","4","4","3","4","3","3","5","4","5","4","5","4","4","5","4","5","2","1","2","2","1","2","2","1","2","1","0","1","1","0","0","0","1","1","1","1","0","1","0","1","5","1","2","1","2","","2","1","2","4","2","714626757918982144","王","689","","","","","","","","","","","","","","","","","","","","","","","","","","","","","","feedback_test","","","","","","","","","","","",""
"830","<style>.context{color:white; font-size: 35px; line-height:40px}</style>                            <div><p class='context'>您正确回答了94% 的试次。</p><p class='context'>您的平均反应时为764毫秒。</p><p class='context'>恭喜您完成练习。按空格键进入正式实验。</p><p class='footer' style='font-size: 35px; line-height:40px;'>请在进入正式实验之前将您的<span style='color: lightgreen;'>食指</span>放在电脑键盘的相应键位上进行按键。</p>"," ","html-keyboard-response","105","600917","0.0-7.0-0.0-2.0","3","4","3","3","4","4","3","4","3","3","5","4","5","4","5","4","4","5","4","5","2","1","2","2","1","2","2","1","2","1","0","1","1","0","0","0","1","1","1","1","0","1","0","1","5","1","2","1","2","","2","1","2","4","2","714626757918982144","王","689","","","","","","","","","","","","","","","","","","","","","","","","","","","","","","","","","","","","","","","","","",""
"780","
    <p style='color: white; font-size: 22px'>请您将手指放在按键上，准备进入正式的匹配任务。</p>
    <p> <div style = ""color: green""><按空格键进入下一阶段的匹配任务></div></p>
    "," ","html-keyboard-response","106","601700","0.0-7.0-0.0-3.0","3","4","3","3","4","4","3","4","3","3","5","4","5","4","5","4","4","5","4","5","2","1","2","2","1","2","2","1","2","1","0","1","1","0","0","0","1","1","1","1","0","1","0","1","5","1","2","1","2","","2","1","2","4","2","714626757918982144","王","689","","","","","","","","","","","","","","","","","","","","","","","","","","","","","","","","","","","","","","","","","",""
"669","","f","psychophysics","107","603371","0.0-7.0-0.0-4.0-0.0-0.0","3","4","3","3","4","4","3","4","3","3","5","4","5","4","5","4","4","5","4","5","2","1","2","2","1","2","2","1","2","1","0","1","1","0","0","0","1","1","1","1","0","1","0","1","5","1","2","1","2","","2","1","2","4","2","714626757918982144","王","689","","","","nonmatch","","","","","","","","","","","","","","key","f","16.65308080808109","640","356","f","true","nonmatch","img/square.png","三角","方形","ALT1","formal_ALT1_1","","","","","","","","","","","",""
"null","<span style='color:GreenYellow; font-size: 70px;'>正确! </span>","null","html-keyboard-response","108","603873","0.0-7.0-0.0-4.0-0.0-1.0","3","4","3","3","4","4","3","4","3","3","5","4","5","4","5","4","4","5","4","5","2","1","2","2","1","2","2","1","2","1","0","1","1","0","0","0","1","1","1","1","0","1","0","1","5","1","2","1","2","","2","1","2","4","2","714626757918982144","王","689","","","","","","","","","","","","","","","","","","","","","","","","","","","","","","feedback_test","","","","","","","","","","","",""
"612","","j","psychophysics","109","605488","0.0-7.0-0.0-4.0-0.0-0.1","3","4","3","3","4","4","3","4","3","3","5","4","5","4","5","4","4","5","4","5","2","1","2","2","1","2","2","1","2","1","0","1","1","0","0","0","1","1","1","1","0","1","0","1","5","1","2","1","2","","2","1","2","4","2","714626757918982144","王","689","","","","match","","","","","","","","","","","","","","key","j","16.65358333333279","640","356","j","true","match","img/ellipse.png","椭圆","椭圆","ALT1","formal_ALT1_1","","","","","","","","","","","",""
"null","<span style='color:GreenYellow; font-size: 70px;'>正确! </span>","null","html-keyboard-response","110","605989","0.0-7.0-0.0-4.0-0.0-1.1","3","4","3","3","4","4","3","4","3","3","5","4","5","4","5","4","4","5","4","5","2","1","2","2","1","2","2","1","2","1","0","1","1","0","0","0","1","1","1","1","0","1","0","1","5","1","2","1","2","","2","1","2","4","2","714626757918982144","王","689","","","","","","","","","","","","","","","","","","","","","","","","","","","","","","feedback_test","","","","","","","","","","","",""
"564","","f","psychophysics","111","607555","0.0-7.0-0.0-4.0-0.0-0.2","3","4","3","3","4","4","3","4","3","3","5","4","5","4","5","4","4","5","4","5","2","1","2","2","1","2","2","1","2","1","0","1","1","0","0","0","1","1","1","1","0","1","0","1","5","1","2","1","2","","2","1","2","4","2","714626757918982144","王","689","","","","nonmatch","","","","","","","","","","","","","","key","f","16.653548387097075","640","356","f","true","nonmatch","img/triangle.png","六边","三角","ALT1","formal_ALT1_1","","","","","","","","","","","",""
"null","<span style='color:GreenYellow; font-size: 70px;'>正确! </span>","null","html-keyboard-response","112","608056","0.0-7.0-0.0-4.0-0.0-1.2","3","4","3","3","4","4","3","4","3","3","5","4","5","4","5","4","4","5","4","5","2","1","2","2","1","2","2","1","2","1","0","1","1","0","0","0","1","1","1","1","0","1","0","1","5","1","2","1","2","","2","1","2","4","2","714626757918982144","王","689","","","","","","","","","","","","","","","","","","","","","","","","","","","","","","feedback_test","","","","","","","","","","","",""
"581","","f","psychophysics","113","609639","0.0-7.0-0.0-4.0-0.0-0.3","3","4","3","3","4","4","3","4","3","3","5","4","5","4","5","4","4","5","4","5","2","1","2","2","1","2","2","1","2","1","0","1","1","0","0","0","1","1","1","1","0","1","0","1","5","1","2","1","2","","2","1","2","4","2","714626757918982144","王","689","","","","nonmatch","","","","","","","","","","","","","","key","f","16.652797872340553","640","356","f","true","nonmatch","img/hexagon.png","椭圆","六边","ALT1","formal_ALT1_1","","","","","","","","","","","",""
"null","<span style='color:GreenYellow; font-size: 70px;'>正确! </span>","null","html-keyboard-response","114","610140","0.0-7.0-0.0-4.0-0.0-1.3","3","4","3","3","4","4","3","4","3","3","5","4","5","4","5","4","4","5","4","5","2","1","2","2","1","2","2","1","2","1","0","1","1","0","0","0","1","1","1","1","0","1","0","1","5","1","2","1","2","","2","1","2","4","2","714626757918982144","王","689","","","","","","","","","","","","","","","","","","","","","","","","","","","","","","feedback_test","","","","","","","","","","","",""
"910","","f","psychophysics","115","612053","0.0-7.0-0.0-4.0-0.0-0.4","3","4","3","3","4","4","3","4","3","3","5","4","5","4","5","4","4","5","4","5","2","1","2","2","1","2","2","1","2","1","0","1","1","0","0","0","1","1","1","1","0","1","0","1","5","1","2","1","2","","2","1","2","4","2","714626757918982144","王","689","","","","nonmatch","","","","","","","","","","","","","","key","f","16.65337168141598","640","356","f","true","nonmatch","img/square.png","六边","方形","ALT1","formal_ALT1_1","","","","","","","","","","","",""
"null","<span style='color:GreenYellow; font-size: 70px;'>正确! </span>","null","html-keyboard-response","116","612554","0.0-7.0-0.0-4.0-0.0-1.4","3","4","3","3","4","4","3","4","3","3","5","4","5","4","5","4","4","5","4","5","2","1","2","2","1","2","2","1","2","1","0","1","1","0","0","0","1","1","1","1","0","1","0","1","5","1","2","1","2","","2","1","2","4","2","714626757918982144","王","689","","","","","","","","","","","","","","","","","","","","","","","","","","","","","","feedback_test","","","","","","","","","","","",""
"690","","j","psychophysics","117","614247","0.0-7.0-0.0-4.0-0.0-0.5","3","4","3","3","4","4","3","4","3","3","5","4","5","4","5","4","4","5","4","5","2","1","2","2","1","2","2","1","2","1","0","1","1","0","0","0","1","1","1","1","0","1","0","1","5","1","2","1","2","","2","1","2","4","2","714626757918982144","王","689","","","","match","","","","","","","","","","","","","","key","j","16.653589999999387","640","356","j","true","match","img/triangle.png","三角","三角","ALT1","formal_ALT1_1","","","","","","","","","","","",""
"null","<span style='color:GreenYellow; font-size: 70px;'>正确! </span>","null","html-keyboard-response","118","614748","0.0-7.0-0.0-4.0-0.0-1.5","3","4","3","3","4","4","3","4","3","3","5","4","5","4","5","4","4","5","4","5","2","1","2","2","1","2","2","1","2","1","0","1","1","0","0","0","1","1","1","1","0","1","0","1","5","1","2","1","2","","2","1","2","4","2","714626757918982144","王","689","","","","","","","","","","","","","","","","","","","","","","","","","","","","","","feedback_test","","","","","","","","","","","",""
"514","","f","psychophysics","119","616264","0.0-7.0-0.0-4.0-0.0-0.6","3","4","3","3","4","4","3","4","3","3","5","4","5","4","5","4","4","5","4","5","2","1","2","2","1","2","2","1","2","1","0","1","1","0","0","0","1","1","1","1","0","1","0","1","5","1","2","1","2","","2","1","2","4","2","714626757918982144","王","689","","","","nonmatch","","","","","","","","","","","","","","key","f","16.653443181818478","640","356","f","true","nonmatch","img/ellipse.png","三角","椭圆","ALT1","formal_ALT1_1","","","","","","","","","","","",""
"null","<span style='color:GreenYellow; font-size: 70px;'>正确! </span>","null","html-keyboard-response","120","616766","0.0-7.0-0.0-4.0-0.0-1.6","3","4","3","3","4","4","3","4","3","3","5","4","5","4","5","4","4","5","4","5","2","1","2","2","1","2","2","1","2","1","0","1","1","0","0","0","1","1","1","1","0","1","0","1","5","1","2","1","2","","2","1","2","4","2","714626757918982144","王","689","","","","","","","","","","","","","","","","","","","","","","","","","","","","","","feedback_test","","","","","","","","","","","",""
"572","","f","psychophysics","121","618340","0.0-7.0-0.0-4.0-0.0-0.7","3","4","3","3","4","4","3","4","3","3","5","4","5","4","5","4","4","5","4","5","2","1","2","2","1","2","2","1","2","1","0","1","1","0","0","0","1","1","1","1","0","1","0","1","5","1","2","1","2","","2","1","2","4","2","714626757918982144","王","689","","","","nonmatch","","","","","","","","","","","","","","key","f","16.6536236559141","640","356","j","false","match","img/square.png","方形","方形","ALT1","formal_ALT1_1","","","","","","","","","","","",""
"null","<span style='color:red; font-size: 70px;'>错误! </span>","null","html-keyboard-response","122","618845","0.0-7.0-0.0-4.0-0.0-1.7","3","4","3","3","4","4","3","4","3","3","5","4","5","4","5","4","4","5","4","5","2","1","2","2","1","2","2","1","2","1","0","1","1","0","0","0","1","1","1","1","0","1","0","1","5","1","2","1","2","","2","1","2","4","2","714626757918982144","王","689","","","","","","","","","","","","","","","","","","","","","","","","","","","","","","feedback_test","","","","","","","","","","","",""
"891","","f","psychophysics","123","620742","0.0-7.0-0.0-4.0-0.0-0.8","3","4","3","3","4","4","3","4","3","3","5","4","5","4","5","4","4","5","4","5","2","1","2","2","1","2","2","1","2","1","0","1","1","0","0","0","1","1","1","1","0","1","0","1","5","1","2","1","2","","2","1","2","4","2","714626757918982144","王","689","","","","nonmatch","","","","","","","","","","","","","","key","f","16.6532252252255","640","356","f","true","nonmatch","img/ellipse.png","六边","椭圆","ALT1","formal_ALT1_1","","","","","","","","","","","",""
"null","<span style='color:GreenYellow; font-size: 70px;'>正确! </span>","null","html-keyboard-response","124","621253","0.0-7.0-0.0-4.0-0.0-1.8","3","4","3","3","4","4","3","4","3","3","5","4","5","4","5","4","4","5","4","5","2","1","2","2","1","2","2","1","2","1","0","1","1","0","0","0","1","1","1","1","0","1","0","1","5","1","2","1","2","","2","1","2","4","2","714626757918982144","王","689","","","","","","","","","","","","","","","","","","","","","","","","","","","","","","feedback_test","","","","","","","","","","","",""
"537","","f","psychophysics","125","622793","0.0-7.0-0.0-4.0-0.0-0.9","3","4","3","3","4","4","3","4","3","3","5","4","5","4","5","4","4","5","4","5","2","1","2","2","1","2","2","1","2","1","0","1","1","0","0","0","1","1","1","1","0","1","0","1","5","1","2","1","2","","2","1","2","4","2","714626757918982144","王","689","","","","nonmatch","","","","","","","","","","","","","","key","f","16.65360000000025","640","356","j","false","match","img/hexagon.png","六边","六边","ALT1","formal_ALT1_1","","","","","","","","","","","",""
"null","<span style='color:red; font-size: 70px;'>错误! </span>","null","html-keyboard-response","126","623295","0.0-7.0-0.0-4.0-0.0-1.9","3","4","3","3","4","4","3","4","3","3","5","4","5","4","5","4","4","5","4","5","2","1","2","2","1","2","2","1","2","1","0","1","1","0","0","0","1","1","1","1","0","1","0","1","5","1","2","1","2","","2","1","2","4","2","714626757918982144","王","689","","","","","","","","","","","","","","","","","","","","","","","","","","","","","","feedback_test","","","","","","","","","","","",""
"580","","j","psychophysics","127","624877","0.0-7.0-0.0-4.0-0.0-0.10","3","4","3","3","4","4","3","4","3","3","5","4","5","4","5","4","4","5","4","5","2","1","2","2","1","2","2","1","2","1","0","1","1","0","0","0","1","1","1","1","0","1","0","1","5","1","2","1","2","","2","1","2","4","2","714626757918982144","王","689","","","","match","","","","","","","","","","","","","","key","j","16.65366666666758","640","356","j","true","match","img/triangle.png","三角","三角","ALT1","formal_ALT1_1","","","","","","","","","","","",""
"null","<span style='color:GreenYellow; font-size: 70px;'>正确! </span>","null","html-keyboard-response","128","625380","0.0-7.0-0.0-4.0-0.0-1.10","3","4","3","3","4","4","3","4","3","3","5","4","5","4","5","4","4","5","4","5","2","1","2","2","1","2","2","1","2","1","0","1","1","0","0","0","1","1","1","1","0","1","0","1","5","1","2","1","2","","2","1","2","4","2","714626757918982144","王","689","","","","","","","","","","","","","","","","","","","","","","","","","","","","","","feedback_test","","","","","","","","","","","",""
"759","","j","psychophysics","129","627142","0.0-7.0-0.0-4.0-0.0-0.11","3","4","3","3","4","4","3","4","3","3","5","4","5","4","5","4","4","5","4","5","2","1","2","2","1","2","2","1","2","1","0","1","1","0","0","0","1","1","1","1","0","1","0","1","5","1","2","1","2","","2","1","2","4","2","714626757918982144","王","689","","","","match","","","","","","","","","","","","","","key","j","16.65339805825288","640","356","f","false","nonmatch","img/ellipse.png","方形","椭圆","ALT1","formal_ALT1_1","","","","","","","","","","","",""
"null","<span style='color:red; font-size: 70px;'>错误! </span>","null","html-keyboard-response","130","627646","0.0-7.0-0.0-4.0-0.0-1.11","3","4","3","3","4","4","3","4","3","3","5","4","5","4","5","4","4","5","4","5","2","1","2","2","1","2","2","1","2","1","0","1","1","0","0","0","1","1","1","1","0","1","0","1","5","1","2","1","2","","2","1","2","4","2","714626757918982144","王","689","","","","","","","","","","","","","","","","","","","","","","","","","","","","","","feedback_test","","","","","","","","","","","",""
"609","","f","psychophysics","131","629258","0.0-7.0-0.0-4.0-0.0-0.12","3","4","3","3","4","4","3","4","3","3","5","4","5","4","5","4","4","5","4","5","2","1","2","2","1","2","2","1","2","1","0","1","1","0","0","0","1","1","1","1","0","1","0","1","5","1","2","1","2","","2","1","2","4","2","714626757918982144","王","689","","","","nonmatch","","","","","","","","","","","","","","key","f","16.653457446807767","640","356","j","false","match","img/hexagon.png","六边","六边","ALT1","formal_ALT1_1","","","","","","","","","","","",""
"null","<span style='color:red; font-size: 70px;'>错误! </span>","null","html-keyboard-response","132","629760","0.0-7.0-0.0-4.0-0.0-1.12","3","4","3","3","4","4","3","4","3","3","5","4","5","4","5","4","4","5","4","5","2","1","2","2","1","2","2","1","2","1","0","1","1","0","0","0","1","1","1","1","0","1","0","1","5","1","2","1","2","","2","1","2","4","2","714626757918982144","王","689","","","","","","","","","","","","","","","","","","","","","","","","","","","","","","feedback_test","","","","","","","","","","","",""
"867","","j","psychophysics","133","631630","0.0-7.0-0.0-4.0-0.0-0.13","3","4","3","3","4","4","3","4","3","3","5","4","5","4","5","4","4","5","4","5","2","1","2","2","1","2","2","1","2","1","0","1","1","0","0","0","1","1","1","1","0","1","0","1","5","1","2","1","2","","2","1","2","4","2","714626757918982144","王","689","","","","match","","","","","","","","","","","","","","key","j","16.653522522522238","640","356","j","true","match","img/ellipse.png","椭圆","椭圆","ALT1","formal_ALT1_1","","","","","","","","","","","",""
"null","<span style='color:GreenYellow; font-size: 70px;'>正确! </span>","null","html-keyboard-response","134","632132","0.0-7.0-0.0-4.0-0.0-1.13","3","4","3","3","4","4","3","4","3","3","5","4","5","4","5","4","4","5","4","5","2","1","2","2","1","2","2","1","2","1","0","1","1","0","0","0","1","1","1","1","0","1","0","1","5","1","2","1","2","","2","1","2","4","2","714626757918982144","王","689","","","","","","","","","","","","","","","","","","","","","","","","","","","","","","feedback_test","","","","","","","","","","","",""
"706","","f","psychophysics","135","633840","0.0-7.0-0.0-4.0-0.0-0.14","3","4","3","3","4","4","3","4","3","3","5","4","5","4","5","4","4","5","4","5","2","1","2","2","1","2","2","1","2","1","0","1","1","0","0","0","1","1","1","1","0","1","0","1","5","1","2","1","2","","2","1","2","4","2","714626757918982144","王","689","","","","nonmatch","","","","","","","","","","","","","","key","f","16.654049999999117","640","356","f","true","nonmatch","img/triangle.png","椭圆","三角","ALT1","formal_ALT1_1","","","","","","","","","","","",""
"null","<span style='color:GreenYellow; font-size: 70px;'>正确! </span>","null","html-keyboard-response","136","634342","0.0-7.0-0.0-4.0-0.0-1.14","3","4","3","3","4","4","3","4","3","3","5","4","5","4","5","4","4","5","4","5","2","1","2","2","1","2","2","1","2","1","0","1","1","0","0","0","1","1","1","1","0","1","0","1","5","1","2","1","2","","2","1","2","4","2","714626757918982144","王","689","","","","","","","","","","","","","","","","","","","","","","","","","","","","","","feedback_test","","","","","","","","","","","",""
"798","","j","psychophysics","137","636142","0.0-7.0-0.0-4.0-0.0-0.15","3","4","3","3","4","4","3","4","3","3","5","4","5","4","5","4","4","5","4","5","2","1","2","2","1","2","2","1","2","1","0","1","1","0","0","0","1","1","1","1","0","1","0","1","5","1","2","1","2","","2","1","2","4","2","714626757918982144","王","689","","","","match","","","","","","","","","","","","","","key","j","16.653438095238414","640","356","j","true","match","img/square.png","方形","方形","ALT1","formal_ALT1_1","","","","","","","","","","","",""
"null","<span style='color:GreenYellow; font-size: 70px;'>正确! </span>","null","html-keyboard-response","138","636643","0.0-7.0-0.0-4.0-0.0-1.15","3","4","3","3","4","4","3","4","3","3","5","4","5","4","5","4","4","5","4","5","2","1","2","2","1","2","2","1","2","1","0","1","1","0","0","0","1","1","1","1","0","1","0","1","5","1","2","1","2","","2","1","2","4","2","714626757918982144","王","689","","","","","","","","","","","","","","","","","","","","","","","","","","","","","","feedback_test","","","","","","","","","","","",""
"575","","j","psychophysics","139","638219","0.0-7.0-0.0-4.0-0.0-0.16","3","4","3","3","4","4","3","4","3","3","5","4","5","4","5","4","4","5","4","5","2","1","2","2","1","2","2","1","2","1","0","1","1","0","0","0","1","1","1","1","0","1","0","1","5","1","2","1","2","","2","1","2","4","2","714626757918982144","王","689","","","","match","","","","","","","","","","","","","","key","j","16.652989247311858","640","356","j","true","match","img/ellipse.png","椭圆","椭圆","ALT1","formal_ALT1_1","","","","","","","","","","","",""
"null","<span style='color:GreenYellow; font-size: 70px;'>正确! </span>","null","html-keyboard-response","140","638721","0.0-7.0-0.0-4.0-0.0-1.16","3","4","3","3","4","4","3","4","3","3","5","4","5","4","5","4","4","5","4","5","2","1","2","2","1","2","2","1","2","1","0","1","1","0","0","0","1","1","1","1","0","1","0","1","5","1","2","1","2","","2","1","2","4","2","714626757918982144","王","689","","","","","","","","","","","","","","","","","","","","","","","","","","","","","","feedback_test","","","","","","","","","","","",""
"607","","j","psychophysics","141","640331","0.0-7.0-0.0-4.0-0.0-0.17","3","4","3","3","4","4","3","4","3","3","5","4","5","4","5","4","4","5","4","5","2","1","2","2","1","2","2","1","2","1","0","1","1","0","0","0","1","1","1","1","0","1","0","1","5","1","2","1","2","","2","1","2","4","2","714626757918982144","王","689","","","","match","","","","","","","","","","","","","","key","j","16.65361702127724","640","356","j","true","match","img/hexagon.png","六边","六边","ALT1","formal_ALT1_1","","","","","","","","","","","",""
"null","<span style='color:GreenYellow; font-size: 70px;'>正确! </span>","null","html-keyboard-response","142","640832","0.0-7.0-0.0-4.0-0.0-1.17","3","4","3","3","4","4","3","4","3","3","5","4","5","4","5","4","4","5","4","5","2","1","2","2","1","2","2","1","2","1","0","1","1","0","0","0","1","1","1","1","0","1","0","1","5","1","2","1","2","","2","1","2","4","2","714626757918982144","王","689","","","","","","","","","","","","","","","","","","","","","","","","","","","","","","feedback_test","","","","","","","","","","","",""
"888","","f","psychophysics","143","642725","0.0-7.0-0.0-4.0-0.0-0.18","3","4","3","3","4","4","3","4","3","3","5","4","5","4","5","4","4","5","4","5","2","1","2","2","1","2","2","1","2","1","0","1","1","0","0","0","1","1","1","1","0","1","0","1","5","1","2","1","2","","2","1","2","4","2","714626757918982144","王","689","","","","nonmatch","","","","","","","","","","","","","","key","f","16.65353097345173","640","356","f","true","nonmatch","img/triangle.png","方形","三角","ALT1","formal_ALT1_1","","","","","","","","","","","",""
"null","<span style='color:GreenYellow; font-size: 70px;'>正确! </span>","null","html-keyboard-response","144","643228","0.0-7.0-0.0-4.0-0.0-1.18","3","4","3","3","4","4","3","4","3","3","5","4","5","4","5","4","4","5","4","5","2","1","2","2","1","2","2","1","2","1","0","1","1","0","0","0","1","1","1","1","0","1","0","1","5","1","2","1","2","","2","1","2","4","2","714626757918982144","王","689","","","","","","","","","","","","","","","","","","","","","","","","","","","","","","feedback_test","","","","","","","","","","","",""
"776","","f","psychophysics","145","645008","0.0-7.0-0.0-4.0-0.0-0.19","3","4","3","3","4","4","3","4","3","3","5","4","5","4","5","4","4","5","4","5","2","1","2","2","1","2","2","1","2","1","0","1","1","0","0","0","1","1","1","1","0","1","0","1","5","1","2","1","2","","2","1","2","4","2","714626757918982144","王","689","","","","nonmatch","","","","","","","","","","","","","","key","f","16.653615384615616","640","356","f","true","nonmatch","img/hexagon.png","方形","六边","ALT1","formal_ALT1_1","","","","","","","","","","","",""
"null","<span style='color:GreenYellow; font-size: 70px;'>正确! </span>","null","html-keyboard-response","146","645520","0.0-7.0-0.0-4.0-0.0-1.19","3","4","3","3","4","4","3","4","3","3","5","4","5","4","5","4","4","5","4","5","2","1","2","2","1","2","2","1","2","1","0","1","1","0","0","0","1","1","1","1","0","1","0","1","5","1","2","1","2","","2","1","2","4","2","714626757918982144","王","689","","","","","","","","","","","","","","","","","","","","","","","","","","","","","","feedback_test","","","","","","","","","","","",""
"587","","f","psychophysics","147","647109","0.0-7.0-0.0-4.0-0.0-0.20","3","4","3","3","4","4","3","4","3","3","5","4","5","4","5","4","4","5","4","5","2","1","2","2","1","2","2","1","2","1","0","1","1","0","0","0","1","1","1","1","0","1","0","1","5","1","2","1","2","","2","1","2","4","2","714626757918982144","王","689","","","","nonmatch","","","","","","","","","","","","","","key","f","16.65356989247319","640","356","f","true","nonmatch","img/square.png","椭圆","方形","ALT1","formal_ALT1_1","","","","","","","","","","","",""
"null","<span style='color:GreenYellow; font-size: 70px;'>正确! </span>","null","html-keyboard-response","148","647612","0.0-7.0-0.0-4.0-0.0-1.20","3","4","3","3","4","4","3","4","3","3","5","4","5","4","5","4","4","5","4","5","2","1","2","2","1","2","2","1","2","1","0","1","1","0","0","0","1","1","1","1","0","1","0","1","5","1","2","1","2","","2","1","2","4","2","714626757918982144","王","689","","","","","","","","","","","","","","","","","","","","","","","","","","","","","","feedback_test","","","","","","","","","","","",""
"574","","f","psychophysics","149","649189","0.0-7.0-0.0-4.0-0.0-0.21","3","4","3","3","4","4","3","4","3","3","5","4","5","4","5","4","4","5","4","5","2","1","2","2","1","2","2","1","2","1","0","1","1","0","0","0","1","1","1","1","0","1","0","1","5","1","2","1","2","","2","1","2","4","2","714626757918982144","王","689","","","","nonmatch","","","","","","","","","","","","","","key","f","16.653554347825853","640","356","j","false","match","img/triangle.png","三角","三角","ALT1","formal_ALT1_1","","","","","","","","","","","",""
"null","<span style='color:red; font-size: 70px;'>错误! </span>","null","html-keyboard-response","150","649692","0.0-7.0-0.0-4.0-0.0-1.21","3","4","3","3","4","4","3","4","3","3","5","4","5","4","5","4","4","5","4","5","2","1","2","2","1","2","2","1","2","1","0","1","1","0","0","0","1","1","1","1","0","1","0","1","5","1","2","1","2","","2","1","2","4","2","714626757918982144","王","689","","","","","","","","","","","","","","","","","","","","","","","","","","","","","","feedback_test","","","","","","","","","","","",""
"651","","j","psychophysics","151","651346","0.0-7.0-0.0-4.0-0.0-0.22","3","4","3","3","4","4","3","4","3","3","5","4","5","4","5","4","4","5","4","5","2","1","2","2","1","2","2","1","2","1","0","1","1","0","0","0","1","1","1","1","0","1","0","1","5","1","2","1","2","","2","1","2","4","2","714626757918982144","王","689","","","","match","","","","","","","","","","","","","","key","j","16.648306122448826","640","356","j","true","match","img/square.png","方形","方形","ALT1","formal_ALT1_1","","","","","","","","","","","",""
"null","<span style='color:GreenYellow; font-size: 70px;'>正确! </span>","null","html-keyboard-response","152","651847","0.0-7.0-0.0-4.0-0.0-1.22","3","4","3","3","4","4","3","4","3","3","5","4","5","4","5","4","4","5","4","5","2","1","2","2","1","2","2","1","2","1","0","1","1","0","0","0","1","1","1","1","0","1","0","1","5","1","2","1","2","","2","1","2","4","2","714626757918982144","王","689","","","","","","","","","","","","","","","","","","","","","","","","","","","","","","feedback_test","","","","","","","","","","","",""
"654","","f","psychophysics","153","653503","0.0-7.0-0.0-4.0-0.0-0.23","3","4","3","3","4","4","3","4","3","3","5","4","5","4","5","4","4","5","4","5","2","1","2","2","1","2","2","1","2","1","0","1","1","0","0","0","1","1","1","1","0","1","0","1","5","1","2","1","2","","2","1","2","4","2","714626757918982144","王","689","","","","nonmatch","","","","","","","","","","","","","","key","f","16.65343298968984","640","356","f","true","nonmatch","img/hexagon.png","三角","六边","ALT1","formal_ALT1_1","","","","","","","","","","","",""
"null","<span style='color:GreenYellow; font-size: 70px;'>正确! </span>","null","html-keyboard-response","154","654005","0.0-7.0-0.0-4.0-0.0-1.23","3","4","3","3","4","4","3","4","3","3","5","4","5","4","5","4","4","5","4","5","2","1","2","2","1","2","2","1","2","1","0","1","1","0","0","0","1","1","1","1","0","1","0","1","5","1","2","1","2","","2","1","2","4","2","714626757918982144","王","689","","","","","","","","","","","","","","","","","","","","","","","","","","","","","","feedback_test","","","","","","","","","","","",""
"683","","f","psychophysics","155","655692","0.0-7.0-0.0-4.0-0.0-0.24","3","4","3","3","4","4","3","4","3","3","5","4","5","4","5","4","4","5","4","5","2","1","2","2","1","2","2","1","2","1","0","1","1","0","0","0","1","1","1","1","0","1","0","1","5","1","2","1","2","","2","1","2","4","2","714626757918982144","王","689","","","","nonmatch","","","","","","","","","","","","","","key","f","16.65353535353606","640","356","f","true","nonmatch","img/ellipse.png","六边","椭圆","ALT1","formal_ALT1_1","","","","","","","","","","","",""
"null","<span style='color:GreenYellow; font-size: 70px;'>正确! </span>","null","html-keyboard-response","156","656195","0.0-7.0-0.0-4.0-0.0-1.24","3","4","3","3","4","4","3","4","3","3","5","4","5","4","5","4","4","5","4","5","2","1","2","2","1","2","2","1","2","1","0","1","1","0","0","0","1","1","1","1","0","1","0","1","5","1","2","1","2","","2","1","2","4","2","714626757918982144","王","689","","","","","","","","","","","","","","","","","","","","","","","","","","","","","","feedback_test","","","","","","","","","","","",""
"578","","j","psychophysics","157","657777","0.0-7.0-0.0-4.0-0.0-0.25","3","4","3","3","4","4","3","4","3","3","5","4","5","4","5","4","4","5","4","5","2","1","2","2","1","2","2","1","2","1","0","1","1","0","0","0","1","1","1","1","0","1","0","1","5","1","2","1","2","","2","1","2","4","2","714626757918982144","王","689","","","","match","","","","","","","","","","","","","","key","j","16.64586170212653","640","356","j","true","match","img/square.png","方形","方形","ALT1","formal_ALT1_1","","","","","","","","","","","",""
"null","<span style='color:GreenYellow; font-size: 70px;'>正确! </span>","null","html-keyboard-response","158","658279","0.0-7.0-0.0-4.0-0.0-1.25","3","4","3","3","4","4","3","4","3","3","5","4","5","4","5","4","4","5","4","5","2","1","2","2","1","2","2","1","2","1","0","1","1","0","0","0","1","1","1","1","0","1","0","1","5","1","2","1","2","","2","1","2","4","2","714626757918982144","王","689","","","","","","","","","","","","","","","","","","","","","","","","","","","","","","feedback_test","","","","","","","","","","","",""
"638","","f","psychophysics","159","659919","0.0-7.0-0.0-4.0-0.0-0.26","3","4","3","3","4","4","3","4","3","3","5","4","5","4","5","4","4","5","4","5","2","1","2","2","1","2","2","1","2","1","0","1","1","0","0","0","1","1","1","1","0","1","0","1","5","1","2","1","2","","2","1","2","4","2","714626757918982144","王","689","","","","nonmatch","","","","","","","","","","","","","","key","f","16.65333333333304","640","356","f","true","nonmatch","img/ellipse.png","三角","椭圆","ALT1","formal_ALT1_1","","","","","","","","","","","",""
"null","<span style='color:GreenYellow; font-size: 70px;'>正确! </span>","null","html-keyboard-response","160","660425","0.0-7.0-0.0-4.0-0.0-1.26","3","4","3","3","4","4","3","4","3","3","5","4","5","4","5","4","4","5","4","5","2","1","2","2","1","2","2","1","2","1","0","1","1","0","0","0","1","1","1","1","0","1","0","1","5","1","2","1","2","","2","1","2","4","2","714626757918982144","王","689","","","","","","","","","","","","","","","","","","","","","","","","","","","","","","feedback_test","","","","","","","","","","","",""
"567","","f","psychophysics","161","661996","0.0-7.0-0.0-4.0-0.0-0.27","3","4","3","3","4","4","3","4","3","3","5","4","5","4","5","4","4","5","4","5","2","1","2","2","1","2","2","1","2","1","0","1","1","0","0","0","1","1","1","1","0","1","0","1","5","1","2","1","2","","2","1","2","4","2","714626757918982144","王","689","","","","nonmatch","","","","","","","","","","","","","","key","f","16.65364130434793","640","356","j","false","match","img/ellipse.png","椭圆","椭圆","ALT1","formal_ALT1_1","","","","","","","","","","","",""
"null","<span style='color:red; font-size: 70px;'>错误! </span>","null","html-keyboard-response","162","662498","0.0-7.0-0.0-4.0-0.0-1.27","3","4","3","3","4","4","3","4","3","3","5","4","5","4","5","4","4","5","4","5","2","1","2","2","1","2","2","1","2","1","0","1","1","0","0","0","1","1","1","1","0","1","0","1","5","1","2","1","2","","2","1","2","4","2","714626757918982144","王","689","","","","","","","","","","","","","","","","","","","","","","","","","","","","","","feedback_test","","","","","","","","","","","",""
"910","","f","psychophysics","163","664412","0.0-7.0-0.0-4.0-0.0-0.28","3","4","3","3","4","4","3","4","3","3","5","4","5","4","5","4","4","5","4","5","2","1","2","2","1","2","2","1","2","1","0","1","1","0","0","0","1","1","1","1","0","1","0","1","5","1","2","1","2","","2","1","2","4","2","714626757918982144","王","689","","","","nonmatch","","","","","","","","","","","","","","key","f","16.65330088495553","640","356","f","true","nonmatch","img/square.png","椭圆","方形","ALT1","formal_ALT1_1","","","","","","","","","","","",""
"null","<span style='color:GreenYellow; font-size: 70px;'>正确! </span>","null","html-keyboard-response","164","664914","0.0-7.0-0.0-4.0-0.0-1.28","3","4","3","3","4","4","3","4","3","3","5","4","5","4","5","4","4","5","4","5","2","1","2","2","1","2","2","1","2","1","0","1","1","0","0","0","1","1","1","1","0","1","0","1","5","1","2","1","2","","2","1","2","4","2","714626757918982144","王","689","","","","","","","","","","","","","","","","","","","","","","","","","","","","","","feedback_test","","","","","","","","","","","",""
"576","","f","psychophysics","165","666492","0.0-7.0-0.0-4.0-0.0-0.29","3","4","3","3","4","4","3","4","3","3","5","4","5","4","5","4","4","5","4","5","2","1","2","2","1","2","2","1","2","1","0","1","1","0","0","0","1","1","1","1","0","1","0","1","5","1","2","1","2","","2","1","2","4","2","714626757918982144","王","689","","","","nonmatch","","","","","","","","","","","","","","key","f","16.653118279571043","640","356","j","false","match","img/hexagon.png","六边","六边","ALT1","formal_ALT1_1","","","","","","","","","","","",""
"null","<span style='color:red; font-size: 70px;'>错误! </span>","null","html-keyboard-response","166","666994","0.0-7.0-0.0-4.0-0.0-1.29","3","4","3","3","4","4","3","4","3","3","5","4","5","4","5","4","4","5","4","5","2","1","2","2","1","2","2","1","2","1","0","1","1","0","0","0","1","1","1","1","0","1","0","1","5","1","2","1","2","","2","1","2","4","2","714626757918982144","王","689","","","","","","","","","","","","","","","","","","","","","","","","","","","","","","feedback_test","","","","","","","","","","","",""
"756","","j","psychophysics","167","668756","0.0-7.0-0.0-4.0-0.0-0.30","3","4","3","3","4","4","3","4","3","3","5","4","5","4","5","4","4","5","4","5","2","1","2","2","1","2","2","1","2","1","0","1","1","0","0","0","1","1","1","1","0","1","0","1","5","1","2","1","2","","2","1","2","4","2","714626757918982144","王","689","","","","match","","","","","","","","","","","","","","key","j","16.6534174757284","640","356","j","true","match","img/hexagon.png","六边","六边","ALT1","formal_ALT1_1","","","","","","","","","","","",""
"null","<span style='color:GreenYellow; font-size: 70px;'>正确! </span>","null","html-keyboard-response","168","669259","0.0-7.0-0.0-4.0-0.0-1.30","3","4","3","3","4","4","3","4","3","3","5","4","5","4","5","4","4","5","4","5","2","1","2","2","1","2","2","1","2","1","0","1","1","0","0","0","1","1","1","1","0","1","0","1","5","1","2","1","2","","2","1","2","4","2","714626757918982144","王","689","","","","","","","","","","","","","","","","","","","","","","","","","","","","","","feedback_test","","","","","","","","","","","",""
"869","","f","psychophysics","169","671142","0.0-7.0-0.0-4.0-0.0-0.31","3","4","3","3","4","4","3","4","3","3","5","4","5","4","5","4","4","5","4","5","2","1","2","2","1","2","2","1","2","1","0","1","1","0","0","0","1","1","1","1","0","1","0","1","5","1","2","1","2","","2","1","2","4","2","714626757918982144","王","689","","","","nonmatch","","","","","","","","","","","","","","key","f","16.6449639639641","640","356","f","true","nonmatch","img/triangle.png","方形","三角","ALT1","formal_ALT1_1","","","","","","","","","","","",""
"null","<span style='color:GreenYellow; font-size: 70px;'>正确! </span>","null","html-keyboard-response","170","671648","0.0-7.0-0.0-4.0-0.0-1.31","3","4","3","3","4","4","3","4","3","3","5","4","5","4","5","4","4","5","4","5","2","1","2","2","1","2","2","1","2","1","0","1","1","0","0","0","1","1","1","1","0","1","0","1","5","1","2","1","2","","2","1","2","4","2","714626757918982144","王","689","","","","","","","","","","","","","","","","","","","","","","","","","","","","","","feedback_test","","","","","","","","","","","",""
"737","","j","psychophysics","171","673387","0.0-7.0-0.0-4.0-0.0-0.32","3","4","3","3","4","4","3","4","3","3","5","4","5","4","5","4","4","5","4","5","2","1","2","2","1","2","2","1","2","1","0","1","1","0","0","0","1","1","1","1","0","1","0","1","5","1","2","1","2","","2","1","2","4","2","714626757918982144","王","689","","","","match","","","","","","","","","","","","","","key","j","16.65354901960681","640","356","j","true","match","img/ellipse.png","椭圆","椭圆","ALT1","formal_ALT1_1","","","","","","","","","","","",""
"null","<span style='color:GreenYellow; font-size: 70px;'>正确! </span>","null","html-keyboard-response","172","673889","0.0-7.0-0.0-4.0-0.0-1.32","3","4","3","3","4","4","3","4","3","3","5","4","5","4","5","4","4","5","4","5","2","1","2","2","1","2","2","1","2","1","0","1","1","0","0","0","1","1","1","1","0","1","0","1","5","1","2","1","2","","2","1","2","4","2","714626757918982144","王","689","","","","","","","","","","","","","","","","","","","","","","","","","","","","","","feedback_test","","","","","","","","","","","",""
"643","","j","psychophysics","173","675535","0.0-7.0-0.0-4.0-0.0-0.33","3","4","3","3","4","4","3","4","3","3","5","4","5","4","5","4","4","5","4","5","2","1","2","2","1","2","2","1","2","1","0","1","1","0","0","0","1","1","1","1","0","1","0","1","5","1","2","1","2","","2","1","2","4","2","714626757918982144","王","689","","","","match","","","","","","","","","","","","","","key","j","16.65346391752516","640","356","j","true","match","img/ellipse.png","椭圆","椭圆","ALT1","formal_ALT1_1","","","","","","","","","","","",""
"null","<span style='color:GreenYellow; font-size: 70px;'>正确! </span>","null","html-keyboard-response","174","676038","0.0-7.0-0.0-4.0-0.0-1.33","3","4","3","3","4","4","3","4","3","3","5","4","5","4","5","4","4","5","4","5","2","1","2","2","1","2","2","1","2","1","0","1","1","0","0","0","1","1","1","1","0","1","0","1","5","1","2","1","2","","2","1","2","4","2","714626757918982144","王","689","","","","","","","","","","","","","","","","","","","","","","","","","","","","","","feedback_test","","","","","","","","","","","",""
"560","","j","psychophysics","175","677600","0.0-7.0-0.0-4.0-0.0-0.34","3","4","3","3","4","4","3","4","3","3","5","4","5","4","5","4","4","5","4","5","2","1","2","2","1","2","2","1","2","1","0","1","1","0","0","0","1","1","1","1","0","1","0","1","5","1","2","1","2","","2","1","2","4","2","714626757918982144","王","689","","","","match","","","","","","","","","","","","","","key","j","16.653582417582683","640","356","j","true","match","img/triangle.png","三角","三角","ALT1","formal_ALT1_1","","","","","","","","","","","",""
"null","<span style='color:GreenYellow; font-size: 70px;'>正确! </span>","null","html-keyboard-response","176","678103","0.0-7.0-0.0-4.0-0.0-1.34","3","4","3","3","4","4","3","4","3","3","5","4","5","4","5","4","4","5","4","5","2","1","2","2","1","2","2","1","2","1","0","1","1","0","0","0","1","1","1","1","0","1","0","1","5","1","2","1","2","","2","1","2","4","2","714626757918982144","王","689","","","","","","","","","","","","","","","","","","","","","","","","","","","","","","feedback_test","","","","","","","","","","","",""
"736","","f","psychophysics","177","679842","0.0-7.0-0.0-4.0-0.0-0.35","3","4","3","3","4","4","3","4","3","3","5","4","5","4","5","4","4","5","4","5","2","1","2","2","1","2","2","1","2","1","0","1","1","0","0","0","1","1","1","1","0","1","0","1","5","1","2","1","2","","2","1","2","4","2","714626757918982144","王","689","","","","nonmatch","","","","","","","","","","","","","","key","f","16.653764705882434","640","356","f","true","nonmatch","img/triangle.png","六边","三角","ALT1","formal_ALT1_1","","","","","","","","","","","",""
"null","<span style='color:GreenYellow; font-size: 70px;'>正确! </span>","null","html-keyboard-response","178","680344","0.0-7.0-0.0-4.0-0.0-1.35","3","4","3","3","4","4","3","4","3","3","5","4","5","4","5","4","4","5","4","5","2","1","2","2","1","2","2","1","2","1","0","1","1","0","0","0","1","1","1","1","0","1","0","1","5","1","2","1","2","","2","1","2","4","2","714626757918982144","王","689","","","","","","","","","","","","","","","","","","","","","","","","","","","","","","feedback_test","","","","","","","","","","","",""
"946","","f","psychophysics","179","682293","0.0-7.0-0.0-4.0-0.0-0.36","3","4","3","3","4","4","3","4","3","3","5","4","5","4","5","4","4","5","4","5","2","1","2","2","1","2","2","1","2","1","0","1","1","0","0","0","1","1","1","1","0","1","0","1","5","1","2","1","2","","2","1","2","4","2","714626757918982144","王","689","","","","nonmatch","","","","","","","","","","","","","","key","f","16.65348695652134","640","356","f","true","nonmatch","img/square.png","六边","方形","ALT1","formal_ALT1_1","","","","","","","","","","","",""
"null","<span style='color:GreenYellow; font-size: 70px;'>正确! </span>","null","html-keyboard-response","180","682794","0.0-7.0-0.0-4.0-0.0-1.36","3","4","3","3","4","4","3","4","3","3","5","4","5","4","5","4","4","5","4","5","2","1","2","2","1","2","2","1","2","1","0","1","1","0","0","0","1","1","1","1","0","1","0","1","5","1","2","1","2","","2","1","2","4","2","714626757918982144","王","689","","","","","","","","","","","","","","","","","","","","","","","","","","","","","","feedback_test","","","","","","","","","","","",""
"643","","j","psychophysics","181","684439","0.0-7.0-0.0-4.0-0.0-0.37","3","4","3","3","4","4","3","4","3","3","5","4","5","4","5","4","4","5","4","5","2","1","2","2","1","2","2","1","2","1","0","1","1","0","0","0","1","1","1","1","0","1","0","1","5","1","2","1","2","","2","1","2","4","2","714626757918982144","王","689","","","","match","","","","","","","","","","","","","","key","j","16.653479591836412","640","356","j","true","match","img/triangle.png","三角","三角","ALT1","formal_ALT1_1","","","","","","","","","","","",""
