"rt","stimulus","response","trial_type","trial_index","time_elapsed","internal_node_id","ses_1","ses_2","ses_3","ses_4","ses_5","ses_6","ses_7","ses_8","ses_9","ses_10","coreself_1","coreself_2","coreself_3","coreself_4","coreself_5","coreself_6","coreself_7","coreself_8","coreself_9","coreself_10","SGPS_1","SGPS_2","SGPS_3","SGPS_4","SGPS_5","SGPS_6","SGPS_7","SGPS_8","SGPS_9","NPI1","NPI2","NPI3","NPI4","NPI5","NPI6","NPI7","NPI8","NPI9","NPI10","NPI11","NPI12","NPI13","NPI14","NPI15","hsns_1","hsns_2","hsns_3","hsns_4","hsns_5","trap1","hsns_6","hsns_7","hsns_8","hsns_9","hsns_10","subj_idx","friend_name","ParticipantID","value","success","user_agent","responses","item_order","radio_event_ids","radio_event_times","key_event_times","mouse_event_times","straightlining","zigzagging","honeypot","timeout","failed_images","failed_audio","failed_video","version_attrib2","version_target2","correct","IAT","screen_id","task_id","RT","condition","word","varname","summary","version_attrib","version_target","time_stamp","view_history","response_type","key_press","avg_frame_time","center_x","center_y","correct_response","identity","Image","question_order","correct_answer","trap1_item"
"9643","
   <p><div style = ""color: white;font-size:25px;"">您好，欢迎参加本次实验。</div> </p>
   <p><div style = ""color: white;font-size:25px;"">为充分保障您的权利，请确保您已经知晓并同意《参与实验同意书》以及《数据公开知情同意书》。</div></p>
   <p><div style = ""color: white;font-size:25px;"">如果您未见过上述内容，请咨询实验员。</div></p>
   <p><div style = ""color: white;font-size:25px;"">如果您选择继续实验，则表示您已经清楚两份知情同意书的内容并同意。</div></p>
   <p><div style = ""color: pink;font-size:30px;"">请确保您记得day0的实验编号，您将在本次实验输入该编号，若您忘记，请咨询实验员后作答。</div></p>
   <p><div style = ""color: lightblue;font-size:25px;"">请您尽可能认真地作答，我们将依据您在各问卷和按键任务中的作答质量发放报酬。</div></p>
   <p> <div style = ""color: green;font-size:25px;""><按空格键至下页></div> </p>
   "," ","html-keyboard-response","0","9646","0.0-0.0","4","4","4","4","4","4","4","4","4","4","5","5","5","5","5","5","5","5","5","5","1","1","1","1","1","1","1","1","1","0","0","1","1","0","1","0","1","0","1","1","0","0","1","1","5","1","2","1","1","4","2","1","2","5","1","598903596641157120","王","576","","","","","","","","","","","","","","","","","","","","","","","","","","","","","","","","","","","","","","","","","",""
"","","","call-function","1","9646","0.0-1.0-0.0","4","4","4","4","4","4","4","4","4","4","5","5","5","5","5","5","5","5","5","5","1","1","1","1","1","1","1","1","1","0","0","1","1","0","1","0","1","0","1","1","0","0","1","1","5","1","2","1","1","4","2","1","2","5","1","598903596641157120","王","576","","","","","","","","","","","","","","","","","","","","","","","","","","","","","","","","","","","","","","","","","",""
"31102","","{""friend_name"":""王"",""ParticipantID"":""576""}","survey-html-form","2","40749","0.0-1.0-1.0","4","4","4","4","4","4","4","4","4","4","5","5","5","5","5","5","5","5","5","5","1","1","1","1","1","1","1","1","1","0","0","1","1","0","1","0","1","0","1","1","0","0","1","1","5","1","2","1","1","4","2","1","2","5","1","598903596641157120","王","576","","","","","","","","","","","","","","","","","","","","","","","","","","","","","","","","","","","","","","","","","",""
"","","","fullscreen","3","41922","0.0-2.0","4","4","4","4","4","4","4","4","4","4","5","5","5","5","5","5","5","5","5","5","1","1","1","1","1","1","1","1","1","0","0","1","1","0","1","0","1","0","1","1","0","0","1","1","5","1","2","1","1","4","2","1","2","5","1","598903596641157120","王","576","","true","{}","","","","","","","","","","","","","","","","","","","","","","","","","","","","","","","","","","","","","","",""
"15642.700000047684","","{""Q01"":""4"",""Q02"":""4"",""Q03"":""4"",""Q04"":""4"",""Q05"":""4"",""Q06"":""4"",""Q07"":""4"",""Q08"":""4"",""Q09"":""4"",""Q10"":""4""}","survey-template","4","57568","0.0-3.0","4","4","4","4","4","4","4","4","4","4","5","5","5","5","5","5","5","5","5","5","1","1","1","1","1","1","1","1","1","0","0","1","1","0","1","0","1","0","1","1","0","0","1","1","5","1","2","1","1","4","2","1","2","5","1","598903596641157120","王","576","","","","{""Q01"":""4"",""Q02"":""4"",""Q03"":""4"",""Q04"":""4"",""Q05"":""4"",""Q06"":""4"",""Q07"":""4"",""Q08"":""4"",""Q09"":""4"",""Q10"":""4""}","[0,1,2,3,4,5,6,7,8,9]","[""Q01"",""Q02"",""Q03"",""Q04"",""Q05"",""Q06"",""Q07"",""Q08"",""Q09"",""Q10""]","[1641.2999999523163,2833.2999999523163,4609.200000047684,6265.299999952316,8233.700000047684,9561.200000047684,10321.299999952316,12025.200000047684,12441.200000047684,13417.200000047684]","[]","[1641.2999999523163,2833.2999999523163,4609.200000047684,6265.299999952316,7481.299999952316,8233.700000047684,9561.200000047684,10321.299999952316,11417.599999904633,11649.200000047684,12025.200000047684,12441.200000047684,12969.599999904633,13417.200000047684,15641.299999952316]","0.5","0.5555555555555556","0","","","","","","","","","","","","","","","","","","","","","","","","","","","","","",""
"23169.799999952316","","{""Q01"":""5"",""Q02"":""5"",""Q03"":""5"",""Q04"":""5"",""Q05"":""5"",""Q06"":""5"",""Q07"":""5"",""Q08"":""5"",""Q09"":""5"",""Q10"":""5""}","survey-template","5","80744","0.0-4.0","4","4","4","4","4","4","4","4","4","4","5","5","5","5","5","5","5","5","5","5","1","1","1","1","1","1","1","1","1","0","0","1","1","0","1","0","1","0","1","1","0","0","1","1","5","1","2","1","1","4","2","1","2","5","1","598903596641157120","王","576","","","","{""Q01"":""5"",""Q02"":""5"",""Q03"":""5"",""Q04"":""5"",""Q05"":""5"",""Q06"":""5"",""Q07"":""5"",""Q08"":""5"",""Q09"":""5"",""Q10"":""5""}","[0,1,2,3,4,5,6,7,8,9]","[""Q03"",""Q04"",""Q02"",""Q01"",""Q05"",""Q06"",""Q07"",""Q08"",""Q10"",""Q09""]","[1624,2840,4048,5400.200000047684,7072,8344,9592,10352,13295.900000095367,14264]","[]","[1624,2840,4048,5400.200000047684,7072,8344,9592,10352,12096,13295.900000095367,14264,23168.099999904633]","0.6","0.7777777777777778","0","","","","","","","","","","","","","","","","","","","","","","","","","","","","","",""
"","","","preload","6","81027","0.0-5.0","4","4","4","4","4","4","4","4","4","4","5","5","5","5","5","5","5","5","5","5","1","1","1","1","1","1","1","1","1","0","0","1","1","0","1","0","1","0","1","1","0","0","1","1","5","1","2","1","1","4","2","1","2","5","1","598903596641157120","王","576","","true","","","","","","","","","","","false","[]","[]","[]","","","","","","","","","","","","","","","","","","","","","","","","","",""
"104082","
    <h3>词语分类任务</h3>
    <p>在接下来的任务中，你需要对一系列词语进行分类。<p/>
    请先熟悉这些词语，这有利于你完成接下来的任务。</p>
    <table align=""center"" border=1 cellpadding=3 cellspacing=0>
    <tr> <th>类别</th> <th>词语</th> </tr>
    <tr> <td>&emsp;积极&emsp;</td> <td>&emsp;高尚、诚信、善良、君子、廉正、正直&emsp;</td> </tr>
    <tr> <td>&emsp;消极&emsp;</td> <td>&emsp;缺德、卑鄙、不孝、不仁、小人、黑心&emsp;</td> </tr>
    <tr> <td>&emsp;自我&emsp;</td> <td>&emsp;我、我的、自己、自己的、本人、本人的&emsp;</td> </tr>
    <tr> <td>&emsp;他人&emsp;</td> <td>&emsp;他、他的、别人、别人的、他人、他人的&emsp;</td> </tr>
    </table><br/>","0","html-button-response","7","185110","0.0-6.0-1.0-0.0","4","4","4","4","4","4","4","4","4","4","5","5","5","5","5","5","5","5","5","5","1","1","1","1","1","1","1","1","1","0","0","1","1","0","1","0","1","0","1","1","0","0","1","1","5","1","2","1","1","4","2","1","2","5","1","598903596641157120","王","576","","","","","","","","","","","","","","","","","2","1","","","","","","","","","","","","","","","","","","","","","","","",""
"997","
    <div class=""tag-bottom""><p>
    —— 任务1：对“自我”词和“他人”词分类 ——<p/>
    不同词语会出现在屏幕中央，类别标签将始终显示在屏幕上方<p/>   
    <span style=""color:#FFD866""><b>请根据上方标签的提示，尽可能正确并且快速地做出按键反应</b></span><p/>
    当按键错误时屏幕中会出现<span style=""color:red""> X </span>，需要按另一个键纠正才能继续<br/><p/>
    请把双手食指分别放在键盘的“E”键和“I”键上<p/>
    按<空格键>开始
    </p></div>"," ","html-keyboard-response","8","186110","0.0-6.0-1.0-1.0","4","4","4","4","4","4","4","4","4","4","5","5","5","5","5","5","5","5","5","5","1","1","1","1","1","1","1","1","1","0","0","1","1","0","1","0","1","0","1","1","0","0","1","1","5","1","2","1","1","4","2","1","2","5","1","598903596641157120","王","576","","","","","","","","","","","","","","","","","","","","","","","","","","","","","","","","","","","","","","","","","",""
"null","","null","html-keyboard-response","9","186361","0.0-6.0-1.0-2.0-0.0","4","4","4","4","4","4","4","4","4","4","5","5","5","5","5","5","5","5","5","5","1","1","1","1","1","1","1","1","1","0","0","1","1","0","1","0","1","0","1","1","0","0","1","1","5","1","2","1","1","4","2","1","2","5","1","598903596641157120","王","576","","","","","","","","","","","","","","","","","","","","","","","","","","","","","","","","","","","","","","","","","",""
"659","<p style=""color:rgb(150, 250, 100); font-size: 35px;"">自己的</p>","e","categorize-html","10","187023","0.0-6.0-1.0-2.0-1.0","4","4","4","4","4","4","4","4","4","4","5","5","5","5","5","5","5","5","5","5","1","1","1","1","1","1","1","1","1","0","0","1","1","0","1","0","1","0","1","1","0","0","1","1","5","1","2","1","1","4","2","1","2","5","1","598903596641157120","王","576","","","","","","","","","","","","","","","","","","","true","11","1","moral","659","self","自己的","","","","","","","","","","","","","","","","",""
"null","","null","html-keyboard-response","11","187274","0.0-6.0-1.0-2.0-0.1","4","4","4","4","4","4","4","4","4","4","5","5","5","5","5","5","5","5","5","5","1","1","1","1","1","1","1","1","1","0","0","1","1","0","1","0","1","0","1","1","0","0","1","1","5","1","2","1","1","4","2","1","2","5","1","598903596641157120","王","576","","","","","","","","","","","","","","","","","","","","","","","","","","","","","","","","","","","","","","","","","",""
"460","<p style=""color:rgb(150, 250, 100); font-size: 35px;"">别人的</p>","i","categorize-html","12","187735","0.0-6.0-1.0-2.0-1.1","4","4","4","4","4","4","4","4","4","4","5","5","5","5","5","5","5","5","5","5","1","1","1","1","1","1","1","1","1","0","0","1","1","0","1","0","1","0","1","1","0","0","1","1","5","1","2","1","1","4","2","1","2","5","1","598903596641157120","王","576","","","","","","","","","","","","","","","","","","","true","11","1","moral","460","other","别人的","","","","","","","","","","","","","","","","",""
"null","","null","html-keyboard-response","13","187987","0.0-6.0-1.0-2.0-0.2","4","4","4","4","4","4","4","4","4","4","5","5","5","5","5","5","5","5","5","5","1","1","1","1","1","1","1","1","1","0","0","1","1","0","1","0","1","0","1","1","0","0","1","1","5","1","2","1","1","4","2","1","2","5","1","598903596641157120","王","576","","","","","","","","","","","","","","","","","","","","","","","","","","","","","","","","","","","","","","","","","",""
"923","<p style=""color:rgb(150, 250, 100); font-size: 35px;"">自己</p>","e","categorize-html","14","188911","0.0-6.0-1.0-2.0-1.2","4","4","4","4","4","4","4","4","4","4","5","5","5","5","5","5","5","5","5","5","1","1","1","1","1","1","1","1","1","0","0","1","1","0","1","0","1","0","1","1","0","0","1","1","5","1","2","1","1","4","2","1","2","5","1","598903596641157120","王","576","","","","","","","","","","","","","","","","","","","true","11","1","moral","923","self","自己","","","","","","","","","","","","","","","","",""
"null","","null","html-keyboard-response","15","189163","0.0-6.0-1.0-2.0-0.3","4","4","4","4","4","4","4","4","4","4","5","5","5","5","5","5","5","5","5","5","1","1","1","1","1","1","1","1","1","0","0","1","1","0","1","0","1","0","1","1","0","0","1","1","5","1","2","1","1","4","2","1","2","5","1","598903596641157120","王","576","","","","","","","","","","","","","","","","","","","","","","","","","","","","","","","","","","","","","","","","","",""
"715","<p style=""color:rgb(150, 250, 100); font-size: 35px;"">他人</p>","i","categorize-html","16","189879","0.0-6.0-1.0-2.0-1.3","4","4","4","4","4","4","4","4","4","4","5","5","5","5","5","5","5","5","5","5","1","1","1","1","1","1","1","1","1","0","0","1","1","0","1","0","1","0","1","1","0","0","1","1","5","1","2","1","1","4","2","1","2","5","1","598903596641157120","王","576","","","","","","","","","","","","","","","","","","","true","11","1","moral","715","other","他人","","","","","","","","","","","","","","","","",""
"null","","null","html-keyboard-response","17","190131","0.0-6.0-1.0-2.0-0.4","4","4","4","4","4","4","4","4","4","4","5","5","5","5","5","5","5","5","5","5","1","1","1","1","1","1","1","1","1","0","0","1","1","0","1","0","1","0","1","1","0","0","1","1","5","1","2","1","1","4","2","1","2","5","1","598903596641157120","王","576","","","","","","","","","","","","","","","","","","","","","","","","","","","","","","","","","","","","","","","","","",""
"450","<p style=""color:rgb(150, 250, 100); font-size: 35px;"">别人</p>","i","categorize-html","18","190583","0.0-6.0-1.0-2.0-1.4","4","4","4","4","4","4","4","4","4","4","5","5","5","5","5","5","5","5","5","5","1","1","1","1","1","1","1","1","1","0","0","1","1","0","1","0","1","0","1","1","0","0","1","1","5","1","2","1","1","4","2","1","2","5","1","598903596641157120","王","576","","","","","","","","","","","","","","","","","","","true","11","1","moral","450","other","别人","","","","","","","","","","","","","","","","",""
"null","","null","html-keyboard-response","19","190834","0.0-6.0-1.0-2.0-0.5","4","4","4","4","4","4","4","4","4","4","5","5","5","5","5","5","5","5","5","5","1","1","1","1","1","1","1","1","1","0","0","1","1","0","1","0","1","0","1","1","0","0","1","1","5","1","2","1","1","4","2","1","2","5","1","598903596641157120","王","576","","","","","","","","","","","","","","","","","","","","","","","","","","","","","","","","","","","","","","","","","",""
"829","<p style=""color:rgb(150, 250, 100); font-size: 35px;"">他</p>","i","categorize-html","20","191664","0.0-6.0-1.0-2.0-1.5","4","4","4","4","4","4","4","4","4","4","5","5","5","5","5","5","5","5","5","5","1","1","1","1","1","1","1","1","1","0","0","1","1","0","1","0","1","0","1","1","0","0","1","1","5","1","2","1","1","4","2","1","2","5","1","598903596641157120","王","576","","","","","","","","","","","","","","","","","","","true","11","1","moral","829","other","他","","","","","","","","","","","","","","","","",""
"null","","null","html-keyboard-response","21","191916","0.0-6.0-1.0-2.0-0.6","4","4","4","4","4","4","4","4","4","4","5","5","5","5","5","5","5","5","5","5","1","1","1","1","1","1","1","1","1","0","0","1","1","0","1","0","1","0","1","1","0","0","1","1","5","1","2","1","1","4","2","1","2","5","1","598903596641157120","王","576","","","","","","","","","","","","","","","","","","","","","","","","","","","","","","","","","","","","","","","","","",""
"442","<p style=""color:rgb(150, 250, 100); font-size: 35px;"">本人</p>","e","categorize-html","22","192360","0.0-6.0-1.0-2.0-1.6","4","4","4","4","4","4","4","4","4","4","5","5","5","5","5","5","5","5","5","5","1","1","1","1","1","1","1","1","1","0","0","1","1","0","1","0","1","0","1","1","0","0","1","1","5","1","2","1","1","4","2","1","2","5","1","598903596641157120","王","576","","","","","","","","","","","","","","","","","","","true","11","1","moral","442","self","本人","","","","","","","","","","","","","","","","",""
"null","","null","html-keyboard-response","23","192611","0.0-6.0-1.0-2.0-0.7","4","4","4","4","4","4","4","4","4","4","5","5","5","5","5","5","5","5","5","5","1","1","1","1","1","1","1","1","1","0","0","1","1","0","1","0","1","0","1","1","0","0","1","1","5","1","2","1","1","4","2","1","2","5","1","598903596641157120","王","576","","","","","","","","","","","","","","","","","","","","","","","","","","","","","","","","","","","","","","","","","",""
"563","<p style=""color:rgb(150, 250, 100); font-size: 35px;"">我</p>","e","categorize-html","24","193175","0.0-6.0-1.0-2.0-1.7","4","4","4","4","4","4","4","4","4","4","5","5","5","5","5","5","5","5","5","5","1","1","1","1","1","1","1","1","1","0","0","1","1","0","1","0","1","0","1","1","0","0","1","1","5","1","2","1","1","4","2","1","2","5","1","598903596641157120","王","576","","","","","","","","","","","","","","","","","","","true","11","1","moral","563","self","我","","","","","","","","","","","","","","","","",""
"null","","null","html-keyboard-response","25","193427","0.0-6.0-1.0-2.0-0.8","4","4","4","4","4","4","4","4","4","4","5","5","5","5","5","5","5","5","5","5","1","1","1","1","1","1","1","1","1","0","0","1","1","0","1","0","1","0","1","1","0","0","1","1","5","1","2","1","1","4","2","1","2","5","1","598903596641157120","王","576","","","","","","","","","","","","","","","","","","","","","","","","","","","","","","","","","","","","","","","","","",""
"1043","<p style=""color:rgb(150, 250, 100); font-size: 35px;"">我的</p>","e","categorize-html","26","194471","0.0-6.0-1.0-2.0-1.8","4","4","4","4","4","4","4","4","4","4","5","5","5","5","5","5","5","5","5","5","1","1","1","1","1","1","1","1","1","0","0","1","1","0","1","0","1","0","1","1","0","0","1","1","5","1","2","1","1","4","2","1","2","5","1","598903596641157120","王","576","","","","","","","","","","","","","","","","","","","true","11","1","moral","1043","self","我的","","","","","","","","","","","","","","","","",""
"null","","null","html-keyboard-response","27","194723","0.0-6.0-1.0-2.0-0.9","4","4","4","4","4","4","4","4","4","4","5","5","5","5","5","5","5","5","5","5","1","1","1","1","1","1","1","1","1","0","0","1","1","0","1","0","1","0","1","1","0","0","1","1","5","1","2","1","1","4","2","1","2","5","1","598903596641157120","王","576","","","","","","","","","","","","","","","","","","","","","","","","","","","","","","","","","","","","","","","","","",""
"531","<p style=""color:rgb(150, 250, 100); font-size: 35px;"">他的</p>","i","categorize-html","28","195255","0.0-6.0-1.0-2.0-1.9","4","4","4","4","4","4","4","4","4","4","5","5","5","5","5","5","5","5","5","5","1","1","1","1","1","1","1","1","1","0","0","1","1","0","1","0","1","0","1","1","0","0","1","1","5","1","2","1","1","4","2","1","2","5","1","598903596641157120","王","576","","","","","","","","","","","","","","","","","","","true","11","1","moral","531","other","他的","","","","","","","","","","","","","","","","",""
"null","","null","html-keyboard-response","29","195507","0.0-6.0-1.0-2.0-0.10","4","4","4","4","4","4","4","4","4","4","5","5","5","5","5","5","5","5","5","5","1","1","1","1","1","1","1","1","1","0","0","1","1","0","1","0","1","0","1","1","0","0","1","1","5","1","2","1","1","4","2","1","2","5","1","598903596641157120","王","576","","","","","","","","","","","","","","","","","","","","","","","","","","","","","","","","","","","","","","","","","",""
"811","<p style=""color:rgb(150, 250, 100); font-size: 35px;"">本人的</p>","e","categorize-html","30","196319","0.0-6.0-1.0-2.0-1.10","4","4","4","4","4","4","4","4","4","4","5","5","5","5","5","5","5","5","5","5","1","1","1","1","1","1","1","1","1","0","0","1","1","0","1","0","1","0","1","1","0","0","1","1","5","1","2","1","1","4","2","1","2","5","1","598903596641157120","王","576","","","","","","","","","","","","","","","","","","","true","11","1","moral","811","self","本人的","","","","","","","","","","","","","","","","",""
"null","","null","html-keyboard-response","31","196571","0.0-6.0-1.0-2.0-0.11","4","4","4","4","4","4","4","4","4","4","5","5","5","5","5","5","5","5","5","5","1","1","1","1","1","1","1","1","1","0","0","1","1","0","1","0","1","0","1","1","0","0","1","1","5","1","2","1","1","4","2","1","2","5","1","598903596641157120","王","576","","","","","","","","","","","","","","","","","","","","","","","","","","","","","","","","","","","","","","","","","",""
"443","<p style=""color:rgb(150, 250, 100); font-size: 35px;"">他人的</p>","e","categorize-html","32","197174","0.0-6.0-1.0-2.0-1.11","4","4","4","4","4","4","4","4","4","4","5","5","5","5","5","5","5","5","5","5","1","1","1","1","1","1","1","1","1","0","0","1","1","0","1","0","1","0","1","1","0","0","1","1","5","1","2","1","1","4","2","1","2","5","1","598903596641157120","王","576","","","","","","","","","","","","","","","","","","","false","11","1","moral","443","other","他人的","","","","","","","","","","","","","","","","",""
"10080","
    <div class=""tag-bottom""><p>
    —— 任务2：对“消极”词和“积极”词分类 ——<p/>   
    <span style=""color:#78DCE8""><b>注意上方，类别标签和需要分类的词语都已经改变</b></span><p/>
    <span style=""color:#FFD866""><b>请根据上方标签的提示，尽可能正确并且快速地做出按键反应</b></span><p/>
    当按键错误时屏幕中会出现<span style=""color:red""> X </span>，需要按另一个键纠正才能继续<br/><p/>
    请把双手食指分别放在键盘的“E”键和“I”键上<p/>
    按<空格键>开始
    </p></div>"," ","html-keyboard-response","33","207254","0.0-6.0-1.0-3.0","4","4","4","4","4","4","4","4","4","4","5","5","5","5","5","5","5","5","5","5","1","1","1","1","1","1","1","1","1","0","0","1","1","0","1","0","1","0","1","1","0","0","1","1","5","1","2","1","1","4","2","1","2","5","1","598903596641157120","王","576","","","","","","","","","","","","","","","","","","","","","","","","","","","","","","","","","","","","","","","","","",""
"null","","null","html-keyboard-response","34","207506","0.0-6.0-1.0-4.0-0.0","4","4","4","4","4","4","4","4","4","4","5","5","5","5","5","5","5","5","5","5","1","1","1","1","1","1","1","1","1","0","0","1","1","0","1","0","1","0","1","1","0","0","1","1","5","1","2","1","1","4","2","1","2","5","1","598903596641157120","王","576","","","","","","","","","","","","","","","","","","","","","","","","","","","","","","","","","","","","","","","","","",""
"635","<p style=""color:white; font-size: 35px;"">善良</p>","i","categorize-html","35","208143","0.0-6.0-1.0-4.0-1.0","4","4","4","4","4","4","4","4","4","4","5","5","5","5","5","5","5","5","5","5","1","1","1","1","1","1","1","1","1","0","0","1","1","0","1","0","1","0","1","1","0","0","1","1","5","1","2","1","1","4","2","1","2","5","1","598903596641157120","王","576","","","","","","","","","","","","","","","","","","","true","12","2","moral","635","positive","善良","","","","","","","","","","","","","","","","",""
"null","","null","html-keyboard-response","36","208394","0.0-6.0-1.0-4.0-0.1","4","4","4","4","4","4","4","4","4","4","5","5","5","5","5","5","5","5","5","5","1","1","1","1","1","1","1","1","1","0","0","1","1","0","1","0","1","0","1","1","0","0","1","1","5","1","2","1","1","4","2","1","2","5","1","598903596641157120","王","576","","","","","","","","","","","","","","","","","","","","","","","","","","","","","","","","","","","","","","","","","",""
"563","<p style=""color:white; font-size: 35px;"">不仁</p>","e","categorize-html","37","208959","0.0-6.0-1.0-4.0-1.1","4","4","4","4","4","4","4","4","4","4","5","5","5","5","5","5","5","5","5","5","1","1","1","1","1","1","1","1","1","0","0","1","1","0","1","0","1","0","1","1","0","0","1","1","5","1","2","1","1","4","2","1","2","5","1","598903596641157120","王","576","","","","","","","","","","","","","","","","","","","true","12","2","moral","563","negative","不仁","","","","","","","","","","","","","","","","",""
"null","","null","html-keyboard-response","38","209210","0.0-6.0-1.0-4.0-0.2","4","4","4","4","4","4","4","4","4","4","5","5","5","5","5","5","5","5","5","5","1","1","1","1","1","1","1","1","1","0","0","1","1","0","1","0","1","0","1","1","0","0","1","1","5","1","2","1","1","4","2","1","2","5","1","598903596641157120","王","576","","","","","","","","","","","","","","","","","","","","","","","","","","","","","","","","","","","","","","","","","",""
"1101","<p style=""color:white; font-size: 35px;"">不孝</p>","e","categorize-html","39","210312","0.0-6.0-1.0-4.0-1.2","4","4","4","4","4","4","4","4","4","4","5","5","5","5","5","5","5","5","5","5","1","1","1","1","1","1","1","1","1","0","0","1","1","0","1","0","1","0","1","1","0","0","1","1","5","1","2","1","1","4","2","1","2","5","1","598903596641157120","王","576","","","","","","","","","","","","","","","","","","","true","12","2","moral","1101","negative","不孝","","","","","","","","","","","","","","","","",""
"null","","null","html-keyboard-response","40","210563","0.0-6.0-1.0-4.0-0.3","4","4","4","4","4","4","4","4","4","4","5","5","5","5","5","5","5","5","5","5","1","1","1","1","1","1","1","1","1","0","0","1","1","0","1","0","1","0","1","1","0","0","1","1","5","1","2","1","1","4","2","1","2","5","1","598903596641157120","王","576","","","","","","","","","","","","","","","","","","","","","","","","","","","","","","","","","","","","","","","","","",""
"794","<p style=""color:white; font-size: 35px;"">缺德</p>","e","categorize-html","41","211359","0.0-6.0-1.0-4.0-1.3","4","4","4","4","4","4","4","4","4","4","5","5","5","5","5","5","5","5","5","5","1","1","1","1","1","1","1","1","1","0","0","1","1","0","1","0","1","0","1","1","0","0","1","1","5","1","2","1","1","4","2","1","2","5","1","598903596641157120","王","576","","","","","","","","","","","","","","","","","","","true","12","2","moral","794","negative","缺德","","","","","","","","","","","","","","","","",""
"null","","null","html-keyboard-response","42","211611","0.0-6.0-1.0-4.0-0.4","4","4","4","4","4","4","4","4","4","4","5","5","5","5","5","5","5","5","5","5","1","1","1","1","1","1","1","1","1","0","0","1","1","0","1","0","1","0","1","1","0","0","1","1","5","1","2","1","1","4","2","1","2","5","1","598903596641157120","王","576","","","","","","","","","","","","","","","","","","","","","","","","","","","","","","","","","","","","","","","","","",""
"755","<p style=""color:white; font-size: 35px;"">正直</p>","i","categorize-html","43","212367","0.0-6.0-1.0-4.0-1.4","4","4","4","4","4","4","4","4","4","4","5","5","5","5","5","5","5","5","5","5","1","1","1","1","1","1","1","1","1","0","0","1","1","0","1","0","1","0","1","1","0","0","1","1","5","1","2","1","1","4","2","1","2","5","1","598903596641157120","王","576","","","","","","","","","","","","","","","","","","","true","12","2","moral","755","positive","正直","","","","","","","","","","","","","","","","",""
"null","","null","html-keyboard-response","44","212618","0.0-6.0-1.0-4.0-0.5","4","4","4","4","4","4","4","4","4","4","5","5","5","5","5","5","5","5","5","5","1","1","1","1","1","1","1","1","1","0","0","1","1","0","1","0","1","0","1","1","0","0","1","1","5","1","2","1","1","4","2","1","2","5","1","598903596641157120","王","576","","","","","","","","","","","","","","","","","","","","","","","","","","","","","","","","","","","","","","","","","",""
"603","<p style=""color:white; font-size: 35px;"">卑鄙</p>","e","categorize-html","45","213223","0.0-6.0-1.0-4.0-1.5","4","4","4","4","4","4","4","4","4","4","5","5","5","5","5","5","5","5","5","5","1","1","1","1","1","1","1","1","1","0","0","1","1","0","1","0","1","0","1","1","0","0","1","1","5","1","2","1","1","4","2","1","2","5","1","598903596641157120","王","576","","","","","","","","","","","","","","","","","","","true","12","2","moral","603","negative","卑鄙","","","","","","","","","","","","","","","","",""
"null","","null","html-keyboard-response","46","213474","0.0-6.0-1.0-4.0-0.6","4","4","4","4","4","4","4","4","4","4","5","5","5","5","5","5","5","5","5","5","1","1","1","1","1","1","1","1","1","0","0","1","1","0","1","0","1","0","1","1","0","0","1","1","5","1","2","1","1","4","2","1","2","5","1","598903596641157120","王","576","","","","","","","","","","","","","","","","","","","","","","","","","","","","","","","","","","","","","","","","","",""
"1308","<p style=""color:white; font-size: 35px;"">小人</p>","i","categorize-html","47","216110","0.0-6.0-1.0-4.0-1.6","4","4","4","4","4","4","4","4","4","4","5","5","5","5","5","5","5","5","5","5","1","1","1","1","1","1","1","1","1","0","0","1","1","0","1","0","1","0","1","1","0","0","1","1","5","1","2","1","1","4","2","1","2","5","1","598903596641157120","王","576","","","","","","","","","","","","","","","","","","","false","12","2","moral","1308","negative","小人","","","","","","","","","","","","","","","","",""
"null","","null","html-keyboard-response","48","216362","0.0-6.0-1.0-4.0-0.7","4","4","4","4","4","4","4","4","4","4","5","5","5","5","5","5","5","5","5","5","1","1","1","1","1","1","1","1","1","0","0","1","1","0","1","0","1","0","1","1","0","0","1","1","5","1","2","1","1","4","2","1","2","5","1","598903596641157120","王","576","","","","","","","","","","","","","","","","","","","","","","","","","","","","","","","","","","","","","","","","","",""
"443","<p style=""color:white; font-size: 35px;"">黑心</p>","e","categorize-html","49","216807","0.0-6.0-1.0-4.0-1.7","4","4","4","4","4","4","4","4","4","4","5","5","5","5","5","5","5","5","5","5","1","1","1","1","1","1","1","1","1","0","0","1","1","0","1","0","1","0","1","1","0","0","1","1","5","1","2","1","1","4","2","1","2","5","1","598903596641157120","王","576","","","","","","","","","","","","","","","","","","","true","12","2","moral","443","negative","黑心","","","","","","","","","","","","","","","","",""
"null","","null","html-keyboard-response","50","217058","0.0-6.0-1.0-4.0-0.8","4","4","4","4","4","4","4","4","4","4","5","5","5","5","5","5","5","5","5","5","1","1","1","1","1","1","1","1","1","0","0","1","1","0","1","0","1","0","1","1","0","0","1","1","5","1","2","1","1","4","2","1","2","5","1","598903596641157120","王","576","","","","","","","","","","","","","","","","","","","","","","","","","","","","","","","","","","","","","","","","","",""
"747","<p style=""color:white; font-size: 35px;"">君子</p>","i","categorize-html","51","217807","0.0-6.0-1.0-4.0-1.8","4","4","4","4","4","4","4","4","4","4","5","5","5","5","5","5","5","5","5","5","1","1","1","1","1","1","1","1","1","0","0","1","1","0","1","0","1","0","1","1","0","0","1","1","5","1","2","1","1","4","2","1","2","5","1","598903596641157120","王","576","","","","","","","","","","","","","","","","","","","true","12","2","moral","747","positive","君子","","","","","","","","","","","","","","","","",""
"null","","null","html-keyboard-response","52","218058","0.0-6.0-1.0-4.0-0.9","4","4","4","4","4","4","4","4","4","4","5","5","5","5","5","5","5","5","5","5","1","1","1","1","1","1","1","1","1","0","0","1","1","0","1","0","1","0","1","1","0","0","1","1","5","1","2","1","1","4","2","1","2","5","1","598903596641157120","王","576","","","","","","","","","","","","","","","","","","","","","","","","","","","","","","","","","","","","","","","","","",""
"1083","<p style=""color:white; font-size: 35px;"">诚信</p>","i","categorize-html","53","219142","0.0-6.0-1.0-4.0-1.9","4","4","4","4","4","4","4","4","4","4","5","5","5","5","5","5","5","5","5","5","1","1","1","1","1","1","1","1","1","0","0","1","1","0","1","0","1","0","1","1","0","0","1","1","5","1","2","1","1","4","2","1","2","5","1","598903596641157120","王","576","","","","","","","","","","","","","","","","","","","true","12","2","moral","1083","positive","诚信","","","","","","","","","","","","","","","","",""
"null","","null","html-keyboard-response","54","219394","0.0-6.0-1.0-4.0-0.10","4","4","4","4","4","4","4","4","4","4","5","5","5","5","5","5","5","5","5","5","1","1","1","1","1","1","1","1","1","0","0","1","1","0","1","0","1","0","1","1","0","0","1","1","5","1","2","1","1","4","2","1","2","5","1","598903596641157120","王","576","","","","","","","","","","","","","","","","","","","","","","","","","","","","","","","","","","","","","","","","","",""
"660","<p style=""color:white; font-size: 35px;"">高尚</p>","i","categorize-html","55","220055","0.0-6.0-1.0-4.0-1.10","4","4","4","4","4","4","4","4","4","4","5","5","5","5","5","5","5","5","5","5","1","1","1","1","1","1","1","1","1","0","0","1","1","0","1","0","1","0","1","1","0","0","1","1","5","1","2","1","1","4","2","1","2","5","1","598903596641157120","王","576","","","","","","","","","","","","","","","","","","","true","12","2","moral","660","positive","高尚","","","","","","","","","","","","","","","","",""
"null","","null","html-keyboard-response","56","220307","0.0-6.0-1.0-4.0-0.11","4","4","4","4","4","4","4","4","4","4","5","5","5","5","5","5","5","5","5","5","1","1","1","1","1","1","1","1","1","0","0","1","1","0","1","0","1","0","1","1","0","0","1","1","5","1","2","1","1","4","2","1","2","5","1","598903596641157120","王","576","","","","","","","","","","","","","","","","","","","","","","","","","","","","","","","","","","","","","","","","","",""
"611","<p style=""color:white; font-size: 35px;"">廉正</p>","i","categorize-html","57","220919","0.0-6.0-1.0-4.0-1.11","4","4","4","4","4","4","4","4","4","4","5","5","5","5","5","5","5","5","5","5","1","1","1","1","1","1","1","1","1","0","0","1","1","0","1","0","1","0","1","1","0","0","1","1","5","1","2","1","1","4","2","1","2","5","1","598903596641157120","王","576","","","","","","","","","","","","","","","","","","","true","12","2","moral","611","positive","廉正","","","","","","","","","","","","","","","","",""
"27790","
    <div class=""tag-bottom""><p>
    —— 任务3：对“自我/消极”词和“他人/积极”词分类 ——<p/>
    <span style=""color:#78DCE8""><b>注意上方，之前的四类词语将混合在一起交替呈现</b></span><p/>
    <span style=""color:#FFD866""><b>请根据上方标签的提示，尽可能正确并且快速地做出按键反应</b></span><p/>
    当按键错误时屏幕中会出现<span style=""color:red""> X </span>，需要按另一个键纠正才能继续<br/><p/>
    请把双手食指分别放在键盘的“E”键和“I”键上<p/>
    按<空格键>开始
    </p></div>"," ","html-keyboard-response","58","248710","0.0-6.0-1.0-5.0","4","4","4","4","4","4","4","4","4","4","5","5","5","5","5","5","5","5","5","5","1","1","1","1","1","1","1","1","1","0","0","1","1","0","1","0","1","0","1","1","0","0","1","1","5","1","2","1","1","4","2","1","2","5","1","598903596641157120","王","576","","","","","","","","","","","","","","","","","","","","","","","","","","","","","","","","","","","","","","","","","",""
"null","","null","html-keyboard-response","59","248962","0.0-6.0-1.0-6.0-0.0","4","4","4","4","4","4","4","4","4","4","5","5","5","5","5","5","5","5","5","5","1","1","1","1","1","1","1","1","1","0","0","1","1","0","1","0","1","0","1","1","0","0","1","1","5","1","2","1","1","4","2","1","2","5","1","598903596641157120","王","576","","","","","","","","","","","","","","","","","","","","","","","","","","","","","","","","","","","","","","","","","",""
"899","<p style=""color:rgb(150, 250, 100); font-size: 35px;"">我的</p>","e","categorize-html","60","249864","0.0-6.0-1.0-6.0-1.0","4","4","4","4","4","4","4","4","4","4","5","5","5","5","5","5","5","5","5","5","1","1","1","1","1","1","1","1","1","0","0","1","1","0","1","0","1","0","1","1","0","0","1","1","5","1","2","1","1","4","2","1","2","5","1","598903596641157120","王","576","","","","","","","","","","","","","","","","","","","true","13","3","moral","899","self","我的","","","","","","","","","","","","","","","","",""
"null","","null","html-keyboard-response","61","250114","0.0-6.0-1.0-6.0-0.1","4","4","4","4","4","4","4","4","4","4","5","5","5","5","5","5","5","5","5","5","1","1","1","1","1","1","1","1","1","0","0","1","1","0","1","0","1","0","1","1","0","0","1","1","5","1","2","1","1","4","2","1","2","5","1","598903596641157120","王","576","","","","","","","","","","","","","","","","","","","","","","","","","","","","","","","","","","","","","","","","","",""
"595","<p style=""color:white; font-size: 35px;"">不仁</p>","e","categorize-html","62","250711","0.0-6.0-1.0-6.0-1.1","4","4","4","4","4","4","4","4","4","4","5","5","5","5","5","5","5","5","5","5","1","1","1","1","1","1","1","1","1","0","0","1","1","0","1","0","1","0","1","1","0","0","1","1","5","1","2","1","1","4","2","1","2","5","1","598903596641157120","王","576","","","","","","","","","","","","","","","","","","","true","13","3","moral","595","negative","不仁","","","","","","","","","","","","","","","","",""
"null","","null","html-keyboard-response","63","250963","0.0-6.0-1.0-6.0-0.2","4","4","4","4","4","4","4","4","4","4","5","5","5","5","5","5","5","5","5","5","1","1","1","1","1","1","1","1","1","0","0","1","1","0","1","0","1","0","1","1","0","0","1","1","5","1","2","1","1","4","2","1","2","5","1","598903596641157120","王","576","","","","","","","","","","","","","","","","","","","","","","","","","","","","","","","","","","","","","","","","","",""
"490","<p style=""color:rgb(150, 250, 100); font-size: 35px;"">他的</p>","i","categorize-html","64","251455","0.0-6.0-1.0-6.0-1.2","4","4","4","4","4","4","4","4","4","4","5","5","5","5","5","5","5","5","5","5","1","1","1","1","1","1","1","1","1","0","0","1","1","0","1","0","1","0","1","1","0","0","1","1","5","1","2","1","1","4","2","1","2","5","1","598903596641157120","王","576","","","","","","","","","","","","","","","","","","","true","13","3","moral","490","other","他的","","","","","","","","","","","","","","","","",""
"null","","null","html-keyboard-response","65","251707","0.0-6.0-1.0-6.0-0.3","4","4","4","4","4","4","4","4","4","4","5","5","5","5","5","5","5","5","5","5","1","1","1","1","1","1","1","1","1","0","0","1","1","0","1","0","1","0","1","1","0","0","1","1","5","1","2","1","1","4","2","1","2","5","1","598903596641157120","王","576","","","","","","","","","","","","","","","","","","","","","","","","","","","","","","","","","","","","","","","","","",""
"522","<p style=""color:white; font-size: 35px;"">廉正</p>","i","categorize-html","66","252231","0.0-6.0-1.0-6.0-1.3","4","4","4","4","4","4","4","4","4","4","5","5","5","5","5","5","5","5","5","5","1","1","1","1","1","1","1","1","1","0","0","1","1","0","1","0","1","0","1","1","0","0","1","1","5","1","2","1","1","4","2","1","2","5","1","598903596641157120","王","576","","","","","","","","","","","","","","","","","","","true","13","3","moral","522","positive","廉正","","","","","","","","","","","","","","","","",""
"null","","null","html-keyboard-response","67","252483","0.0-6.0-1.0-6.0-0.4","4","4","4","4","4","4","4","4","4","4","5","5","5","5","5","5","5","5","5","5","1","1","1","1","1","1","1","1","1","0","0","1","1","0","1","0","1","0","1","1","0","0","1","1","5","1","2","1","1","4","2","1","2","5","1","598903596641157120","王","576","","","","","","","","","","","","","","","","","","","","","","","","","","","","","","","","","","","","","","","","","",""
"507","<p style=""color:rgb(150, 250, 100); font-size: 35px;"">自己的</p>","e","categorize-html","68","252991","0.0-6.0-1.0-6.0-1.4","4","4","4","4","4","4","4","4","4","4","5","5","5","5","5","5","5","5","5","5","1","1","1","1","1","1","1","1","1","0","0","1","1","0","1","0","1","0","1","1","0","0","1","1","5","1","2","1","1","4","2","1","2","5","1","598903596641157120","王","576","","","","","","","","","","","","","","","","","","","true","13","3","moral","507","self","自己的","","","","","","","","","","","","","","","","",""
"null","","null","html-keyboard-response","69","253242","0.0-6.0-1.0-6.0-0.5","4","4","4","4","4","4","4","4","4","4","5","5","5","5","5","5","5","5","5","5","1","1","1","1","1","1","1","1","1","0","0","1","1","0","1","0","1","0","1","1","0","0","1","1","5","1","2","1","1","4","2","1","2","5","1","598903596641157120","王","576","","","","","","","","","","","","","","","","","","","","","","","","","","","","","","","","","","","","","","","","","",""
"819","<p style=""color:white; font-size: 35px;"">高尚</p>","i","categorize-html","70","254063","0.0-6.0-1.0-6.0-1.5","4","4","4","4","4","4","4","4","4","4","5","5","5","5","5","5","5","5","5","5","1","1","1","1","1","1","1","1","1","0","0","1","1","0","1","0","1","0","1","1","0","0","1","1","5","1","2","1","1","4","2","1","2","5","1","598903596641157120","王","576","","","","","","","","","","","","","","","","","","","true","13","3","moral","819","positive","高尚","","","","","","","","","","","","","","","","",""
"null","","null","html-keyboard-response","71","254315","0.0-6.0-1.0-6.0-0.6","4","4","4","4","4","4","4","4","4","4","5","5","5","5","5","5","5","5","5","5","1","1","1","1","1","1","1","1","1","0","0","1","1","0","1","0","1","0","1","1","0","0","1","1","5","1","2","1","1","4","2","1","2","5","1","598903596641157120","王","576","","","","","","","","","","","","","","","","","","","","","","","","","","","","","","","","","","","","","","","","","",""
"434","<p style=""color:rgb(150, 250, 100); font-size: 35px;"">别人的</p>","i","categorize-html","72","254751","0.0-6.0-1.0-6.0-1.6","4","4","4","4","4","4","4","4","4","4","5","5","5","5","5","5","5","5","5","5","1","1","1","1","1","1","1","1","1","0","0","1","1","0","1","0","1","0","1","1","0","0","1","1","5","1","2","1","1","4","2","1","2","5","1","598903596641157120","王","576","","","","","","","","","","","","","","","","","","","true","13","3","moral","434","other","别人的","","","","","","","","","","","","","","","","",""
"null","","null","html-keyboard-response","73","255002","0.0-6.0-1.0-6.0-0.7","4","4","4","4","4","4","4","4","4","4","5","5","5","5","5","5","5","5","5","5","1","1","1","1","1","1","1","1","1","0","0","1","1","0","1","0","1","0","1","1","0","0","1","1","5","1","2","1","1","4","2","1","2","5","1","598903596641157120","王","576","","","","","","","","","","","","","","","","","","","","","","","","","","","","","","","","","","","","","","","","","",""
"580","<p style=""color:white; font-size: 35px;"">黑心</p>","e","categorize-html","74","255583","0.0-6.0-1.0-6.0-1.7","4","4","4","4","4","4","4","4","4","4","5","5","5","5","5","5","5","5","5","5","1","1","1","1","1","1","1","1","1","0","0","1","1","0","1","0","1","0","1","1","0","0","1","1","5","1","2","1","1","4","2","1","2","5","1","598903596641157120","王","576","","","","","","","","","","","","","","","","","","","true","13","3","moral","580","negative","黑心","","","","","","","","","","","","","","","","",""
"null","","null","html-keyboard-response","75","255835","0.0-6.0-1.0-6.0-0.8","4","4","4","4","4","4","4","4","4","4","5","5","5","5","5","5","5","5","5","5","1","1","1","1","1","1","1","1","1","0","0","1","1","0","1","0","1","0","1","1","0","0","1","1","5","1","2","1","1","4","2","1","2","5","1","598903596641157120","王","576","","","","","","","","","","","","","","","","","","","","","","","","","","","","","","","","","","","","","","","","","",""
"979","<p style=""color:rgb(150, 250, 100); font-size: 35px;"">别人</p>","i","categorize-html","76","256815","0.0-6.0-1.0-6.0-1.8","4","4","4","4","4","4","4","4","4","4","5","5","5","5","5","5","5","5","5","5","1","1","1","1","1","1","1","1","1","0","0","1","1","0","1","0","1","0","1","1","0","0","1","1","5","1","2","1","1","4","2","1","2","5","1","598903596641157120","王","576","","","","","","","","","","","","","","","","","","","true","13","3","moral","979","other","别人","","","","","","","","","","","","","","","","",""
"null","","null","html-keyboard-response","77","257067","0.0-6.0-1.0-6.0-0.9","4","4","4","4","4","4","4","4","4","4","5","5","5","5","5","5","5","5","5","5","1","1","1","1","1","1","1","1","1","0","0","1","1","0","1","0","1","0","1","1","0","0","1","1","5","1","2","1","1","4","2","1","2","5","1","598903596641157120","王","576","","","","","","","","","","","","","","","","","","","","","","","","","","","","","","","","","","","","","","","","","",""
"667","<p style=""color:white; font-size: 35px;"">不孝</p>","e","categorize-html","78","257735","0.0-6.0-1.0-6.0-1.9","4","4","4","4","4","4","4","4","4","4","5","5","5","5","5","5","5","5","5","5","1","1","1","1","1","1","1","1","1","0","0","1","1","0","1","0","1","0","1","1","0","0","1","1","5","1","2","1","1","4","2","1","2","5","1","598903596641157120","王","576","","","","","","","","","","","","","","","","","","","true","13","3","moral","667","negative","不孝","","","","","","","","","","","","","","","","",""
"null","","null","html-keyboard-response","79","257987","0.0-6.0-1.0-6.0-0.10","4","4","4","4","4","4","4","4","4","4","5","5","5","5","5","5","5","5","5","5","1","1","1","1","1","1","1","1","1","0","0","1","1","0","1","0","1","0","1","1","0","0","1","1","5","1","2","1","1","4","2","1","2","5","1","598903596641157120","王","576","","","","","","","","","","","","","","","","","","","","","","","","","","","","","","","","","","","","","","","","","",""
"554","<p style=""color:rgb(150, 250, 100); font-size: 35px;"">自己</p>","e","categorize-html","80","258543","0.0-6.0-1.0-6.0-1.10","4","4","4","4","4","4","4","4","4","4","5","5","5","5","5","5","5","5","5","5","1","1","1","1","1","1","1","1","1","0","0","1","1","0","1","0","1","0","1","1","0","0","1","1","5","1","2","1","1","4","2","1","2","5","1","598903596641157120","王","576","","","","","","","","","","","","","","","","","","","true","13","3","moral","554","self","自己","","","","","","","","","","","","","","","","",""
"null","","null","html-keyboard-response","81","258794","0.0-6.0-1.0-6.0-0.11","4","4","4","4","4","4","4","4","4","4","5","5","5","5","5","5","5","5","5","5","1","1","1","1","1","1","1","1","1","0","0","1","1","0","1","0","1","0","1","1","0","0","1","1","5","1","2","1","1","4","2","1","2","5","1","598903596641157120","王","576","","","","","","","","","","","","","","","","","","","","","","","","","","","","","","","","","","","","","","","","","",""
"635","<p style=""color:white; font-size: 35px;"">正直</p>","i","categorize-html","82","259431","0.0-6.0-1.0-6.0-1.11","4","4","4","4","4","4","4","4","4","4","5","5","5","5","5","5","5","5","5","5","1","1","1","1","1","1","1","1","1","0","0","1","1","0","1","0","1","0","1","1","0","0","1","1","5","1","2","1","1","4","2","1","2","5","1","598903596641157120","王","576","","","","","","","","","","","","","","","","","","","true","13","3","moral","635","positive","正直","","","","","","","","","","","","","","","","",""
"null","","null","html-keyboard-response","83","259683","0.0-6.0-1.0-6.0-0.12","4","4","4","4","4","4","4","4","4","4","5","5","5","5","5","5","5","5","5","5","1","1","1","1","1","1","1","1","1","0","0","1","1","0","1","0","1","0","1","1","0","0","1","1","5","1","2","1","1","4","2","1","2","5","1","598903596641157120","王","576","","","","","","","","","","","","","","","","","","","","","","","","","","","","","","","","","","","","","","","","","",""
"362","<p style=""color:rgb(150, 250, 100); font-size: 35px;"">本人</p>","i","categorize-html","84","260318","0.0-6.0-1.0-6.0-1.12","4","4","4","4","4","4","4","4","4","4","5","5","5","5","5","5","5","5","5","5","1","1","1","1","1","1","1","1","1","0","0","1","1","0","1","0","1","0","1","1","0","0","1","1","5","1","2","1","1","4","2","1","2","5","1","598903596641157120","王","576","","","","","","","","","","","","","","","","","","","false","13","3","moral","1254.3809523809523","self","本人","","","","","","","","","","","","","","","","",""
"null","","null","html-keyboard-response","85","260569","0.0-6.0-1.0-6.0-0.13","4","4","4","4","4","4","4","4","4","4","5","5","5","5","5","5","5","5","5","5","1","1","1","1","1","1","1","1","1","0","0","1","1","0","1","0","1","0","1","1","0","0","1","1","5","1","2","1","1","4","2","1","2","5","1","598903596641157120","王","576","","","","","","","","","","","","","","","","","","","","","","","","","","","","","","","","","","","","","","","","","",""
"684","<p style=""color:white; font-size: 35px;"">诚信</p>","i","categorize-html","86","261255","0.0-6.0-1.0-6.0-1.13","4","4","4","4","4","4","4","4","4","4","5","5","5","5","5","5","5","5","5","5","1","1","1","1","1","1","1","1","1","0","0","1","1","0","1","0","1","0","1","1","0","0","1","1","5","1","2","1","1","4","2","1","2","5","1","598903596641157120","王","576","","","","","","","","","","","","","","","","","","","true","13","3","moral","684","positive","诚信","","","","","","","","","","","","","","","","",""
"null","","null","html-keyboard-response","87","261507","0.0-6.0-1.0-6.0-0.14","4","4","4","4","4","4","4","4","4","4","5","5","5","5","5","5","5","5","5","5","1","1","1","1","1","1","1","1","1","0","0","1","1","0","1","0","1","0","1","1","0","0","1","1","5","1","2","1","1","4","2","1","2","5","1","598903596641157120","王","576","","","","","","","","","","","","","","","","","","","","","","","","","","","","","","","","","","","","","","","","","",""
"339","<p style=""color:rgb(150, 250, 100); font-size: 35px;"">他人</p>","i","categorize-html","88","261847","0.0-6.0-1.0-6.0-1.14","4","4","4","4","4","4","4","4","4","4","5","5","5","5","5","5","5","5","5","5","1","1","1","1","1","1","1","1","1","0","0","1","1","0","1","0","1","0","1","1","0","0","1","1","5","1","2","1","1","4","2","1","2","5","1","598903596641157120","王","576","","","","","","","","","","","","","","","","","","","true","13","3","moral","339","other","他人","","","","","","","","","","","","","","","","",""
"null","","null","html-keyboard-response","89","262099","0.0-6.0-1.0-6.0-0.15","4","4","4","4","4","4","4","4","4","4","5","5","5","5","5","5","5","5","5","5","1","1","1","1","1","1","1","1","1","0","0","1","1","0","1","0","1","0","1","1","0","0","1","1","5","1","2","1","1","4","2","1","2","5","1","598903596641157120","王","576","","","","","","","","","","","","","","","","","","","","","","","","","","","","","","","","","","","","","","","","","",""
"602","<p style=""color:white; font-size: 35px;"">缺德</p>","e","categorize-html","90","262703","0.0-6.0-1.0-6.0-1.15","4","4","4","4","4","4","4","4","4","4","5","5","5","5","5","5","5","5","5","5","1","1","1","1","1","1","1","1","1","0","0","1","1","0","1","0","1","0","1","1","0","0","1","1","5","1","2","1","1","4","2","1","2","5","1","598903596641157120","王","576","","","","","","","","","","","","","","","","","","","true","13","3","moral","602","negative","缺德","","","","","","","","","","","","","","","","",""
"null","","null","html-keyboard-response","91","262955","0.0-6.0-1.0-6.0-0.16","4","4","4","4","4","4","4","4","4","4","5","5","5","5","5","5","5","5","5","5","1","1","1","1","1","1","1","1","1","0","0","1","1","0","1","0","1","0","1","1","0","0","1","1","5","1","2","1","1","4","2","1","2","5","1","598903596641157120","王","576","","","","","","","","","","","","","","","","","","","","","","","","","","","","","","","","","","","","","","","","","",""
"746","<p style=""color:rgb(150, 250, 100); font-size: 35px;"">他</p>","i","categorize-html","92","263703","0.0-6.0-1.0-6.0-1.16","4","4","4","4","4","4","4","4","4","4","5","5","5","5","5","5","5","5","5","5","1","1","1","1","1","1","1","1","1","0","0","1","1","0","1","0","1","0","1","1","0","0","1","1","5","1","2","1","1","4","2","1","2","5","1","598903596641157120","王","576","","","","","","","","","","","","","","","","","","","true","13","3","moral","746","other","他","","","","","","","","","","","","","","","","",""
"null","","null","html-keyboard-response","93","263954","0.0-6.0-1.0-6.0-0.17","4","4","4","4","4","4","4","4","4","4","5","5","5","5","5","5","5","5","5","5","1","1","1","1","1","1","1","1","1","0","0","1","1","0","1","0","1","0","1","1","0","0","1","1","5","1","2","1","1","4","2","1","2","5","1","598903596641157120","王","576","","","","","","","","","","","","","","","","","","","","","","","","","","","","","","","","","","","","","","","","","",""
"739","<p style=""color:white; font-size: 35px;"">小人</p>","e","categorize-html","94","264695","0.0-6.0-1.0-6.0-1.17","4","4","4","4","4","4","4","4","4","4","5","5","5","5","5","5","5","5","5","5","1","1","1","1","1","1","1","1","1","0","0","1","1","0","1","0","1","0","1","1","0","0","1","1","5","1","2","1","1","4","2","1","2","5","1","598903596641157120","王","576","","","","","","","","","","","","","","","","","","","true","13","3","moral","739","negative","小人","","","","","","","","","","","","","","","","",""
"null","","null","html-keyboard-response","95","264947","0.0-6.0-1.0-6.0-0.18","4","4","4","4","4","4","4","4","4","4","5","5","5","5","5","5","5","5","5","5","1","1","1","1","1","1","1","1","1","0","0","1","1","0","1","0","1","0","1","1","0","0","1","1","5","1","2","1","1","4","2","1","2","5","1","598903596641157120","王","576","","","","","","","","","","","","","","","","","","","","","","","","","","","","","","","","","","","","","","","","","",""
"715","<p style=""color:rgb(150, 250, 100); font-size: 35px;"">本人的</p>","e","categorize-html","96","265663","0.0-6.0-1.0-6.0-1.18","4","4","4","4","4","4","4","4","4","4","5","5","5","5","5","5","5","5","5","5","1","1","1","1","1","1","1","1","1","0","0","1","1","0","1","0","1","0","1","1","0","0","1","1","5","1","2","1","1","4","2","1","2","5","1","598903596641157120","王","576","","","","","","","","","","","","","","","","","","","true","13","3","moral","715","self","本人的","","","","","","","","","","","","","","","","",""
"null","","null","html-keyboard-response","97","265915","0.0-6.0-1.0-6.0-0.19","4","4","4","4","4","4","4","4","4","4","5","5","5","5","5","5","5","5","5","5","1","1","1","1","1","1","1","1","1","0","0","1","1","0","1","0","1","0","1","1","0","0","1","1","5","1","2","1","1","4","2","1","2","5","1","598903596641157120","王","576","","","","","","","","","","","","","","","","","","","","","","","","","","","","","","","","","","","","","","","","","",""
"807","<p style=""color:white; font-size: 35px;"">君子</p>","i","categorize-html","98","266723","0.0-6.0-1.0-6.0-1.19","4","4","4","4","4","4","4","4","4","4","5","5","5","5","5","5","5","5","5","5","1","1","1","1","1","1","1","1","1","0","0","1","1","0","1","0","1","0","1","1","0","0","1","1","5","1","2","1","1","4","2","1","2","5","1","598903596641157120","王","576","","","","","","","","","","","","","","","","","","","true","13","3","moral","807","positive","君子","","","","","","","","","","","","","","","","",""
"null","","null","html-keyboard-response","99","266974","0.0-6.0-1.0-6.0-0.20","4","4","4","4","4","4","4","4","4","4","5","5","5","5","5","5","5","5","5","5","1","1","1","1","1","1","1","1","1","0","0","1","1","0","1","0","1","0","1","1","0","0","1","1","5","1","2","1","1","4","2","1","2","5","1","598903596641157120","王","576","","","","","","","","","","","","","","","","","","","","","","","","","","","","","","","","","","","","","","","","","",""
"599","<p style=""color:rgb(150, 250, 100); font-size: 35px;"">他人的</p>","i","categorize-html","100","267575","0.0-6.0-1.0-6.0-1.20","4","4","4","4","4","4","4","4","4","4","5","5","5","5","5","5","5","5","5","5","1","1","1","1","1","1","1","1","1","0","0","1","1","0","1","0","1","0","1","1","0","0","1","1","5","1","2","1","1","4","2","1","2","5","1","598903596641157120","王","576","","","","","","","","","","","","","","","","","","","true","13","3","moral","599","other","他人的","","","","","","","","","","","","","","","","",""
"null","","null","html-keyboard-response","101","267827","0.0-6.0-1.0-6.0-0.21","4","4","4","4","4","4","4","4","4","4","5","5","5","5","5","5","5","5","5","5","1","1","1","1","1","1","1","1","1","0","0","1","1","0","1","0","1","0","1","1","0","0","1","1","5","1","2","1","1","4","2","1","2","5","1","598903596641157120","王","576","","","","","","","","","","","","","","","","","","","","","","","","","","","","","","","","","","","","","","","","","",""
"1274","<p style=""color:white; font-size: 35px;"">善良</p>","e","categorize-html","102","269753","0.0-6.0-1.0-6.0-1.21","4","4","4","4","4","4","4","4","4","4","5","5","5","5","5","5","5","5","5","5","1","1","1","1","1","1","1","1","1","0","0","1","1","0","1","0","1","0","1","1","0","0","1","1","5","1","2","1","1","4","2","1","2","5","1","598903596641157120","王","576","","","","","","","","","","","","","","","","","","","false","13","3","moral","1254.3809523809523","positive","善良","","","","","","","","","","","","","","","","",""
"null","","null","html-keyboard-response","103","270004","0.0-6.0-1.0-6.0-0.22","4","4","4","4","4","4","4","4","4","4","5","5","5","5","5","5","5","5","5","5","1","1","1","1","1","1","1","1","1","0","0","1","1","0","1","0","1","0","1","1","0","0","1","1","5","1","2","1","1","4","2","1","2","5","1","598903596641157120","王","576","","","","","","","","","","","","","","","","","","","","","","","","","","","","","","","","","","","","","","","","","",""
"481","<p style=""color:rgb(150, 250, 100); font-size: 35px;"">我</p>","i","categorize-html","104","270698","0.0-6.0-1.0-6.0-1.22","4","4","4","4","4","4","4","4","4","4","5","5","5","5","5","5","5","5","5","5","1","1","1","1","1","1","1","1","1","0","0","1","1","0","1","0","1","0","1","1","0","0","1","1","5","1","2","1","1","4","2","1","2","5","1","598903596641157120","王","576","","","","","","","","","","","","","","","","","","","false","13","3","moral","1254.3809523809523","self","我","","","","","","","","","","","","","","","","",""
"null","","null","html-keyboard-response","105","270951","0.0-6.0-1.0-6.0-0.23","4","4","4","4","4","4","4","4","4","4","5","5","5","5","5","5","5","5","5","5","1","1","1","1","1","1","1","1","1","0","0","1","1","0","1","0","1","0","1","1","0","0","1","1","5","1","2","1","1","4","2","1","2","5","1","598903596641157120","王","576","","","","","","","","","","","","","","","","","","","","","","","","","","","","","","","","","","","","","","","","","",""
"830","<p style=""color:white; font-size: 35px;"">卑鄙</p>","e","categorize-html","106","271783","0.0-6.0-1.0-6.0-1.23","4","4","4","4","4","4","4","4","4","4","5","5","5","5","5","5","5","5","5","5","1","1","1","1","1","1","1","1","1","0","0","1","1","0","1","0","1","0","1","1","0","0","1","1","5","1","2","1","1","4","2","1","2","5","1","598903596641157120","王","576","","","","","","","","","","","","","","","","","","","true","13","3","moral","830","negative","卑鄙","","","","","","","","","","","","","","","","",""
"3622","
    <div class=""tag-bottom""><p>
    —— 任务4：对“自我/消极”词和“他人/积极”词分类 ——<p/>
    <span style=""color:#78DCE8""><b>与刚才的任务完全相同，请再次对这四类词语分类</b></span><p/>
    <span style=""color:#FFD866""><b>请根据上方标签的提示，尽可能正确并且快速地做出按键反应</b></span><p/>
    当按键错误时屏幕中会出现<span style=""color:red""> X </span>，需要按另一个键纠正才能继续<br/><p/>
    请把双手食指分别放在键盘的“E”键和“I”键上<p/>
    按<空格键>开始
    </p></div>"," ","html-keyboard-response","107","275406","0.0-6.0-1.0-7.0","4","4","4","4","4","4","4","4","4","4","5","5","5","5","5","5","5","5","5","5","1","1","1","1","1","1","1","1","1","0","0","1","1","0","1","0","1","0","1","1","0","0","1","1","5","1","2","1","1","4","2","1","2","5","1","598903596641157120","王","576","","","","","","","","","","","","","","","","","","","","","","","","","","","","","","","","","","","","","","","","","",""
"null","","null","html-keyboard-response","108","275657","0.0-6.0-1.0-8.0-0.0","4","4","4","4","4","4","4","4","4","4","5","5","5","5","5","5","5","5","5","5","1","1","1","1","1","1","1","1","1","0","0","1","1","0","1","0","1","0","1","1","0","0","1","1","5","1","2","1","1","4","2","1","2","5","1","598903596641157120","王","576","","","","","","","","","","","","","","","","","","","","","","","","","","","","","","","","","","","","","","","","","",""
"949","<p style=""color:rgb(150, 250, 100); font-size: 35px;"">他</p>","i","categorize-html","109","276608","0.0-6.0-1.0-8.0-1.0","4","4","4","4","4","4","4","4","4","4","5","5","5","5","5","5","5","5","5","5","1","1","1","1","1","1","1","1","1","0","0","1","1","0","1","0","1","0","1","1","0","0","1","1","5","1","2","1","1","4","2","1","2","5","1","598903596641157120","王","576","","","","","","","","","","","","","","","","","","","true","14","4","moral","949","other","他","","","","","","","","","","","","","","","","",""
"null","","null","html-keyboard-response","110","276859","0.0-6.0-1.0-8.0-0.1","4","4","4","4","4","4","4","4","4","4","5","5","5","5","5","5","5","5","5","5","1","1","1","1","1","1","1","1","1","0","0","1","1","0","1","0","1","0","1","1","0","0","1","1","5","1","2","1","1","4","2","1","2","5","1","598903596641157120","王","576","","","","","","","","","","","","","","","","","","","","","","","","","","","","","","","","","","","","","","","","","",""
"651","<p style=""color:white; font-size: 35px;"">诚信</p>","i","categorize-html","111","277512","0.0-6.0-1.0-8.0-1.1","4","4","4","4","4","4","4","4","4","4","5","5","5","5","5","5","5","5","5","5","1","1","1","1","1","1","1","1","1","0","0","1","1","0","1","0","1","0","1","1","0","0","1","1","5","1","2","1","1","4","2","1","2","5","1","598903596641157120","王","576","","","","","","","","","","","","","","","","","","","true","14","4","moral","651","positive","诚信","","","","","","","","","","","","","","","","",""
"null","","null","html-keyboard-response","112","277763","0.0-6.0-1.0-8.0-0.2","4","4","4","4","4","4","4","4","4","4","5","5","5","5","5","5","5","5","5","5","1","1","1","1","1","1","1","1","1","0","0","1","1","0","1","0","1","0","1","1","0","0","1","1","5","1","2","1","1","4","2","1","2","5","1","598903596641157120","王","576","","","","","","","","","","","","","","","","","","","","","","","","","","","","","","","","","","","","","","","","","",""
"515","<p style=""color:rgb(150, 250, 100); font-size: 35px;"">我的</p>","e","categorize-html","113","278280","0.0-6.0-1.0-8.0-1.2","4","4","4","4","4","4","4","4","4","4","5","5","5","5","5","5","5","5","5","5","1","1","1","1","1","1","1","1","1","0","0","1","1","0","1","0","1","0","1","1","0","0","1","1","5","1","2","1","1","4","2","1","2","5","1","598903596641157120","王","576","","","","","","","","","","","","","","","","","","","true","14","4","moral","515","self","我的","","","","","","","","","","","","","","","","",""
"null","","null","html-keyboard-response","114","278531","0.0-6.0-1.0-8.0-0.3","4","4","4","4","4","4","4","4","4","4","5","5","5","5","5","5","5","5","5","5","1","1","1","1","1","1","1","1","1","0","0","1","1","0","1","0","1","0","1","1","0","0","1","1","5","1","2","1","1","4","2","1","2","5","1","598903596641157120","王","576","","","","","","","","","","","","","","","","","","","","","","","","","","","","","","","","","","","","","","","","","",""
"563","<p style=""color:white; font-size: 35px;"">黑心</p>","e","categorize-html","115","279095","0.0-6.0-1.0-8.0-1.3","4","4","4","4","4","4","4","4","4","4","5","5","5","5","5","5","5","5","5","5","1","1","1","1","1","1","1","1","1","0","0","1","1","0","1","0","1","0","1","1","0","0","1","1","5","1","2","1","1","4","2","1","2","5","1","598903596641157120","王","576","","","","","","","","","","","","","","","","","","","true","14","4","moral","563","negative","黑心","","","","","","","","","","","","","","","","",""
"null","","null","html-keyboard-response","116","279346","0.0-6.0-1.0-8.0-0.4","4","4","4","4","4","4","4","4","4","4","5","5","5","5","5","5","5","5","5","5","1","1","1","1","1","1","1","1","1","0","0","1","1","0","1","0","1","0","1","1","0","0","1","1","5","1","2","1","1","4","2","1","2","5","1","598903596641157120","王","576","","","","","","","","","","","","","","","","","","","","","","","","","","","","","","","","","","","","","","","","","",""
"563","<p style=""color:rgb(150, 250, 100); font-size: 35px;"">自己的</p>","e","categorize-html","117","279912","0.0-6.0-1.0-8.0-1.4","4","4","4","4","4","4","4","4","4","4","5","5","5","5","5","5","5","5","5","5","1","1","1","1","1","1","1","1","1","0","0","1","1","0","1","0","1","0","1","1","0","0","1","1","5","1","2","1","1","4","2","1","2","5","1","598903596641157120","王","576","","","","","","","","","","","","","","","","","","","true","14","4","moral","563","self","自己的","","","","","","","","","","","","","","","","",""
"null","","null","html-keyboard-response","118","280163","0.0-6.0-1.0-8.0-0.5","4","4","4","4","4","4","4","4","4","4","5","5","5","5","5","5","5","5","5","5","1","1","1","1","1","1","1","1","1","0","0","1","1","0","1","0","1","0","1","1","0","0","1","1","5","1","2","1","1","4","2","1","2","5","1","598903596641157120","王","576","","","","","","","","","","","","","","","","","","","","","","","","","","","","","","","","","","","","","","","","","",""
"538","<p style=""color:white; font-size: 35px;"">黑心</p>","e","categorize-html","119","280703","0.0-6.0-1.0-8.0-1.5","4","4","4","4","4","4","4","4","4","4","5","5","5","5","5","5","5","5","5","5","1","1","1","1","1","1","1","1","1","0","0","1","1","0","1","0","1","0","1","1","0","0","1","1","5","1","2","1","1","4","2","1","2","5","1","598903596641157120","王","576","","","","","","","","","","","","","","","","","","","true","14","4","moral","538","negative","黑心","","","","","","","","","","","","","","","","",""
"null","","null","html-keyboard-response","120","280955","0.0-6.0-1.0-8.0-0.6","4","4","4","4","4","4","4","4","4","4","5","5","5","5","5","5","5","5","5","5","1","1","1","1","1","1","1","1","1","0","0","1","1","0","1","0","1","0","1","1","0","0","1","1","5","1","2","1","1","4","2","1","2","5","1","598903596641157120","王","576","","","","","","","","","","","","","","","","","","","","","","","","","","","","","","","","","","","","","","","","","",""
"563","<p style=""color:rgb(150, 250, 100); font-size: 35px;"">他</p>","i","categorize-html","121","281519","0.0-6.0-1.0-8.0-1.6","4","4","4","4","4","4","4","4","4","4","5","5","5","5","5","5","5","5","5","5","1","1","1","1","1","1","1","1","1","0","0","1","1","0","1","0","1","0","1","1","0","0","1","1","5","1","2","1","1","4","2","1","2","5","1","598903596641157120","王","576","","","","","","","","","","","","","","","","","","","true","14","4","moral","563","other","他","","","","","","","","","","","","","","","","",""
"null","","null","html-keyboard-response","122","281771","0.0-6.0-1.0-8.0-0.7","4","4","4","4","4","4","4","4","4","4","5","5","5","5","5","5","5","5","5","5","1","1","1","1","1","1","1","1","1","0","0","1","1","0","1","0","1","0","1","1","0","0","1","1","5","1","2","1","1","4","2","1","2","5","1","598903596641157120","王","576","","","","","","","","","","","","","","","","","","","","","","","","","","","","","","","","","","","","","","","","","",""
"435","<p style=""color:white; font-size: 35px;"">善良</p>","i","categorize-html","123","282207","0.0-6.0-1.0-8.0-1.7","4","4","4","4","4","4","4","4","4","4","5","5","5","5","5","5","5","5","5","5","1","1","1","1","1","1","1","1","1","0","0","1","1","0","1","0","1","0","1","1","0","0","1","1","5","1","2","1","1","4","2","1","2","5","1","598903596641157120","王","576","","","","","","","","","","","","","","","","","","","true","14","4","moral","435","positive","善良","","","","","","","","","","","","","","","","",""
"null","","null","html-keyboard-response","124","282459","0.0-6.0-1.0-8.0-0.8","4","4","4","4","4","4","4","4","4","4","5","5","5","5","5","5","5","5","5","5","1","1","1","1","1","1","1","1","1","0","0","1","1","0","1","0","1","0","1","1","0","0","1","1","5","1","2","1","1","4","2","1","2","5","1","598903596641157120","王","576","","","","","","","","","","","","","","","","","","","","","","","","","","","","","","","","","","","","","","","","","",""
"763","<p style=""color:rgb(150, 250, 100); font-size: 35px;"">本人</p>","e","categorize-html","125","283223","0.0-6.0-1.0-8.0-1.8","4","4","4","4","4","4","4","4","4","4","5","5","5","5","5","5","5","5","5","5","1","1","1","1","1","1","1","1","1","0","0","1","1","0","1","0","1","0","1","1","0","0","1","1","5","1","2","1","1","4","2","1","2","5","1","598903596641157120","王","576","","","","","","","","","","","","","","","","","","","true","14","4","moral","763","self","本人","","","","","","","","","","","","","","","","",""
"null","","null","html-keyboard-response","126","283475","0.0-6.0-1.0-8.0-0.9","4","4","4","4","4","4","4","4","4","4","5","5","5","5","5","5","5","5","5","5","1","1","1","1","1","1","1","1","1","0","0","1","1","0","1","0","1","0","1","1","0","0","1","1","5","1","2","1","1","4","2","1","2","5","1","598903596641157120","王","576","","","","","","","","","","","","","","","","","","","","","","","","","","","","","","","","","","","","","","","","","",""
"746","<p style=""color:white; font-size: 35px;"">正直</p>","i","categorize-html","127","284223","0.0-6.0-1.0-8.0-1.9","4","4","4","4","4","4","4","4","4","4","5","5","5","5","5","5","5","5","5","5","1","1","1","1","1","1","1","1","1","0","0","1","1","0","1","0","1","0","1","1","0","0","1","1","5","1","2","1","1","4","2","1","2","5","1","598903596641157120","王","576","","","","","","","","","","","","","","","","","","","true","14","4","moral","746","positive","正直","","","","","","","","","","","","","","","","",""
"null","","null","html-keyboard-response","128","284474","0.0-6.0-1.0-8.0-0.10","4","4","4","4","4","4","4","4","4","4","5","5","5","5","5","5","5","5","5","5","1","1","1","1","1","1","1","1","1","0","0","1","1","0","1","0","1","0","1","1","0","0","1","1","5","1","2","1","1","4","2","1","2","5","1","598903596641157120","王","576","","","","","","","","","","","","","","","","","","","","","","","","","","","","","","","","","","","","","","","","","",""
"380","<p style=""color:rgb(150, 250, 100); font-size: 35px;"">他的</p>","i","categorize-html","129","284855","0.0-6.0-1.0-8.0-1.10","4","4","4","4","4","4","4","4","4","4","5","5","5","5","5","5","5","5","5","5","1","1","1","1","1","1","1","1","1","0","0","1","1","0","1","0","1","0","1","1","0","0","1","1","5","1","2","1","1","4","2","1","2","5","1","598903596641157120","王","576","","","","","","","","","","","","","","","","","","","true","14","4","moral","380","other","他的","","","","","","","","","","","","","","","","",""
"null","","null","html-keyboard-response","130","285107","0.0-6.0-1.0-8.0-0.11","4","4","4","4","4","4","4","4","4","4","5","5","5","5","5","5","5","5","5","5","1","1","1","1","1","1","1","1","1","0","0","1","1","0","1","0","1","0","1","1","0","0","1","1","5","1","2","1","1","4","2","1","2","5","1","598903596641157120","王","576","","","","","","","","","","","","","","","","","","","","","","","","","","","","","","","","","","","","","","","","","",""
"515","<p style=""color:white; font-size: 35px;"">缺德</p>","e","categorize-html","131","285623","0.0-6.0-1.0-8.0-1.11","4","4","4","4","4","4","4","4","4","4","5","5","5","5","5","5","5","5","5","5","1","1","1","1","1","1","1","1","1","0","0","1","1","0","1","0","1","0","1","1","0","0","1","1","5","1","2","1","1","4","2","1","2","5","1","598903596641157120","王","576","","","","","","","","","","","","","","","","","","","true","14","4","moral","515","negative","缺德","","","","","","","","","","","","","","","","",""
"null","","null","html-keyboard-response","132","285875","0.0-6.0-1.0-8.0-0.12","4","4","4","4","4","4","4","4","4","4","5","5","5","5","5","5","5","5","5","5","1","1","1","1","1","1","1","1","1","0","0","1","1","0","1","0","1","0","1","1","0","0","1","1","5","1","2","1","1","4","2","1","2","5","1","598903596641157120","王","576","","","","","","","","","","","","","","","","","","","","","","","","","","","","","","","","","","","","","","","","","",""
"690","<p style=""color:rgb(150, 250, 100); font-size: 35px;"">他人</p>","i","categorize-html","133","286567","0.0-6.0-1.0-8.0-1.12","4","4","4","4","4","4","4","4","4","4","5","5","5","5","5","5","5","5","5","5","1","1","1","1","1","1","1","1","1","0","0","1","1","0","1","0","1","0","1","1","0","0","1","1","5","1","2","1","1","4","2","1","2","5","1","598903596641157120","王","576","","","","","","","","","","","","","","","","","","","true","14","4","moral","690","other","他人","","","","","","","","","","","","","","","","",""
"null","","null","html-keyboard-response","134","286818","0.0-6.0-1.0-8.0-0.13","4","4","4","4","4","4","4","4","4","4","5","5","5","5","5","5","5","5","5","5","1","1","1","1","1","1","1","1","1","0","0","1","1","0","1","0","1","0","1","1","0","0","1","1","5","1","2","1","1","4","2","1","2","5","1","598903596641157120","王","576","","","","","","","","","","","","","","","","","","","","","","","","","","","","","","","","","","","","","","","","","",""
"732","<p style=""color:white; font-size: 35px;"">君子</p>","i","categorize-html","135","287551","0.0-6.0-1.0-8.0-1.13","4","4","4","4","4","4","4","4","4","4","5","5","5","5","5","5","5","5","5","5","1","1","1","1","1","1","1","1","1","0","0","1","1","0","1","0","1","0","1","1","0","0","1","1","5","1","2","1","1","4","2","1","2","5","1","598903596641157120","王","576","","","","","","","","","","","","","","","","","","","true","14","4","moral","732","positive","君子","","","","","","","","","","","","","","","","",""
"null","","null","html-keyboard-response","136","287803","0.0-6.0-1.0-8.0-0.14","4","4","4","4","4","4","4","4","4","4","5","5","5","5","5","5","5","5","5","5","1","1","1","1","1","1","1","1","1","0","0","1","1","0","1","0","1","0","1","1","0","0","1","1","5","1","2","1","1","4","2","1","2","5","1","598903596641157120","王","576","","","","","","","","","","","","","","","","","","","","","","","","","","","","","","","","","","","","","","","","","",""
"683","<p style=""color:rgb(150, 250, 100); font-size: 35px;"">我</p>","e","categorize-html","137","288487","0.0-6.0-1.0-8.0-1.14","4","4","4","4","4","4","4","4","4","4","5","5","5","5","5","5","5","5","5","5","1","1","1","1","1","1","1","1","1","0","0","1","1","0","1","0","1","0","1","1","0","0","1","1","5","1","2","1","1","4","2","1","2","5","1","598903596641157120","王","576","","","","","","","","","","","","","","","","","","","true","14","4","moral","683","self","我","","","","","","","","","","","","","","","","",""
"null","","null","html-keyboard-response","138","288738","0.0-6.0-1.0-8.0-0.15","4","4","4","4","4","4","4","4","4","4","5","5","5","5","5","5","5","5","5","5","1","1","1","1","1","1","1","1","1","0","0","1","1","0","1","0","1","0","1","1","0","0","1","1","5","1","2","1","1","4","2","1","2","5","1","598903596641157120","王","576","","","","","","","","","","","","","","","","","","","","","","","","","","","","","","","","","","","","","","","","","",""
"668","<p style=""color:white; font-size: 35px;"">不孝</p>","e","categorize-html","139","289408","0.0-6.0-1.0-8.0-1.15","4","4","4","4","4","4","4","4","4","4","5","5","5","5","5","5","5","5","5","5","1","1","1","1","1","1","1","1","1","0","0","1","1","0","1","0","1","0","1","1","0","0","1","1","5","1","2","1","1","4","2","1","2","5","1","598903596641157120","王","576","","","","","","","","","","","","","","","","","","","true","14","4","moral","668","negative","不孝","","","","","","","","","","","","","","","","",""
"null","","null","html-keyboard-response","140","289659","0.0-6.0-1.0-8.0-0.16","4","4","4","4","4","4","4","4","4","4","5","5","5","5","5","5","5","5","5","5","1","1","1","1","1","1","1","1","1","0","0","1","1","0","1","0","1","0","1","1","0","0","1","1","5","1","2","1","1","4","2","1","2","5","1","598903596641157120","王","576","","","","","","","","","","","","","","","","","","","","","","","","","","","","","","","","","","","","","","","","","",""
"715","<p style=""color:rgb(150, 250, 100); font-size: 35px;"">他人的</p>","i","categorize-html","141","290375","0.0-6.0-1.0-8.0-1.16","4","4","4","4","4","4","4","4","4","4","5","5","5","5","5","5","5","5","5","5","1","1","1","1","1","1","1","1","1","0","0","1","1","0","1","0","1","0","1","1","0","0","1","1","5","1","2","1","1","4","2","1","2","5","1","598903596641157120","王","576","","","","","","","","","","","","","","","","","","","true","14","4","moral","715","other","他人的","","","","","","","","","","","","","","","","",""
"null","","null","html-keyboard-response","142","290626","0.0-6.0-1.0-8.0-0.17","4","4","4","4","4","4","4","4","4","4","5","5","5","5","5","5","5","5","5","5","1","1","1","1","1","1","1","1","1","0","0","1","1","0","1","0","1","0","1","1","0","0","1","1","5","1","2","1","1","4","2","1","2","5","1","598903596641157120","王","576","","","","","","","","","","","","","","","","","","","","","","","","","","","","","","","","","","","","","","","","","",""
"811","<p style=""color:white; font-size: 35px;"">小人</p>","i","categorize-html","143","291942","0.0-6.0-1.0-8.0-1.17","4","4","4","4","4","4","4","4","4","4","5","5","5","5","5","5","5","5","5","5","1","1","1","1","1","1","1","1","1","0","0","1","1","0","1","0","1","0","1","1","0","0","1","1","5","1","2","1","1","4","2","1","2","5","1","598903596641157120","王","576","","","","","","","","","","","","","","","","","","","false","14","4","moral","1233.5434782608695","negative","小人","","","","","","","","","","","","","","","","",""
"null","","null","html-keyboard-response","144","292194","0.0-6.0-1.0-8.0-0.18","4","4","4","4","4","4","4","4","4","4","5","5","5","5","5","5","5","5","5","5","1","1","1","1","1","1","1","1","1","0","0","1","1","0","1","0","1","0","1","1","0","0","1","1","5","1","2","1","1","4","2","1","2","5","1","598903596641157120","王","576","","","","","","","","","","","","","","","","","","","","","","","","","","","","","","","","","","","","","","","","","",""
"548","<p style=""color:rgb(150, 250, 100); font-size: 35px;"">自己</p>","e","categorize-html","145","292743","0.0-6.0-1.0-8.0-1.18","4","4","4","4","4","4","4","4","4","4","5","5","5","5","5","5","5","5","5","5","1","1","1","1","1","1","1","1","1","0","0","1","1","0","1","0","1","0","1","1","0","0","1","1","5","1","2","1","1","4","2","1","2","5","1","598903596641157120","王","576","","","","","","","","","","","","","","","","","","","true","14","4","moral","548","self","自己","","","","","","","","","","","","","","","","",""
"null","","null","html-keyboard-response","146","292995","0.0-6.0-1.0-8.0-0.19","4","4","4","4","4","4","4","4","4","4","5","5","5","5","5","5","5","5","5","5","1","1","1","1","1","1","1","1","1","0","0","1","1","0","1","0","1","0","1","1","0","0","1","1","5","1","2","1","1","4","2","1","2","5","1","598903596641157120","王","576","","","","","","","","","","","","","","","","","","","","","","","","","","","","","","","","","","","","","","","","","",""
"571","<p style=""color:white; font-size: 35px;"">高尚</p>","i","categorize-html","147","293567","0.0-6.0-1.0-8.0-1.19","4","4","4","4","4","4","4","4","4","4","5","5","5","5","5","5","5","5","5","5","1","1","1","1","1","1","1","1","1","0","0","1","1","0","1","0","1","0","1","1","0","0","1","1","5","1","2","1","1","4","2","1","2","5","1","598903596641157120","王","576","","","","","","","","","","","","","","","","","","","true","14","4","moral","571","positive","高尚","","","","","","","","","","","","","","","","",""
"null","","null","html-keyboard-response","148","293819","0.0-6.0-1.0-8.0-0.20","4","4","4","4","4","4","4","4","4","4","5","5","5","5","5","5","5","5","5","5","1","1","1","1","1","1","1","1","1","0","0","1","1","0","1","0","1","0","1","1","0","0","1","1","5","1","2","1","1","4","2","1","2","5","1","598903596641157120","王","576","","","","","","","","","","","","","","","","","","","","","","","","","","","","","","","","","","","","","","","","","",""
"500","<p style=""color:rgb(150, 250, 100); font-size: 35px;"">自己</p>","e","categorize-html","149","294319","0.0-6.0-1.0-8.0-1.20","4","4","4","4","4","4","4","4","4","4","5","5","5","5","5","5","5","5","5","5","1","1","1","1","1","1","1","1","1","0","0","1","1","0","1","0","1","0","1","1","0","0","1","1","5","1","2","1","1","4","2","1","2","5","1","598903596641157120","王","576","","","","","","","","","","","","","","","","","","","true","14","4","moral","500","self","自己","","","","","","","","","","","","","","","","",""
"null","","null","html-keyboard-response","150","294571","0.0-6.0-1.0-8.0-0.21","4","4","4","4","4","4","4","4","4","4","5","5","5","5","5","5","5","5","5","5","1","1","1","1","1","1","1","1","1","0","0","1","1","0","1","0","1","0","1","1","0","0","1","1","5","1","2","1","1","4","2","1","2","5","1","598903596641157120","王","576","","","","","","","","","","","","","","","","","","","","","","","","","","","","","","","","","","","","","","","","","",""
"683","<p style=""color:white; font-size: 35px;"">缺德</p>","e","categorize-html","151","295255","0.0-6.0-1.0-8.0-1.21","4","4","4","4","4","4","4","4","4","4","5","5","5","5","5","5","5","5","5","5","1","1","1","1","1","1","1","1","1","0","0","1","1","0","1","0","1","0","1","1","0","0","1","1","5","1","2","1","1","4","2","1","2","5","1","598903596641157120","王","576","","","","","","","","","","","","","","","","","","","true","14","4","moral","683","negative","缺德","","","","","","","","","","","","","","","","",""
"null","","null","html-keyboard-response","152","295507","0.0-6.0-1.0-8.0-0.22","4","4","4","4","4","4","4","4","4","4","5","5","5","5","5","5","5","5","5","5","1","1","1","1","1","1","1","1","1","0","0","1","1","0","1","0","1","0","1","1","0","0","1","1","5","1","2","1","1","4","2","1","2","5","1","598903596641157120","王","576","","","","","","","","","","","","","","","","","","","","","","","","","","","","","","","","","","","","","","","","","",""
"515","<p style=""color:rgb(150, 250, 100); font-size: 35px;"">别人</p>","i","categorize-html","153","296023","0.0-6.0-1.0-8.0-1.22","4","4","4","4","4","4","4","4","4","4","5","5","5","5","5","5","5","5","5","5","1","1","1","1","1","1","1","1","1","0","0","1","1","0","1","0","1","0","1","1","0","0","1","1","5","1","2","1","1","4","2","1","2","5","1","598903596641157120","王","576","","","","","","","","","","","","","","","","","","","true","14","4","moral","515","other","别人","","","","","","","","","","","","","","","","",""
"null","","null","html-keyboard-response","154","296289","0.0-6.0-1.0-8.0-0.23","4","4","4","4","4","4","4","4","4","4","5","5","5","5","5","5","5","5","5","5","1","1","1","1","1","1","1","1","1","0","0","1","1","0","1","0","1","0","1","1","0","0","1","1","5","1","2","1","1","4","2","1","2","5","1","598903596641157120","王","576","","","","","","","","","","","","","","","","","","","","","","","","","","","","","","","","","","","","","","","","","",""
"500","<p style=""color:white; font-size: 35px;"">君子</p>","i","categorize-html","155","296791","0.0-6.0-1.0-8.0-1.23","4","4","4","4","4","4","4","4","4","4","5","5","5","5","5","5","5","5","5","5","1","1","1","1","1","1","1","1","1","0","0","1","1","0","1","0","1","0","1","1","0","0","1","1","5","1","2","1","1","4","2","1","2","5","1","598903596641157120","王","576","","","","","","","","","","","","","","","","","","","true","14","4","moral","500","positive","君子","","","","","","","","","","","","","","","","",""
"null","","null","html-keyboard-response","156","297043","0.0-6.0-1.0-8.0-0.24","4","4","4","4","4","4","4","4","4","4","5","5","5","5","5","5","5","5","5","5","1","1","1","1","1","1","1","1","1","0","0","1","1","0","1","0","1","0","1","1","0","0","1","1","5","1","2","1","1","4","2","1","2","5","1","598903596641157120","王","576","","","","","","","","","","","","","","","","","","","","","","","","","","","","","","","","","","","","","","","","","",""
"666","<p style=""color:rgb(150, 250, 100); font-size: 35px;"">别人的</p>","i","categorize-html","157","297711","0.0-6.0-1.0-8.0-1.24","4","4","4","4","4","4","4","4","4","4","5","5","5","5","5","5","5","5","5","5","1","1","1","1","1","1","1","1","1","0","0","1","1","0","1","0","1","0","1","1","0","0","1","1","5","1","2","1","1","4","2","1","2","5","1","598903596641157120","王","576","","","","","","","","","","","","","","","","","","","true","14","4","moral","666","other","别人的","","","","","","","","","","","","","","","","",""
"null","","null","html-keyboard-response","158","297963","0.0-6.0-1.0-8.0-0.25","4","4","4","4","4","4","4","4","4","4","5","5","5","5","5","5","5","5","5","5","1","1","1","1","1","1","1","1","1","0","0","1","1","0","1","0","1","0","1","1","0","0","1","1","5","1","2","1","1","4","2","1","2","5","1","598903596641157120","王","576","","","","","","","","","","","","","","","","","","","","","","","","","","","","","","","","","","","","","","","","","",""
"738","<p style=""color:white; font-size: 35px;"">廉正</p>","i","categorize-html","159","298703","0.0-6.0-1.0-8.0-1.25","4","4","4","4","4","4","4","4","4","4","5","5","5","5","5","5","5","5","5","5","1","1","1","1","1","1","1","1","1","0","0","1","1","0","1","0","1","0","1","1","0","0","1","1","5","1","2","1","1","4","2","1","2","5","1","598903596641157120","王","576","","","","","","","","","","","","","","","","","","","true","14","4","moral","738","positive","廉正","","","","","","","","","","","","","","","","",""
"null","","null","html-keyboard-response","160","298955","0.0-6.0-1.0-8.0-0.26","4","4","4","4","4","4","4","4","4","4","5","5","5","5","5","5","5","5","5","5","1","1","1","1","1","1","1","1","1","0","0","1","1","0","1","0","1","0","1","1","0","0","1","1","5","1","2","1","1","4","2","1","2","5","1","598903596641157120","王","576","","","","","","","","","","","","","","","","","","","","","","","","","","","","","","","","","","","","","","","","","",""
"571","<p style=""color:rgb(150, 250, 100); font-size: 35px;"">本人的</p>","e","categorize-html","161","299527","0.0-6.0-1.0-8.0-1.26","4","4","4","4","4","4","4","4","4","4","5","5","5","5","5","5","5","5","5","5","1","1","1","1","1","1","1","1","1","0","0","1","1","0","1","0","1","0","1","1","0","0","1","1","5","1","2","1","1","4","2","1","2","5","1","598903596641157120","王","576","","","","","","","","","","","","","","","","","","","true","14","4","moral","571","self","本人的","","","","","","","","","","","","","","","","",""
"null","","null","html-keyboard-response","162","299779","0.0-6.0-1.0-8.0-0.27","4","4","4","4","4","4","4","4","4","4","5","5","5","5","5","5","5","5","5","5","1","1","1","1","1","1","1","1","1","0","0","1","1","0","1","0","1","0","1","1","0","0","1","1","5","1","2","1","1","4","2","1","2","5","1","598903596641157120","王","576","","","","","","","","","","","","","","","","","","","","","","","","","","","","","","","","","","","","","","","","","",""
"683","<p style=""color:white; font-size: 35px;"">不孝</p>","e","categorize-html","163","300463","0.0-6.0-1.0-8.0-1.27","4","4","4","4","4","4","4","4","4","4","5","5","5","5","5","5","5","5","5","5","1","1","1","1","1","1","1","1","1","0","0","1","1","0","1","0","1","0","1","1","0","0","1","1","5","1","2","1","1","4","2","1","2","5","1","598903596641157120","王","576","","","","","","","","","","","","","","","","","","","true","14","4","moral","683","negative","不孝","","","","","","","","","","","","","","","","",""
"null","","null","html-keyboard-response","164","300715","0.0-6.0-1.0-8.0-0.28","4","4","4","4","4","4","4","4","4","4","5","5","5","5","5","5","5","5","5","5","1","1","1","1","1","1","1","1","1","0","0","1","1","0","1","0","1","0","1","1","0","0","1","1","5","1","2","1","1","4","2","1","2","5","1","598903596641157120","王","576","","","","","","","","","","","","","","","","","","","","","","","","","","","","","","","","","","","","","","","","","",""
"410","<p style=""color:rgb(150, 250, 100); font-size: 35px;"">我的</p>","e","categorize-html","165","301127","0.0-6.0-1.0-8.0-1.28","4","4","4","4","4","4","4","4","4","4","5","5","5","5","5","5","5","5","5","5","1","1","1","1","1","1","1","1","1","0","0","1","1","0","1","0","1","0","1","1","0","0","1","1","5","1","2","1","1","4","2","1","2","5","1","598903596641157120","王","576","","","","","","","","","","","","","","","","","","","true","14","4","moral","410","self","我的","","","","","","","","","","","","","","","","",""
"null","","null","html-keyboard-response","166","301378","0.0-6.0-1.0-8.0-0.29","4","4","4","4","4","4","4","4","4","4","5","5","5","5","5","5","5","5","5","5","1","1","1","1","1","1","1","1","1","0","0","1","1","0","1","0","1","0","1","1","0","0","1","1","5","1","2","1","1","4","2","1","2","5","1","598903596641157120","王","576","","","","","","","","","","","","","","","","","","","","","","","","","","","","","","","","","","","","","","","","","",""
"907","<p style=""color:white; font-size: 35px;"">卑鄙</p>","e","categorize-html","167","302287","0.0-6.0-1.0-8.0-1.29","4","4","4","4","4","4","4","4","4","4","5","5","5","5","5","5","5","5","5","5","1","1","1","1","1","1","1","1","1","0","0","1","1","0","1","0","1","0","1","1","0","0","1","1","5","1","2","1","1","4","2","1","2","5","1","598903596641157120","王","576","","","","","","","","","","","","","","","","","","","true","14","4","moral","907","negative","卑鄙","","","","","","","","","","","","","","","","",""
"null","","null","html-keyboard-response","168","302538","0.0-6.0-1.0-8.0-0.30","4","4","4","4","4","4","4","4","4","4","5","5","5","5","5","5","5","5","5","5","1","1","1","1","1","1","1","1","1","0","0","1","1","0","1","0","1","0","1","1","0","0","1","1","5","1","2","1","1","4","2","1","2","5","1","598903596641157120","王","576","","","","","","","","","","","","","","","","","","","","","","","","","","","","","","","","","","","","","","","","","",""
"459","<p style=""color:rgb(150, 250, 100); font-size: 35px;"">他人的</p>","i","categorize-html","169","302999","0.0-6.0-1.0-8.0-1.30","4","4","4","4","4","4","4","4","4","4","5","5","5","5","5","5","5","5","5","5","1","1","1","1","1","1","1","1","1","0","0","1","1","0","1","0","1","0","1","1","0","0","1","1","5","1","2","1","1","4","2","1","2","5","1","598903596641157120","王","576","","","","","","","","","","","","","","","","","","","true","14","4","moral","459","other","他人的","","","","","","","","","","","","","","","","",""
"null","","null","html-keyboard-response","170","303250","0.0-6.0-1.0-8.0-0.31","4","4","4","4","4","4","4","4","4","4","5","5","5","5","5","5","5","5","5","5","1","1","1","1","1","1","1","1","1","0","0","1","1","0","1","0","1","0","1","1","0","0","1","1","5","1","2","1","1","4","2","1","2","5","1","598903596641157120","王","576","","","","","","","","","","","","","","","","","","","","","","","","","","","","","","","","","","","","","","","","","",""
"619","<p style=""color:white; font-size: 35px;"">高尚</p>","i","categorize-html","171","303871","0.0-6.0-1.0-8.0-1.31","4","4","4","4","4","4","4","4","4","4","5","5","5","5","5","5","5","5","5","5","1","1","1","1","1","1","1","1","1","0","0","1","1","0","1","0","1","0","1","1","0","0","1","1","5","1","2","1","1","4","2","1","2","5","1","598903596641157120","王","576","","","","","","","","","","","","","","","","","","","true","14","4","moral","619","positive","高尚","","","","","","","","","","","","","","","","",""
"null","","null","html-keyboard-response","172","304122","0.0-6.0-1.0-8.0-0.32","4","4","4","4","4","4","4","4","4","4","5","5","5","5","5","5","5","5","5","5","1","1","1","1","1","1","1","1","1","0","0","1","1","0","1","0","1","0","1","1","0","0","1","1","5","1","2","1","1","4","2","1","2","5","1","598903596641157120","王","576","","","","","","","","","","","","","","","","","","","","","","","","","","","","","","","","","","","","","","","","","",""
"619","<p style=""color:rgb(150, 250, 100); font-size: 35px;"">自己的</p>","e","categorize-html","173","304743","0.0-6.0-1.0-8.0-1.32","4","4","4","4","4","4","4","4","4","4","5","5","5","5","5","5","5","5","5","5","1","1","1","1","1","1","1","1","1","0","0","1","1","0","1","0","1","0","1","1","0","0","1","1","5","1","2","1","1","4","2","1","2","5","1","598903596641157120","王","576","","","","","","","","","","","","","","","","","","","true","14","4","moral","619","self","自己的","","","","","","","","","","","","","","","","",""
"null","","null","html-keyboard-response","174","304995","0.0-6.0-1.0-8.0-0.33","4","4","4","4","4","4","4","4","4","4","5","5","5","5","5","5","5","5","5","5","1","1","1","1","1","1","1","1","1","0","0","1","1","0","1","0","1","0","1","1","0","0","1","1","5","1","2","1","1","4","2","1","2","5","1","598903596641157120","王","576","","","","","","","","","","","","","","","","","","","","","","","","","","","","","","","","","","","","","","","","","",""
"946","<p style=""color:white; font-size: 35px;"">诚信</p>","i","categorize-html","175","305943","0.0-6.0-1.0-8.0-1.33","4","4","4","4","4","4","4","4","4","4","5","5","5","5","5","5","5","5","5","5","1","1","1","1","1","1","1","1","1","0","0","1","1","0","1","0","1","0","1","1","0","0","1","1","5","1","2","1","1","4","2","1","2","5","1","598903596641157120","王","576","","","","","","","","","","","","","","","","","","","true","14","4","moral","946","positive","诚信","","","","","","","","","","","","","","","","",""
"null","","null","html-keyboard-response","176","306195","0.0-6.0-1.0-8.0-0.34","4","4","4","4","4","4","4","4","4","4","5","5","5","5","5","5","5","5","5","5","1","1","1","1","1","1","1","1","1","0","0","1","1","0","1","0","1","0","1","1","0","0","1","1","5","1","2","1","1","4","2","1","2","5","1","598903596641157120","王","576","","","","","","","","","","","","","","","","","","","","","","","","","","","","","","","","","","","","","","","","","",""
"603","<p style=""color:rgb(150, 250, 100); font-size: 35px;"">别人的</p>","i","categorize-html","177","306799","0.0-6.0-1.0-8.0-1.34","4","4","4","4","4","4","4","4","4","4","5","5","5","5","5","5","5","5","5","5","1","1","1","1","1","1","1","1","1","0","0","1","1","0","1","0","1","0","1","1","0","0","1","1","5","1","2","1","1","4","2","1","2","5","1","598903596641157120","王","576","","","","","","","","","","","","","","","","","","","true","14","4","moral","603","other","别人的","","","","","","","","","","","","","","","","",""
"null","","null","html-keyboard-response","178","307050","0.0-6.0-1.0-8.0-0.35","4","4","4","4","4","4","4","4","4","4","5","5","5","5","5","5","5","5","5","5","1","1","1","1","1","1","1","1","1","0","0","1","1","0","1","0","1","0","1","1","0","0","1","1","5","1","2","1","1","4","2","1","2","5","1","598903596641157120","王","576","","","","","","","","","","","","","","","","","","","","","","","","","","","","","","","","","","","","","","","","","",""
"603","<p style=""color:white; font-size: 35px;"">小人</p>","e","categorize-html","179","307655","0.0-6.0-1.0-8.0-1.35","4","4","4","4","4","4","4","4","4","4","5","5","5","5","5","5","5","5","5","5","1","1","1","1","1","1","1","1","1","0","0","1","1","0","1","0","1","0","1","1","0","0","1","1","5","1","2","1","1","4","2","1","2","5","1","598903596641157120","王","576","","","","","","","","","","","","","","","","","","","true","14","4","moral","603","negative","小人","","","","","","","","","","","","","","","","",""
"null","","null","html-keyboard-response","180","307906","0.0-6.0-1.0-8.0-0.36","4","4","4","4","4","4","4","4","4","4","5","5","5","5","5","5","5","5","5","5","1","1","1","1","1","1","1","1","1","0","0","1","1","0","1","0","1","0","1","1","0","0","1","1","5","1","2","1","1","4","2","1","2","5","1","598903596641157120","王","576","","","","","","","","","","","","","","","","","","","","","","","","","","","","","","","","","","","","","","","","","",""
"987","<p style=""color:rgb(150, 250, 100); font-size: 35px;"">本人的</p>","i","categorize-html","181","309110","0.0-6.0-1.0-8.0-1.36","4","4","4","4","4","4","4","4","4","4","5","5","5","5","5","5","5","5","5","5","1","1","1","1","1","1","1","1","1","0","0","1","1","0","1","0","1","0","1","1","0","0","1","1","5","1","2","1","1","4","2","1","2","5","1","598903596641157120","王","576","","","","","","","","","","","","","","","","","","","false","14","4","moral","1233.5434782608695","self","本人的","","","","","","","","","","","","","","","","",""
"null","","null","html-keyboard-response","182","309361","0.0-6.0-1.0-8.0-0.37","4","4","4","4","4","4","4","4","4","4","5","5","5","5","5","5","5","5","5","5","1","1","1","1","1","1","1","1","1","0","0","1","1","0","1","0","1","0","1","1","0","0","1","1","5","1","2","1","1","4","2","1","2","5","1","598903596641157120","王","576","","","","","","","","","","","","","","","","","","","","","","","","","","","","","","","","","","","","","","","","","",""
"725","<p style=""color:white; font-size: 35px;"">廉正</p>","i","categorize-html","183","310087","0.0-6.0-1.0-8.0-1.37","4","4","4","4","4","4","4","4","4","4","5","5","5","5","5","5","5","5","5","5","1","1","1","1","1","1","1","1","1","0","0","1","1","0","1","0","1","0","1","1","0","0","1","1","5","1","2","1","1","4","2","1","2","5","1","598903596641157120","王","576","","","","","","","","","","","","","","","","","","","true","14","4","moral","725","positive","廉正","","","","","","","","","","","","","","","","",""
"null","","null","html-keyboard-response","184","310339","0.0-6.0-1.0-8.0-0.38","4","4","4","4","4","4","4","4","4","4","5","5","5","5","5","5","5","5","5","5","1","1","1","1","1","1","1","1","1","0","0","1","1","0","1","0","1","0","1","1","0","0","1","1","5","1","2","1","1","4","2","1","2","5","1","598903596641157120","王","576","","","","","","","","","","","","","","","","","","","","","","","","","","","","","","","","","","","","","","","","","",""
"364","<p style=""color:rgb(150, 250, 100); font-size: 35px;"">别人</p>","i","categorize-html","185","310703","0.0-6.0-1.0-8.0-1.38","4","4","4","4","4","4","4","4","4","4","5","5","5","5","5","5","5","5","5","5","1","1","1","1","1","1","1","1","1","0","0","1","1","0","1","0","1","0","1","1","0","0","1","1","5","1","2","1","1","4","2","1","2","5","1","598903596641157120","王","576","","","","","","","","","","","","","","","","","","","true","14","4","moral","364","other","别人","","","","","","","","","","","","","","","","",""
"null","","null","html-keyboard-response","186","310955","0.0-6.0-1.0-8.0-0.39","4","4","4","4","4","4","4","4","4","4","5","5","5","5","5","5","5","5","5","5","1","1","1","1","1","1","1","1","1","0","0","1","1","0","1","0","1","0","1","1","0","0","1","1","5","1","2","1","1","4","2","1","2","5","1","598903596641157120","王","576","","","","","","","","","","","","","","","","","","","","","","","","","","","","","","","","","","","","","","","","","",""
"539","<p style=""color:white; font-size: 35px;"">不仁</p>","e","categorize-html","187","311495","0.0-6.0-1.0-8.0-1.39","4","4","4","4","4","4","4","4","4","4","5","5","5","5","5","5","5","5","5","5","1","1","1","1","1","1","1","1","1","0","0","1","1","0","1","0","1","0","1","1","0","0","1","1","5","1","2","1","1","4","2","1","2","5","1","598903596641157120","王","576","","","","","","","","","","","","","","","","","","","true","14","4","moral","539","negative","不仁","","","","","","","","","","","","","","","","",""
"null","","null","html-keyboard-response","188","311747","0.0-6.0-1.0-8.0-0.40","4","4","4","4","4","4","4","4","4","4","5","5","5","5","5","5","5","5","5","5","1","1","1","1","1","1","1","1","1","0","0","1","1","0","1","0","1","0","1","1","0","0","1","1","5","1","2","1","1","4","2","1","2","5","1","598903596641157120","王","576","","","","","","","","","","","","","","","","","","","","","","","","","","","","","","","","","","","","","","","","","",""
"739","<p style=""color:rgb(150, 250, 100); font-size: 35px;"">他人</p>","i","categorize-html","189","312487","0.0-6.0-1.0-8.0-1.40","4","4","4","4","4","4","4","4","4","4","5","5","5","5","5","5","5","5","5","5","1","1","1","1","1","1","1","1","1","0","0","1","1","0","1","0","1","0","1","1","0","0","1","1","5","1","2","1","1","4","2","1","2","5","1","598903596641157120","王","576","","","","","","","","","","","","","","","","","","","true","14","4","moral","739","other","他人","","","","","","","","","","","","","","","","",""
"null","","null","html-keyboard-response","190","312738","0.0-6.0-1.0-8.0-0.41","4","4","4","4","4","4","4","4","4","4","5","5","5","5","5","5","5","5","5","5","1","1","1","1","1","1","1","1","1","0","0","1","1","0","1","0","1","0","1","1","0","0","1","1","5","1","2","1","1","4","2","1","2","5","1","598903596641157120","王","576","","","","","","","","","","","","","","","","","","","","","","","","","","","","","","","","","","","","","","","","","",""
"732","<p style=""color:white; font-size: 35px;"">善良</p>","i","categorize-html","191","313472","0.0-6.0-1.0-8.0-1.41","4","4","4","4","4","4","4","4","4","4","5","5","5","5","5","5","5","5","5","5","1","1","1","1","1","1","1","1","1","0","0","1","1","0","1","0","1","0","1","1","0","0","1","1","5","1","2","1","1","4","2","1","2","5","1","598903596641157120","王","576","","","","","","","","","","","","","","","","","","","true","14","4","moral","732","positive","善良","","","","","","","","","","","","","","","","",""
"null","","null","html-keyboard-response","192","313723","0.0-6.0-1.0-8.0-0.42","4","4","4","4","4","4","4","4","4","4","5","5","5","5","5","5","5","5","5","5","1","1","1","1","1","1","1","1","1","0","0","1","1","0","1","0","1","0","1","1","0","0","1","1","5","1","2","1","1","4","2","1","2","5","1","598903596641157120","王","576","","","","","","","","","","","","","","","","","","","","","","","","","","","","","","","","","","","","","","","","","",""
"594","<p style=""color:rgb(150, 250, 100); font-size: 35px;"">我</p>","e","categorize-html","193","314319","0.0-6.0-1.0-8.0-1.42","4","4","4","4","4","4","4","4","4","4","5","5","5","5","5","5","5","5","5","5","1","1","1","1","1","1","1","1","1","0","0","1","1","0","1","0","1","0","1","1","0","0","1","1","5","1","2","1","1","4","2","1","2","5","1","598903596641157120","王","576","","","","","","","","","","","","","","","","","","","true","14","4","moral","594","self","我","","","","","","","","","","","","","","","","",""
