"rt","stimulus","response","trial_type","trial_index","time_elapsed","internal_node_id","ses_1","ses_2","ses_3","ses_4","ses_5","ses_6","ses_7","ses_8","ses_9","ses_10","coreself_1","coreself_2","coreself_3","coreself_4","coreself_5","coreself_6","coreself_7","coreself_8","coreself_9","coreself_10","SGPS_1","SGPS_2","SGPS_3","SGPS_4","SGPS_5","SGPS_6","SGPS_7","SGPS_8","SGPS_9","NPI1","NPI2","NPI3","NPI4","NPI5","NPI6","NPI7","NPI8","NPI9","NPI10","NPI11","NPI12","NPI13","NPI14","NPI15","hsns_1","hsns_2","hsns_3","hsns_4","hsns_5","trap1","hsns_6","hsns_7","hsns_8","hsns_9","hsns_10","subj_idx","friend_name","ParticipantID","value","success","user_agent","responses","item_order","radio_event_ids","radio_event_times","key_event_times","mouse_event_times","straightlining","zigzagging","honeypot","timeout","failed_images","failed_audio","failed_video","version_attrib","version_target","correct","IAT","screen_id","task_id","RT","condition","word","varname","summary","version_attrib2","version_target2","time_stamp","view_history","response_type","key_press","avg_frame_time","center_x","center_y","correct_response","identity","Image","question_order","correct_answer","trap1_item"
"3513","
   <p><div style = ""color: white;font-size:25px;"">您好，欢迎参加本次实验。</div> </p>
   <p><div style = ""color: white;font-size:25px;"">为充分保障您的权利，请确保您已经知晓并同意《参与实验同意书》以及《数据公开知情同意书》。</div></p>
   <p><div style = ""color: white;font-size:25px;"">如果您未见过上述内容，请咨询实验员。</div></p>
   <p><div style = ""color: white;font-size:25px;"">如果您选择继续实验，则表示您已经清楚两份知情同意书的内容并同意。</div></p>
   <p><div style = ""color: pink;font-size:30px;"">请确保您记得day0的实验编号，您将在本次实验输入该编号，若您忘记，请咨询实验员后作答。</div></p>
   <p><div style = ""color: lightblue;font-size:25px;"">请您尽可能认真地作答，我们将依据您在各问卷和按键任务中的作答质量发放报酬。</div></p>
   <p> <div style = ""color: green;font-size:25px;""><按空格键至下页></div> </p>
   "," ","html-keyboard-response","0","3516","0.0-0.0","4","3","4","3","3","4","4","3","4","3","5","5","4","4","5","5","4","5","4","5","2","1","2","2","2","1","1","1","2","1","0","1","1","0","0","0","1","1","1","1","0","1","0","1","4","1","2","1","2","5","2","1","1","4","2","772058156674322434","吴","398","","","","","","","","","","","","","","","","","","","","","","","","","","","","","","","","","","","","","","","","","",""
"","","","call-function","1","3518","0.0-1.0-0.0","4","3","4","3","3","4","4","3","4","3","5","5","4","4","5","5","4","5","4","5","2","1","2","2","2","1","1","1","2","1","0","1","1","0","0","0","1","1","1","1","0","1","0","1","4","1","2","1","2","5","2","1","1","4","2","772058156674322434","吴","398","","","","","","","","","","","","","","","","","","","","","","","","","","","","","","","","","","","","","","","","","",""
"37606","","{""friend_name"":""吴"",""ParticipantID"":""398""}","survey-html-form","2","41129","0.0-1.0-1.0","4","3","4","3","3","4","4","3","4","3","5","5","4","4","5","5","4","5","4","5","2","1","2","2","2","1","1","1","2","1","0","1","1","0","0","0","1","1","1","1","0","1","0","1","4","1","2","1","2","5","2","1","1","4","2","772058156674322434","吴","398","","","","","","","","","","","","","","","","","","","","","","","","","","","","","","","","","","","","","","","","","",""
"","","","fullscreen","3","44663","0.0-2.0","4","3","4","3","3","4","4","3","4","3","5","5","4","4","5","5","4","5","4","5","2","1","2","2","2","1","1","1","2","1","0","1","1","0","0","0","1","1","1","1","0","1","0","1","4","1","2","1","2","5","2","1","1","4","2","772058156674322434","吴","398","","true","","","","","","","","","","","","","","","","","","","","","","","","","","","","","","","","","","","","","","","",""
"164004","","{""Q01"":""4"",""Q02"":""3"",""Q03"":""4"",""Q04"":""3"",""Q05"":""3"",""Q06"":""4"",""Q07"":""4"",""Q08"":""3"",""Q09"":""4"",""Q10"":""3""}","survey-template","4","208698","0.0-3.0","4","3","4","3","3","4","4","3","4","3","5","5","4","4","5","5","4","5","4","5","2","1","2","2","2","1","1","1","2","1","0","1","1","0","0","0","1","1","1","1","0","1","0","1","4","1","2","1","2","5","2","1","1","4","2","772058156674322434","吴","398","","","","{""Q01"":""4"",""Q02"":""3"",""Q03"":""4"",""Q04"":""3"",""Q05"":""3"",""Q06"":""4"",""Q07"":""4"",""Q08"":""3"",""Q09"":""4"",""Q10"":""3""}","[0,1,2,3,4,5,6,7,8,9]","[""Q01"",""Q02"",""Q03"",""Q04"",""Q05"",""Q06"",""Q07"",""Q09"",""Q08"",""Q10""]","[3615,9202,12846,14937,16819,20186,21157,23572,24059,24838]","[]","[3615,9202,10640,10936,12846,14462,14937,16819,20186,21157,22727,23572,24059,24838,163523,164004]","0.3","0.4444444444444444","0","","","","","","","","","","","","","","","","","","","","","","","","","","","","","",""
"194291","","{""Q01"":""5"",""Q02"":""5"",""Q03"":""4"",""Q04"":""4"",""Q05"":""5"",""Q06"":""5"",""Q07"":""4"",""Q08"":""5"",""Q09"":""4"",""Q10"":""5""}","survey-template","5","403039","0.0-4.0","4","3","4","3","3","4","4","3","4","3","5","5","4","4","5","5","4","5","4","5","2","1","2","2","2","1","1","1","2","1","0","1","1","0","0","0","1","1","1","1","0","1","0","1","4","1","2","1","2","5","2","1","1","4","2","772058156674322434","吴","398","","","","{""Q01"":""5"",""Q02"":""5"",""Q03"":""4"",""Q04"":""4"",""Q05"":""5"",""Q06"":""5"",""Q07"":""4"",""Q08"":""5"",""Q09"":""4"",""Q10"":""5""}","[0,1,2,3,4,5,6,7,8,9]","[""Q01"",""Q02"",""Q03"",""Q04"",""Q05"",""Q06"",""Q07"",""Q08"",""Q09"",""Q10""]","[81431,83613,86232,87875,94097,95803,99518,102494,143190,146436]","[]","[81431,82660,83613,84428,84760,86232,86723,87875,94097,95803,99518,102494,143190,146436,194291]","0.4","0.4444444444444444","0","","","","","","","","","","","","","","","","","","","","","","","","","","","","","",""
"","","","preload","6","403458","0.0-5.0","4","3","4","3","3","4","4","3","4","3","5","5","4","4","5","5","4","5","4","5","2","1","2","2","2","1","1","1","2","1","0","1","1","0","0","0","1","1","1","1","0","1","0","1","4","1","2","1","2","5","2","1","1","4","2","772058156674322434","吴","398","","true","","","","","","","","","","","false","[]","[]","[]","","","","","","","","","","","","","","","","","","","","","","","","","",""
"46301","
    <h3>词语分类任务</h3>
    <p>在接下来的任务中，你需要对一系列词语进行分类。</p>
    <p>请先熟悉这些词语，这有利于你完成接下来的任务。</p>
    <table align=""center"" border=1 cellpadding=3 cellspacing=0>
    <tr> <th>类别</th> <th>词语</th> </tr>
    <tr> <td>&emsp;积极&emsp;</td> <td>&emsp;能干、全能、全才、高效、精干、天才&emsp;</td> </tr>
    <tr> <td>&emsp;消极&emsp;</td> <td>&emsp;无能、低能、废物、拙笨、愚钝、蠢笨&emsp;</td> </tr>
    <tr> <td>&emsp;自我&emsp;</td> <td>&emsp;我、我的、自己、自己的、本人、本人的&emsp;</td> </tr>
    <tr> <td>&emsp;他人&emsp;</td> <td>&emsp;他、他的、别人、别人的、他人、他人的&emsp;</td> </tr>
    </table><br/>","0","html-button-response","7","449766","0.0-6.0-0.0-0.0","4","3","4","3","3","4","4","3","4","3","5","5","4","4","5","5","4","5","4","5","2","1","2","2","2","1","1","1","2","1","0","1","1","0","0","0","1","1","1","1","0","1","0","1","4","1","2","1","2","5","2","1","1","4","2","772058156674322434","吴","398","","","","","","","","","","","","","","","","","1","1","","","","","","","","","","","","","","","","","","","","","","","",""
"10351","
    <div class=""tag-bottom"">
    <p> —— 任务1：对“自我”词和“他人”词分类 ——<p/>
    不同词语会出现在屏幕中央，类别标签将始终显示在屏幕上方<p/>   
    <span style=""color:#FFD866""><b>请根据上方标签的提示，尽可能正确并且快速地做出按键反应</b></span><p/>
    当按键错误时屏幕中会出现<span style=""color:red""> X </span>，需要按另一个键纠正才能继续<br/><p/>
    请把双手食指分别放在键盘的“E”键和“I”键上<p/>
    按<空格键>开始
    </p></div>"," ","html-keyboard-response","8","460119","0.0-6.0-0.0-1.0","4","3","4","3","3","4","4","3","4","3","5","5","4","4","5","5","4","5","4","5","2","1","2","2","2","1","1","1","2","1","0","1","1","0","0","0","1","1","1","1","0","1","0","1","4","1","2","1","2","5","2","1","1","4","2","772058156674322434","吴","398","","","","","","","","","","","","","","","","","","","","","","","","","","","","","","","","","","","","","","","","","",""
"null","","null","html-keyboard-response","9","460381","0.0-6.0-0.0-2.0-0.0","4","3","4","3","3","4","4","3","4","3","5","5","4","4","5","5","4","5","4","5","2","1","2","2","2","1","1","1","2","1","0","1","1","0","0","0","1","1","1","1","0","1","0","1","4","1","2","1","2","5","2","1","1","4","2","772058156674322434","吴","398","","","","","","","","","","","","","","","","","","","","","","","","","","","","","","","","","","","","","","","","","",""
"536","<p style=""color:rgb(150, 250, 100); font-size: 35px;"">自己</p>","e","categorize-html","10","460924","0.0-6.0-0.0-2.0-1.0","4","3","4","3","3","4","4","3","4","3","5","5","4","4","5","5","4","5","4","5","2","1","2","2","2","1","1","1","2","1","0","1","1","0","0","0","1","1","1","1","0","1","0","1","4","1","2","1","2","5","2","1","1","4","2","772058156674322434","吴","398","","","","","","","","","","","","","","","","","","","true","1","1","ability","536","self","自己","","","","","","","","","","","","","","","","",""
"null","","null","html-keyboard-response","11","461183","0.0-6.0-0.0-2.0-0.1","4","3","4","3","3","4","4","3","4","3","5","5","4","4","5","5","4","5","4","5","2","1","2","2","2","1","1","1","2","1","0","1","1","0","0","0","1","1","1","1","0","1","0","1","4","1","2","1","2","5","2","1","1","4","2","772058156674322434","吴","398","","","","","","","","","","","","","","","","","","","","","","","","","","","","","","","","","","","","","","","","","",""
"574","<p style=""color:rgb(150, 250, 100); font-size: 35px;"">他</p>","i","categorize-html","12","461764","0.0-6.0-0.0-2.0-1.1","4","3","4","3","3","4","4","3","4","3","5","5","4","4","5","5","4","5","4","5","2","1","2","2","2","1","1","1","2","1","0","1","1","0","0","0","1","1","1","1","0","1","0","1","4","1","2","1","2","5","2","1","1","4","2","772058156674322434","吴","398","","","","","","","","","","","","","","","","","","","true","1","1","ability","574","other","他","","","","","","","","","","","","","","","","",""
"null","","null","html-keyboard-response","13","462031","0.0-6.0-0.0-2.0-0.2","4","3","4","3","3","4","4","3","4","3","5","5","4","4","5","5","4","5","4","5","2","1","2","2","2","1","1","1","2","1","0","1","1","0","0","0","1","1","1","1","0","1","0","1","4","1","2","1","2","5","2","1","1","4","2","772058156674322434","吴","398","","","","","","","","","","","","","","","","","","","","","","","","","","","","","","","","","","","","","","","","","",""
"557","<p style=""color:rgb(150, 250, 100); font-size: 35px;"">他人</p>","i","categorize-html","14","462595","0.0-6.0-0.0-2.0-1.2","4","3","4","3","3","4","4","3","4","3","5","5","4","4","5","5","4","5","4","5","2","1","2","2","2","1","1","1","2","1","0","1","1","0","0","0","1","1","1","1","0","1","0","1","4","1","2","1","2","5","2","1","1","4","2","772058156674322434","吴","398","","","","","","","","","","","","","","","","","","","true","1","1","ability","557","other","他人","","","","","","","","","","","","","","","","",""
"null","","null","html-keyboard-response","15","462855","0.0-6.0-0.0-2.0-0.3","4","3","4","3","3","4","4","3","4","3","5","5","4","4","5","5","4","5","4","5","2","1","2","2","2","1","1","1","2","1","0","1","1","0","0","0","1","1","1","1","0","1","0","1","4","1","2","1","2","5","2","1","1","4","2","772058156674322434","吴","398","","","","","","","","","","","","","","","","","","","","","","","","","","","","","","","","","","","","","","","","","",""
"506","<p style=""color:rgb(150, 250, 100); font-size: 35px;"">他人的</p>","i","categorize-html","16","463367","0.0-6.0-0.0-2.0-1.3","4","3","4","3","3","4","4","3","4","3","5","5","4","4","5","5","4","5","4","5","2","1","2","2","2","1","1","1","2","1","0","1","1","0","0","0","1","1","1","1","0","1","0","1","4","1","2","1","2","5","2","1","1","4","2","772058156674322434","吴","398","","","","","","","","","","","","","","","","","","","true","1","1","ability","506","other","他人的","","","","","","","","","","","","","","","","",""
"null","","null","html-keyboard-response","17","463619","0.0-6.0-0.0-2.0-0.4","4","3","4","3","3","4","4","3","4","3","5","5","4","4","5","5","4","5","4","5","2","1","2","2","2","1","1","1","2","1","0","1","1","0","0","0","1","1","1","1","0","1","0","1","4","1","2","1","2","5","2","1","1","4","2","772058156674322434","吴","398","","","","","","","","","","","","","","","","","","","","","","","","","","","","","","","","","","","","","","","","","",""
"596","<p style=""color:rgb(150, 250, 100); font-size: 35px;"">本人</p>","e","categorize-html","18","464221","0.0-6.0-0.0-2.0-1.4","4","3","4","3","3","4","4","3","4","3","5","5","4","4","5","5","4","5","4","5","2","1","2","2","2","1","1","1","2","1","0","1","1","0","0","0","1","1","1","1","0","1","0","1","4","1","2","1","2","5","2","1","1","4","2","772058156674322434","吴","398","","","","","","","","","","","","","","","","","","","true","1","1","ability","596","self","本人","","","","","","","","","","","","","","","","",""
"null","","null","html-keyboard-response","19","464509","0.0-6.0-0.0-2.0-0.5","4","3","4","3","3","4","4","3","4","3","5","5","4","4","5","5","4","5","4","5","2","1","2","2","2","1","1","1","2","1","0","1","1","0","0","0","1","1","1","1","0","1","0","1","4","1","2","1","2","5","2","1","1","4","2","772058156674322434","吴","398","","","","","","","","","","","","","","","","","","","","","","","","","","","","","","","","","","","","","","","","","",""
"615","<p style=""color:rgb(150, 250, 100); font-size: 35px;"">自己的</p>","e","categorize-html","20","465130","0.0-6.0-0.0-2.0-1.5","4","3","4","3","3","4","4","3","4","3","5","5","4","4","5","5","4","5","4","5","2","1","2","2","2","1","1","1","2","1","0","1","1","0","0","0","1","1","1","1","0","1","0","1","4","1","2","1","2","5","2","1","1","4","2","772058156674322434","吴","398","","","","","","","","","","","","","","","","","","","true","1","1","ability","615","self","自己的","","","","","","","","","","","","","","","","",""
"null","","null","html-keyboard-response","21","465388","0.0-6.0-0.0-2.0-0.6","4","3","4","3","3","4","4","3","4","3","5","5","4","4","5","5","4","5","4","5","2","1","2","2","2","1","1","1","2","1","0","1","1","0","0","0","1","1","1","1","0","1","0","1","4","1","2","1","2","5","2","1","1","4","2","772058156674322434","吴","398","","","","","","","","","","","","","","","","","","","","","","","","","","","","","","","","","","","","","","","","","",""
"552","<p style=""color:rgb(150, 250, 100); font-size: 35px;"">本人的</p>","e","categorize-html","22","465946","0.0-6.0-0.0-2.0-1.6","4","3","4","3","3","4","4","3","4","3","5","5","4","4","5","5","4","5","4","5","2","1","2","2","2","1","1","1","2","1","0","1","1","0","0","0","1","1","1","1","0","1","0","1","4","1","2","1","2","5","2","1","1","4","2","772058156674322434","吴","398","","","","","","","","","","","","","","","","","","","true","1","1","ability","552","self","本人的","","","","","","","","","","","","","","","","",""
"null","","null","html-keyboard-response","23","466212","0.0-6.0-0.0-2.0-0.7","4","3","4","3","3","4","4","3","4","3","5","5","4","4","5","5","4","5","4","5","2","1","2","2","2","1","1","1","2","1","0","1","1","0","0","0","1","1","1","1","0","1","0","1","4","1","2","1","2","5","2","1","1","4","2","772058156674322434","吴","398","","","","","","","","","","","","","","","","","","","","","","","","","","","","","","","","","","","","","","","","","",""
"523","<p style=""color:rgb(150, 250, 100); font-size: 35px;"">我</p>","e","categorize-html","24","466741","0.0-6.0-0.0-2.0-1.7","4","3","4","3","3","4","4","3","4","3","5","5","4","4","5","5","4","5","4","5","2","1","2","2","2","1","1","1","2","1","0","1","1","0","0","0","1","1","1","1","0","1","0","1","4","1","2","1","2","5","2","1","1","4","2","772058156674322434","吴","398","","","","","","","","","","","","","","","","","","","true","1","1","ability","523","self","我","","","","","","","","","","","","","","","","",""
"null","","null","html-keyboard-response","25","467005","0.0-6.0-0.0-2.0-0.8","4","3","4","3","3","4","4","3","4","3","5","5","4","4","5","5","4","5","4","5","2","1","2","2","2","1","1","1","2","1","0","1","1","0","0","0","1","1","1","1","0","1","0","1","4","1","2","1","2","5","2","1","1","4","2","772058156674322434","吴","398","","","","","","","","","","","","","","","","","","","","","","","","","","","","","","","","","","","","","","","","","",""
"514","<p style=""color:rgb(150, 250, 100); font-size: 35px;"">别人的</p>","i","categorize-html","26","467526","0.0-6.0-0.0-2.0-1.8","4","3","4","3","3","4","4","3","4","3","5","5","4","4","5","5","4","5","4","5","2","1","2","2","2","1","1","1","2","1","0","1","1","0","0","0","1","1","1","1","0","1","0","1","4","1","2","1","2","5","2","1","1","4","2","772058156674322434","吴","398","","","","","","","","","","","","","","","","","","","true","1","1","ability","514","other","别人的","","","","","","","","","","","","","","","","",""
"null","","null","html-keyboard-response","27","467782","0.0-6.0-0.0-2.0-0.9","4","3","4","3","3","4","4","3","4","3","5","5","4","4","5","5","4","5","4","5","2","1","2","2","2","1","1","1","2","1","0","1","1","0","0","0","1","1","1","1","0","1","0","1","4","1","2","1","2","5","2","1","1","4","2","772058156674322434","吴","398","","","","","","","","","","","","","","","","","","","","","","","","","","","","","","","","","","","","","","","","","",""
"595","<p style=""color:rgb(150, 250, 100); font-size: 35px;"">别人</p>","e","categorize-html","28","468864","0.0-6.0-0.0-2.0-1.9","4","3","4","3","3","4","4","3","4","3","5","5","4","4","5","5","4","5","4","5","2","1","2","2","2","1","1","1","2","1","0","1","1","0","0","0","1","1","1","1","0","1","0","1","4","1","2","1","2","5","2","1","1","4","2","772058156674322434","吴","398","","","","","","","","","","","","","","","","","","","false","1","1","ability","595","other","别人","","","","","","","","","","","","","","","","",""
"null","","null","html-keyboard-response","29","469116","0.0-6.0-0.0-2.0-0.10","4","3","4","3","3","4","4","3","4","3","5","5","4","4","5","5","4","5","4","5","2","1","2","2","2","1","1","1","2","1","0","1","1","0","0","0","1","1","1","1","0","1","0","1","4","1","2","1","2","5","2","1","1","4","2","772058156674322434","吴","398","","","","","","","","","","","","","","","","","","","","","","","","","","","","","","","","","","","","","","","","","",""
"637","<p style=""color:rgb(150, 250, 100); font-size: 35px;"">我的</p>","e","categorize-html","30","469759","0.0-6.0-0.0-2.0-1.10","4","3","4","3","3","4","4","3","4","3","5","5","4","4","5","5","4","5","4","5","2","1","2","2","2","1","1","1","2","1","0","1","1","0","0","0","1","1","1","1","0","1","0","1","4","1","2","1","2","5","2","1","1","4","2","772058156674322434","吴","398","","","","","","","","","","","","","","","","","","","true","1","1","ability","637","self","我的","","","","","","","","","","","","","","","","",""
"null","","null","html-keyboard-response","31","470015","0.0-6.0-0.0-2.0-0.11","4","3","4","3","3","4","4","3","4","3","5","5","4","4","5","5","4","5","4","5","2","1","2","2","2","1","1","1","2","1","0","1","1","0","0","0","1","1","1","1","0","1","0","1","4","1","2","1","2","5","2","1","1","4","2","772058156674322434","吴","398","","","","","","","","","","","","","","","","","","","","","","","","","","","","","","","","","","","","","","","","","",""
"525","<p style=""color:rgb(150, 250, 100); font-size: 35px;"">他的</p>","i","categorize-html","32","470546","0.0-6.0-0.0-2.0-1.11","4","3","4","3","3","4","4","3","4","3","5","5","4","4","5","5","4","5","4","5","2","1","2","2","2","1","1","1","2","1","0","1","1","0","0","0","1","1","1","1","0","1","0","1","4","1","2","1","2","5","2","1","1","4","2","772058156674322434","吴","398","","","","","","","","","","","","","","","","","","","true","1","1","ability","525","other","他的","","","","","","","","","","","","","","","","",""
"81262","
    <div class=""tag-bottom""><p>
    —— 任务2：对“积极”词和“消极”词分类 ——<p/>   
    <span style=""color:#78DCE8""><b>注意上方，类别标签和需要分类的词语都已经改变</b></span><p/>
    <span style=""color:#FFD866""><b>请根据上方标签的提示，尽可能正确并且快速地做出按键反应</b></span><p/>
    当按键错误时屏幕中会出现<span style=""color:red""> X </span>，需要按另一个键纠正才能继续<br/><p/>
    请把双手食指分别放在键盘的“E”键和“I”键上<p/>
    按<空格键>开始
    </p></div>"," ","html-keyboard-response","33","551808","0.0-6.0-0.0-3.0","4","3","4","3","3","4","4","3","4","3","5","5","4","4","5","5","4","5","4","5","2","1","2","2","2","1","1","1","2","1","0","1","1","0","0","0","1","1","1","1","0","1","0","1","4","1","2","1","2","5","2","1","1","4","2","772058156674322434","吴","398","","","","","","","","","","","","","","","","","","","","","","","","","","","","","","","","","","","","","","","","","",""
"null","","null","html-keyboard-response","34","552068","0.0-6.0-0.0-4.0-0.0","4","3","4","3","3","4","4","3","4","3","5","5","4","4","5","5","4","5","4","5","2","1","2","2","2","1","1","1","2","1","0","1","1","0","0","0","1","1","1","1","0","1","0","1","4","1","2","1","2","5","2","1","1","4","2","772058156674322434","吴","398","","","","","","","","","","","","","","","","","","","","","","","","","","","","","","","","","","","","","","","","","",""
"1165","<p style=""color:white; font-size: 35px;"">低能</p>","i","categorize-html","35","553240","0.0-6.0-0.0-4.0-1.0","4","3","4","3","3","4","4","3","4","3","5","5","4","4","5","5","4","5","4","5","2","1","2","2","2","1","1","1","2","1","0","1","1","0","0","0","1","1","1","1","0","1","0","1","4","1","2","1","2","5","2","1","1","4","2","772058156674322434","吴","398","","","","","","","","","","","","","","","","","","","true","2","2","ability","1165","negative","低能","","","","","","","","","","","","","","","","",""
"null","","null","html-keyboard-response","36","553513","0.0-6.0-0.0-4.0-0.1","4","3","4","3","3","4","4","3","4","3","5","5","4","4","5","5","4","5","4","5","2","1","2","2","2","1","1","1","2","1","0","1","1","0","0","0","1","1","1","1","0","1","0","1","4","1","2","1","2","5","2","1","1","4","2","772058156674322434","吴","398","","","","","","","","","","","","","","","","","","","","","","","","","","","","","","","","","","","","","","","","","",""
"613","<p style=""color:white; font-size: 35px;"">全能</p>","e","categorize-html","37","554135","0.0-6.0-0.0-4.0-1.1","4","3","4","3","3","4","4","3","4","3","5","5","4","4","5","5","4","5","4","5","2","1","2","2","2","1","1","1","2","1","0","1","1","0","0","0","1","1","1","1","0","1","0","1","4","1","2","1","2","5","2","1","1","4","2","772058156674322434","吴","398","","","","","","","","","","","","","","","","","","","true","2","2","ability","613","positive","全能","","","","","","","","","","","","","","","","",""
"null","","null","html-keyboard-response","38","554399","0.0-6.0-0.0-4.0-0.2","4","3","4","3","3","4","4","3","4","3","5","5","4","4","5","5","4","5","4","5","2","1","2","2","2","1","1","1","2","1","0","1","1","0","0","0","1","1","1","1","0","1","0","1","4","1","2","1","2","5","2","1","1","4","2","772058156674322434","吴","398","","","","","","","","","","","","","","","","","","","","","","","","","","","","","","","","","","","","","","","","","",""
"652","<p style=""color:white; font-size: 35px;"">高效</p>","e","categorize-html","39","555057","0.0-6.0-0.0-4.0-1.2","4","3","4","3","3","4","4","3","4","3","5","5","4","4","5","5","4","5","4","5","2","1","2","2","2","1","1","1","2","1","0","1","1","0","0","0","1","1","1","1","0","1","0","1","4","1","2","1","2","5","2","1","1","4","2","772058156674322434","吴","398","","","","","","","","","","","","","","","","","","","true","2","2","ability","652","positive","高效","","","","","","","","","","","","","","","","",""
"null","","null","html-keyboard-response","40","555317","0.0-6.0-0.0-4.0-0.3","4","3","4","3","3","4","4","3","4","3","5","5","4","4","5","5","4","5","4","5","2","1","2","2","2","1","1","1","2","1","0","1","1","0","0","0","1","1","1","1","0","1","0","1","4","1","2","1","2","5","2","1","1","4","2","772058156674322434","吴","398","","","","","","","","","","","","","","","","","","","","","","","","","","","","","","","","","","","","","","","","","",""
"729","<p style=""color:white; font-size: 35px;"">愚钝</p>","i","categorize-html","41","556052","0.0-6.0-0.0-4.0-1.3","4","3","4","3","3","4","4","3","4","3","5","5","4","4","5","5","4","5","4","5","2","1","2","2","2","1","1","1","2","1","0","1","1","0","0","0","1","1","1","1","0","1","0","1","4","1","2","1","2","5","2","1","1","4","2","772058156674322434","吴","398","","","","","","","","","","","","","","","","","","","true","2","2","ability","729","negative","愚钝","","","","","","","","","","","","","","","","",""
"null","","null","html-keyboard-response","42","556312","0.0-6.0-0.0-4.0-0.4","4","3","4","3","3","4","4","3","4","3","5","5","4","4","5","5","4","5","4","5","2","1","2","2","2","1","1","1","2","1","0","1","1","0","0","0","1","1","1","1","0","1","0","1","4","1","2","1","2","5","2","1","1","4","2","772058156674322434","吴","398","","","","","","","","","","","","","","","","","","","","","","","","","","","","","","","","","","","","","","","","","",""
"843","<p style=""color:white; font-size: 35px;"">全才</p>","e","categorize-html","43","557163","0.0-6.0-0.0-4.0-1.4","4","3","4","3","3","4","4","3","4","3","5","5","4","4","5","5","4","5","4","5","2","1","2","2","2","1","1","1","2","1","0","1","1","0","0","0","1","1","1","1","0","1","0","1","4","1","2","1","2","5","2","1","1","4","2","772058156674322434","吴","398","","","","","","","","","","","","","","","","","","","true","2","2","ability","843","positive","全才","","","","","","","","","","","","","","","","",""
"null","","null","html-keyboard-response","44","557423","0.0-6.0-0.0-4.0-0.5","4","3","4","3","3","4","4","3","4","3","5","5","4","4","5","5","4","5","4","5","2","1","2","2","2","1","1","1","2","1","0","1","1","0","0","0","1","1","1","1","0","1","0","1","4","1","2","1","2","5","2","1","1","4","2","772058156674322434","吴","398","","","","","","","","","","","","","","","","","","","","","","","","","","","","","","","","","","","","","","","","","",""
"588","<p style=""color:white; font-size: 35px;"">能干</p>","e","categorize-html","45","558018","0.0-6.0-0.0-4.0-1.5","4","3","4","3","3","4","4","3","4","3","5","5","4","4","5","5","4","5","4","5","2","1","2","2","2","1","1","1","2","1","0","1","1","0","0","0","1","1","1","1","0","1","0","1","4","1","2","1","2","5","2","1","1","4","2","772058156674322434","吴","398","","","","","","","","","","","","","","","","","","","true","2","2","ability","588","positive","能干","","","","","","","","","","","","","","","","",""
"null","","null","html-keyboard-response","46","558281","0.0-6.0-0.0-4.0-0.6","4","3","4","3","3","4","4","3","4","3","5","5","4","4","5","5","4","5","4","5","2","1","2","2","2","1","1","1","2","1","0","1","1","0","0","0","1","1","1","1","0","1","0","1","4","1","2","1","2","5","2","1","1","4","2","772058156674322434","吴","398","","","","","","","","","","","","","","","","","","","","","","","","","","","","","","","","","","","","","","","","","",""
"1567","<p style=""color:white; font-size: 35px;"">无能</p>","i","categorize-html","47","559855","0.0-6.0-0.0-4.0-1.6","4","3","4","3","3","4","4","3","4","3","5","5","4","4","5","5","4","5","4","5","2","1","2","2","2","1","1","1","2","1","0","1","1","0","0","0","1","1","1","1","0","1","0","1","4","1","2","1","2","5","2","1","1","4","2","772058156674322434","吴","398","","","","","","","","","","","","","","","","","","","true","2","2","ability","1567","negative","无能","","","","","","","","","","","","","","","","",""
"null","","null","html-keyboard-response","48","560111","0.0-6.0-0.0-4.0-0.7","4","3","4","3","3","4","4","3","4","3","5","5","4","4","5","5","4","5","4","5","2","1","2","2","2","1","1","1","2","1","0","1","1","0","0","0","1","1","1","1","0","1","0","1","4","1","2","1","2","5","2","1","1","4","2","772058156674322434","吴","398","","","","","","","","","","","","","","","","","","","","","","","","","","","","","","","","","","","","","","","","","",""
"790","<p style=""color:white; font-size: 35px;"">天才</p>","e","categorize-html","49","560907","0.0-6.0-0.0-4.0-1.7","4","3","4","3","3","4","4","3","4","3","5","5","4","4","5","5","4","5","4","5","2","1","2","2","2","1","1","1","2","1","0","1","1","0","0","0","1","1","1","1","0","1","0","1","4","1","2","1","2","5","2","1","1","4","2","772058156674322434","吴","398","","","","","","","","","","","","","","","","","","","true","2","2","ability","790","positive","天才","","","","","","","","","","","","","","","","",""
"null","","null","html-keyboard-response","50","561168","0.0-6.0-0.0-4.0-0.8","4","3","4","3","3","4","4","3","4","3","5","5","4","4","5","5","4","5","4","5","2","1","2","2","2","1","1","1","2","1","0","1","1","0","0","0","1","1","1","1","0","1","0","1","4","1","2","1","2","5","2","1","1","4","2","772058156674322434","吴","398","","","","","","","","","","","","","","","","","","","","","","","","","","","","","","","","","","","","","","","","","",""
"826","<p style=""color:white; font-size: 35px;"">废物</p>","i","categorize-html","51","561999","0.0-6.0-0.0-4.0-1.8","4","3","4","3","3","4","4","3","4","3","5","5","4","4","5","5","4","5","4","5","2","1","2","2","2","1","1","1","2","1","0","1","1","0","0","0","1","1","1","1","0","1","0","1","4","1","2","1","2","5","2","1","1","4","2","772058156674322434","吴","398","","","","","","","","","","","","","","","","","","","true","2","2","ability","826","negative","废物","","","","","","","","","","","","","","","","",""
"null","","null","html-keyboard-response","52","562251","0.0-6.0-0.0-4.0-0.9","4","3","4","3","3","4","4","3","4","3","5","5","4","4","5","5","4","5","4","5","2","1","2","2","2","1","1","1","2","1","0","1","1","0","0","0","1","1","1","1","0","1","0","1","4","1","2","1","2","5","2","1","1","4","2","772058156674322434","吴","398","","","","","","","","","","","","","","","","","","","","","","","","","","","","","","","","","","","","","","","","","",""
"913","<p style=""color:white; font-size: 35px;"">拙笨</p>","i","categorize-html","53","563170","0.0-6.0-0.0-4.0-1.9","4","3","4","3","3","4","4","3","4","3","5","5","4","4","5","5","4","5","4","5","2","1","2","2","2","1","1","1","2","1","0","1","1","0","0","0","1","1","1","1","0","1","0","1","4","1","2","1","2","5","2","1","1","4","2","772058156674322434","吴","398","","","","","","","","","","","","","","","","","","","true","2","2","ability","913","negative","拙笨","","","","","","","","","","","","","","","","",""
"null","","null","html-keyboard-response","54","563426","0.0-6.0-0.0-4.0-0.10","4","3","4","3","3","4","4","3","4","3","5","5","4","4","5","5","4","5","4","5","2","1","2","2","2","1","1","1","2","1","0","1","1","0","0","0","1","1","1","1","0","1","0","1","4","1","2","1","2","5","2","1","1","4","2","772058156674322434","吴","398","","","","","","","","","","","","","","","","","","","","","","","","","","","","","","","","","","","","","","","","","",""
"621","<p style=""color:white; font-size: 35px;"">蠢笨</p>","i","categorize-html","55","564054","0.0-6.0-0.0-4.0-1.10","4","3","4","3","3","4","4","3","4","3","5","5","4","4","5","5","4","5","4","5","2","1","2","2","2","1","1","1","2","1","0","1","1","0","0","0","1","1","1","1","0","1","0","1","4","1","2","1","2","5","2","1","1","4","2","772058156674322434","吴","398","","","","","","","","","","","","","","","","","","","true","2","2","ability","621","negative","蠢笨","","","","","","","","","","","","","","","","",""
"null","","null","html-keyboard-response","56","564313","0.0-6.0-0.0-4.0-0.11","4","3","4","3","3","4","4","3","4","3","5","5","4","4","5","5","4","5","4","5","2","1","2","2","2","1","1","1","2","1","0","1","1","0","0","0","1","1","1","1","0","1","0","1","4","1","2","1","2","5","2","1","1","4","2","772058156674322434","吴","398","","","","","","","","","","","","","","","","","","","","","","","","","","","","","","","","","","","","","","","","","",""
"743","<p style=""color:white; font-size: 35px;"">精干</p>","i","categorize-html","57","565772","0.0-6.0-0.0-4.0-1.11","4","3","4","3","3","4","4","3","4","3","5","5","4","4","5","5","4","5","4","5","2","1","2","2","2","1","1","1","2","1","0","1","1","0","0","0","1","1","1","1","0","1","0","1","4","1","2","1","2","5","2","1","1","4","2","772058156674322434","吴","398","","","","","","","","","","","","","","","","","","","false","2","2","ability","743","positive","精干","","","","","","","","","","","","","","","","",""
"3854","
    <div class=""tag-bottom""><p>
    —— 任务3：对“自我/积极”词和“他人/消极”词分类 ——<p/>
    <span style=""color:#78DCE8""><b>注意上方，之前的四类词语将混合在一起交替呈现</b></span><p/>
    <span style=""color:#FFD866""><b>请根据上方标签的提示，尽可能正确并且快速地做出按键反应</b></span><p/>
    当按键错误时屏幕中会出现<span style=""color:red""> X </span>，需要按另一个键纠正才能继续<br/><p/>
    请把双手食指分别放在键盘的“E”键和“I”键上<p/>
    按<空格键>开始
    </p></div>"," ","html-keyboard-response","58","569626","0.0-6.0-0.0-5.0","4","3","4","3","3","4","4","3","4","3","5","5","4","4","5","5","4","5","4","5","2","1","2","2","2","1","1","1","2","1","0","1","1","0","0","0","1","1","1","1","0","1","0","1","4","1","2","1","2","5","2","1","1","4","2","772058156674322434","吴","398","","","","","","","","","","","","","","","","","","","","","","","","","","","","","","","","","","","","","","","","","",""
"null","","null","html-keyboard-response","59","569889","0.0-6.0-0.0-6.0-0.0","4","3","4","3","3","4","4","3","4","3","5","5","4","4","5","5","4","5","4","5","2","1","2","2","2","1","1","1","2","1","0","1","1","0","0","0","1","1","1","1","0","1","0","1","4","1","2","1","2","5","2","1","1","4","2","772058156674322434","吴","398","","","","","","","","","","","","","","","","","","","","","","","","","","","","","","","","","","","","","","","","","",""
"1485","<p style=""color:rgb(150, 250, 100); font-size: 35px;"">他的</p>","i","categorize-html","60","571380","0.0-6.0-0.0-6.0-1.0","4","3","4","3","3","4","4","3","4","3","5","5","4","4","5","5","4","5","4","5","2","1","2","2","2","1","1","1","2","1","0","1","1","0","0","0","1","1","1","1","0","1","0","1","4","1","2","1","2","5","2","1","1","4","2","772058156674322434","吴","398","","","","","","","","","","","","","","","","","","","true","3","3","ability","1485","other","他的","","","","","","","","","","","","","","","","",""
"null","","null","html-keyboard-response","61","571646","0.0-6.0-0.0-6.0-0.1","4","3","4","3","3","4","4","3","4","3","5","5","4","4","5","5","4","5","4","5","2","1","2","2","2","1","1","1","2","1","0","1","1","0","0","0","1","1","1","1","0","1","0","1","4","1","2","1","2","5","2","1","1","4","2","772058156674322434","吴","398","","","","","","","","","","","","","","","","","","","","","","","","","","","","","","","","","","","","","","","","","",""
"1724","<p style=""color:white; font-size: 35px;"">无能</p>","i","categorize-html","62","573378","0.0-6.0-0.0-6.0-1.1","4","3","4","3","3","4","4","3","4","3","5","5","4","4","5","5","4","5","4","5","2","1","2","2","2","1","1","1","2","1","0","1","1","0","0","0","1","1","1","1","0","1","0","1","4","1","2","1","2","5","2","1","1","4","2","772058156674322434","吴","398","","","","","","","","","","","","","","","","","","","true","3","3","ability","1724","negative","无能","","","","","","","","","","","","","","","","",""
"null","","null","html-keyboard-response","63","573658","0.0-6.0-0.0-6.0-0.2","4","3","4","3","3","4","4","3","4","3","5","5","4","4","5","5","4","5","4","5","2","1","2","2","2","1","1","1","2","1","0","1","1","0","0","0","1","1","1","1","0","1","0","1","4","1","2","1","2","5","2","1","1","4","2","772058156674322434","吴","398","","","","","","","","","","","","","","","","","","","","","","","","","","","","","","","","","","","","","","","","","",""
"581","<p style=""color:rgb(150, 250, 100); font-size: 35px;"">我</p>","e","categorize-html","64","574246","0.0-6.0-0.0-6.0-1.2","4","3","4","3","3","4","4","3","4","3","5","5","4","4","5","5","4","5","4","5","2","1","2","2","2","1","1","1","2","1","0","1","1","0","0","0","1","1","1","1","0","1","0","1","4","1","2","1","2","5","2","1","1","4","2","772058156674322434","吴","398","","","","","","","","","","","","","","","","","","","true","3","3","ability","581","self","我","","","","","","","","","","","","","","","","",""
"null","","null","html-keyboard-response","65","574501","0.0-6.0-0.0-6.0-0.3","4","3","4","3","3","4","4","3","4","3","5","5","4","4","5","5","4","5","4","5","2","1","2","2","2","1","1","1","2","1","0","1","1","0","0","0","1","1","1","1","0","1","0","1","4","1","2","1","2","5","2","1","1","4","2","772058156674322434","吴","398","","","","","","","","","","","","","","","","","","","","","","","","","","","","","","","","","","","","","","","","","",""
"861","<p style=""color:white; font-size: 35px;"">精干</p>","e","categorize-html","66","575370","0.0-6.0-0.0-6.0-1.3","4","3","4","3","3","4","4","3","4","3","5","5","4","4","5","5","4","5","4","5","2","1","2","2","2","1","1","1","2","1","0","1","1","0","0","0","1","1","1","1","0","1","0","1","4","1","2","1","2","5","2","1","1","4","2","772058156674322434","吴","398","","","","","","","","","","","","","","","","","","","true","3","3","ability","861","positive","精干","","","","","","","","","","","","","","","","",""
"null","","null","html-keyboard-response","67","575628","0.0-6.0-0.0-6.0-0.4","4","3","4","3","3","4","4","3","4","3","5","5","4","4","5","5","4","5","4","5","2","1","2","2","2","1","1","1","2","1","0","1","1","0","0","0","1","1","1","1","0","1","0","1","4","1","2","1","2","5","2","1","1","4","2","772058156674322434","吴","398","","","","","","","","","","","","","","","","","","","","","","","","","","","","","","","","","","","","","","","","","",""
"704","<p style=""color:rgb(150, 250, 100); font-size: 35px;"">本人的</p>","e","categorize-html","68","576339","0.0-6.0-0.0-6.0-1.4","4","3","4","3","3","4","4","3","4","3","5","5","4","4","5","5","4","5","4","5","2","1","2","2","2","1","1","1","2","1","0","1","1","0","0","0","1","1","1","1","0","1","0","1","4","1","2","1","2","5","2","1","1","4","2","772058156674322434","吴","398","","","","","","","","","","","","","","","","","","","true","3","3","ability","704","self","本人的","","","","","","","","","","","","","","","","",""
"null","","null","html-keyboard-response","69","576594","0.0-6.0-0.0-6.0-0.5","4","3","4","3","3","4","4","3","4","3","5","5","4","4","5","5","4","5","4","5","2","1","2","2","2","1","1","1","2","1","0","1","1","0","0","0","1","1","1","1","0","1","0","1","4","1","2","1","2","5","2","1","1","4","2","772058156674322434","吴","398","","","","","","","","","","","","","","","","","","","","","","","","","","","","","","","","","","","","","","","","","",""
"1195","<p style=""color:white; font-size: 35px;"">废物</p>","i","categorize-html","70","577797","0.0-6.0-0.0-6.0-1.5","4","3","4","3","3","4","4","3","4","3","5","5","4","4","5","5","4","5","4","5","2","1","2","2","2","1","1","1","2","1","0","1","1","0","0","0","1","1","1","1","0","1","0","1","4","1","2","1","2","5","2","1","1","4","2","772058156674322434","吴","398","","","","","","","","","","","","","","","","","","","true","3","3","ability","1195","negative","废物","","","","","","","","","","","","","","","","",""
"null","","null","html-keyboard-response","71","578061","0.0-6.0-0.0-6.0-0.6","4","3","4","3","3","4","4","3","4","3","5","5","4","4","5","5","4","5","4","5","2","1","2","2","2","1","1","1","2","1","0","1","1","0","0","0","1","1","1","1","0","1","0","1","4","1","2","1","2","5","2","1","1","4","2","772058156674322434","吴","398","","","","","","","","","","","","","","","","","","","","","","","","","","","","","","","","","","","","","","","","","",""
"974","<p style=""color:rgb(150, 250, 100); font-size: 35px;"">别人的</p>","i","categorize-html","72","579041","0.0-6.0-0.0-6.0-1.6","4","3","4","3","3","4","4","3","4","3","5","5","4","4","5","5","4","5","4","5","2","1","2","2","2","1","1","1","2","1","0","1","1","0","0","0","1","1","1","1","0","1","0","1","4","1","2","1","2","5","2","1","1","4","2","772058156674322434","吴","398","","","","","","","","","","","","","","","","","","","true","3","3","ability","974","other","别人的","","","","","","","","","","","","","","","","",""
"null","","null","html-keyboard-response","73","579294","0.0-6.0-0.0-6.0-0.7","4","3","4","3","3","4","4","3","4","3","5","5","4","4","5","5","4","5","4","5","2","1","2","2","2","1","1","1","2","1","0","1","1","0","0","0","1","1","1","1","0","1","0","1","4","1","2","1","2","5","2","1","1","4","2","772058156674322434","吴","398","","","","","","","","","","","","","","","","","","","","","","","","","","","","","","","","","","","","","","","","","",""
"3697","<p style=""color:white; font-size: 35px;"">能干</p>","e","categorize-html","74","582999","0.0-6.0-0.0-6.0-1.7","4","3","4","3","3","4","4","3","4","3","5","5","4","4","5","5","4","5","4","5","2","1","2","2","2","1","1","1","2","1","0","1","1","0","0","0","1","1","1","1","0","1","0","1","4","1","2","1","2","5","2","1","1","4","2","772058156674322434","吴","398","","","","","","","","","","","","","","","","","","","true","3","3","ability","3697","positive","能干","","","","","","","","","","","","","","","","",""
"null","","null","html-keyboard-response","75","583265","0.0-6.0-0.0-6.0-0.8","4","3","4","3","3","4","4","3","4","3","5","5","4","4","5","5","4","5","4","5","2","1","2","2","2","1","1","1","2","1","0","1","1","0","0","0","1","1","1","1","0","1","0","1","4","1","2","1","2","5","2","1","1","4","2","772058156674322434","吴","398","","","","","","","","","","","","","","","","","","","","","","","","","","","","","","","","","","","","","","","","","",""
"625","<p style=""color:rgb(150, 250, 100); font-size: 35px;"">我的</p>","e","categorize-html","76","583896","0.0-6.0-0.0-6.0-1.8","4","3","4","3","3","4","4","3","4","3","5","5","4","4","5","5","4","5","4","5","2","1","2","2","2","1","1","1","2","1","0","1","1","0","0","0","1","1","1","1","0","1","0","1","4","1","2","1","2","5","2","1","1","4","2","772058156674322434","吴","398","","","","","","","","","","","","","","","","","","","true","3","3","ability","625","self","我的","","","","","","","","","","","","","","","","",""
"null","","null","html-keyboard-response","77","584153","0.0-6.0-0.0-6.0-0.9","4","3","4","3","3","4","4","3","4","3","5","5","4","4","5","5","4","5","4","5","2","1","2","2","2","1","1","1","2","1","0","1","1","0","0","0","1","1","1","1","0","1","0","1","4","1","2","1","2","5","2","1","1","4","2","772058156674322434","吴","398","","","","","","","","","","","","","","","","","","","","","","","","","","","","","","","","","","","","","","","","","",""
"845","<p style=""color:white; font-size: 35px;"">全能</p>","e","categorize-html","78","585010","0.0-6.0-0.0-6.0-1.9","4","3","4","3","3","4","4","3","4","3","5","5","4","4","5","5","4","5","4","5","2","1","2","2","2","1","1","1","2","1","0","1","1","0","0","0","1","1","1","1","0","1","0","1","4","1","2","1","2","5","2","1","1","4","2","772058156674322434","吴","398","","","","","","","","","","","","","","","","","","","true","3","3","ability","845","positive","全能","","","","","","","","","","","","","","","","",""
"null","","null","html-keyboard-response","79","585265","0.0-6.0-0.0-6.0-0.10","4","3","4","3","3","4","4","3","4","3","5","5","4","4","5","5","4","5","4","5","2","1","2","2","2","1","1","1","2","1","0","1","1","0","0","0","1","1","1","1","0","1","0","1","4","1","2","1","2","5","2","1","1","4","2","772058156674322434","吴","398","","","","","","","","","","","","","","","","","","","","","","","","","","","","","","","","","","","","","","","","","",""
"608","<p style=""color:rgb(150, 250, 100); font-size: 35px;"">别人</p>","i","categorize-html","80","585880","0.0-6.0-0.0-6.0-1.10","4","3","4","3","3","4","4","3","4","3","5","5","4","4","5","5","4","5","4","5","2","1","2","2","2","1","1","1","2","1","0","1","1","0","0","0","1","1","1","1","0","1","0","1","4","1","2","1","2","5","2","1","1","4","2","772058156674322434","吴","398","","","","","","","","","","","","","","","","","","","true","3","3","ability","608","other","别人","","","","","","","","","","","","","","","","",""
"null","","null","html-keyboard-response","81","586143","0.0-6.0-0.0-6.0-0.11","4","3","4","3","3","4","4","3","4","3","5","5","4","4","5","5","4","5","4","5","2","1","2","2","2","1","1","1","2","1","0","1","1","0","0","0","1","1","1","1","0","1","0","1","4","1","2","1","2","5","2","1","1","4","2","772058156674322434","吴","398","","","","","","","","","","","","","","","","","","","","","","","","","","","","","","","","","","","","","","","","","",""
"1406","<p style=""color:white; font-size: 35px;"">愚钝</p>","i","categorize-html","82","587558","0.0-6.0-0.0-6.0-1.11","4","3","4","3","3","4","4","3","4","3","5","5","4","4","5","5","4","5","4","5","2","1","2","2","2","1","1","1","2","1","0","1","1","0","0","0","1","1","1","1","0","1","0","1","4","1","2","1","2","5","2","1","1","4","2","772058156674322434","吴","398","","","","","","","","","","","","","","","","","","","true","3","3","ability","1406","negative","愚钝","","","","","","","","","","","","","","","","",""
"null","","null","html-keyboard-response","83","587823","0.0-6.0-0.0-6.0-0.12","4","3","4","3","3","4","4","3","4","3","5","5","4","4","5","5","4","5","4","5","2","1","2","2","2","1","1","1","2","1","0","1","1","0","0","0","1","1","1","1","0","1","0","1","4","1","2","1","2","5","2","1","1","4","2","772058156674322434","吴","398","","","","","","","","","","","","","","","","","","","","","","","","","","","","","","","","","","","","","","","","","",""
"665","<p style=""color:rgb(150, 250, 100); font-size: 35px;"">自己的</p>","e","categorize-html","84","588497","0.0-6.0-0.0-6.0-1.12","4","3","4","3","3","4","4","3","4","3","5","5","4","4","5","5","4","5","4","5","2","1","2","2","2","1","1","1","2","1","0","1","1","0","0","0","1","1","1","1","0","1","0","1","4","1","2","1","2","5","2","1","1","4","2","772058156674322434","吴","398","","","","","","","","","","","","","","","","","","","true","3","3","ability","665","self","自己的","","","","","","","","","","","","","","","","",""
"null","","null","html-keyboard-response","85","588761","0.0-6.0-0.0-6.0-0.13","4","3","4","3","3","4","4","3","4","3","5","5","4","4","5","5","4","5","4","5","2","1","2","2","2","1","1","1","2","1","0","1","1","0","0","0","1","1","1","1","0","1","0","1","4","1","2","1","2","5","2","1","1","4","2","772058156674322434","吴","398","","","","","","","","","","","","","","","","","","","","","","","","","","","","","","","","","","","","","","","","","",""
"625","<p style=""color:white; font-size: 35px;"">天才</p>","e","categorize-html","86","589392","0.0-6.0-0.0-6.0-1.13","4","3","4","3","3","4","4","3","4","3","5","5","4","4","5","5","4","5","4","5","2","1","2","2","2","1","1","1","2","1","0","1","1","0","0","0","1","1","1","1","0","1","0","1","4","1","2","1","2","5","2","1","1","4","2","772058156674322434","吴","398","","","","","","","","","","","","","","","","","","","true","3","3","ability","625","positive","天才","","","","","","","","","","","","","","","","",""
"null","","null","html-keyboard-response","87","589647","0.0-6.0-0.0-6.0-0.14","4","3","4","3","3","4","4","3","4","3","5","5","4","4","5","5","4","5","4","5","2","1","2","2","2","1","1","1","2","1","0","1","1","0","0","0","1","1","1","1","0","1","0","1","4","1","2","1","2","5","2","1","1","4","2","772058156674322434","吴","398","","","","","","","","","","","","","","","","","","","","","","","","","","","","","","","","","","","","","","","","","",""
"786","<p style=""color:rgb(150, 250, 100); font-size: 35px;"">他</p>","i","categorize-html","88","590440","0.0-6.0-0.0-6.0-1.14","4","3","4","3","3","4","4","3","4","3","5","5","4","4","5","5","4","5","4","5","2","1","2","2","2","1","1","1","2","1","0","1","1","0","0","0","1","1","1","1","0","1","0","1","4","1","2","1","2","5","2","1","1","4","2","772058156674322434","吴","398","","","","","","","","","","","","","","","","","","","true","3","3","ability","786","other","他","","","","","","","","","","","","","","","","",""
"null","","null","html-keyboard-response","89","590723","0.0-6.0-0.0-6.0-0.15","4","3","4","3","3","4","4","3","4","3","5","5","4","4","5","5","4","5","4","5","2","1","2","2","2","1","1","1","2","1","0","1","1","0","0","0","1","1","1","1","0","1","0","1","4","1","2","1","2","5","2","1","1","4","2","772058156674322434","吴","398","","","","","","","","","","","","","","","","","","","","","","","","","","","","","","","","","","","","","","","","","",""
"856","<p style=""color:white; font-size: 35px;"">蠢笨</p>","e","categorize-html","90","592119","0.0-6.0-0.0-6.0-1.15","4","3","4","3","3","4","4","3","4","3","5","5","4","4","5","5","4","5","4","5","2","1","2","2","2","1","1","1","2","1","0","1","1","0","0","0","1","1","1","1","0","1","0","1","4","1","2","1","2","5","2","1","1","4","2","772058156674322434","吴","398","","","","","","","","","","","","","","","","","","","false","3","3","ability","1626.9565217391305","negative","蠢笨","","","","","","","","","","","","","","","","",""
"null","","null","html-keyboard-response","91","592385","0.0-6.0-0.0-6.0-0.16","4","3","4","3","3","4","4","3","4","3","5","5","4","4","5","5","4","5","4","5","2","1","2","2","2","1","1","1","2","1","0","1","1","0","0","0","1","1","1","1","0","1","0","1","4","1","2","1","2","5","2","1","1","4","2","772058156674322434","吴","398","","","","","","","","","","","","","","","","","","","","","","","","","","","","","","","","","","","","","","","","","",""
"566","<p style=""color:rgb(150, 250, 100); font-size: 35px;"">他人</p>","i","categorize-html","92","592957","0.0-6.0-0.0-6.0-1.16","4","3","4","3","3","4","4","3","4","3","5","5","4","4","5","5","4","5","4","5","2","1","2","2","2","1","1","1","2","1","0","1","1","0","0","0","1","1","1","1","0","1","0","1","4","1","2","1","2","5","2","1","1","4","2","772058156674322434","吴","398","","","","","","","","","","","","","","","","","","","true","3","3","ability","566","other","他人","","","","","","","","","","","","","","","","",""
"null","","null","html-keyboard-response","93","593223","0.0-6.0-0.0-6.0-0.17","4","3","4","3","3","4","4","3","4","3","5","5","4","4","5","5","4","5","4","5","2","1","2","2","2","1","1","1","2","1","0","1","1","0","0","0","1","1","1","1","0","1","0","1","4","1","2","1","2","5","2","1","1","4","2","772058156674322434","吴","398","","","","","","","","","","","","","","","","","","","","","","","","","","","","","","","","","","","","","","","","","",""
"1004","<p style=""color:white; font-size: 35px;"">拙笨</p>","i","categorize-html","94","594235","0.0-6.0-0.0-6.0-1.17","4","3","4","3","3","4","4","3","4","3","5","5","4","4","5","5","4","5","4","5","2","1","2","2","2","1","1","1","2","1","0","1","1","0","0","0","1","1","1","1","0","1","0","1","4","1","2","1","2","5","2","1","1","4","2","772058156674322434","吴","398","","","","","","","","","","","","","","","","","","","true","3","3","ability","1004","negative","拙笨","","","","","","","","","","","","","","","","",""
"null","","null","html-keyboard-response","95","594498","0.0-6.0-0.0-6.0-0.18","4","3","4","3","3","4","4","3","4","3","5","5","4","4","5","5","4","5","4","5","2","1","2","2","2","1","1","1","2","1","0","1","1","0","0","0","1","1","1","1","0","1","0","1","4","1","2","1","2","5","2","1","1","4","2","772058156674322434","吴","398","","","","","","","","","","","","","","","","","","","","","","","","","","","","","","","","","","","","","","","","","",""
"629","<p style=""color:rgb(150, 250, 100); font-size: 35px;"">自己</p>","e","categorize-html","96","595135","0.0-6.0-0.0-6.0-1.18","4","3","4","3","3","4","4","3","4","3","5","5","4","4","5","5","4","5","4","5","2","1","2","2","2","1","1","1","2","1","0","1","1","0","0","0","1","1","1","1","0","1","0","1","4","1","2","1","2","5","2","1","1","4","2","772058156674322434","吴","398","","","","","","","","","","","","","","","","","","","true","3","3","ability","629","self","自己","","","","","","","","","","","","","","","","",""
"null","","null","html-keyboard-response","97","595398","0.0-6.0-0.0-6.0-0.19","4","3","4","3","3","4","4","3","4","3","5","5","4","4","5","5","4","5","4","5","2","1","2","2","2","1","1","1","2","1","0","1","1","0","0","0","1","1","1","1","0","1","0","1","4","1","2","1","2","5","2","1","1","4","2","772058156674322434","吴","398","","","","","","","","","","","","","","","","","","","","","","","","","","","","","","","","","","","","","","","","","",""
"656","<p style=""color:white; font-size: 35px;"">高效</p>","e","categorize-html","98","596061","0.0-6.0-0.0-6.0-1.19","4","3","4","3","3","4","4","3","4","3","5","5","4","4","5","5","4","5","4","5","2","1","2","2","2","1","1","1","2","1","0","1","1","0","0","0","1","1","1","1","0","1","0","1","4","1","2","1","2","5","2","1","1","4","2","772058156674322434","吴","398","","","","","","","","","","","","","","","","","","","true","3","3","ability","656","positive","高效","","","","","","","","","","","","","","","","",""
"null","","null","html-keyboard-response","99","596315","0.0-6.0-0.0-6.0-0.20","4","3","4","3","3","4","4","3","4","3","5","5","4","4","5","5","4","5","4","5","2","1","2","2","2","1","1","1","2","1","0","1","1","0","0","0","1","1","1","1","0","1","0","1","4","1","2","1","2","5","2","1","1","4","2","772058156674322434","吴","398","","","","","","","","","","","","","","","","","","","","","","","","","","","","","","","","","","","","","","","","","",""
"968","<p style=""color:rgb(150, 250, 100); font-size: 35px;"">本人</p>","e","categorize-html","100","597288","0.0-6.0-0.0-6.0-1.20","4","3","4","3","3","4","4","3","4","3","5","5","4","4","5","5","4","5","4","5","2","1","2","2","2","1","1","1","2","1","0","1","1","0","0","0","1","1","1","1","0","1","0","1","4","1","2","1","2","5","2","1","1","4","2","772058156674322434","吴","398","","","","","","","","","","","","","","","","","","","true","3","3","ability","968","self","本人","","","","","","","","","","","","","","","","",""
"null","","null","html-keyboard-response","101","597545","0.0-6.0-0.0-6.0-0.21","4","3","4","3","3","4","4","3","4","3","5","5","4","4","5","5","4","5","4","5","2","1","2","2","2","1","1","1","2","1","0","1","1","0","0","0","1","1","1","1","0","1","0","1","4","1","2","1","2","5","2","1","1","4","2","772058156674322434","吴","398","","","","","","","","","","","","","","","","","","","","","","","","","","","","","","","","","","","","","","","","","",""
"810","<p style=""color:white; font-size: 35px;"">低能</p>","i","categorize-html","102","598362","0.0-6.0-0.0-6.0-1.21","4","3","4","3","3","4","4","3","4","3","5","5","4","4","5","5","4","5","4","5","2","1","2","2","2","1","1","1","2","1","0","1","1","0","0","0","1","1","1","1","0","1","0","1","4","1","2","1","2","5","2","1","1","4","2","772058156674322434","吴","398","","","","","","","","","","","","","","","","","","","true","3","3","ability","810","negative","低能","","","","","","","","","","","","","","","","",""
"null","","null","html-keyboard-response","103","598620","0.0-6.0-0.0-6.0-0.22","4","3","4","3","3","4","4","3","4","3","5","5","4","4","5","5","4","5","4","5","2","1","2","2","2","1","1","1","2","1","0","1","1","0","0","0","1","1","1","1","0","1","0","1","4","1","2","1","2","5","2","1","1","4","2","772058156674322434","吴","398","","","","","","","","","","","","","","","","","","","","","","","","","","","","","","","","","","","","","","","","","",""
"681","<p style=""color:rgb(150, 250, 100); font-size: 35px;"">他人的</p>","i","categorize-html","104","599308","0.0-6.0-0.0-6.0-1.22","4","3","4","3","3","4","4","3","4","3","5","5","4","4","5","5","4","5","4","5","2","1","2","2","2","1","1","1","2","1","0","1","1","0","0","0","1","1","1","1","0","1","0","1","4","1","2","1","2","5","2","1","1","4","2","772058156674322434","吴","398","","","","","","","","","","","","","","","","","","","true","3","3","ability","681","other","他人的","","","","","","","","","","","","","","","","",""
"null","","null","html-keyboard-response","105","599560","0.0-6.0-0.0-6.0-0.23","4","3","4","3","3","4","4","3","4","3","5","5","4","4","5","5","4","5","4","5","2","1","2","2","2","1","1","1","2","1","0","1","1","0","0","0","1","1","1","1","0","1","0","1","4","1","2","1","2","5","2","1","1","4","2","772058156674322434","吴","398","","","","","","","","","","","","","","","","","","","","","","","","","","","","","","","","","","","","","","","","","",""
"1525","<p style=""color:white; font-size: 35px;"">全才</p>","e","categorize-html","106","601094","0.0-6.0-0.0-6.0-1.23","4","3","4","3","3","4","4","3","4","3","5","5","4","4","5","5","4","5","4","5","2","1","2","2","2","1","1","1","2","1","0","1","1","0","0","0","1","1","1","1","0","1","0","1","4","1","2","1","2","5","2","1","1","4","2","772058156674322434","吴","398","","","","","","","","","","","","","","","","","","","true","3","3","ability","1525","positive","全才","","","","","","","","","","","","","","","","",""
"2102","
    <div class=""tag-bottom""><p>
    —— 任务4：对“自我/积极”词和“他人/消极”词分类 ——<p/>
    <span style=""color:#78DCE8""><b>与刚才的任务完全相同，请再次对这四类词语分类</b></span><p/>
    <span style=""color:#FFD866""><b>请根据上方标签的提示，尽可能正确并且快速地做出按键反应</b></span><p/>
    当按键错误时屏幕中会出现<span style=""color:red""> X </span>，需要按另一个键纠正才能继续<br/><p/>
    请把双手食指分别放在键盘的“E”键和“I”键上<p/>
    按<空格键>开始
    </p></div>"," ","html-keyboard-response","107","603197","0.0-6.0-0.0-7.0","4","3","4","3","3","4","4","3","4","3","5","5","4","4","5","5","4","5","4","5","2","1","2","2","2","1","1","1","2","1","0","1","1","0","0","0","1","1","1","1","0","1","0","1","4","1","2","1","2","5","2","1","1","4","2","772058156674322434","吴","398","","","","","","","","","","","","","","","","","","","","","","","","","","","","","","","","","","","","","","","","","",""
"null","","null","html-keyboard-response","108","603453","0.0-6.0-0.0-8.0-0.0","4","3","4","3","3","4","4","3","4","3","5","5","4","4","5","5","4","5","4","5","2","1","2","2","2","1","1","1","2","1","0","1","1","0","0","0","1","1","1","1","0","1","0","1","4","1","2","1","2","5","2","1","1","4","2","772058156674322434","吴","398","","","","","","","","","","","","","","","","","","","","","","","","","","","","","","","","","","","","","","","","","",""
"738","<p style=""color:rgb(150, 250, 100); font-size: 35px;"">本人</p>","e","categorize-html","109","604197","0.0-6.0-0.0-8.0-1.0","4","3","4","3","3","4","4","3","4","3","5","5","4","4","5","5","4","5","4","5","2","1","2","2","2","1","1","1","2","1","0","1","1","0","0","0","1","1","1","1","0","1","0","1","4","1","2","1","2","5","2","1","1","4","2","772058156674322434","吴","398","","","","","","","","","","","","","","","","","","","true","4","4","ability","738","self","本人","","","","","","","","","","","","","","","","",""
"null","","null","html-keyboard-response","110","604448","0.0-6.0-0.0-8.0-0.1","4","3","4","3","3","4","4","3","4","3","5","5","4","4","5","5","4","5","4","5","2","1","2","2","2","1","1","1","2","1","0","1","1","0","0","0","1","1","1","1","0","1","0","1","4","1","2","1","2","5","2","1","1","4","2","772058156674322434","吴","398","","","","","","","","","","","","","","","","","","","","","","","","","","","","","","","","","","","","","","","","","",""
"792","<p style=""color:white; font-size: 35px;"">无能</p>","i","categorize-html","111","605247","0.0-6.0-0.0-8.0-1.1","4","3","4","3","3","4","4","3","4","3","5","5","4","4","5","5","4","5","4","5","2","1","2","2","2","1","1","1","2","1","0","1","1","0","0","0","1","1","1","1","0","1","0","1","4","1","2","1","2","5","2","1","1","4","2","772058156674322434","吴","398","","","","","","","","","","","","","","","","","","","true","4","4","ability","792","negative","无能","","","","","","","","","","","","","","","","",""
"null","","null","html-keyboard-response","112","605501","0.0-6.0-0.0-8.0-0.2","4","3","4","3","3","4","4","3","4","3","5","5","4","4","5","5","4","5","4","5","2","1","2","2","2","1","1","1","2","1","0","1","1","0","0","0","1","1","1","1","0","1","0","1","4","1","2","1","2","5","2","1","1","4","2","772058156674322434","吴","398","","","","","","","","","","","","","","","","","","","","","","","","","","","","","","","","","","","","","","","","","",""
"662","<p style=""color:rgb(150, 250, 100); font-size: 35px;"">他人</p>","i","categorize-html","113","606176","0.0-6.0-0.0-8.0-1.2","4","3","4","3","3","4","4","3","4","3","5","5","4","4","5","5","4","5","4","5","2","1","2","2","2","1","1","1","2","1","0","1","1","0","0","0","1","1","1","1","0","1","0","1","4","1","2","1","2","5","2","1","1","4","2","772058156674322434","吴","398","","","","","","","","","","","","","","","","","","","true","4","4","ability","662","other","他人","","","","","","","","","","","","","","","","",""
"null","","null","html-keyboard-response","114","606431","0.0-6.0-0.0-8.0-0.3","4","3","4","3","3","4","4","3","4","3","5","5","4","4","5","5","4","5","4","5","2","1","2","2","2","1","1","1","2","1","0","1","1","0","0","0","1","1","1","1","0","1","0","1","4","1","2","1","2","5","2","1","1","4","2","772058156674322434","吴","398","","","","","","","","","","","","","","","","","","","","","","","","","","","","","","","","","","","","","","","","","",""
"776","<p style=""color:white; font-size: 35px;"">天才</p>","e","categorize-html","115","607214","0.0-6.0-0.0-8.0-1.3","4","3","4","3","3","4","4","3","4","3","5","5","4","4","5","5","4","5","4","5","2","1","2","2","2","1","1","1","2","1","0","1","1","0","0","0","1","1","1","1","0","1","0","1","4","1","2","1","2","5","2","1","1","4","2","772058156674322434","吴","398","","","","","","","","","","","","","","","","","","","true","4","4","ability","776","positive","天才","","","","","","","","","","","","","","","","",""
"null","","null","html-keyboard-response","116","607474","0.0-6.0-0.0-8.0-0.4","4","3","4","3","3","4","4","3","4","3","5","5","4","4","5","5","4","5","4","5","2","1","2","2","2","1","1","1","2","1","0","1","1","0","0","0","1","1","1","1","0","1","0","1","4","1","2","1","2","5","2","1","1","4","2","772058156674322434","吴","398","","","","","","","","","","","","","","","","","","","","","","","","","","","","","","","","","","","","","","","","","",""
"1219","<p style=""color:rgb(150, 250, 100); font-size: 35px;"">别人的</p>","i","categorize-html","117","608700","0.0-6.0-0.0-8.0-1.4","4","3","4","3","3","4","4","3","4","3","5","5","4","4","5","5","4","5","4","5","2","1","2","2","2","1","1","1","2","1","0","1","1","0","0","0","1","1","1","1","0","1","0","1","4","1","2","1","2","5","2","1","1","4","2","772058156674322434","吴","398","","","","","","","","","","","","","","","","","","","true","4","4","ability","1219","other","别人的","","","","","","","","","","","","","","","","",""
"null","","null","html-keyboard-response","118","608962","0.0-6.0-0.0-8.0-0.5","4","3","4","3","3","4","4","3","4","3","5","5","4","4","5","5","4","5","4","5","2","1","2","2","2","1","1","1","2","1","0","1","1","0","0","0","1","1","1","1","0","1","0","1","4","1","2","1","2","5","2","1","1","4","2","772058156674322434","吴","398","","","","","","","","","","","","","","","","","","","","","","","","","","","","","","","","","","","","","","","","","",""
"990","<p style=""color:white; font-size: 35px;"">愚钝</p>","i","categorize-html","119","609960","0.0-6.0-0.0-8.0-1.5","4","3","4","3","3","4","4","3","4","3","5","5","4","4","5","5","4","5","4","5","2","1","2","2","2","1","1","1","2","1","0","1","1","0","0","0","1","1","1","1","0","1","0","1","4","1","2","1","2","5","2","1","1","4","2","772058156674322434","吴","398","","","","","","","","","","","","","","","","","","","true","4","4","ability","990","negative","愚钝","","","","","","","","","","","","","","","","",""
"null","","null","html-keyboard-response","120","610216","0.0-6.0-0.0-8.0-0.6","4","3","4","3","3","4","4","3","4","3","5","5","4","4","5","5","4","5","4","5","2","1","2","2","2","1","1","1","2","1","0","1","1","0","0","0","1","1","1","1","0","1","0","1","4","1","2","1","2","5","2","1","1","4","2","772058156674322434","吴","398","","","","","","","","","","","","","","","","","","","","","","","","","","","","","","","","","","","","","","","","","",""
"654","<p style=""color:rgb(150, 250, 100); font-size: 35px;"">自己的</p>","e","categorize-html","121","610876","0.0-6.0-0.0-8.0-1.6","4","3","4","3","3","4","4","3","4","3","5","5","4","4","5","5","4","5","4","5","2","1","2","2","2","1","1","1","2","1","0","1","1","0","0","0","1","1","1","1","0","1","0","1","4","1","2","1","2","5","2","1","1","4","2","772058156674322434","吴","398","","","","","","","","","","","","","","","","","","","true","4","4","ability","654","self","自己的","","","","","","","","","","","","","","","","",""
"null","","null","html-keyboard-response","122","611138","0.0-6.0-0.0-8.0-0.7","4","3","4","3","3","4","4","3","4","3","5","5","4","4","5","5","4","5","4","5","2","1","2","2","2","1","1","1","2","1","0","1","1","0","0","0","1","1","1","1","0","1","0","1","4","1","2","1","2","5","2","1","1","4","2","772058156674322434","吴","398","","","","","","","","","","","","","","","","","","","","","","","","","","","","","","","","","","","","","","","","","",""
"748","<p style=""color:white; font-size: 35px;"">精干</p>","e","categorize-html","123","611893","0.0-6.0-0.0-8.0-1.7","4","3","4","3","3","4","4","3","4","3","5","5","4","4","5","5","4","5","4","5","2","1","2","2","2","1","1","1","2","1","0","1","1","0","0","0","1","1","1","1","0","1","0","1","4","1","2","1","2","5","2","1","1","4","2","772058156674322434","吴","398","","","","","","","","","","","","","","","","","","","true","4","4","ability","748","positive","精干","","","","","","","","","","","","","","","","",""
"null","","null","html-keyboard-response","124","612155","0.0-6.0-0.0-8.0-0.8","4","3","4","3","3","4","4","3","4","3","5","5","4","4","5","5","4","5","4","5","2","1","2","2","2","1","1","1","2","1","0","1","1","0","0","0","1","1","1","1","0","1","0","1","4","1","2","1","2","5","2","1","1","4","2","772058156674322434","吴","398","","","","","","","","","","","","","","","","","","","","","","","","","","","","","","","","","","","","","","","","","",""
"1083","<p style=""color:rgb(150, 250, 100); font-size: 35px;"">他</p>","i","categorize-html","125","613245","0.0-6.0-0.0-8.0-1.8","4","3","4","3","3","4","4","3","4","3","5","5","4","4","5","5","4","5","4","5","2","1","2","2","2","1","1","1","2","1","0","1","1","0","0","0","1","1","1","1","0","1","0","1","4","1","2","1","2","5","2","1","1","4","2","772058156674322434","吴","398","","","","","","","","","","","","","","","","","","","true","4","4","ability","1083","other","他","","","","","","","","","","","","","","","","",""
"null","","null","html-keyboard-response","126","613501","0.0-6.0-0.0-8.0-0.9","4","3","4","3","3","4","4","3","4","3","5","5","4","4","5","5","4","5","4","5","2","1","2","2","2","1","1","1","2","1","0","1","1","0","0","0","1","1","1","1","0","1","0","1","4","1","2","1","2","5","2","1","1","4","2","772058156674322434","吴","398","","","","","","","","","","","","","","","","","","","","","","","","","","","","","","","","","","","","","","","","","",""
"1934","<p style=""color:white; font-size: 35px;"">精干</p>","e","categorize-html","127","615473","0.0-6.0-0.0-8.0-1.9","4","3","4","3","3","4","4","3","4","3","5","5","4","4","5","5","4","5","4","5","2","1","2","2","2","1","1","1","2","1","0","1","1","0","0","0","1","1","1","1","0","1","0","1","4","1","2","1","2","5","2","1","1","4","2","772058156674322434","吴","398","","","","","","","","","","","","","","","","","","","true","4","4","ability","1934","positive","精干","","","","","","","","","","","","","","","","",""
"null","","null","html-keyboard-response","128","615736","0.0-6.0-0.0-8.0-0.10","4","3","4","3","3","4","4","3","4","3","5","5","4","4","5","5","4","5","4","5","2","1","2","2","2","1","1","1","2","1","0","1","1","0","0","0","1","1","1","1","0","1","0","1","4","1","2","1","2","5","2","1","1","4","2","772058156674322434","吴","398","","","","","","","","","","","","","","","","","","","","","","","","","","","","","","","","","","","","","","","","","",""
"871","<p style=""color:rgb(150, 250, 100); font-size: 35px;"">自己</p>","e","categorize-html","129","616613","0.0-6.0-0.0-8.0-1.10","4","3","4","3","3","4","4","3","4","3","5","5","4","4","5","5","4","5","4","5","2","1","2","2","2","1","1","1","2","1","0","1","1","0","0","0","1","1","1","1","0","1","0","1","4","1","2","1","2","5","2","1","1","4","2","772058156674322434","吴","398","","","","","","","","","","","","","","","","","","","true","4","4","ability","871","self","自己","","","","","","","","","","","","","","","","",""
"null","","null","html-keyboard-response","130","616876","0.0-6.0-0.0-8.0-0.11","4","3","4","3","3","4","4","3","4","3","5","5","4","4","5","5","4","5","4","5","2","1","2","2","2","1","1","1","2","1","0","1","1","0","0","0","1","1","1","1","0","1","0","1","4","1","2","1","2","5","2","1","1","4","2","772058156674322434","吴","398","","","","","","","","","","","","","","","","","","","","","","","","","","","","","","","","","","","","","","","","","",""
"1828","<p style=""color:white; font-size: 35px;"">蠢笨</p>","i","categorize-html","131","618710","0.0-6.0-0.0-8.0-1.11","4","3","4","3","3","4","4","3","4","3","5","5","4","4","5","5","4","5","4","5","2","1","2","2","2","1","1","1","2","1","0","1","1","0","0","0","1","1","1","1","0","1","0","1","4","1","2","1","2","5","2","1","1","4","2","772058156674322434","吴","398","","","","","","","","","","","","","","","","","","","true","4","4","ability","1828","negative","蠢笨","","","","","","","","","","","","","","","","",""
"null","","null","html-keyboard-response","132","618968","0.0-6.0-0.0-8.0-0.12","4","3","4","3","3","4","4","3","4","3","5","5","4","4","5","5","4","5","4","5","2","1","2","2","2","1","1","1","2","1","0","1","1","0","0","0","1","1","1","1","0","1","0","1","4","1","2","1","2","5","2","1","1","4","2","772058156674322434","吴","398","","","","","","","","","","","","","","","","","","","","","","","","","","","","","","","","","","","","","","","","","",""
"727","<p style=""color:rgb(150, 250, 100); font-size: 35px;"">本人的</p>","e","categorize-html","133","619702","0.0-6.0-0.0-8.0-1.12","4","3","4","3","3","4","4","3","4","3","5","5","4","4","5","5","4","5","4","5","2","1","2","2","2","1","1","1","2","1","0","1","1","0","0","0","1","1","1","1","0","1","0","1","4","1","2","1","2","5","2","1","1","4","2","772058156674322434","吴","398","","","","","","","","","","","","","","","","","","","true","4","4","ability","727","self","本人的","","","","","","","","","","","","","","","","",""
"null","","null","html-keyboard-response","134","619965","0.0-6.0-0.0-8.0-0.13","4","3","4","3","3","4","4","3","4","3","5","5","4","4","5","5","4","5","4","5","2","1","2","2","2","1","1","1","2","1","0","1","1","0","0","0","1","1","1","1","0","1","0","1","4","1","2","1","2","5","2","1","1","4","2","772058156674322434","吴","398","","","","","","","","","","","","","","","","","","","","","","","","","","","","","","","","","","","","","","","","","",""
"715","<p style=""color:white; font-size: 35px;"">蠢笨</p>","i","categorize-html","135","620688","0.0-6.0-0.0-8.0-1.13","4","3","4","3","3","4","4","3","4","3","5","5","4","4","5","5","4","5","4","5","2","1","2","2","2","1","1","1","2","1","0","1","1","0","0","0","1","1","1","1","0","1","0","1","4","1","2","1","2","5","2","1","1","4","2","772058156674322434","吴","398","","","","","","","","","","","","","","","","","","","true","4","4","ability","715","negative","蠢笨","","","","","","","","","","","","","","","","",""
"null","","null","html-keyboard-response","136","620949","0.0-6.0-0.0-8.0-0.14","4","3","4","3","3","4","4","3","4","3","5","5","4","4","5","5","4","5","4","5","2","1","2","2","2","1","1","1","2","1","0","1","1","0","0","0","1","1","1","1","0","1","0","1","4","1","2","1","2","5","2","1","1","4","2","772058156674322434","吴","398","","","","","","","","","","","","","","","","","","","","","","","","","","","","","","","","","","","","","","","","","",""
"681","<p style=""color:rgb(150, 250, 100); font-size: 35px;"">别人</p>","i","categorize-html","137","621640","0.0-6.0-0.0-8.0-1.14","4","3","4","3","3","4","4","3","4","3","5","5","4","4","5","5","4","5","4","5","2","1","2","2","2","1","1","1","2","1","0","1","1","0","0","0","1","1","1","1","0","1","0","1","4","1","2","1","2","5","2","1","1","4","2","772058156674322434","吴","398","","","","","","","","","","","","","","","","","","","true","4","4","ability","681","other","别人","","","","","","","","","","","","","","","","",""
"null","","null","html-keyboard-response","138","621898","0.0-6.0-0.0-8.0-0.15","4","3","4","3","3","4","4","3","4","3","5","5","4","4","5","5","4","5","4","5","2","1","2","2","2","1","1","1","2","1","0","1","1","0","0","0","1","1","1","1","0","1","0","1","4","1","2","1","2","5","2","1","1","4","2","772058156674322434","吴","398","","","","","","","","","","","","","","","","","","","","","","","","","","","","","","","","","","","","","","","","","",""
"923","<p style=""color:white; font-size: 35px;"">高效</p>","e","categorize-html","139","622828","0.0-6.0-0.0-8.0-1.15","4","3","4","3","3","4","4","3","4","3","5","5","4","4","5","5","4","5","4","5","2","1","2","2","2","1","1","1","2","1","0","1","1","0","0","0","1","1","1","1","0","1","0","1","4","1","2","1","2","5","2","1","1","4","2","772058156674322434","吴","398","","","","","","","","","","","","","","","","","","","true","4","4","ability","923","positive","高效","","","","","","","","","","","","","","","","",""
"null","","null","html-keyboard-response","140","623101","0.0-6.0-0.0-8.0-0.16","4","3","4","3","3","4","4","3","4","3","5","5","4","4","5","5","4","5","4","5","2","1","2","2","2","1","1","1","2","1","0","1","1","0","0","0","1","1","1","1","0","1","0","1","4","1","2","1","2","5","2","1","1","4","2","772058156674322434","吴","398","","","","","","","","","","","","","","","","","","","","","","","","","","","","","","","","","","","","","","","","","",""
"708","<p style=""color:rgb(150, 250, 100); font-size: 35px;"">我的</p>","e","categorize-html","141","623815","0.0-6.0-0.0-8.0-1.16","4","3","4","3","3","4","4","3","4","3","5","5","4","4","5","5","4","5","4","5","2","1","2","2","2","1","1","1","2","1","0","1","1","0","0","0","1","1","1","1","0","1","0","1","4","1","2","1","2","5","2","1","1","4","2","772058156674322434","吴","398","","","","","","","","","","","","","","","","","","","true","4","4","ability","708","self","我的","","","","","","","","","","","","","","","","",""
"null","","null","html-keyboard-response","142","624081","0.0-6.0-0.0-8.0-0.17","4","3","4","3","3","4","4","3","4","3","5","5","4","4","5","5","4","5","4","5","2","1","2","2","2","1","1","1","2","1","0","1","1","0","0","0","1","1","1","1","0","1","0","1","4","1","2","1","2","5","2","1","1","4","2","772058156674322434","吴","398","","","","","","","","","","","","","","","","","","","","","","","","","","","","","","","","","","","","","","","","","",""
"1388","<p style=""color:white; font-size: 35px;"">能干</p>","e","categorize-html","143","625476","0.0-6.0-0.0-8.0-1.17","4","3","4","3","3","4","4","3","4","3","5","5","4","4","5","5","4","5","4","5","2","1","2","2","2","1","1","1","2","1","0","1","1","0","0","0","1","1","1","1","0","1","0","1","4","1","2","1","2","5","2","1","1","4","2","772058156674322434","吴","398","","","","","","","","","","","","","","","","","","","true","4","4","ability","1388","positive","能干","","","","","","","","","","","","","","","","",""
"null","","null","html-keyboard-response","144","625733","0.0-6.0-0.0-8.0-0.18","4","3","4","3","3","4","4","3","4","3","5","5","4","4","5","5","4","5","4","5","2","1","2","2","2","1","1","1","2","1","0","1","1","0","0","0","1","1","1","1","0","1","0","1","4","1","2","1","2","5","2","1","1","4","2","772058156674322434","吴","398","","","","","","","","","","","","","","","","","","","","","","","","","","","","","","","","","","","","","","","","","",""
"647","<p style=""color:rgb(150, 250, 100); font-size: 35px;"">别人的</p>","i","categorize-html","145","626386","0.0-6.0-0.0-8.0-1.18","4","3","4","3","3","4","4","3","4","3","5","5","4","4","5","5","4","5","4","5","2","1","2","2","2","1","1","1","2","1","0","1","1","0","0","0","1","1","1","1","0","1","0","1","4","1","2","1","2","5","2","1","1","4","2","772058156674322434","吴","398","","","","","","","","","","","","","","","","","","","true","4","4","ability","647","other","别人的","","","","","","","","","","","","","","","","",""
"null","","null","html-keyboard-response","146","626639","0.0-6.0-0.0-8.0-0.19","4","3","4","3","3","4","4","3","4","3","5","5","4","4","5","5","4","5","4","5","2","1","2","2","2","1","1","1","2","1","0","1","1","0","0","0","1","1","1","1","0","1","0","1","4","1","2","1","2","5","2","1","1","4","2","772058156674322434","吴","398","","","","","","","","","","","","","","","","","","","","","","","","","","","","","","","","","","","","","","","","","",""
"1240","<p style=""color:white; font-size: 35px;"">废物</p>","i","categorize-html","147","627888","0.0-6.0-0.0-8.0-1.19","4","3","4","3","3","4","4","3","4","3","5","5","4","4","5","5","4","5","4","5","2","1","2","2","2","1","1","1","2","1","0","1","1","0","0","0","1","1","1","1","0","1","0","1","4","1","2","1","2","5","2","1","1","4","2","772058156674322434","吴","398","","","","","","","","","","","","","","","","","","","true","4","4","ability","1240","negative","废物","","","","","","","","","","","","","","","","",""
"null","","null","html-keyboard-response","148","628151","0.0-6.0-0.0-8.0-0.20","4","3","4","3","3","4","4","3","4","3","5","5","4","4","5","5","4","5","4","5","2","1","2","2","2","1","1","1","2","1","0","1","1","0","0","0","1","1","1","1","0","1","0","1","4","1","2","1","2","5","2","1","1","4","2","772058156674322434","吴","398","","","","","","","","","","","","","","","","","","","","","","","","","","","","","","","","","","","","","","","","","",""
"728","<p style=""color:rgb(150, 250, 100); font-size: 35px;"">他的</p>","i","categorize-html","149","628886","0.0-6.0-0.0-8.0-1.20","4","3","4","3","3","4","4","3","4","3","5","5","4","4","5","5","4","5","4","5","2","1","2","2","2","1","1","1","2","1","0","1","1","0","0","0","1","1","1","1","0","1","0","1","4","1","2","1","2","5","2","1","1","4","2","772058156674322434","吴","398","","","","","","","","","","","","","","","","","","","true","4","4","ability","728","other","他的","","","","","","","","","","","","","","","","",""
"null","","null","html-keyboard-response","150","629149","0.0-6.0-0.0-8.0-0.21","4","3","4","3","3","4","4","3","4","3","5","5","4","4","5","5","4","5","4","5","2","1","2","2","2","1","1","1","2","1","0","1","1","0","0","0","1","1","1","1","0","1","0","1","4","1","2","1","2","5","2","1","1","4","2","772058156674322434","吴","398","","","","","","","","","","","","","","","","","","","","","","","","","","","","","","","","","","","","","","","","","",""
"1156","<p style=""color:white; font-size: 35px;"">废物</p>","i","categorize-html","151","630311","0.0-6.0-0.0-8.0-1.21","4","3","4","3","3","4","4","3","4","3","5","5","4","4","5","5","4","5","4","5","2","1","2","2","2","1","1","1","2","1","0","1","1","0","0","0","1","1","1","1","0","1","0","1","4","1","2","1","2","5","2","1","1","4","2","772058156674322434","吴","398","","","","","","","","","","","","","","","","","","","true","4","4","ability","1156","negative","废物","","","","","","","","","","","","","","","","",""
"null","","null","html-keyboard-response","152","630575","0.0-6.0-0.0-8.0-0.22","4","3","4","3","3","4","4","3","4","3","5","5","4","4","5","5","4","5","4","5","2","1","2","2","2","1","1","1","2","1","0","1","1","0","0","0","1","1","1","1","0","1","0","1","4","1","2","1","2","5","2","1","1","4","2","772058156674322434","吴","398","","","","","","","","","","","","","","","","","","","","","","","","","","","","","","","","","","","","","","","","","",""
"649","<p style=""color:rgb(150, 250, 100); font-size: 35px;"">我</p>","e","categorize-html","153","631232","0.0-6.0-0.0-8.0-1.22","4","3","4","3","3","4","4","3","4","3","5","5","4","4","5","5","4","5","4","5","2","1","2","2","2","1","1","1","2","1","0","1","1","0","0","0","1","1","1","1","0","1","0","1","4","1","2","1","2","5","2","1","1","4","2","772058156674322434","吴","398","","","","","","","","","","","","","","","","","","","true","4","4","ability","649","self","我","","","","","","","","","","","","","","","","",""
"null","","null","html-keyboard-response","154","631493","0.0-6.0-0.0-8.0-0.23","4","3","4","3","3","4","4","3","4","3","5","5","4","4","5","5","4","5","4","5","2","1","2","2","2","1","1","1","2","1","0","1","1","0","0","0","1","1","1","1","0","1","0","1","4","1","2","1","2","5","2","1","1","4","2","772058156674322434","吴","398","","","","","","","","","","","","","","","","","","","","","","","","","","","","","","","","","","","","","","","","","",""
"1196","<p style=""color:white; font-size: 35px;"">全才</p>","e","categorize-html","155","632696","0.0-6.0-0.0-8.0-1.23","4","3","4","3","3","4","4","3","4","3","5","5","4","4","5","5","4","5","4","5","2","1","2","2","2","1","1","1","2","1","0","1","1","0","0","0","1","1","1","1","0","1","0","1","4","1","2","1","2","5","2","1","1","4","2","772058156674322434","吴","398","","","","","","","","","","","","","","","","","","","true","4","4","ability","1196","positive","全才","","","","","","","","","","","","","","","","",""
"null","","null","html-keyboard-response","156","632956","0.0-6.0-0.0-8.0-0.24","4","3","4","3","3","4","4","3","4","3","5","5","4","4","5","5","4","5","4","5","2","1","2","2","2","1","1","1","2","1","0","1","1","0","0","0","1","1","1","1","0","1","0","1","4","1","2","1","2","5","2","1","1","4","2","772058156674322434","吴","398","","","","","","","","","","","","","","","","","","","","","","","","","","","","","","","","","","","","","","","","","",""
"536","<p style=""color:rgb(150, 250, 100); font-size: 35px;"">他人</p>","i","categorize-html","157","633500","0.0-6.0-0.0-8.0-1.24","4","3","4","3","3","4","4","3","4","3","5","5","4","4","5","5","4","5","4","5","2","1","2","2","2","1","1","1","2","1","0","1","1","0","0","0","1","1","1","1","0","1","0","1","4","1","2","1","2","5","2","1","1","4","2","772058156674322434","吴","398","","","","","","","","","","","","","","","","","","","true","4","4","ability","536","other","他人","","","","","","","","","","","","","","","","",""
"null","","null","html-keyboard-response","158","633763","0.0-6.0-0.0-8.0-0.25","4","3","4","3","3","4","4","3","4","3","5","5","4","4","5","5","4","5","4","5","2","1","2","2","2","1","1","1","2","1","0","1","1","0","0","0","1","1","1","1","0","1","0","1","4","1","2","1","2","5","2","1","1","4","2","772058156674322434","吴","398","","","","","","","","","","","","","","","","","","","","","","","","","","","","","","","","","","","","","","","","","",""
"660","<p style=""color:white; font-size: 35px;"">愚钝</p>","i","categorize-html","159","634429","0.0-6.0-0.0-8.0-1.25","4","3","4","3","3","4","4","3","4","3","5","5","4","4","5","5","4","5","4","5","2","1","2","2","2","1","1","1","2","1","0","1","1","0","0","0","1","1","1","1","0","1","0","1","4","1","2","1","2","5","2","1","1","4","2","772058156674322434","吴","398","","","","","","","","","","","","","","","","","","","true","4","4","ability","660","negative","愚钝","","","","","","","","","","","","","","","","",""
"null","","null","html-keyboard-response","160","634685","0.0-6.0-0.0-8.0-0.26","4","3","4","3","3","4","4","3","4","3","5","5","4","4","5","5","4","5","4","5","2","1","2","2","2","1","1","1","2","1","0","1","1","0","0","0","1","1","1","1","0","1","0","1","4","1","2","1","2","5","2","1","1","4","2","772058156674322434","吴","398","","","","","","","","","","","","","","","","","","","","","","","","","","","","","","","","","","","","","","","","","",""
"601","<p style=""color:rgb(150, 250, 100); font-size: 35px;"">本人的</p>","e","categorize-html","161","635295","0.0-6.0-0.0-8.0-1.26","4","3","4","3","3","4","4","3","4","3","5","5","4","4","5","5","4","5","4","5","2","1","2","2","2","1","1","1","2","1","0","1","1","0","0","0","1","1","1","1","0","1","0","1","4","1","2","1","2","5","2","1","1","4","2","772058156674322434","吴","398","","","","","","","","","","","","","","","","","","","true","4","4","ability","601","self","本人的","","","","","","","","","","","","","","","","",""
"null","","null","html-keyboard-response","162","635560","0.0-6.0-0.0-8.0-0.27","4","3","4","3","3","4","4","3","4","3","5","5","4","4","5","5","4","5","4","5","2","1","2","2","2","1","1","1","2","1","0","1","1","0","0","0","1","1","1","1","0","1","0","1","4","1","2","1","2","5","2","1","1","4","2","772058156674322434","吴","398","","","","","","","","","","","","","","","","","","","","","","","","","","","","","","","","","","","","","","","","","",""
"707","<p style=""color:white; font-size: 35px;"">能干</p>","e","categorize-html","163","636273","0.0-6.0-0.0-8.0-1.27","4","3","4","3","3","4","4","3","4","3","5","5","4","4","5","5","4","5","4","5","2","1","2","2","2","1","1","1","2","1","0","1","1","0","0","0","1","1","1","1","0","1","0","1","4","1","2","1","2","5","2","1","1","4","2","772058156674322434","吴","398","","","","","","","","","","","","","","","","","","","true","4","4","ability","707","positive","能干","","","","","","","","","","","","","","","","",""
"null","","null","html-keyboard-response","164","636525","0.0-6.0-0.0-8.0-0.28","4","3","4","3","3","4","4","3","4","3","5","5","4","4","5","5","4","5","4","5","2","1","2","2","2","1","1","1","2","1","0","1","1","0","0","0","1","1","1","1","0","1","0","1","4","1","2","1","2","5","2","1","1","4","2","772058156674322434","吴","398","","","","","","","","","","","","","","","","","","","","","","","","","","","","","","","","","","","","","","","","","",""
"584","<p style=""color:rgb(150, 250, 100); font-size: 35px;"">他人的</p>","i","categorize-html","165","637116","0.0-6.0-0.0-8.0-1.28","4","3","4","3","3","4","4","3","4","3","5","5","4","4","5","5","4","5","4","5","2","1","2","2","2","1","1","1","2","1","0","1","1","0","0","0","1","1","1","1","0","1","0","1","4","1","2","1","2","5","2","1","1","4","2","772058156674322434","吴","398","","","","","","","","","","","","","","","","","","","true","4","4","ability","584","other","他人的","","","","","","","","","","","","","","","","",""
"null","","null","html-keyboard-response","166","637368","0.0-6.0-0.0-8.0-0.29","4","3","4","3","3","4","4","3","4","3","5","5","4","4","5","5","4","5","4","5","2","1","2","2","2","1","1","1","2","1","0","1","1","0","0","0","1","1","1","1","0","1","0","1","4","1","2","1","2","5","2","1","1","4","2","772058156674322434","吴","398","","","","","","","","","","","","","","","","","","","","","","","","","","","","","","","","","","","","","","","","","",""
"1067","<p style=""color:white; font-size: 35px;"">全能</p>","e","categorize-html","167","638442","0.0-6.0-0.0-8.0-1.29","4","3","4","3","3","4","4","3","4","3","5","5","4","4","5","5","4","5","4","5","2","1","2","2","2","1","1","1","2","1","0","1","1","0","0","0","1","1","1","1","0","1","0","1","4","1","2","1","2","5","2","1","1","4","2","772058156674322434","吴","398","","","","","","","","","","","","","","","","","","","true","4","4","ability","1067","positive","全能","","","","","","","","","","","","","","","","",""
"null","","null","html-keyboard-response","168","638697","0.0-6.0-0.0-8.0-0.30","4","3","4","3","3","4","4","3","4","3","5","5","4","4","5","5","4","5","4","5","2","1","2","2","2","1","1","1","2","1","0","1","1","0","0","0","1","1","1","1","0","1","0","1","4","1","2","1","2","5","2","1","1","4","2","772058156674322434","吴","398","","","","","","","","","","","","","","","","","","","","","","","","","","","","","","","","","","","","","","","","","",""
"621","<p style=""color:rgb(150, 250, 100); font-size: 35px;"">自己的</p>","e","categorize-html","169","639325","0.0-6.0-0.0-8.0-1.30","4","3","4","3","3","4","4","3","4","3","5","5","4","4","5","5","4","5","4","5","2","1","2","2","2","1","1","1","2","1","0","1","1","0","0","0","1","1","1","1","0","1","0","1","4","1","2","1","2","5","2","1","1","4","2","772058156674322434","吴","398","","","","","","","","","","","","","","","","","","","true","4","4","ability","621","self","自己的","","","","","","","","","","","","","","","","",""
"null","","null","html-keyboard-response","170","639589","0.0-6.0-0.0-8.0-0.31","4","3","4","3","3","4","4","3","4","3","5","5","4","4","5","5","4","5","4","5","2","1","2","2","2","1","1","1","2","1","0","1","1","0","0","0","1","1","1","1","0","1","0","1","4","1","2","1","2","5","2","1","1","4","2","772058156674322434","吴","398","","","","","","","","","","","","","","","","","","","","","","","","","","","","","","","","","","","","","","","","","",""
"559","<p style=""color:white; font-size: 35px;"">拙笨</p>","i","categorize-html","171","640156","0.0-6.0-0.0-8.0-1.31","4","3","4","3","3","4","4","3","4","3","5","5","4","4","5","5","4","5","4","5","2","1","2","2","2","1","1","1","2","1","0","1","1","0","0","0","1","1","1","1","0","1","0","1","4","1","2","1","2","5","2","1","1","4","2","772058156674322434","吴","398","","","","","","","","","","","","","","","","","","","true","4","4","ability","559","negative","拙笨","","","","","","","","","","","","","","","","",""
"null","","null","html-keyboard-response","172","640426","0.0-6.0-0.0-8.0-0.32","4","3","4","3","3","4","4","3","4","3","5","5","4","4","5","5","4","5","4","5","2","1","2","2","2","1","1","1","2","1","0","1","1","0","0","0","1","1","1","1","0","1","0","1","4","1","2","1","2","5","2","1","1","4","2","772058156674322434","吴","398","","","","","","","","","","","","","","","","","","","","","","","","","","","","","","","","","","","","","","","","","",""
"681","<p style=""color:rgb(150, 250, 100); font-size: 35px;"">本人</p>","e","categorize-html","173","641114","0.0-6.0-0.0-8.0-1.32","4","3","4","3","3","4","4","3","4","3","5","5","4","4","5","5","4","5","4","5","2","1","2","2","2","1","1","1","2","1","0","1","1","0","0","0","1","1","1","1","0","1","0","1","4","1","2","1","2","5","2","1","1","4","2","772058156674322434","吴","398","","","","","","","","","","","","","","","","","","","true","4","4","ability","681","self","本人","","","","","","","","","","","","","","","","",""
"null","","null","html-keyboard-response","174","641366","0.0-6.0-0.0-8.0-0.33","4","3","4","3","3","4","4","3","4","3","5","5","4","4","5","5","4","5","4","5","2","1","2","2","2","1","1","1","2","1","0","1","1","0","0","0","1","1","1","1","0","1","0","1","4","1","2","1","2","5","2","1","1","4","2","772058156674322434","吴","398","","","","","","","","","","","","","","","","","","","","","","","","","","","","","","","","","","","","","","","","","",""
"716","<p style=""color:white; font-size: 35px;"">低能</p>","i","categorize-html","175","642090","0.0-6.0-0.0-8.0-1.33","4","3","4","3","3","4","4","3","4","3","5","5","4","4","5","5","4","5","4","5","2","1","2","2","2","1","1","1","2","1","0","1","1","0","0","0","1","1","1","1","0","1","0","1","4","1","2","1","2","5","2","1","1","4","2","772058156674322434","吴","398","","","","","","","","","","","","","","","","","","","true","4","4","ability","716","negative","低能","","","","","","","","","","","","","","","","",""
"null","","null","html-keyboard-response","176","642346","0.0-6.0-0.0-8.0-0.34","4","3","4","3","3","4","4","3","4","3","5","5","4","4","5","5","4","5","4","5","2","1","2","2","2","1","1","1","2","1","0","1","1","0","0","0","1","1","1","1","0","1","0","1","4","1","2","1","2","5","2","1","1","4","2","772058156674322434","吴","398","","","","","","","","","","","","","","","","","","","","","","","","","","","","","","","","","","","","","","","","","",""
"510","<p style=""color:rgb(150, 250, 100); font-size: 35px;"">他的</p>","i","categorize-html","177","642862","0.0-6.0-0.0-8.0-1.34","4","3","4","3","3","4","4","3","4","3","5","5","4","4","5","5","4","5","4","5","2","1","2","2","2","1","1","1","2","1","0","1","1","0","0","0","1","1","1","1","0","1","0","1","4","1","2","1","2","5","2","1","1","4","2","772058156674322434","吴","398","","","","","","","","","","","","","","","","","","","true","4","4","ability","510","other","他的","","","","","","","","","","","","","","","","",""
"null","","null","html-keyboard-response","178","643120","0.0-6.0-0.0-8.0-0.35","4","3","4","3","3","4","4","3","4","3","5","5","4","4","5","5","4","5","4","5","2","1","2","2","2","1","1","1","2","1","0","1","1","0","0","0","1","1","1","1","0","1","0","1","4","1","2","1","2","5","2","1","1","4","2","772058156674322434","吴","398","","","","","","","","","","","","","","","","","","","","","","","","","","","","","","","","","","","","","","","","","",""
"639","<p style=""color:white; font-size: 35px;"">天才</p>","e","categorize-html","179","643766","0.0-6.0-0.0-8.0-1.35","4","3","4","3","3","4","4","3","4","3","5","5","4","4","5","5","4","5","4","5","2","1","2","2","2","1","1","1","2","1","0","1","1","0","0","0","1","1","1","1","0","1","0","1","4","1","2","1","2","5","2","1","1","4","2","772058156674322434","吴","398","","","","","","","","","","","","","","","","","","","true","4","4","ability","639","positive","天才","","","","","","","","","","","","","","","","",""
"null","","null","html-keyboard-response","180","644031","0.0-6.0-0.0-8.0-0.36","4","3","4","3","3","4","4","3","4","3","5","5","4","4","5","5","4","5","4","5","2","1","2","2","2","1","1","1","2","1","0","1","1","0","0","0","1","1","1","1","0","1","0","1","4","1","2","1","2","5","2","1","1","4","2","772058156674322434","吴","398","","","","","","","","","","","","","","","","","","","","","","","","","","","","","","","","","","","","","","","","","",""
"1019","<p style=""color:rgb(150, 250, 100); font-size: 35px;"">他</p>","i","categorize-html","181","645056","0.0-6.0-0.0-8.0-1.36","4","3","4","3","3","4","4","3","4","3","5","5","4","4","5","5","4","5","4","5","2","1","2","2","2","1","1","1","2","1","0","1","1","0","0","0","1","1","1","1","0","1","0","1","4","1","2","1","2","5","2","1","1","4","2","772058156674322434","吴","398","","","","","","","","","","","","","","","","","","","true","4","4","ability","1019","other","他","","","","","","","","","","","","","","","","",""
"null","","null","html-keyboard-response","182","645312","0.0-6.0-0.0-8.0-0.37","4","3","4","3","3","4","4","3","4","3","5","5","4","4","5","5","4","5","4","5","2","1","2","2","2","1","1","1","2","1","0","1","1","0","0","0","1","1","1","1","0","1","0","1","4","1","2","1","2","5","2","1","1","4","2","772058156674322434","吴","398","","","","","","","","","","","","","","","","","","","","","","","","","","","","","","","","","","","","","","","","","",""
"621","<p style=""color:white; font-size: 35px;"">全能</p>","e","categorize-html","183","645941","0.0-6.0-0.0-8.0-1.37","4","3","4","3","3","4","4","3","4","3","5","5","4","4","5","5","4","5","4","5","2","1","2","2","2","1","1","1","2","1","0","1","1","0","0","0","1","1","1","1","0","1","0","1","4","1","2","1","2","5","2","1","1","4","2","772058156674322434","吴","398","","","","","","","","","","","","","","","","","","","true","4","4","ability","621","positive","全能","","","","","","","","","","","","","","","","",""
"null","","null","html-keyboard-response","184","646201","0.0-6.0-0.0-8.0-0.38","4","3","4","3","3","4","4","3","4","3","5","5","4","4","5","5","4","5","4","5","2","1","2","2","2","1","1","1","2","1","0","1","1","0","0","0","1","1","1","1","0","1","0","1","4","1","2","1","2","5","2","1","1","4","2","772058156674322434","吴","398","","","","","","","","","","","","","","","","","","","","","","","","","","","","","","","","","","","","","","","","","",""
"537","<p style=""color:rgb(150, 250, 100); font-size: 35px;"">我</p>","e","categorize-html","185","646746","0.0-6.0-0.0-8.0-1.38","4","3","4","3","3","4","4","3","4","3","5","5","4","4","5","5","4","5","4","5","2","1","2","2","2","1","1","1","2","1","0","1","1","0","0","0","1","1","1","1","0","1","0","1","4","1","2","1","2","5","2","1","1","4","2","772058156674322434","吴","398","","","","","","","","","","","","","","","","","","","true","4","4","ability","537","self","我","","","","","","","","","","","","","","","","",""
"null","","null","html-keyboard-response","186","647007","0.0-6.0-0.0-8.0-0.39","4","3","4","3","3","4","4","3","4","3","5","5","4","4","5","5","4","5","4","5","2","1","2","2","2","1","1","1","2","1","0","1","1","0","0","0","1","1","1","1","0","1","0","1","4","1","2","1","2","5","2","1","1","4","2","772058156674322434","吴","398","","","","","","","","","","","","","","","","","","","","","","","","","","","","","","","","","","","","","","","","","",""
"866","<p style=""color:white; font-size: 35px;"">无能</p>","i","categorize-html","187","647882","0.0-6.0-0.0-8.0-1.39","4","3","4","3","3","4","4","3","4","3","5","5","4","4","5","5","4","5","4","5","2","1","2","2","2","1","1","1","2","1","0","1","1","0","0","0","1","1","1","1","0","1","0","1","4","1","2","1","2","5","2","1","1","4","2","772058156674322434","吴","398","","","","","","","","","","","","","","","","","","","true","4","4","ability","866","negative","无能","","","","","","","","","","","","","","","","",""
"null","","null","html-keyboard-response","188","648159","0.0-6.0-0.0-8.0-0.40","4","3","4","3","3","4","4","3","4","3","5","5","4","4","5","5","4","5","4","5","2","1","2","2","2","1","1","1","2","1","0","1","1","0","0","0","1","1","1","1","0","1","0","1","4","1","2","1","2","5","2","1","1","4","2","772058156674322434","吴","398","","","","","","","","","","","","","","","","","","","","","","","","","","","","","","","","","","","","","","","","","",""
"541","<p style=""color:rgb(150, 250, 100); font-size: 35px;"">我的</p>","e","categorize-html","189","648707","0.0-6.0-0.0-8.0-1.40","4","3","4","3","3","4","4","3","4","3","5","5","4","4","5","5","4","5","4","5","2","1","2","2","2","1","1","1","2","1","0","1","1","0","0","0","1","1","1","1","0","1","0","1","4","1","2","1","2","5","2","1","1","4","2","772058156674322434","吴","398","","","","","","","","","","","","","","","","","","","true","4","4","ability","541","self","我的","","","","","","","","","","","","","","","","",""
"null","","null","html-keyboard-response","190","648959","0.0-6.0-0.0-8.0-0.41","4","3","4","3","3","4","4","3","4","3","5","5","4","4","5","5","4","5","4","5","2","1","2","2","2","1","1","1","2","1","0","1","1","0","0","0","1","1","1","1","0","1","0","1","4","1","2","1","2","5","2","1","1","4","2","772058156674322434","吴","398","","","","","","","","","","","","","","","","","","","","","","","","","","","","","","","","","","","","","","","","","",""
"823","<p style=""color:white; font-size: 35px;"">全才</p>","e","categorize-html","191","649789","0.0-6.0-0.0-8.0-1.41","4","3","4","3","3","4","4","3","4","3","5","5","4","4","5","5","4","5","4","5","2","1","2","2","2","1","1","1","2","1","0","1","1","0","0","0","1","1","1","1","0","1","0","1","4","1","2","1","2","5","2","1","1","4","2","772058156674322434","吴","398","","","","","","","","","","","","","","","","","","","true","4","4","ability","823","positive","全才","","","","","","","","","","","","","","","","",""
"null","","null","html-keyboard-response","192","650049","0.0-6.0-0.0-8.0-0.42","4","3","4","3","3","4","4","3","4","3","5","5","4","4","5","5","4","5","4","5","2","1","2","2","2","1","1","1","2","1","0","1","1","0","0","0","1","1","1","1","0","1","0","1","4","1","2","1","2","5","2","1","1","4","2","772058156674322434","吴","398","","","","","","","","","","","","","","","","","","","","","","","","","","","","","","","","","","","","","","","","","",""
"536","<p style=""color:rgb(150, 250, 100); font-size: 35px;"">他人的</p>","i","categorize-html","193","650591","0.0-6.0-0.0-8.0-1.42","4","3","4","3","3","4","4","3","4","3","5","5","4","4","5","5","4","5","4","5","2","1","2","2","2","1","1","1","2","1","0","1","1","0","0","0","1","1","1","1","0","1","0","1","4","1","2","1","2","5","2","1","1","4","2","772058156674322434","吴","398","","","","","","","","","","","","","","","","","","","true","4","4","ability","536","other","他人的","","","","","","","","","","","","","","","","",""
