"rt","stimulus","response","trial_type","trial_index","time_elapsed","internal_node_id","ses_1","ses_2","ses_3","ses_4","ses_5","ses_6","ses_7","ses_8","ses_9","ses_10","coreself_1","coreself_2","coreself_3","coreself_4","coreself_5","coreself_6","coreself_7","coreself_8","coreself_9","coreself_10","SGPS_1","SGPS_2","SGPS_3","SGPS_4","SGPS_5","SGPS_6","SGPS_7","SGPS_8","SGPS_9","NPI1","NPI2","NPI3","NPI4","NPI5","NPI6","NPI7","NPI8","NPI9","NPI10","NPI11","NPI12","NPI13","NPI14","NPI15","hsns_1","hsns_2","hsns_3","hsns_4","hsns_5","trap1","hsns_6","hsns_7","hsns_8","hsns_9","hsns_10","subj_idx","friend_name","ParticipantID","value","success","user_agent","responses","item_order","radio_event_ids","radio_event_times","key_event_times","mouse_event_times","straightlining","zigzagging","honeypot","timeout","failed_images","failed_audio","failed_video","version_attrib2","version_target2","correct","IAT","screen_id","task_id","RT","condition","word","varname","summary","version_attrib","version_target","time_stamp","view_history","response_type","key_press","avg_frame_time","center_x","center_y","correct_response","identity","Image","question_order","correct_answer","trap1_item"
"26306","
   <p><div style = ""color: white;font-size:25px;"">您好，欢迎参加本次实验。</div> </p>
   <p><div style = ""color: white;font-size:25px;"">为充分保障您的权利，请确保您已经知晓并同意《参与实验同意书》以及《数据公开知情同意书》。</div></p>
   <p><div style = ""color: white;font-size:25px;"">如果您未见过上述内容，请咨询实验员。</div></p>
   <p><div style = ""color: white;font-size:25px;"">如果您选择继续实验，则表示您已经清楚两份知情同意书的内容并同意。</div></p>
   <p><div style = ""color: pink;font-size:30px;"">请确保您记得day0的实验编号，您将在本次实验输入该编号，若您忘记，请咨询实验员后作答。</div></p>
   <p><div style = ""color: lightblue;font-size:25px;"">请您尽可能认真地作答，我们将依据您在各问卷和按键任务中的作答质量发放报酬。</div></p>
   <p> <div style = ""color: green;font-size:25px;""><按空格键至下页></div> </p>
   "," ","html-keyboard-response","0","26308","0.0-0.0","3","3","3","3","3","3","3","3","2","4","3","3","4","2","3","3","3","3","2","3","4","4","4","4","4","3","4","2","3","1","0","0","0","0","0","0","1","0","1","0","0","1","0","0","3","4","3","4","3","1","4","4","3","2","2","794660896956882945","陈","538","","","","","","","","","","","","","","","","","","","","","","","","","","","","","","","","","","","","","","","","","",""
"","","","call-function","1","26309","0.0-1.0-0.0","3","3","3","3","3","3","3","3","2","4","3","3","4","2","3","3","3","3","2","3","4","4","4","4","4","3","4","2","3","1","0","0","0","0","0","0","1","0","1","0","0","1","0","0","3","4","3","4","3","1","4","4","3","2","2","794660896956882945","陈","538","","","","","","","","","","","","","","","","","","","","","","","","","","","","","","","","","","","","","","","","","",""
"26323","","{""friend_name"":""陈"",""ParticipantID"":""538""}","survey-html-form","2","52633","0.0-1.0-1.0","3","3","3","3","3","3","3","3","2","4","3","3","4","2","3","3","3","3","2","3","4","4","4","4","4","3","4","2","3","1","0","0","0","0","0","0","1","0","1","0","0","1","0","0","3","4","3","4","3","1","4","4","3","2","2","794660896956882945","陈","538","","","","","","","","","","","","","","","","","","","","","","","","","","","","","","","","","","","","","","","","","",""
"","","","fullscreen","3","56747","0.0-2.0","3","3","3","3","3","3","3","3","2","4","3","3","4","2","3","3","3","3","2","3","4","4","4","4","4","3","4","2","3","1","0","0","0","0","0","0","1","0","1","0","0","1","0","0","3","4","3","4","3","1","4","4","3","2","2","794660896956882945","陈","538","","true","{}","","","","","","","","","","","","","","","","","","","","","","","","","","","","","","","","","","","","","","",""
"39741.90000009537","","{""Q01"":""3"",""Q02"":""3"",""Q03"":""3"",""Q04"":""3"",""Q05"":""3"",""Q06"":""3"",""Q07"":""3"",""Q08"":""3"",""Q09"":""2"",""Q10"":""4""}","survey-template","4","96491","0.0-3.0","3","3","3","3","3","3","3","3","2","4","3","3","4","2","3","3","3","3","2","3","4","4","4","4","4","3","4","2","3","1","0","0","0","0","0","0","1","0","1","0","0","1","0","0","3","4","3","4","3","1","4","4","3","2","2","794660896956882945","陈","538","","","","{""Q01"":""3"",""Q02"":""3"",""Q03"":""3"",""Q04"":""3"",""Q05"":""3"",""Q06"":""3"",""Q07"":""3"",""Q08"":""3"",""Q09"":""2"",""Q10"":""4""}","[0,1,2,3,4,5,6,7,8,9]","[""Q01"",""Q01"",""Q02"",""Q03"",""Q04"",""Q05"",""Q06"",""Q07"",""Q08"",""Q09"",""Q10""]","[7004.100000023842,9394.200000047684,11808.200000047684,13315.300000071526,19018,21534.600000023842,27206,30983,33389,35005.5,37330.300000071526]","[]","[7004.100000023842,9394.200000047684,11808.200000047684,13315.300000071526,15286.400000095367,16452.800000071526,17927.800000071526,19018,21534.600000023842,24504,27206,29058.300000071526,30983,33389,35005.5,36269.700000047684,37330.300000071526,39740.60000002384]","0.6","0.6666666666666666","0","","","","","","","","","","","","","","","","","","","","","","","","","","","","","",""
"31948.299999952316","","{""Q01"":""3"",""Q02"":""3"",""Q03"":""4"",""Q04"":""2"",""Q05"":""3"",""Q06"":""3"",""Q07"":""3"",""Q08"":""3"",""Q09"":""2"",""Q10"":""3""}","survey-template","5","128443","0.0-4.0","3","3","3","3","3","3","3","3","2","4","3","3","4","2","3","3","3","3","2","3","4","4","4","4","4","3","4","2","3","1","0","0","0","0","0","0","1","0","1","0","0","1","0","0","3","4","3","4","3","1","4","4","3","2","2","794660896956882945","陈","538","","","","{""Q01"":""3"",""Q02"":""3"",""Q03"":""4"",""Q04"":""2"",""Q05"":""3"",""Q06"":""3"",""Q07"":""3"",""Q08"":""3"",""Q09"":""2"",""Q10"":""3""}","[0,1,2,3,4,5,6,7,8,9]","[""Q01"",""Q02"",""Q03"",""Q04"",""Q04"",""Q05"",""Q06"",""Q07"",""Q08"",""Q09"",""Q10"",""Q10""]","[6343,8159,9946.899999976158,12822.600000023842,16419,17945.799999952316,19097.299999952316,20382.200000047684,21762.700000047684,23267.399999976158,26322,30795.700000047684]","[]","[6343,8159,9946.899999976158,12822.600000023842,16419,17945.799999952316,19097.299999952316,20382.200000047684,21762.700000047684,23267.399999976158,26322,29613.200000047684,30795.700000047684,31946.5]","0.7","0.4444444444444444","0","","","","","","","","","","","","","","","","","","","","","","","","","","","","","",""
"","","","preload","6","129022","0.0-5.0","3","3","3","3","3","3","3","3","2","4","3","3","4","2","3","3","3","3","2","3","4","4","4","4","4","3","4","2","3","1","0","0","0","0","0","0","1","0","1","0","0","1","0","0","3","4","3","4","3","1","4","4","3","2","2","794660896956882945","陈","538","","true","","","","","","","","","","","false","[]","[]","[]","","","","","","","","","","","","","","","","","","","","","","","","","",""
"12827","
    <h3>词语分类任务</h3>
    <p>在接下来的任务中，你需要对一系列词语进行分类。<p/>
    请先熟悉这些词语，这有利于你完成接下来的任务。</p>
    <table align=""center"" border=1 cellpadding=3 cellspacing=0>
    <tr> <th>类别</th> <th>词语</th> </tr>
    <tr> <td>&emsp;积极&emsp;</td> <td>&emsp;高尚、诚信、善良、君子、廉正、正直&emsp;</td> </tr>
    <tr> <td>&emsp;消极&emsp;</td> <td>&emsp;缺德、卑鄙、不孝、不仁、小人、黑心&emsp;</td> </tr>
    <tr> <td>&emsp;自我&emsp;</td> <td>&emsp;我、我的、自己、自己的、本人、本人的&emsp;</td> </tr>
    <tr> <td>&emsp;他人&emsp;</td> <td>&emsp;他、他的、别人、别人的、他人、他人的&emsp;</td> </tr>
    </table><br/>","0","html-button-response","7","141851","0.0-6.0-1.0-0.0","3","3","3","3","3","3","3","3","2","4","3","3","4","2","3","3","3","3","2","3","4","4","4","4","4","3","4","2","3","1","0","0","0","0","0","0","1","0","1","0","0","1","0","0","3","4","3","4","3","1","4","4","3","2","2","794660896956882945","陈","538","","","","","","","","","","","","","","","","","2","2","","","","","","","","","","","","","","","","","","","","","","","",""
"6395","
    <div class=""tag-bottom""><p>
    —— 任务1：对“他人”词和“自我”词分类 ——<p/>
    不同词语会出现在屏幕中央，类别标签将始终显示在屏幕上方<p/>   
    <span style=""color:#FFD866""><b>请根据上方标签的提示，尽可能正确并且快速地做出按键反应</b></span><p/>
    当按键错误时屏幕中会出现<span style=""color:red""> X </span>，需要按另一个键纠正才能继续<br/><p/>
    请把双手食指分别放在键盘的“E”键和“I”键上<p/>
    按<空格键>开始
    </p></div>"," ","html-keyboard-response","8","148247","0.0-6.0-1.0-1.0","3","3","3","3","3","3","3","3","2","4","3","3","4","2","3","3","3","3","2","3","4","4","4","4","4","3","4","2","3","1","0","0","0","0","0","0","1","0","1","0","0","1","0","0","3","4","3","4","3","1","4","4","3","2","2","794660896956882945","陈","538","","","","","","","","","","","","","","","","","","","","","","","","","","","","","","","","","","","","","","","","","",""
"null","","null","html-keyboard-response","9","148498","0.0-6.0-1.0-2.0-0.0","3","3","3","3","3","3","3","3","2","4","3","3","4","2","3","3","3","3","2","3","4","4","4","4","4","3","4","2","3","1","0","0","0","0","0","0","1","0","1","0","0","1","0","0","3","4","3","4","3","1","4","4","3","2","2","794660896956882945","陈","538","","","","","","","","","","","","","","","","","","","","","","","","","","","","","","","","","","","","","","","","","",""
"1540","<p style=""color:rgb(150, 250, 100); font-size: 35px;"">我的</p>","i","categorize-html","10","150038","0.0-6.0-1.0-2.0-1.0","3","3","3","3","3","3","3","3","2","4","3","3","4","2","3","3","3","3","2","3","4","4","4","4","4","3","4","2","3","1","0","0","0","0","0","0","1","0","1","0","0","1","0","0","3","4","3","4","3","1","4","4","3","2","2","794660896956882945","陈","538","","","","","","","","","","","","","","","","","","","true","11","1","moral","1540","self","我的","","","","","","","","","","","","","","","","",""
"null","","null","html-keyboard-response","11","150289","0.0-6.0-1.0-2.0-0.1","3","3","3","3","3","3","3","3","2","4","3","3","4","2","3","3","3","3","2","3","4","4","4","4","4","3","4","2","3","1","0","0","0","0","0","0","1","0","1","0","0","1","0","0","3","4","3","4","3","1","4","4","3","2","2","794660896956882945","陈","538","","","","","","","","","","","","","","","","","","","","","","","","","","","","","","","","","","","","","","","","","",""
"772","<p style=""color:rgb(150, 250, 100); font-size: 35px;"">别人的</p>","e","categorize-html","12","151061","0.0-6.0-1.0-2.0-1.1","3","3","3","3","3","3","3","3","2","4","3","3","4","2","3","3","3","3","2","3","4","4","4","4","4","3","4","2","3","1","0","0","0","0","0","0","1","0","1","0","0","1","0","0","3","4","3","4","3","1","4","4","3","2","2","794660896956882945","陈","538","","","","","","","","","","","","","","","","","","","true","11","1","moral","772","other","别人的","","","","","","","","","","","","","","","","",""
"null","","null","html-keyboard-response","13","151313","0.0-6.0-1.0-2.0-0.2","3","3","3","3","3","3","3","3","2","4","3","3","4","2","3","3","3","3","2","3","4","4","4","4","4","3","4","2","3","1","0","0","0","0","0","0","1","0","1","0","0","1","0","0","3","4","3","4","3","1","4","4","3","2","2","794660896956882945","陈","538","","","","","","","","","","","","","","","","","","","","","","","","","","","","","","","","","","","","","","","","","",""
"907","<p style=""color:rgb(150, 250, 100); font-size: 35px;"">本人</p>","i","categorize-html","14","152220","0.0-6.0-1.0-2.0-1.2","3","3","3","3","3","3","3","3","2","4","3","3","4","2","3","3","3","3","2","3","4","4","4","4","4","3","4","2","3","1","0","0","0","0","0","0","1","0","1","0","0","1","0","0","3","4","3","4","3","1","4","4","3","2","2","794660896956882945","陈","538","","","","","","","","","","","","","","","","","","","true","11","1","moral","907","self","本人","","","","","","","","","","","","","","","","",""
"null","","null","html-keyboard-response","15","152471","0.0-6.0-1.0-2.0-0.3","3","3","3","3","3","3","3","3","2","4","3","3","4","2","3","3","3","3","2","3","4","4","4","4","4","3","4","2","3","1","0","0","0","0","0","0","1","0","1","0","0","1","0","0","3","4","3","4","3","1","4","4","3","2","2","794660896956882945","陈","538","","","","","","","","","","","","","","","","","","","","","","","","","","","","","","","","","","","","","","","","","",""
"670","<p style=""color:rgb(150, 250, 100); font-size: 35px;"">他的</p>","e","categorize-html","16","153142","0.0-6.0-1.0-2.0-1.3","3","3","3","3","3","3","3","3","2","4","3","3","4","2","3","3","3","3","2","3","4","4","4","4","4","3","4","2","3","1","0","0","0","0","0","0","1","0","1","0","0","1","0","0","3","4","3","4","3","1","4","4","3","2","2","794660896956882945","陈","538","","","","","","","","","","","","","","","","","","","true","11","1","moral","670","other","他的","","","","","","","","","","","","","","","","",""
"null","","null","html-keyboard-response","17","153401","0.0-6.0-1.0-2.0-0.4","3","3","3","3","3","3","3","3","2","4","3","3","4","2","3","3","3","3","2","3","4","4","4","4","4","3","4","2","3","1","0","0","0","0","0","0","1","0","1","0","0","1","0","0","3","4","3","4","3","1","4","4","3","2","2","794660896956882945","陈","538","","","","","","","","","","","","","","","","","","","","","","","","","","","","","","","","","","","","","","","","","",""
"704","<p style=""color:rgb(150, 250, 100); font-size: 35px;"">我</p>","i","categorize-html","18","154106","0.0-6.0-1.0-2.0-1.4","3","3","3","3","3","3","3","3","2","4","3","3","4","2","3","3","3","3","2","3","4","4","4","4","4","3","4","2","3","1","0","0","0","0","0","0","1","0","1","0","0","1","0","0","3","4","3","4","3","1","4","4","3","2","2","794660896956882945","陈","538","","","","","","","","","","","","","","","","","","","true","11","1","moral","704","self","我","","","","","","","","","","","","","","","","",""
"null","","null","html-keyboard-response","19","154356","0.0-6.0-1.0-2.0-0.5","3","3","3","3","3","3","3","3","2","4","3","3","4","2","3","3","3","3","2","3","4","4","4","4","4","3","4","2","3","1","0","0","0","0","0","0","1","0","1","0","0","1","0","0","3","4","3","4","3","1","4","4","3","2","2","794660896956882945","陈","538","","","","","","","","","","","","","","","","","","","","","","","","","","","","","","","","","","","","","","","","","",""
"731","<p style=""color:rgb(150, 250, 100); font-size: 35px;"">别人</p>","e","categorize-html","20","155088","0.0-6.0-1.0-2.0-1.5","3","3","3","3","3","3","3","3","2","4","3","3","4","2","3","3","3","3","2","3","4","4","4","4","4","3","4","2","3","1","0","0","0","0","0","0","1","0","1","0","0","1","0","0","3","4","3","4","3","1","4","4","3","2","2","794660896956882945","陈","538","","","","","","","","","","","","","","","","","","","true","11","1","moral","731","other","别人","","","","","","","","","","","","","","","","",""
"null","","null","html-keyboard-response","21","155339","0.0-6.0-1.0-2.0-0.6","3","3","3","3","3","3","3","3","2","4","3","3","4","2","3","3","3","3","2","3","4","4","4","4","4","3","4","2","3","1","0","0","0","0","0","0","1","0","1","0","0","1","0","0","3","4","3","4","3","1","4","4","3","2","2","794660896956882945","陈","538","","","","","","","","","","","","","","","","","","","","","","","","","","","","","","","","","","","","","","","","","",""
"610","<p style=""color:rgb(150, 250, 100); font-size: 35px;"">他人的</p>","e","categorize-html","22","155950","0.0-6.0-1.0-2.0-1.6","3","3","3","3","3","3","3","3","2","4","3","3","4","2","3","3","3","3","2","3","4","4","4","4","4","3","4","2","3","1","0","0","0","0","0","0","1","0","1","0","0","1","0","0","3","4","3","4","3","1","4","4","3","2","2","794660896956882945","陈","538","","","","","","","","","","","","","","","","","","","true","11","1","moral","610","other","他人的","","","","","","","","","","","","","","","","",""
"null","","null","html-keyboard-response","23","156201","0.0-6.0-1.0-2.0-0.7","3","3","3","3","3","3","3","3","2","4","3","3","4","2","3","3","3","3","2","3","4","4","4","4","4","3","4","2","3","1","0","0","0","0","0","0","1","0","1","0","0","1","0","0","3","4","3","4","3","1","4","4","3","2","2","794660896956882945","陈","538","","","","","","","","","","","","","","","","","","","","","","","","","","","","","","","","","","","","","","","","","",""
"490","<p style=""color:rgb(150, 250, 100); font-size: 35px;"">自己的</p>","i","categorize-html","24","156691","0.0-6.0-1.0-2.0-1.7","3","3","3","3","3","3","3","3","2","4","3","3","4","2","3","3","3","3","2","3","4","4","4","4","4","3","4","2","3","1","0","0","0","0","0","0","1","0","1","0","0","1","0","0","3","4","3","4","3","1","4","4","3","2","2","794660896956882945","陈","538","","","","","","","","","","","","","","","","","","","true","11","1","moral","490","self","自己的","","","","","","","","","","","","","","","","",""
"null","","null","html-keyboard-response","25","156941","0.0-6.0-1.0-2.0-0.8","3","3","3","3","3","3","3","3","2","4","3","3","4","2","3","3","3","3","2","3","4","4","4","4","4","3","4","2","3","1","0","0","0","0","0","0","1","0","1","0","0","1","0","0","3","4","3","4","3","1","4","4","3","2","2","794660896956882945","陈","538","","","","","","","","","","","","","","","","","","","","","","","","","","","","","","","","","","","","","","","","","",""
"668","<p style=""color:rgb(150, 250, 100); font-size: 35px;"">本人的</p>","i","categorize-html","26","157610","0.0-6.0-1.0-2.0-1.8","3","3","3","3","3","3","3","3","2","4","3","3","4","2","3","3","3","3","2","3","4","4","4","4","4","3","4","2","3","1","0","0","0","0","0","0","1","0","1","0","0","1","0","0","3","4","3","4","3","1","4","4","3","2","2","794660896956882945","陈","538","","","","","","","","","","","","","","","","","","","true","11","1","moral","668","self","本人的","","","","","","","","","","","","","","","","",""
"null","","null","html-keyboard-response","27","157860","0.0-6.0-1.0-2.0-0.9","3","3","3","3","3","3","3","3","2","4","3","3","4","2","3","3","3","3","2","3","4","4","4","4","4","3","4","2","3","1","0","0","0","0","0","0","1","0","1","0","0","1","0","0","3","4","3","4","3","1","4","4","3","2","2","794660896956882945","陈","538","","","","","","","","","","","","","","","","","","","","","","","","","","","","","","","","","","","","","","","","","",""
"478","<p style=""color:rgb(150, 250, 100); font-size: 35px;"">自己</p>","i","categorize-html","28","158339","0.0-6.0-1.0-2.0-1.9","3","3","3","3","3","3","3","3","2","4","3","3","4","2","3","3","3","3","2","3","4","4","4","4","4","3","4","2","3","1","0","0","0","0","0","0","1","0","1","0","0","1","0","0","3","4","3","4","3","1","4","4","3","2","2","794660896956882945","陈","538","","","","","","","","","","","","","","","","","","","true","11","1","moral","478","self","自己","","","","","","","","","","","","","","","","",""
"null","","null","html-keyboard-response","29","158591","0.0-6.0-1.0-2.0-0.10","3","3","3","3","3","3","3","3","2","4","3","3","4","2","3","3","3","3","2","3","4","4","4","4","4","3","4","2","3","1","0","0","0","0","0","0","1","0","1","0","0","1","0","0","3","4","3","4","3","1","4","4","3","2","2","794660896956882945","陈","538","","","","","","","","","","","","","","","","","","","","","","","","","","","","","","","","","","","","","","","","","",""
"622","<p style=""color:rgb(150, 250, 100); font-size: 35px;"">他</p>","e","categorize-html","30","159213","0.0-6.0-1.0-2.0-1.10","3","3","3","3","3","3","3","3","2","4","3","3","4","2","3","3","3","3","2","3","4","4","4","4","4","3","4","2","3","1","0","0","0","0","0","0","1","0","1","0","0","1","0","0","3","4","3","4","3","1","4","4","3","2","2","794660896956882945","陈","538","","","","","","","","","","","","","","","","","","","true","11","1","moral","622","other","他","","","","","","","","","","","","","","","","",""
"null","","null","html-keyboard-response","31","159464","0.0-6.0-1.0-2.0-0.11","3","3","3","3","3","3","3","3","2","4","3","3","4","2","3","3","3","3","2","3","4","4","4","4","4","3","4","2","3","1","0","0","0","0","0","0","1","0","1","0","0","1","0","0","3","4","3","4","3","1","4","4","3","2","2","794660896956882945","陈","538","","","","","","","","","","","","","","","","","","","","","","","","","","","","","","","","","","","","","","","","","",""
"565","<p style=""color:rgb(150, 250, 100); font-size: 35px;"">他人</p>","e","categorize-html","32","160029","0.0-6.0-1.0-2.0-1.11","3","3","3","3","3","3","3","3","2","4","3","3","4","2","3","3","3","3","2","3","4","4","4","4","4","3","4","2","3","1","0","0","0","0","0","0","1","0","1","0","0","1","0","0","3","4","3","4","3","1","4","4","3","2","2","794660896956882945","陈","538","","","","","","","","","","","","","","","","","","","true","11","1","moral","565","other","他人","","","","","","","","","","","","","","","","",""
"1782","
    <div class=""tag-bottom""><p>
    —— 任务2：对“消极”词和“积极”词分类 ——<p/>   
    <span style=""color:#78DCE8""><b>注意上方，类别标签和需要分类的词语都已经改变</b></span><p/>
    <span style=""color:#FFD866""><b>请根据上方标签的提示，尽可能正确并且快速地做出按键反应</b></span><p/>
    当按键错误时屏幕中会出现<span style=""color:red""> X </span>，需要按另一个键纠正才能继续<br/><p/>
    请把双手食指分别放在键盘的“E”键和“I”键上<p/>
    按<空格键>开始
    </p></div>"," ","html-keyboard-response","33","161811","0.0-6.0-1.0-3.0","3","3","3","3","3","3","3","3","2","4","3","3","4","2","3","3","3","3","2","3","4","4","4","4","4","3","4","2","3","1","0","0","0","0","0","0","1","0","1","0","0","1","0","0","3","4","3","4","3","1","4","4","3","2","2","794660896956882945","陈","538","","","","","","","","","","","","","","","","","","","","","","","","","","","","","","","","","","","","","","","","","",""
"null","","null","html-keyboard-response","34","162063","0.0-6.0-1.0-4.0-0.0","3","3","3","3","3","3","3","3","2","4","3","3","4","2","3","3","3","3","2","3","4","4","4","4","4","3","4","2","3","1","0","0","0","0","0","0","1","0","1","0","0","1","0","0","3","4","3","4","3","1","4","4","3","2","2","794660896956882945","陈","538","","","","","","","","","","","","","","","","","","","","","","","","","","","","","","","","","","","","","","","","","",""
"1098","<p style=""color:white; font-size: 35px;"">高尚</p>","i","categorize-html","35","163161","0.0-6.0-1.0-4.0-1.0","3","3","3","3","3","3","3","3","2","4","3","3","4","2","3","3","3","3","2","3","4","4","4","4","4","3","4","2","3","1","0","0","0","0","0","0","1","0","1","0","0","1","0","0","3","4","3","4","3","1","4","4","3","2","2","794660896956882945","陈","538","","","","","","","","","","","","","","","","","","","true","12","2","moral","1098","positive","高尚","","","","","","","","","","","","","","","","",""
"null","","null","html-keyboard-response","36","163412","0.0-6.0-1.0-4.0-0.1","3","3","3","3","3","3","3","3","2","4","3","3","4","2","3","3","3","3","2","3","4","4","4","4","4","3","4","2","3","1","0","0","0","0","0","0","1","0","1","0","0","1","0","0","3","4","3","4","3","1","4","4","3","2","2","794660896956882945","陈","538","","","","","","","","","","","","","","","","","","","","","","","","","","","","","","","","","","","","","","","","","",""
"610","<p style=""color:white; font-size: 35px;"">缺德</p>","e","categorize-html","37","164022","0.0-6.0-1.0-4.0-1.1","3","3","3","3","3","3","3","3","2","4","3","3","4","2","3","3","3","3","2","3","4","4","4","4","4","3","4","2","3","1","0","0","0","0","0","0","1","0","1","0","0","1","0","0","3","4","3","4","3","1","4","4","3","2","2","794660896956882945","陈","538","","","","","","","","","","","","","","","","","","","true","12","2","moral","610","negative","缺德","","","","","","","","","","","","","","","","",""
"null","","null","html-keyboard-response","38","164291","0.0-6.0-1.0-4.0-0.2","3","3","3","3","3","3","3","3","2","4","3","3","4","2","3","3","3","3","2","3","4","4","4","4","4","3","4","2","3","1","0","0","0","0","0","0","1","0","1","0","0","1","0","0","3","4","3","4","3","1","4","4","3","2","2","794660896956882945","陈","538","","","","","","","","","","","","","","","","","","","","","","","","","","","","","","","","","","","","","","","","","",""
"766","<p style=""color:white; font-size: 35px;"">不孝</p>","e","categorize-html","39","165058","0.0-6.0-1.0-4.0-1.2","3","3","3","3","3","3","3","3","2","4","3","3","4","2","3","3","3","3","2","3","4","4","4","4","4","3","4","2","3","1","0","0","0","0","0","0","1","0","1","0","0","1","0","0","3","4","3","4","3","1","4","4","3","2","2","794660896956882945","陈","538","","","","","","","","","","","","","","","","","","","true","12","2","moral","766","negative","不孝","","","","","","","","","","","","","","","","",""
"null","","null","html-keyboard-response","40","165308","0.0-6.0-1.0-4.0-0.3","3","3","3","3","3","3","3","3","2","4","3","3","4","2","3","3","3","3","2","3","4","4","4","4","4","3","4","2","3","1","0","0","0","0","0","0","1","0","1","0","0","1","0","0","3","4","3","4","3","1","4","4","3","2","2","794660896956882945","陈","538","","","","","","","","","","","","","","","","","","","","","","","","","","","","","","","","","","","","","","","","","",""
"622","<p style=""color:white; font-size: 35px;"">正直</p>","i","categorize-html","41","165931","0.0-6.0-1.0-4.0-1.3","3","3","3","3","3","3","3","3","2","4","3","3","4","2","3","3","3","3","2","3","4","4","4","4","4","3","4","2","3","1","0","0","0","0","0","0","1","0","1","0","0","1","0","0","3","4","3","4","3","1","4","4","3","2","2","794660896956882945","陈","538","","","","","","","","","","","","","","","","","","","true","12","2","moral","622","positive","正直","","","","","","","","","","","","","","","","",""
"null","","null","html-keyboard-response","42","166182","0.0-6.0-1.0-4.0-0.4","3","3","3","3","3","3","3","3","2","4","3","3","4","2","3","3","3","3","2","3","4","4","4","4","4","3","4","2","3","1","0","0","0","0","0","0","1","0","1","0","0","1","0","0","3","4","3","4","3","1","4","4","3","2","2","794660896956882945","陈","538","","","","","","","","","","","","","","","","","","","","","","","","","","","","","","","","","","","","","","","","","",""
"628","<p style=""color:white; font-size: 35px;"">黑心</p>","e","categorize-html","43","166810","0.0-6.0-1.0-4.0-1.4","3","3","3","3","3","3","3","3","2","4","3","3","4","2","3","3","3","3","2","3","4","4","4","4","4","3","4","2","3","1","0","0","0","0","0","0","1","0","1","0","0","1","0","0","3","4","3","4","3","1","4","4","3","2","2","794660896956882945","陈","538","","","","","","","","","","","","","","","","","","","true","12","2","moral","628","negative","黑心","","","","","","","","","","","","","","","","",""
"null","","null","html-keyboard-response","44","167061","0.0-6.0-1.0-4.0-0.5","3","3","3","3","3","3","3","3","2","4","3","3","4","2","3","3","3","3","2","3","4","4","4","4","4","3","4","2","3","1","0","0","0","0","0","0","1","0","1","0","0","1","0","0","3","4","3","4","3","1","4","4","3","2","2","794660896956882945","陈","538","","","","","","","","","","","","","","","","","","","","","","","","","","","","","","","","","","","","","","","","","",""
"618","<p style=""color:white; font-size: 35px;"">君子</p>","i","categorize-html","45","167680","0.0-6.0-1.0-4.0-1.5","3","3","3","3","3","3","3","3","2","4","3","3","4","2","3","3","3","3","2","3","4","4","4","4","4","3","4","2","3","1","0","0","0","0","0","0","1","0","1","0","0","1","0","0","3","4","3","4","3","1","4","4","3","2","2","794660896956882945","陈","538","","","","","","","","","","","","","","","","","","","true","12","2","moral","618","positive","君子","","","","","","","","","","","","","","","","",""
"null","","null","html-keyboard-response","46","167931","0.0-6.0-1.0-4.0-0.6","3","3","3","3","3","3","3","3","2","4","3","3","4","2","3","3","3","3","2","3","4","4","4","4","4","3","4","2","3","1","0","0","0","0","0","0","1","0","1","0","0","1","0","0","3","4","3","4","3","1","4","4","3","2","2","794660896956882945","陈","538","","","","","","","","","","","","","","","","","","","","","","","","","","","","","","","","","","","","","","","","","",""
"574","<p style=""color:white; font-size: 35px;"">卑鄙</p>","e","categorize-html","47","168505","0.0-6.0-1.0-4.0-1.6","3","3","3","3","3","3","3","3","2","4","3","3","4","2","3","3","3","3","2","3","4","4","4","4","4","3","4","2","3","1","0","0","0","0","0","0","1","0","1","0","0","1","0","0","3","4","3","4","3","1","4","4","3","2","2","794660896956882945","陈","538","","","","","","","","","","","","","","","","","","","true","12","2","moral","574","negative","卑鄙","","","","","","","","","","","","","","","","",""
"null","","null","html-keyboard-response","48","168755","0.0-6.0-1.0-4.0-0.7","3","3","3","3","3","3","3","3","2","4","3","3","4","2","3","3","3","3","2","3","4","4","4","4","4","3","4","2","3","1","0","0","0","0","0","0","1","0","1","0","0","1","0","0","3","4","3","4","3","1","4","4","3","2","2","794660896956882945","陈","538","","","","","","","","","","","","","","","","","","","","","","","","","","","","","","","","","","","","","","","","","",""
"516","<p style=""color:white; font-size: 35px;"">善良</p>","i","categorize-html","49","169271","0.0-6.0-1.0-4.0-1.7","3","3","3","3","3","3","3","3","2","4","3","3","4","2","3","3","3","3","2","3","4","4","4","4","4","3","4","2","3","1","0","0","0","0","0","0","1","0","1","0","0","1","0","0","3","4","3","4","3","1","4","4","3","2","2","794660896956882945","陈","538","","","","","","","","","","","","","","","","","","","true","12","2","moral","516","positive","善良","","","","","","","","","","","","","","","","",""
"null","","null","html-keyboard-response","50","169522","0.0-6.0-1.0-4.0-0.8","3","3","3","3","3","3","3","3","2","4","3","3","4","2","3","3","3","3","2","3","4","4","4","4","4","3","4","2","3","1","0","0","0","0","0","0","1","0","1","0","0","1","0","0","3","4","3","4","3","1","4","4","3","2","2","794660896956882945","陈","538","","","","","","","","","","","","","","","","","","","","","","","","","","","","","","","","","","","","","","","","","",""
"685","<p style=""color:white; font-size: 35px;"">不仁</p>","i","categorize-html","51","170661","0.0-6.0-1.0-4.0-1.8","3","3","3","3","3","3","3","3","2","4","3","3","4","2","3","3","3","3","2","3","4","4","4","4","4","3","4","2","3","1","0","0","0","0","0","0","1","0","1","0","0","1","0","0","3","4","3","4","3","1","4","4","3","2","2","794660896956882945","陈","538","","","","","","","","","","","","","","","","","","","false","12","2","moral","685","negative","不仁","","","","","","","","","","","","","","","","",""
"null","","null","html-keyboard-response","52","170912","0.0-6.0-1.0-4.0-0.9","3","3","3","3","3","3","3","3","2","4","3","3","4","2","3","3","3","3","2","3","4","4","4","4","4","3","4","2","3","1","0","0","0","0","0","0","1","0","1","0","0","1","0","0","3","4","3","4","3","1","4","4","3","2","2","794660896956882945","陈","538","","","","","","","","","","","","","","","","","","","","","","","","","","","","","","","","","","","","","","","","","",""
"890","<p style=""color:white; font-size: 35px;"">诚信</p>","i","categorize-html","53","171801","0.0-6.0-1.0-4.0-1.9","3","3","3","3","3","3","3","3","2","4","3","3","4","2","3","3","3","3","2","3","4","4","4","4","4","3","4","2","3","1","0","0","0","0","0","0","1","0","1","0","0","1","0","0","3","4","3","4","3","1","4","4","3","2","2","794660896956882945","陈","538","","","","","","","","","","","","","","","","","","","true","12","2","moral","890","positive","诚信","","","","","","","","","","","","","","","","",""
"null","","null","html-keyboard-response","54","172053","0.0-6.0-1.0-4.0-0.10","3","3","3","3","3","3","3","3","2","4","3","3","4","2","3","3","3","3","2","3","4","4","4","4","4","3","4","2","3","1","0","0","0","0","0","0","1","0","1","0","0","1","0","0","3","4","3","4","3","1","4","4","3","2","2","794660896956882945","陈","538","","","","","","","","","","","","","","","","","","","","","","","","","","","","","","","","","","","","","","","","","",""
"698","<p style=""color:white; font-size: 35px;"">廉正</p>","i","categorize-html","55","172751","0.0-6.0-1.0-4.0-1.10","3","3","3","3","3","3","3","3","2","4","3","3","4","2","3","3","3","3","2","3","4","4","4","4","4","3","4","2","3","1","0","0","0","0","0","0","1","0","1","0","0","1","0","0","3","4","3","4","3","1","4","4","3","2","2","794660896956882945","陈","538","","","","","","","","","","","","","","","","","","","true","12","2","moral","698","positive","廉正","","","","","","","","","","","","","","","","",""
"null","","null","html-keyboard-response","56","173003","0.0-6.0-1.0-4.0-0.11","3","3","3","3","3","3","3","3","2","4","3","3","4","2","3","3","3","3","2","3","4","4","4","4","4","3","4","2","3","1","0","0","0","0","0","0","1","0","1","0","0","1","0","0","3","4","3","4","3","1","4","4","3","2","2","794660896956882945","陈","538","","","","","","","","","","","","","","","","","","","","","","","","","","","","","","","","","","","","","","","","","",""
"925","<p style=""color:white; font-size: 35px;"">小人</p>","e","categorize-html","57","173928","0.0-6.0-1.0-4.0-1.11","3","3","3","3","3","3","3","3","2","4","3","3","4","2","3","3","3","3","2","3","4","4","4","4","4","3","4","2","3","1","0","0","0","0","0","0","1","0","1","0","0","1","0","0","3","4","3","4","3","1","4","4","3","2","2","794660896956882945","陈","538","","","","","","","","","","","","","","","","","","","true","12","2","moral","925","negative","小人","","","","","","","","","","","","","","","","",""
"2131","
    <div class=""tag-bottom""><p>
    —— 任务3：对“他人/消极”词和“自我/积极”词分类 ——<p/>
    <span style=""color:#78DCE8""><b>注意上方，之前的四类词语将混合在一起交替呈现</b></span><p/>
    <span style=""color:#FFD866""><b>请根据上方标签的提示，尽可能正确并且快速地做出按键反应</b></span><p/>
    当按键错误时屏幕中会出现<span style=""color:red""> X </span>，需要按另一个键纠正才能继续<br/><p/>
    请把双手食指分别放在键盘的“E”键和“I”键上<p/>
    按<空格键>开始
    </p></div>"," ","html-keyboard-response","58","176059","0.0-6.0-1.0-5.0","3","3","3","3","3","3","3","3","2","4","3","3","4","2","3","3","3","3","2","3","4","4","4","4","4","3","4","2","3","1","0","0","0","0","0","0","1","0","1","0","0","1","0","0","3","4","3","4","3","1","4","4","3","2","2","794660896956882945","陈","538","","","","","","","","","","","","","","","","","","","","","","","","","","","","","","","","","","","","","","","","","",""
"null","","null","html-keyboard-response","59","176309","0.0-6.0-1.0-6.0-0.0","3","3","3","3","3","3","3","3","2","4","3","3","4","2","3","3","3","3","2","3","4","4","4","4","4","3","4","2","3","1","0","0","0","0","0","0","1","0","1","0","0","1","0","0","3","4","3","4","3","1","4","4","3","2","2","794660896956882945","陈","538","","","","","","","","","","","","","","","","","","","","","","","","","","","","","","","","","","","","","","","","","",""
"747","<p style=""color:rgb(150, 250, 100); font-size: 35px;"">我的</p>","i","categorize-html","60","177056","0.0-6.0-1.0-6.0-1.0","3","3","3","3","3","3","3","3","2","4","3","3","4","2","3","3","3","3","2","3","4","4","4","4","4","3","4","2","3","1","0","0","0","0","0","0","1","0","1","0","0","1","0","0","3","4","3","4","3","1","4","4","3","2","2","794660896956882945","陈","538","","","","","","","","","","","","","","","","","","","true","13","3","moral","747","self","我的","","","","","","","","","","","","","","","","",""
"null","","null","html-keyboard-response","61","177307","0.0-6.0-1.0-6.0-0.1","3","3","3","3","3","3","3","3","2","4","3","3","4","2","3","3","3","3","2","3","4","4","4","4","4","3","4","2","3","1","0","0","0","0","0","0","1","0","1","0","0","1","0","0","3","4","3","4","3","1","4","4","3","2","2","794660896956882945","陈","538","","","","","","","","","","","","","","","","","","","","","","","","","","","","","","","","","","","","","","","","","",""
"539","<p style=""color:white; font-size: 35px;"">正直</p>","i","categorize-html","62","177847","0.0-6.0-1.0-6.0-1.1","3","3","3","3","3","3","3","3","2","4","3","3","4","2","3","3","3","3","2","3","4","4","4","4","4","3","4","2","3","1","0","0","0","0","0","0","1","0","1","0","0","1","0","0","3","4","3","4","3","1","4","4","3","2","2","794660896956882945","陈","538","","","","","","","","","","","","","","","","","","","true","13","3","moral","539","positive","正直","","","","","","","","","","","","","","","","",""
"null","","null","html-keyboard-response","63","178098","0.0-6.0-1.0-6.0-0.2","3","3","3","3","3","3","3","3","2","4","3","3","4","2","3","3","3","3","2","3","4","4","4","4","4","3","4","2","3","1","0","0","0","0","0","0","1","0","1","0","0","1","0","0","3","4","3","4","3","1","4","4","3","2","2","794660896956882945","陈","538","","","","","","","","","","","","","","","","","","","","","","","","","","","","","","","","","","","","","","","","","",""
"848","<p style=""color:rgb(150, 250, 100); font-size: 35px;"">别人的</p>","e","categorize-html","64","178947","0.0-6.0-1.0-6.0-1.2","3","3","3","3","3","3","3","3","2","4","3","3","4","2","3","3","3","3","2","3","4","4","4","4","4","3","4","2","3","1","0","0","0","0","0","0","1","0","1","0","0","1","0","0","3","4","3","4","3","1","4","4","3","2","2","794660896956882945","陈","538","","","","","","","","","","","","","","","","","","","true","13","3","moral","848","other","别人的","","","","","","","","","","","","","","","","",""
"null","","null","html-keyboard-response","65","179198","0.0-6.0-1.0-6.0-0.3","3","3","3","3","3","3","3","3","2","4","3","3","4","2","3","3","3","3","2","3","4","4","4","4","4","3","4","2","3","1","0","0","0","0","0","0","1","0","1","0","0","1","0","0","3","4","3","4","3","1","4","4","3","2","2","794660896956882945","陈","538","","","","","","","","","","","","","","","","","","","","","","","","","","","","","","","","","","","","","","","","","",""
"798","<p style=""color:white; font-size: 35px;"">不孝</p>","e","categorize-html","66","179996","0.0-6.0-1.0-6.0-1.3","3","3","3","3","3","3","3","3","2","4","3","3","4","2","3","3","3","3","2","3","4","4","4","4","4","3","4","2","3","1","0","0","0","0","0","0","1","0","1","0","0","1","0","0","3","4","3","4","3","1","4","4","3","2","2","794660896956882945","陈","538","","","","","","","","","","","","","","","","","","","true","13","3","moral","798","negative","不孝","","","","","","","","","","","","","","","","",""
"null","","null","html-keyboard-response","67","180247","0.0-6.0-1.0-6.0-0.4","3","3","3","3","3","3","3","3","2","4","3","3","4","2","3","3","3","3","2","3","4","4","4","4","4","3","4","2","3","1","0","0","0","0","0","0","1","0","1","0","0","1","0","0","3","4","3","4","3","1","4","4","3","2","2","794660896956882945","陈","538","","","","","","","","","","","","","","","","","","","","","","","","","","","","","","","","","","","","","","","","","",""
"604","<p style=""color:rgb(150, 250, 100); font-size: 35px;"">本人的</p>","i","categorize-html","68","180851","0.0-6.0-1.0-6.0-1.4","3","3","3","3","3","3","3","3","2","4","3","3","4","2","3","3","3","3","2","3","4","4","4","4","4","3","4","2","3","1","0","0","0","0","0","0","1","0","1","0","0","1","0","0","3","4","3","4","3","1","4","4","3","2","2","794660896956882945","陈","538","","","","","","","","","","","","","","","","","","","true","13","3","moral","604","self","本人的","","","","","","","","","","","","","","","","",""
"null","","null","html-keyboard-response","69","181121","0.0-6.0-1.0-6.0-0.5","3","3","3","3","3","3","3","3","2","4","3","3","4","2","3","3","3","3","2","3","4","4","4","4","4","3","4","2","3","1","0","0","0","0","0","0","1","0","1","0","0","1","0","0","3","4","3","4","3","1","4","4","3","2","2","794660896956882945","陈","538","","","","","","","","","","","","","","","","","","","","","","","","","","","","","","","","","","","","","","","","","",""
"742","<p style=""color:white; font-size: 35px;"">小人</p>","e","categorize-html","70","181864","0.0-6.0-1.0-6.0-1.5","3","3","3","3","3","3","3","3","2","4","3","3","4","2","3","3","3","3","2","3","4","4","4","4","4","3","4","2","3","1","0","0","0","0","0","0","1","0","1","0","0","1","0","0","3","4","3","4","3","1","4","4","3","2","2","794660896956882945","陈","538","","","","","","","","","","","","","","","","","","","true","13","3","moral","742","negative","小人","","","","","","","","","","","","","","","","",""
"null","","null","html-keyboard-response","71","182115","0.0-6.0-1.0-6.0-0.6","3","3","3","3","3","3","3","3","2","4","3","3","4","2","3","3","3","3","2","3","4","4","4","4","4","3","4","2","3","1","0","0","0","0","0","0","1","0","1","0","0","1","0","0","3","4","3","4","3","1","4","4","3","2","2","794660896956882945","陈","538","","","","","","","","","","","","","","","","","","","","","","","","","","","","","","","","","","","","","","","","","",""
"1182","<p style=""color:rgb(150, 250, 100); font-size: 35px;"">他</p>","e","categorize-html","72","183297","0.0-6.0-1.0-6.0-1.6","3","3","3","3","3","3","3","3","2","4","3","3","4","2","3","3","3","3","2","3","4","4","4","4","4","3","4","2","3","1","0","0","0","0","0","0","1","0","1","0","0","1","0","0","3","4","3","4","3","1","4","4","3","2","2","794660896956882945","陈","538","","","","","","","","","","","","","","","","","","","true","13","3","moral","1182","other","他","","","","","","","","","","","","","","","","",""
"null","","null","html-keyboard-response","73","183548","0.0-6.0-1.0-6.0-0.7","3","3","3","3","3","3","3","3","2","4","3","3","4","2","3","3","3","3","2","3","4","4","4","4","4","3","4","2","3","1","0","0","0","0","0","0","1","0","1","0","0","1","0","0","3","4","3","4","3","1","4","4","3","2","2","794660896956882945","陈","538","","","","","","","","","","","","","","","","","","","","","","","","","","","","","","","","","","","","","","","","","",""
"723","<p style=""color:white; font-size: 35px;"">高尚</p>","i","categorize-html","74","184271","0.0-6.0-1.0-6.0-1.7","3","3","3","3","3","3","3","3","2","4","3","3","4","2","3","3","3","3","2","3","4","4","4","4","4","3","4","2","3","1","0","0","0","0","0","0","1","0","1","0","0","1","0","0","3","4","3","4","3","1","4","4","3","2","2","794660896956882945","陈","538","","","","","","","","","","","","","","","","","","","true","13","3","moral","723","positive","高尚","","","","","","","","","","","","","","","","",""
"null","","null","html-keyboard-response","75","184522","0.0-6.0-1.0-6.0-0.8","3","3","3","3","3","3","3","3","2","4","3","3","4","2","3","3","3","3","2","3","4","4","4","4","4","3","4","2","3","1","0","0","0","0","0","0","1","0","1","0","0","1","0","0","3","4","3","4","3","1","4","4","3","2","2","794660896956882945","陈","538","","","","","","","","","","","","","","","","","","","","","","","","","","","","","","","","","","","","","","","","","",""
"588","<p style=""color:rgb(150, 250, 100); font-size: 35px;"">他的</p>","e","categorize-html","76","185111","0.0-6.0-1.0-6.0-1.8","3","3","3","3","3","3","3","3","2","4","3","3","4","2","3","3","3","3","2","3","4","4","4","4","4","3","4","2","3","1","0","0","0","0","0","0","1","0","1","0","0","1","0","0","3","4","3","4","3","1","4","4","3","2","2","794660896956882945","陈","538","","","","","","","","","","","","","","","","","","","true","13","3","moral","588","other","他的","","","","","","","","","","","","","","","","",""
"null","","null","html-keyboard-response","77","185361","0.0-6.0-1.0-6.0-0.9","3","3","3","3","3","3","3","3","2","4","3","3","4","2","3","3","3","3","2","3","4","4","4","4","4","3","4","2","3","1","0","0","0","0","0","0","1","0","1","0","0","1","0","0","3","4","3","4","3","1","4","4","3","2","2","794660896956882945","陈","538","","","","","","","","","","","","","","","","","","","","","","","","","","","","","","","","","","","","","","","","","",""
"770","<p style=""color:white; font-size: 35px;"">诚信</p>","i","categorize-html","78","186132","0.0-6.0-1.0-6.0-1.9","3","3","3","3","3","3","3","3","2","4","3","3","4","2","3","3","3","3","2","3","4","4","4","4","4","3","4","2","3","1","0","0","0","0","0","0","1","0","1","0","0","1","0","0","3","4","3","4","3","1","4","4","3","2","2","794660896956882945","陈","538","","","","","","","","","","","","","","","","","","","true","13","3","moral","770","positive","诚信","","","","","","","","","","","","","","","","",""
"null","","null","html-keyboard-response","79","186382","0.0-6.0-1.0-6.0-0.10","3","3","3","3","3","3","3","3","2","4","3","3","4","2","3","3","3","3","2","3","4","4","4","4","4","3","4","2","3","1","0","0","0","0","0","0","1","0","1","0","0","1","0","0","3","4","3","4","3","1","4","4","3","2","2","794660896956882945","陈","538","","","","","","","","","","","","","","","","","","","","","","","","","","","","","","","","","","","","","","","","","",""
"545","<p style=""color:rgb(150, 250, 100); font-size: 35px;"">我</p>","i","categorize-html","80","186928","0.0-6.0-1.0-6.0-1.10","3","3","3","3","3","3","3","3","2","4","3","3","4","2","3","3","3","3","2","3","4","4","4","4","4","3","4","2","3","1","0","0","0","0","0","0","1","0","1","0","0","1","0","0","3","4","3","4","3","1","4","4","3","2","2","794660896956882945","陈","538","","","","","","","","","","","","","","","","","","","true","13","3","moral","545","self","我","","","","","","","","","","","","","","","","",""
"null","","null","html-keyboard-response","81","187179","0.0-6.0-1.0-6.0-0.11","3","3","3","3","3","3","3","3","2","4","3","3","4","2","3","3","3","3","2","3","4","4","4","4","4","3","4","2","3","1","0","0","0","0","0","0","1","0","1","0","0","1","0","0","3","4","3","4","3","1","4","4","3","2","2","794660896956882945","陈","538","","","","","","","","","","","","","","","","","","","","","","","","","","","","","","","","","","","","","","","","","",""
"680","<p style=""color:white; font-size: 35px;"">不仁</p>","e","categorize-html","82","187859","0.0-6.0-1.0-6.0-1.11","3","3","3","3","3","3","3","3","2","4","3","3","4","2","3","3","3","3","2","3","4","4","4","4","4","3","4","2","3","1","0","0","0","0","0","0","1","0","1","0","0","1","0","0","3","4","3","4","3","1","4","4","3","2","2","794660896956882945","陈","538","","","","","","","","","","","","","","","","","","","true","13","3","moral","680","negative","不仁","","","","","","","","","","","","","","","","",""
"null","","null","html-keyboard-response","83","188110","0.0-6.0-1.0-6.0-0.12","3","3","3","3","3","3","3","3","2","4","3","3","4","2","3","3","3","3","2","3","4","4","4","4","4","3","4","2","3","1","0","0","0","0","0","0","1","0","1","0","0","1","0","0","3","4","3","4","3","1","4","4","3","2","2","794660896956882945","陈","538","","","","","","","","","","","","","","","","","","","","","","","","","","","","","","","","","","","","","","","","","",""
"620","<p style=""color:rgb(150, 250, 100); font-size: 35px;"">自己</p>","i","categorize-html","84","188731","0.0-6.0-1.0-6.0-1.12","3","3","3","3","3","3","3","3","2","4","3","3","4","2","3","3","3","3","2","3","4","4","4","4","4","3","4","2","3","1","0","0","0","0","0","0","1","0","1","0","0","1","0","0","3","4","3","4","3","1","4","4","3","2","2","794660896956882945","陈","538","","","","","","","","","","","","","","","","","","","true","13","3","moral","620","self","自己","","","","","","","","","","","","","","","","",""
"null","","null","html-keyboard-response","85","188983","0.0-6.0-1.0-6.0-0.13","3","3","3","3","3","3","3","3","2","4","3","3","4","2","3","3","3","3","2","3","4","4","4","4","4","3","4","2","3","1","0","0","0","0","0","0","1","0","1","0","0","1","0","0","3","4","3","4","3","1","4","4","3","2","2","794660896956882945","陈","538","","","","","","","","","","","","","","","","","","","","","","","","","","","","","","","","","","","","","","","","","",""
"583","<p style=""color:white; font-size: 35px;"">善良</p>","i","categorize-html","86","189567","0.0-6.0-1.0-6.0-1.13","3","3","3","3","3","3","3","3","2","4","3","3","4","2","3","3","3","3","2","3","4","4","4","4","4","3","4","2","3","1","0","0","0","0","0","0","1","0","1","0","0","1","0","0","3","4","3","4","3","1","4","4","3","2","2","794660896956882945","陈","538","","","","","","","","","","","","","","","","","","","true","13","3","moral","583","positive","善良","","","","","","","","","","","","","","","","",""
"null","","null","html-keyboard-response","87","189818","0.0-6.0-1.0-6.0-0.14","3","3","3","3","3","3","3","3","2","4","3","3","4","2","3","3","3","3","2","3","4","4","4","4","4","3","4","2","3","1","0","0","0","0","0","0","1","0","1","0","0","1","0","0","3","4","3","4","3","1","4","4","3","2","2","794660896956882945","陈","538","","","","","","","","","","","","","","","","","","","","","","","","","","","","","","","","","","","","","","","","","",""
"691","<p style=""color:rgb(150, 250, 100); font-size: 35px;"">别人</p>","e","categorize-html","88","190509","0.0-6.0-1.0-6.0-1.14","3","3","3","3","3","3","3","3","2","4","3","3","4","2","3","3","3","3","2","3","4","4","4","4","4","3","4","2","3","1","0","0","0","0","0","0","1","0","1","0","0","1","0","0","3","4","3","4","3","1","4","4","3","2","2","794660896956882945","陈","538","","","","","","","","","","","","","","","","","","","true","13","3","moral","691","other","别人","","","","","","","","","","","","","","","","",""
"null","","null","html-keyboard-response","89","190761","0.0-6.0-1.0-6.0-0.15","3","3","3","3","3","3","3","3","2","4","3","3","4","2","3","3","3","3","2","3","4","4","4","4","4","3","4","2","3","1","0","0","0","0","0","0","1","0","1","0","0","1","0","0","3","4","3","4","3","1","4","4","3","2","2","794660896956882945","陈","538","","","","","","","","","","","","","","","","","","","","","","","","","","","","","","","","","","","","","","","","","",""
"1817","<p style=""color:white; font-size: 35px;"">卑鄙</p>","e","categorize-html","90","192578","0.0-6.0-1.0-6.0-1.15","3","3","3","3","3","3","3","3","2","4","3","3","4","2","3","3","3","3","2","3","4","4","4","4","4","3","4","2","3","1","0","0","0","0","0","0","1","0","1","0","0","1","0","0","3","4","3","4","3","1","4","4","3","2","2","794660896956882945","陈","538","","","","","","","","","","","","","","","","","","","true","13","3","moral","1817","negative","卑鄙","","","","","","","","","","","","","","","","",""
"null","","null","html-keyboard-response","91","192829","0.0-6.0-1.0-6.0-0.16","3","3","3","3","3","3","3","3","2","4","3","3","4","2","3","3","3","3","2","3","4","4","4","4","4","3","4","2","3","1","0","0","0","0","0","0","1","0","1","0","0","1","0","0","3","4","3","4","3","1","4","4","3","2","2","794660896956882945","陈","538","","","","","","","","","","","","","","","","","","","","","","","","","","","","","","","","","","","","","","","","","",""
"821","<p style=""color:rgb(150, 250, 100); font-size: 35px;"">他人</p>","e","categorize-html","92","193651","0.0-6.0-1.0-6.0-1.16","3","3","3","3","3","3","3","3","2","4","3","3","4","2","3","3","3","3","2","3","4","4","4","4","4","3","4","2","3","1","0","0","0","0","0","0","1","0","1","0","0","1","0","0","3","4","3","4","3","1","4","4","3","2","2","794660896956882945","陈","538","","","","","","","","","","","","","","","","","","","true","13","3","moral","821","other","他人","","","","","","","","","","","","","","","","",""
"null","","null","html-keyboard-response","93","193901","0.0-6.0-1.0-6.0-0.17","3","3","3","3","3","3","3","3","2","4","3","3","4","2","3","3","3","3","2","3","4","4","4","4","4","3","4","2","3","1","0","0","0","0","0","0","1","0","1","0","0","1","0","0","3","4","3","4","3","1","4","4","3","2","2","794660896956882945","陈","538","","","","","","","","","","","","","","","","","","","","","","","","","","","","","","","","","","","","","","","","","",""
"612","<p style=""color:white; font-size: 35px;"">廉正</p>","i","categorize-html","94","194513","0.0-6.0-1.0-6.0-1.17","3","3","3","3","3","3","3","3","2","4","3","3","4","2","3","3","3","3","2","3","4","4","4","4","4","3","4","2","3","1","0","0","0","0","0","0","1","0","1","0","0","1","0","0","3","4","3","4","3","1","4","4","3","2","2","794660896956882945","陈","538","","","","","","","","","","","","","","","","","","","true","13","3","moral","612","positive","廉正","","","","","","","","","","","","","","","","",""
"null","","null","html-keyboard-response","95","194764","0.0-6.0-1.0-6.0-0.18","3","3","3","3","3","3","3","3","2","4","3","3","4","2","3","3","3","3","2","3","4","4","4","4","4","3","4","2","3","1","0","0","0","0","0","0","1","0","1","0","0","1","0","0","3","4","3","4","3","1","4","4","3","2","2","794660896956882945","陈","538","","","","","","","","","","","","","","","","","","","","","","","","","","","","","","","","","","","","","","","","","",""
"632","<p style=""color:rgb(150, 250, 100); font-size: 35px;"">自己的</p>","i","categorize-html","96","195396","0.0-6.0-1.0-6.0-1.18","3","3","3","3","3","3","3","3","2","4","3","3","4","2","3","3","3","3","2","3","4","4","4","4","4","3","4","2","3","1","0","0","0","0","0","0","1","0","1","0","0","1","0","0","3","4","3","4","3","1","4","4","3","2","2","794660896956882945","陈","538","","","","","","","","","","","","","","","","","","","true","13","3","moral","632","self","自己的","","","","","","","","","","","","","","","","",""
"null","","null","html-keyboard-response","97","195648","0.0-6.0-1.0-6.0-0.19","3","3","3","3","3","3","3","3","2","4","3","3","4","2","3","3","3","3","2","3","4","4","4","4","4","3","4","2","3","1","0","0","0","0","0","0","1","0","1","0","0","1","0","0","3","4","3","4","3","1","4","4","3","2","2","794660896956882945","陈","538","","","","","","","","","","","","","","","","","","","","","","","","","","","","","","","","","","","","","","","","","",""
"573","<p style=""color:white; font-size: 35px;"">黑心</p>","e","categorize-html","98","196221","0.0-6.0-1.0-6.0-1.19","3","3","3","3","3","3","3","3","2","4","3","3","4","2","3","3","3","3","2","3","4","4","4","4","4","3","4","2","3","1","0","0","0","0","0","0","1","0","1","0","0","1","0","0","3","4","3","4","3","1","4","4","3","2","2","794660896956882945","陈","538","","","","","","","","","","","","","","","","","","","true","13","3","moral","573","negative","黑心","","","","","","","","","","","","","","","","",""
"null","","null","html-keyboard-response","99","196472","0.0-6.0-1.0-6.0-0.20","3","3","3","3","3","3","3","3","2","4","3","3","4","2","3","3","3","3","2","3","4","4","4","4","4","3","4","2","3","1","0","0","0","0","0","0","1","0","1","0","0","1","0","0","3","4","3","4","3","1","4","4","3","2","2","794660896956882945","陈","538","","","","","","","","","","","","","","","","","","","","","","","","","","","","","","","","","","","","","","","","","",""
"607","<p style=""color:rgb(150, 250, 100); font-size: 35px;"">本人</p>","i","categorize-html","100","197079","0.0-6.0-1.0-6.0-1.20","3","3","3","3","3","3","3","3","2","4","3","3","4","2","3","3","3","3","2","3","4","4","4","4","4","3","4","2","3","1","0","0","0","0","0","0","1","0","1","0","0","1","0","0","3","4","3","4","3","1","4","4","3","2","2","794660896956882945","陈","538","","","","","","","","","","","","","","","","","","","true","13","3","moral","607","self","本人","","","","","","","","","","","","","","","","",""
"null","","null","html-keyboard-response","101","197330","0.0-6.0-1.0-6.0-0.21","3","3","3","3","3","3","3","3","2","4","3","3","4","2","3","3","3","3","2","3","4","4","4","4","4","3","4","2","3","1","0","0","0","0","0","0","1","0","1","0","0","1","0","0","3","4","3","4","3","1","4","4","3","2","2","794660896956882945","陈","538","","","","","","","","","","","","","","","","","","","","","","","","","","","","","","","","","","","","","","","","","",""
"621","<p style=""color:white; font-size: 35px;"">君子</p>","i","categorize-html","102","197951","0.0-6.0-1.0-6.0-1.21","3","3","3","3","3","3","3","3","2","4","3","3","4","2","3","3","3","3","2","3","4","4","4","4","4","3","4","2","3","1","0","0","0","0","0","0","1","0","1","0","0","1","0","0","3","4","3","4","3","1","4","4","3","2","2","794660896956882945","陈","538","","","","","","","","","","","","","","","","","","","true","13","3","moral","621","positive","君子","","","","","","","","","","","","","","","","",""
"null","","null","html-keyboard-response","103","198202","0.0-6.0-1.0-6.0-0.22","3","3","3","3","3","3","3","3","2","4","3","3","4","2","3","3","3","3","2","3","4","4","4","4","4","3","4","2","3","1","0","0","0","0","0","0","1","0","1","0","0","1","0","0","3","4","3","4","3","1","4","4","3","2","2","794660896956882945","陈","538","","","","","","","","","","","","","","","","","","","","","","","","","","","","","","","","","","","","","","","","","",""
"550","<p style=""color:rgb(150, 250, 100); font-size: 35px;"">他人的</p>","e","categorize-html","104","198752","0.0-6.0-1.0-6.0-1.22","3","3","3","3","3","3","3","3","2","4","3","3","4","2","3","3","3","3","2","3","4","4","4","4","4","3","4","2","3","1","0","0","0","0","0","0","1","0","1","0","0","1","0","0","3","4","3","4","3","1","4","4","3","2","2","794660896956882945","陈","538","","","","","","","","","","","","","","","","","","","true","13","3","moral","550","other","他人的","","","","","","","","","","","","","","","","",""
"null","","null","html-keyboard-response","105","199003","0.0-6.0-1.0-6.0-0.23","3","3","3","3","3","3","3","3","2","4","3","3","4","2","3","3","3","3","2","3","4","4","4","4","4","3","4","2","3","1","0","0","0","0","0","0","1","0","1","0","0","1","0","0","3","4","3","4","3","1","4","4","3","2","2","794660896956882945","陈","538","","","","","","","","","","","","","","","","","","","","","","","","","","","","","","","","","","","","","","","","","",""
"988","<p style=""color:white; font-size: 35px;"">缺德</p>","e","categorize-html","106","199991","0.0-6.0-1.0-6.0-1.23","3","3","3","3","3","3","3","3","2","4","3","3","4","2","3","3","3","3","2","3","4","4","4","4","4","3","4","2","3","1","0","0","0","0","0","0","1","0","1","0","0","1","0","0","3","4","3","4","3","1","4","4","3","2","2","794660896956882945","陈","538","","","","","","","","","","","","","","","","","","","true","13","3","moral","988","negative","缺德","","","","","","","","","","","","","","","","",""
"1809","
    <div class=""tag-bottom""><p>
    —— 任务4：对“他人/消极”词和“自我/积极”词分类 ——<p/>
    <span style=""color:#78DCE8""><b>与刚才的任务完全相同，请再次对这四类词语分类</b></span><p/>
    <span style=""color:#FFD866""><b>请根据上方标签的提示，尽可能正确并且快速地做出按键反应</b></span><p/>
    当按键错误时屏幕中会出现<span style=""color:red""> X </span>，需要按另一个键纠正才能继续<br/><p/>
    请把双手食指分别放在键盘的“E”键和“I”键上<p/>
    按<空格键>开始
    </p></div>"," ","html-keyboard-response","107","201801","0.0-6.0-1.0-7.0","3","3","3","3","3","3","3","3","2","4","3","3","4","2","3","3","3","3","2","3","4","4","4","4","4","3","4","2","3","1","0","0","0","0","0","0","1","0","1","0","0","1","0","0","3","4","3","4","3","1","4","4","3","2","2","794660896956882945","陈","538","","","","","","","","","","","","","","","","","","","","","","","","","","","","","","","","","","","","","","","","","",""
"null","","null","html-keyboard-response","108","202051","0.0-6.0-1.0-8.0-0.0","3","3","3","3","3","3","3","3","2","4","3","3","4","2","3","3","3","3","2","3","4","4","4","4","4","3","4","2","3","1","0","0","0","0","0","0","1","0","1","0","0","1","0","0","3","4","3","4","3","1","4","4","3","2","2","794660896956882945","陈","538","","","","","","","","","","","","","","","","","","","","","","","","","","","","","","","","","","","","","","","","","",""
"2093","<p style=""color:rgb(150, 250, 100); font-size: 35px;"">自己的</p>","i","categorize-html","109","204145","0.0-6.0-1.0-8.0-1.0","3","3","3","3","3","3","3","3","2","4","3","3","4","2","3","3","3","3","2","3","4","4","4","4","4","3","4","2","3","1","0","0","0","0","0","0","1","0","1","0","0","1","0","0","3","4","3","4","3","1","4","4","3","2","2","794660896956882945","陈","538","","","","","","","","","","","","","","","","","","","true","14","4","moral","2093","self","自己的","","","","","","","","","","","","","","","","",""
"null","","null","html-keyboard-response","110","204397","0.0-6.0-1.0-8.0-0.1","3","3","3","3","3","3","3","3","2","4","3","3","4","2","3","3","3","3","2","3","4","4","4","4","4","3","4","2","3","1","0","0","0","0","0","0","1","0","1","0","0","1","0","0","3","4","3","4","3","1","4","4","3","2","2","794660896956882945","陈","538","","","","","","","","","","","","","","","","","","","","","","","","","","","","","","","","","","","","","","","","","",""
"588","<p style=""color:white; font-size: 35px;"">善良</p>","i","categorize-html","111","204986","0.0-6.0-1.0-8.0-1.1","3","3","3","3","3","3","3","3","2","4","3","3","4","2","3","3","3","3","2","3","4","4","4","4","4","3","4","2","3","1","0","0","0","0","0","0","1","0","1","0","0","1","0","0","3","4","3","4","3","1","4","4","3","2","2","794660896956882945","陈","538","","","","","","","","","","","","","","","","","","","true","14","4","moral","588","positive","善良","","","","","","","","","","","","","","","","",""
"null","","null","html-keyboard-response","112","205239","0.0-6.0-1.0-8.0-0.2","3","3","3","3","3","3","3","3","2","4","3","3","4","2","3","3","3","3","2","3","4","4","4","4","4","3","4","2","3","1","0","0","0","0","0","0","1","0","1","0","0","1","0","0","3","4","3","4","3","1","4","4","3","2","2","794660896956882945","陈","538","","","","","","","","","","","","","","","","","","","","","","","","","","","","","","","","","","","","","","","","","",""
"670","<p style=""color:rgb(150, 250, 100); font-size: 35px;"">别人</p>","e","categorize-html","113","205909","0.0-6.0-1.0-8.0-1.2","3","3","3","3","3","3","3","3","2","4","3","3","4","2","3","3","3","3","2","3","4","4","4","4","4","3","4","2","3","1","0","0","0","0","0","0","1","0","1","0","0","1","0","0","3","4","3","4","3","1","4","4","3","2","2","794660896956882945","陈","538","","","","","","","","","","","","","","","","","","","true","14","4","moral","670","other","别人","","","","","","","","","","","","","","","","",""
"null","","null","html-keyboard-response","114","206161","0.0-6.0-1.0-8.0-0.3","3","3","3","3","3","3","3","3","2","4","3","3","4","2","3","3","3","3","2","3","4","4","4","4","4","3","4","2","3","1","0","0","0","0","0","0","1","0","1","0","0","1","0","0","3","4","3","4","3","1","4","4","3","2","2","794660896956882945","陈","538","","","","","","","","","","","","","","","","","","","","","","","","","","","","","","","","","","","","","","","","","",""
"532","<p style=""color:white; font-size: 35px;"">卑鄙</p>","e","categorize-html","115","206695","0.0-6.0-1.0-8.0-1.3","3","3","3","3","3","3","3","3","2","4","3","3","4","2","3","3","3","3","2","3","4","4","4","4","4","3","4","2","3","1","0","0","0","0","0","0","1","0","1","0","0","1","0","0","3","4","3","4","3","1","4","4","3","2","2","794660896956882945","陈","538","","","","","","","","","","","","","","","","","","","true","14","4","moral","532","negative","卑鄙","","","","","","","","","","","","","","","","",""
"null","","null","html-keyboard-response","116","206946","0.0-6.0-1.0-8.0-0.4","3","3","3","3","3","3","3","3","2","4","3","3","4","2","3","3","3","3","2","3","4","4","4","4","4","3","4","2","3","1","0","0","0","0","0","0","1","0","1","0","0","1","0","0","3","4","3","4","3","1","4","4","3","2","2","794660896956882945","陈","538","","","","","","","","","","","","","","","","","","","","","","","","","","","","","","","","","","","","","","","","","",""
"493","<p style=""color:rgb(150, 250, 100); font-size: 35px;"">自己</p>","i","categorize-html","117","207440","0.0-6.0-1.0-8.0-1.4","3","3","3","3","3","3","3","3","2","4","3","3","4","2","3","3","3","3","2","3","4","4","4","4","4","3","4","2","3","1","0","0","0","0","0","0","1","0","1","0","0","1","0","0","3","4","3","4","3","1","4","4","3","2","2","794660896956882945","陈","538","","","","","","","","","","","","","","","","","","","true","14","4","moral","493","self","自己","","","","","","","","","","","","","","","","",""
"null","","null","html-keyboard-response","118","207692","0.0-6.0-1.0-8.0-0.5","3","3","3","3","3","3","3","3","2","4","3","3","4","2","3","3","3","3","2","3","4","4","4","4","4","3","4","2","3","1","0","0","0","0","0","0","1","0","1","0","0","1","0","0","3","4","3","4","3","1","4","4","3","2","2","794660896956882945","陈","538","","","","","","","","","","","","","","","","","","","","","","","","","","","","","","","","","","","","","","","","","",""
"603","<p style=""color:white; font-size: 35px;"">不孝</p>","e","categorize-html","119","208297","0.0-6.0-1.0-8.0-1.5","3","3","3","3","3","3","3","3","2","4","3","3","4","2","3","3","3","3","2","3","4","4","4","4","4","3","4","2","3","1","0","0","0","0","0","0","1","0","1","0","0","1","0","0","3","4","3","4","3","1","4","4","3","2","2","794660896956882945","陈","538","","","","","","","","","","","","","","","","","","","true","14","4","moral","603","negative","不孝","","","","","","","","","","","","","","","","",""
"null","","null","html-keyboard-response","120","208548","0.0-6.0-1.0-8.0-0.6","3","3","3","3","3","3","3","3","2","4","3","3","4","2","3","3","3","3","2","3","4","4","4","4","4","3","4","2","3","1","0","0","0","0","0","0","1","0","1","0","0","1","0","0","3","4","3","4","3","1","4","4","3","2","2","794660896956882945","陈","538","","","","","","","","","","","","","","","","","","","","","","","","","","","","","","","","","","","","","","","","","",""
"508","<p style=""color:rgb(150, 250, 100); font-size: 35px;"">他人的</p>","e","categorize-html","121","209058","0.0-6.0-1.0-8.0-1.6","3","3","3","3","3","3","3","3","2","4","3","3","4","2","3","3","3","3","2","3","4","4","4","4","4","3","4","2","3","1","0","0","0","0","0","0","1","0","1","0","0","1","0","0","3","4","3","4","3","1","4","4","3","2","2","794660896956882945","陈","538","","","","","","","","","","","","","","","","","","","true","14","4","moral","508","other","他人的","","","","","","","","","","","","","","","","",""
"null","","null","html-keyboard-response","122","209309","0.0-6.0-1.0-8.0-0.7","3","3","3","3","3","3","3","3","2","4","3","3","4","2","3","3","3","3","2","3","4","4","4","4","4","3","4","2","3","1","0","0","0","0","0","0","1","0","1","0","0","1","0","0","3","4","3","4","3","1","4","4","3","2","2","794660896956882945","陈","538","","","","","","","","","","","","","","","","","","","","","","","","","","","","","","","","","","","","","","","","","",""
"532","<p style=""color:white; font-size: 35px;"">正直</p>","i","categorize-html","123","209842","0.0-6.0-1.0-8.0-1.7","3","3","3","3","3","3","3","3","2","4","3","3","4","2","3","3","3","3","2","3","4","4","4","4","4","3","4","2","3","1","0","0","0","0","0","0","1","0","1","0","0","1","0","0","3","4","3","4","3","1","4","4","3","2","2","794660896956882945","陈","538","","","","","","","","","","","","","","","","","","","true","14","4","moral","532","positive","正直","","","","","","","","","","","","","","","","",""
"null","","null","html-keyboard-response","124","210093","0.0-6.0-1.0-8.0-0.8","3","3","3","3","3","3","3","3","2","4","3","3","4","2","3","3","3","3","2","3","4","4","4","4","4","3","4","2","3","1","0","0","0","0","0","0","1","0","1","0","0","1","0","0","3","4","3","4","3","1","4","4","3","2","2","794660896956882945","陈","538","","","","","","","","","","","","","","","","","","","","","","","","","","","","","","","","","","","","","","","","","",""
"525","<p style=""color:rgb(150, 250, 100); font-size: 35px;"">别人的</p>","e","categorize-html","125","210619","0.0-6.0-1.0-8.0-1.8","3","3","3","3","3","3","3","3","2","4","3","3","4","2","3","3","3","3","2","3","4","4","4","4","4","3","4","2","3","1","0","0","0","0","0","0","1","0","1","0","0","1","0","0","3","4","3","4","3","1","4","4","3","2","2","794660896956882945","陈","538","","","","","","","","","","","","","","","","","","","true","14","4","moral","525","other","别人的","","","","","","","","","","","","","","","","",""
"null","","null","html-keyboard-response","126","210871","0.0-6.0-1.0-8.0-0.9","3","3","3","3","3","3","3","3","2","4","3","3","4","2","3","3","3","3","2","3","4","4","4","4","4","3","4","2","3","1","0","0","0","0","0","0","1","0","1","0","0","1","0","0","3","4","3","4","3","1","4","4","3","2","2","794660896956882945","陈","538","","","","","","","","","","","","","","","","","","","","","","","","","","","","","","","","","","","","","","","","","",""
"714","<p style=""color:white; font-size: 35px;"">诚信</p>","i","categorize-html","127","211586","0.0-6.0-1.0-8.0-1.9","3","3","3","3","3","3","3","3","2","4","3","3","4","2","3","3","3","3","2","3","4","4","4","4","4","3","4","2","3","1","0","0","0","0","0","0","1","0","1","0","0","1","0","0","3","4","3","4","3","1","4","4","3","2","2","794660896956882945","陈","538","","","","","","","","","","","","","","","","","","","true","14","4","moral","714","positive","诚信","","","","","","","","","","","","","","","","",""
"null","","null","html-keyboard-response","128","211837","0.0-6.0-1.0-8.0-0.10","3","3","3","3","3","3","3","3","2","4","3","3","4","2","3","3","3","3","2","3","4","4","4","4","4","3","4","2","3","1","0","0","0","0","0","0","1","0","1","0","0","1","0","0","3","4","3","4","3","1","4","4","3","2","2","794660896956882945","陈","538","","","","","","","","","","","","","","","","","","","","","","","","","","","","","","","","","","","","","","","","","",""
"782","<p style=""color:rgb(150, 250, 100); font-size: 35px;"">我的</p>","i","categorize-html","129","212621","0.0-6.0-1.0-8.0-1.10","3","3","3","3","3","3","3","3","2","4","3","3","4","2","3","3","3","3","2","3","4","4","4","4","4","3","4","2","3","1","0","0","0","0","0","0","1","0","1","0","0","1","0","0","3","4","3","4","3","1","4","4","3","2","2","794660896956882945","陈","538","","","","","","","","","","","","","","","","","","","true","14","4","moral","782","self","我的","","","","","","","","","","","","","","","","",""
"null","","null","html-keyboard-response","130","212872","0.0-6.0-1.0-8.0-0.11","3","3","3","3","3","3","3","3","2","4","3","3","4","2","3","3","3","3","2","3","4","4","4","4","4","3","4","2","3","1","0","0","0","0","0","0","1","0","1","0","0","1","0","0","3","4","3","4","3","1","4","4","3","2","2","794660896956882945","陈","538","","","","","","","","","","","","","","","","","","","","","","","","","","","","","","","","","","","","","","","","","",""
"612","<p style=""color:white; font-size: 35px;"">小人</p>","e","categorize-html","131","213485","0.0-6.0-1.0-8.0-1.11","3","3","3","3","3","3","3","3","2","4","3","3","4","2","3","3","3","3","2","3","4","4","4","4","4","3","4","2","3","1","0","0","0","0","0","0","1","0","1","0","0","1","0","0","3","4","3","4","3","1","4","4","3","2","2","794660896956882945","陈","538","","","","","","","","","","","","","","","","","","","true","14","4","moral","612","negative","小人","","","","","","","","","","","","","","","","",""
"null","","null","html-keyboard-response","132","213736","0.0-6.0-1.0-8.0-0.12","3","3","3","3","3","3","3","3","2","4","3","3","4","2","3","3","3","3","2","3","4","4","4","4","4","3","4","2","3","1","0","0","0","0","0","0","1","0","1","0","0","1","0","0","3","4","3","4","3","1","4","4","3","2","2","794660896956882945","陈","538","","","","","","","","","","","","","","","","","","","","","","","","","","","","","","","","","","","","","","","","","",""
"578","<p style=""color:rgb(150, 250, 100); font-size: 35px;"">自己的</p>","i","categorize-html","133","214316","0.0-6.0-1.0-8.0-1.12","3","3","3","3","3","3","3","3","2","4","3","3","4","2","3","3","3","3","2","3","4","4","4","4","4","3","4","2","3","1","0","0","0","0","0","0","1","0","1","0","0","1","0","0","3","4","3","4","3","1","4","4","3","2","2","794660896956882945","陈","538","","","","","","","","","","","","","","","","","","","true","14","4","moral","578","self","自己的","","","","","","","","","","","","","","","","",""
"null","","null","html-keyboard-response","134","214566","0.0-6.0-1.0-8.0-0.13","3","3","3","3","3","3","3","3","2","4","3","3","4","2","3","3","3","3","2","3","4","4","4","4","4","3","4","2","3","1","0","0","0","0","0","0","1","0","1","0","0","1","0","0","3","4","3","4","3","1","4","4","3","2","2","794660896956882945","陈","538","","","","","","","","","","","","","","","","","","","","","","","","","","","","","","","","","","","","","","","","","",""
"654","<p style=""color:white; font-size: 35px;"">君子</p>","i","categorize-html","135","215222","0.0-6.0-1.0-8.0-1.13","3","3","3","3","3","3","3","3","2","4","3","3","4","2","3","3","3","3","2","3","4","4","4","4","4","3","4","2","3","1","0","0","0","0","0","0","1","0","1","0","0","1","0","0","3","4","3","4","3","1","4","4","3","2","2","794660896956882945","陈","538","","","","","","","","","","","","","","","","","","","true","14","4","moral","654","positive","君子","","","","","","","","","","","","","","","","",""
"null","","null","html-keyboard-response","136","215473","0.0-6.0-1.0-8.0-0.14","3","3","3","3","3","3","3","3","2","4","3","3","4","2","3","3","3","3","2","3","4","4","4","4","4","3","4","2","3","1","0","0","0","0","0","0","1","0","1","0","0","1","0","0","3","4","3","4","3","1","4","4","3","2","2","794660896956882945","陈","538","","","","","","","","","","","","","","","","","","","","","","","","","","","","","","","","","","","","","","","","","",""
"571","<p style=""color:rgb(150, 250, 100); font-size: 35px;"">他的</p>","e","categorize-html","137","216045","0.0-6.0-1.0-8.0-1.14","3","3","3","3","3","3","3","3","2","4","3","3","4","2","3","3","3","3","2","3","4","4","4","4","4","3","4","2","3","1","0","0","0","0","0","0","1","0","1","0","0","1","0","0","3","4","3","4","3","1","4","4","3","2","2","794660896956882945","陈","538","","","","","","","","","","","","","","","","","","","true","14","4","moral","571","other","他的","","","","","","","","","","","","","","","","",""
"null","","null","html-keyboard-response","138","216296","0.0-6.0-1.0-8.0-0.15","3","3","3","3","3","3","3","3","2","4","3","3","4","2","3","3","3","3","2","3","4","4","4","4","4","3","4","2","3","1","0","0","0","0","0","0","1","0","1","0","0","1","0","0","3","4","3","4","3","1","4","4","3","2","2","794660896956882945","陈","538","","","","","","","","","","","","","","","","","","","","","","","","","","","","","","","","","","","","","","","","","",""
"473","<p style=""color:white; font-size: 35px;"">不孝</p>","e","categorize-html","139","216771","0.0-6.0-1.0-8.0-1.15","3","3","3","3","3","3","3","3","2","4","3","3","4","2","3","3","3","3","2","3","4","4","4","4","4","3","4","2","3","1","0","0","0","0","0","0","1","0","1","0","0","1","0","0","3","4","3","4","3","1","4","4","3","2","2","794660896956882945","陈","538","","","","","","","","","","","","","","","","","","","true","14","4","moral","473","negative","不孝","","","","","","","","","","","","","","","","",""
"null","","null","html-keyboard-response","140","217022","0.0-6.0-1.0-8.0-0.16","3","3","3","3","3","3","3","3","2","4","3","3","4","2","3","3","3","3","2","3","4","4","4","4","4","3","4","2","3","1","0","0","0","0","0","0","1","0","1","0","0","1","0","0","3","4","3","4","3","1","4","4","3","2","2","794660896956882945","陈","538","","","","","","","","","","","","","","","","","","","","","","","","","","","","","","","","","","","","","","","","","",""
"414","<p style=""color:rgb(150, 250, 100); font-size: 35px;"">我</p>","i","categorize-html","141","217438","0.0-6.0-1.0-8.0-1.16","3","3","3","3","3","3","3","3","2","4","3","3","4","2","3","3","3","3","2","3","4","4","4","4","4","3","4","2","3","1","0","0","0","0","0","0","1","0","1","0","0","1","0","0","3","4","3","4","3","1","4","4","3","2","2","794660896956882945","陈","538","","","","","","","","","","","","","","","","","","","true","14","4","moral","414","self","我","","","","","","","","","","","","","","","","",""
"null","","null","html-keyboard-response","142","217689","0.0-6.0-1.0-8.0-0.17","3","3","3","3","3","3","3","3","2","4","3","3","4","2","3","3","3","3","2","3","4","4","4","4","4","3","4","2","3","1","0","0","0","0","0","0","1","0","1","0","0","1","0","0","3","4","3","4","3","1","4","4","3","2","2","794660896956882945","陈","538","","","","","","","","","","","","","","","","","","","","","","","","","","","","","","","","","","","","","","","","","",""
"673","<p style=""color:white; font-size: 35px;"">高尚</p>","i","categorize-html","143","218363","0.0-6.0-1.0-8.0-1.17","3","3","3","3","3","3","3","3","2","4","3","3","4","2","3","3","3","3","2","3","4","4","4","4","4","3","4","2","3","1","0","0","0","0","0","0","1","0","1","0","0","1","0","0","3","4","3","4","3","1","4","4","3","2","2","794660896956882945","陈","538","","","","","","","","","","","","","","","","","","","true","14","4","moral","673","positive","高尚","","","","","","","","","","","","","","","","",""
"null","","null","html-keyboard-response","144","218615","0.0-6.0-1.0-8.0-0.18","3","3","3","3","3","3","3","3","2","4","3","3","4","2","3","3","3","3","2","3","4","4","4","4","4","3","4","2","3","1","0","0","0","0","0","0","1","0","1","0","0","1","0","0","3","4","3","4","3","1","4","4","3","2","2","794660896956882945","陈","538","","","","","","","","","","","","","","","","","","","","","","","","","","","","","","","","","","","","","","","","","",""
"564","<p style=""color:rgb(150, 250, 100); font-size: 35px;"">他人的</p>","e","categorize-html","145","219180","0.0-6.0-1.0-8.0-1.18","3","3","3","3","3","3","3","3","2","4","3","3","4","2","3","3","3","3","2","3","4","4","4","4","4","3","4","2","3","1","0","0","0","0","0","0","1","0","1","0","0","1","0","0","3","4","3","4","3","1","4","4","3","2","2","794660896956882945","陈","538","","","","","","","","","","","","","","","","","","","true","14","4","moral","564","other","他人的","","","","","","","","","","","","","","","","",""
"null","","null","html-keyboard-response","146","219461","0.0-6.0-1.0-8.0-0.19","3","3","3","3","3","3","3","3","2","4","3","3","4","2","3","3","3","3","2","3","4","4","4","4","4","3","4","2","3","1","0","0","0","0","0","0","1","0","1","0","0","1","0","0","3","4","3","4","3","1","4","4","3","2","2","794660896956882945","陈","538","","","","","","","","","","","","","","","","","","","","","","","","","","","","","","","","","","","","","","","","","",""
"634","<p style=""color:white; font-size: 35px;"">缺德</p>","e","categorize-html","147","220097","0.0-6.0-1.0-8.0-1.19","3","3","3","3","3","3","3","3","2","4","3","3","4","2","3","3","3","3","2","3","4","4","4","4","4","3","4","2","3","1","0","0","0","0","0","0","1","0","1","0","0","1","0","0","3","4","3","4","3","1","4","4","3","2","2","794660896956882945","陈","538","","","","","","","","","","","","","","","","","","","true","14","4","moral","634","negative","缺德","","","","","","","","","","","","","","","","",""
"null","","null","html-keyboard-response","148","220347","0.0-6.0-1.0-8.0-0.20","3","3","3","3","3","3","3","3","2","4","3","3","4","2","3","3","3","3","2","3","4","4","4","4","4","3","4","2","3","1","0","0","0","0","0","0","1","0","1","0","0","1","0","0","3","4","3","4","3","1","4","4","3","2","2","794660896956882945","陈","538","","","","","","","","","","","","","","","","","","","","","","","","","","","","","","","","","","","","","","","","","",""
"418","<p style=""color:rgb(150, 250, 100); font-size: 35px;"">本人的</p>","i","categorize-html","149","220767","0.0-6.0-1.0-8.0-1.20","3","3","3","3","3","3","3","3","2","4","3","3","4","2","3","3","3","3","2","3","4","4","4","4","4","3","4","2","3","1","0","0","0","0","0","0","1","0","1","0","0","1","0","0","3","4","3","4","3","1","4","4","3","2","2","794660896956882945","陈","538","","","","","","","","","","","","","","","","","","","true","14","4","moral","418","self","本人的","","","","","","","","","","","","","","","","",""
"null","","null","html-keyboard-response","150","221018","0.0-6.0-1.0-8.0-0.21","3","3","3","3","3","3","3","3","2","4","3","3","4","2","3","3","3","3","2","3","4","4","4","4","4","3","4","2","3","1","0","0","0","0","0","0","1","0","1","0","0","1","0","0","3","4","3","4","3","1","4","4","3","2","2","794660896956882945","陈","538","","","","","","","","","","","","","","","","","","","","","","","","","","","","","","","","","","","","","","","","","",""
"531","<p style=""color:white; font-size: 35px;"">君子</p>","i","categorize-html","151","221550","0.0-6.0-1.0-8.0-1.21","3","3","3","3","3","3","3","3","2","4","3","3","4","2","3","3","3","3","2","3","4","4","4","4","4","3","4","2","3","1","0","0","0","0","0","0","1","0","1","0","0","1","0","0","3","4","3","4","3","1","4","4","3","2","2","794660896956882945","陈","538","","","","","","","","","","","","","","","","","","","true","14","4","moral","531","positive","君子","","","","","","","","","","","","","","","","",""
"null","","null","html-keyboard-response","152","221802","0.0-6.0-1.0-8.0-0.22","3","3","3","3","3","3","3","3","2","4","3","3","4","2","3","3","3","3","2","3","4","4","4","4","4","3","4","2","3","1","0","0","0","0","0","0","1","0","1","0","0","1","0","0","3","4","3","4","3","1","4","4","3","2","2","794660896956882945","陈","538","","","","","","","","","","","","","","","","","","","","","","","","","","","","","","","","","","","","","","","","","",""
"554","<p style=""color:rgb(150, 250, 100); font-size: 35px;"">他人</p>","e","categorize-html","153","222357","0.0-6.0-1.0-8.0-1.22","3","3","3","3","3","3","3","3","2","4","3","3","4","2","3","3","3","3","2","3","4","4","4","4","4","3","4","2","3","1","0","0","0","0","0","0","1","0","1","0","0","1","0","0","3","4","3","4","3","1","4","4","3","2","2","794660896956882945","陈","538","","","","","","","","","","","","","","","","","","","true","14","4","moral","554","other","他人","","","","","","","","","","","","","","","","",""
"null","","null","html-keyboard-response","154","222609","0.0-6.0-1.0-8.0-0.23","3","3","3","3","3","3","3","3","2","4","3","3","4","2","3","3","3","3","2","3","4","4","4","4","4","3","4","2","3","1","0","0","0","0","0","0","1","0","1","0","0","1","0","0","3","4","3","4","3","1","4","4","3","2","2","794660896956882945","陈","538","","","","","","","","","","","","","","","","","","","","","","","","","","","","","","","","","","","","","","","","","",""
"701","<p style=""color:white; font-size: 35px;"">缺德</p>","e","categorize-html","155","223312","0.0-6.0-1.0-8.0-1.23","3","3","3","3","3","3","3","3","2","4","3","3","4","2","3","3","3","3","2","3","4","4","4","4","4","3","4","2","3","1","0","0","0","0","0","0","1","0","1","0","0","1","0","0","3","4","3","4","3","1","4","4","3","2","2","794660896956882945","陈","538","","","","","","","","","","","","","","","","","","","true","14","4","moral","701","negative","缺德","","","","","","","","","","","","","","","","",""
"null","","null","html-keyboard-response","156","223563","0.0-6.0-1.0-8.0-0.24","3","3","3","3","3","3","3","3","2","4","3","3","4","2","3","3","3","3","2","3","4","4","4","4","4","3","4","2","3","1","0","0","0","0","0","0","1","0","1","0","0","1","0","0","3","4","3","4","3","1","4","4","3","2","2","794660896956882945","陈","538","","","","","","","","","","","","","","","","","","","","","","","","","","","","","","","","","","","","","","","","","",""
"397","<p style=""color:rgb(150, 250, 100); font-size: 35px;"">自己</p>","i","categorize-html","157","223961","0.0-6.0-1.0-8.0-1.24","3","3","3","3","3","3","3","3","2","4","3","3","4","2","3","3","3","3","2","3","4","4","4","4","4","3","4","2","3","1","0","0","0","0","0","0","1","0","1","0","0","1","0","0","3","4","3","4","3","1","4","4","3","2","2","794660896956882945","陈","538","","","","","","","","","","","","","","","","","","","true","14","4","moral","397","self","自己","","","","","","","","","","","","","","","","",""
"null","","null","html-keyboard-response","158","224212","0.0-6.0-1.0-8.0-0.25","3","3","3","3","3","3","3","3","2","4","3","3","4","2","3","3","3","3","2","3","4","4","4","4","4","3","4","2","3","1","0","0","0","0","0","0","1","0","1","0","0","1","0","0","3","4","3","4","3","1","4","4","3","2","2","794660896956882945","陈","538","","","","","","","","","","","","","","","","","","","","","","","","","","","","","","","","","","","","","","","","","",""
"477","<p style=""color:white; font-size: 35px;"">高尚</p>","i","categorize-html","159","224691","0.0-6.0-1.0-8.0-1.25","3","3","3","3","3","3","3","3","2","4","3","3","4","2","3","3","3","3","2","3","4","4","4","4","4","3","4","2","3","1","0","0","0","0","0","0","1","0","1","0","0","1","0","0","3","4","3","4","3","1","4","4","3","2","2","794660896956882945","陈","538","","","","","","","","","","","","","","","","","","","true","14","4","moral","477","positive","高尚","","","","","","","","","","","","","","","","",""
"null","","null","html-keyboard-response","160","224942","0.0-6.0-1.0-8.0-0.26","3","3","3","3","3","3","3","3","2","4","3","3","4","2","3","3","3","3","2","3","4","4","4","4","4","3","4","2","3","1","0","0","0","0","0","0","1","0","1","0","0","1","0","0","3","4","3","4","3","1","4","4","3","2","2","794660896956882945","陈","538","","","","","","","","","","","","","","","","","","","","","","","","","","","","","","","","","","","","","","","","","",""
"575","<p style=""color:rgb(150, 250, 100); font-size: 35px;"">他</p>","e","categorize-html","161","225519","0.0-6.0-1.0-8.0-1.26","3","3","3","3","3","3","3","3","2","4","3","3","4","2","3","3","3","3","2","3","4","4","4","4","4","3","4","2","3","1","0","0","0","0","0","0","1","0","1","0","0","1","0","0","3","4","3","4","3","1","4","4","3","2","2","794660896956882945","陈","538","","","","","","","","","","","","","","","","","","","true","14","4","moral","575","other","他","","","","","","","","","","","","","","","","",""
"null","","null","html-keyboard-response","162","225770","0.0-6.0-1.0-8.0-0.27","3","3","3","3","3","3","3","3","2","4","3","3","4","2","3","3","3","3","2","3","4","4","4","4","4","3","4","2","3","1","0","0","0","0","0","0","1","0","1","0","0","1","0","0","3","4","3","4","3","1","4","4","3","2","2","794660896956882945","陈","538","","","","","","","","","","","","","","","","","","","","","","","","","","","","","","","","","","","","","","","","","",""
"545","<p style=""color:white; font-size: 35px;"">黑心</p>","e","categorize-html","163","226317","0.0-6.0-1.0-8.0-1.27","3","3","3","3","3","3","3","3","2","4","3","3","4","2","3","3","3","3","2","3","4","4","4","4","4","3","4","2","3","1","0","0","0","0","0","0","1","0","1","0","0","1","0","0","3","4","3","4","3","1","4","4","3","2","2","794660896956882945","陈","538","","","","","","","","","","","","","","","","","","","true","14","4","moral","545","negative","黑心","","","","","","","","","","","","","","","","",""
"null","","null","html-keyboard-response","164","226568","0.0-6.0-1.0-8.0-0.28","3","3","3","3","3","3","3","3","2","4","3","3","4","2","3","3","3","3","2","3","4","4","4","4","4","3","4","2","3","1","0","0","0","0","0","0","1","0","1","0","0","1","0","0","3","4","3","4","3","1","4","4","3","2","2","794660896956882945","陈","538","","","","","","","","","","","","","","","","","","","","","","","","","","","","","","","","","","","","","","","","","",""
"453","<p style=""color:rgb(150, 250, 100); font-size: 35px;"">别人的</p>","i","categorize-html","165","228590","0.0-6.0-1.0-8.0-1.28","3","3","3","3","3","3","3","3","2","4","3","3","4","2","3","3","3","3","2","3","4","4","4","4","4","3","4","2","3","1","0","0","0","0","0","0","1","0","1","0","0","1","0","0","3","4","3","4","3","1","4","4","3","2","2","794660896956882945","陈","538","","","","","","","","","","","","","","","","","","","false","14","4","moral","1220.3555555555556","other","别人的","","","","","","","","","","","","","","","","",""
"null","","null","html-keyboard-response","166","228841","0.0-6.0-1.0-8.0-0.29","3","3","3","3","3","3","3","3","2","4","3","3","4","2","3","3","3","3","2","3","4","4","4","4","4","3","4","2","3","1","0","0","0","0","0","0","1","0","1","0","0","1","0","0","3","4","3","4","3","1","4","4","3","2","2","794660896956882945","陈","538","","","","","","","","","","","","","","","","","","","","","","","","","","","","","","","","","","","","","","","","","",""
"1104","<p style=""color:white; font-size: 35px;"">诚信</p>","i","categorize-html","167","229946","0.0-6.0-1.0-8.0-1.29","3","3","3","3","3","3","3","3","2","4","3","3","4","2","3","3","3","3","2","3","4","4","4","4","4","3","4","2","3","1","0","0","0","0","0","0","1","0","1","0","0","1","0","0","3","4","3","4","3","1","4","4","3","2","2","794660896956882945","陈","538","","","","","","","","","","","","","","","","","","","true","14","4","moral","1104","positive","诚信","","","","","","","","","","","","","","","","",""
"null","","null","html-keyboard-response","168","230198","0.0-6.0-1.0-8.0-0.30","3","3","3","3","3","3","3","3","2","4","3","3","4","2","3","3","3","3","2","3","4","4","4","4","4","3","4","2","3","1","0","0","0","0","0","0","1","0","1","0","0","1","0","0","3","4","3","4","3","1","4","4","3","2","2","794660896956882945","陈","538","","","","","","","","","","","","","","","","","","","","","","","","","","","","","","","","","","","","","","","","","",""
"537","<p style=""color:rgb(150, 250, 100); font-size: 35px;"">本人</p>","i","categorize-html","169","230736","0.0-6.0-1.0-8.0-1.30","3","3","3","3","3","3","3","3","2","4","3","3","4","2","3","3","3","3","2","3","4","4","4","4","4","3","4","2","3","1","0","0","0","0","0","0","1","0","1","0","0","1","0","0","3","4","3","4","3","1","4","4","3","2","2","794660896956882945","陈","538","","","","","","","","","","","","","","","","","","","true","14","4","moral","537","self","本人","","","","","","","","","","","","","","","","",""
"null","","null","html-keyboard-response","170","230987","0.0-6.0-1.0-8.0-0.31","3","3","3","3","3","3","3","3","2","4","3","3","4","2","3","3","3","3","2","3","4","4","4","4","4","3","4","2","3","1","0","0","0","0","0","0","1","0","1","0","0","1","0","0","3","4","3","4","3","1","4","4","3","2","2","794660896956882945","陈","538","","","","","","","","","","","","","","","","","","","","","","","","","","","","","","","","","","","","","","","","","",""
"612","<p style=""color:white; font-size: 35px;"">不仁</p>","e","categorize-html","171","231600","0.0-6.0-1.0-8.0-1.31","3","3","3","3","3","3","3","3","2","4","3","3","4","2","3","3","3","3","2","3","4","4","4","4","4","3","4","2","3","1","0","0","0","0","0","0","1","0","1","0","0","1","0","0","3","4","3","4","3","1","4","4","3","2","2","794660896956882945","陈","538","","","","","","","","","","","","","","","","","","","true","14","4","moral","612","negative","不仁","","","","","","","","","","","","","","","","",""
"null","","null","html-keyboard-response","172","231852","0.0-6.0-1.0-8.0-0.32","3","3","3","3","3","3","3","3","2","4","3","3","4","2","3","3","3","3","2","3","4","4","4","4","4","3","4","2","3","1","0","0","0","0","0","0","1","0","1","0","0","1","0","0","3","4","3","4","3","1","4","4","3","2","2","794660896956882945","陈","538","","","","","","","","","","","","","","","","","","","","","","","","","","","","","","","","","","","","","","","","","",""
"562","<p style=""color:rgb(150, 250, 100); font-size: 35px;"">我的</p>","i","categorize-html","173","232415","0.0-6.0-1.0-8.0-1.32","3","3","3","3","3","3","3","3","2","4","3","3","4","2","3","3","3","3","2","3","4","4","4","4","4","3","4","2","3","1","0","0","0","0","0","0","1","0","1","0","0","1","0","0","3","4","3","4","3","1","4","4","3","2","2","794660896956882945","陈","538","","","","","","","","","","","","","","","","","","","true","14","4","moral","562","self","我的","","","","","","","","","","","","","","","","",""
"null","","null","html-keyboard-response","174","232666","0.0-6.0-1.0-8.0-0.33","3","3","3","3","3","3","3","3","2","4","3","3","4","2","3","3","3","3","2","3","4","4","4","4","4","3","4","2","3","1","0","0","0","0","0","0","1","0","1","0","0","1","0","0","3","4","3","4","3","1","4","4","3","2","2","794660896956882945","陈","538","","","","","","","","","","","","","","","","","","","","","","","","","","","","","","","","","","","","","","","","","",""
"496","<p style=""color:white; font-size: 35px;"">廉正</p>","i","categorize-html","175","233164","0.0-6.0-1.0-8.0-1.33","3","3","3","3","3","3","3","3","2","4","3","3","4","2","3","3","3","3","2","3","4","4","4","4","4","3","4","2","3","1","0","0","0","0","0","0","1","0","1","0","0","1","0","0","3","4","3","4","3","1","4","4","3","2","2","794660896956882945","陈","538","","","","","","","","","","","","","","","","","","","true","14","4","moral","496","positive","廉正","","","","","","","","","","","","","","","","",""
"null","","null","html-keyboard-response","176","233414","0.0-6.0-1.0-8.0-0.34","3","3","3","3","3","3","3","3","2","4","3","3","4","2","3","3","3","3","2","3","4","4","4","4","4","3","4","2","3","1","0","0","0","0","0","0","1","0","1","0","0","1","0","0","3","4","3","4","3","1","4","4","3","2","2","794660896956882945","陈","538","","","","","","","","","","","","","","","","","","","","","","","","","","","","","","","","","","","","","","","","","",""
"554","<p style=""color:rgb(150, 250, 100); font-size: 35px;"">别人</p>","e","categorize-html","177","233970","0.0-6.0-1.0-8.0-1.34","3","3","3","3","3","3","3","3","2","4","3","3","4","2","3","3","3","3","2","3","4","4","4","4","4","3","4","2","3","1","0","0","0","0","0","0","1","0","1","0","0","1","0","0","3","4","3","4","3","1","4","4","3","2","2","794660896956882945","陈","538","","","","","","","","","","","","","","","","","","","true","14","4","moral","554","other","别人","","","","","","","","","","","","","","","","",""
"null","","null","html-keyboard-response","178","234221","0.0-6.0-1.0-8.0-0.35","3","3","3","3","3","3","3","3","2","4","3","3","4","2","3","3","3","3","2","3","4","4","4","4","4","3","4","2","3","1","0","0","0","0","0","0","1","0","1","0","0","1","0","0","3","4","3","4","3","1","4","4","3","2","2","794660896956882945","陈","538","","","","","","","","","","","","","","","","","","","","","","","","","","","","","","","","","","","","","","","","","",""
"590","<p style=""color:white; font-size: 35px;"">卑鄙</p>","e","categorize-html","179","234813","0.0-6.0-1.0-8.0-1.35","3","3","3","3","3","3","3","3","2","4","3","3","4","2","3","3","3","3","2","3","4","4","4","4","4","3","4","2","3","1","0","0","0","0","0","0","1","0","1","0","0","1","0","0","3","4","3","4","3","1","4","4","3","2","2","794660896956882945","陈","538","","","","","","","","","","","","","","","","","","","true","14","4","moral","590","negative","卑鄙","","","","","","","","","","","","","","","","",""
"null","","null","html-keyboard-response","180","235063","0.0-6.0-1.0-8.0-0.36","3","3","3","3","3","3","3","3","2","4","3","3","4","2","3","3","3","3","2","3","4","4","4","4","4","3","4","2","3","1","0","0","0","0","0","0","1","0","1","0","0","1","0","0","3","4","3","4","3","1","4","4","3","2","2","794660896956882945","陈","538","","","","","","","","","","","","","","","","","","","","","","","","","","","","","","","","","","","","","","","","","",""
"488","<p style=""color:rgb(150, 250, 100); font-size: 35px;"">本人</p>","i","categorize-html","181","235553","0.0-6.0-1.0-8.0-1.36","3","3","3","3","3","3","3","3","2","4","3","3","4","2","3","3","3","3","2","3","4","4","4","4","4","3","4","2","3","1","0","0","0","0","0","0","1","0","1","0","0","1","0","0","3","4","3","4","3","1","4","4","3","2","2","794660896956882945","陈","538","","","","","","","","","","","","","","","","","","","true","14","4","moral","488","self","本人","","","","","","","","","","","","","","","","",""
"null","","null","html-keyboard-response","182","235811","0.0-6.0-1.0-8.0-0.37","3","3","3","3","3","3","3","3","2","4","3","3","4","2","3","3","3","3","2","3","4","4","4","4","4","3","4","2","3","1","0","0","0","0","0","0","1","0","1","0","0","1","0","0","3","4","3","4","3","1","4","4","3","2","2","794660896956882945","陈","538","","","","","","","","","","","","","","","","","","","","","","","","","","","","","","","","","","","","","","","","","",""
"629","<p style=""color:white; font-size: 35px;"">不仁</p>","e","categorize-html","183","236441","0.0-6.0-1.0-8.0-1.37","3","3","3","3","3","3","3","3","2","4","3","3","4","2","3","3","3","3","2","3","4","4","4","4","4","3","4","2","3","1","0","0","0","0","0","0","1","0","1","0","0","1","0","0","3","4","3","4","3","1","4","4","3","2","2","794660896956882945","陈","538","","","","","","","","","","","","","","","","","","","true","14","4","moral","629","negative","不仁","","","","","","","","","","","","","","","","",""
"null","","null","html-keyboard-response","184","236704","0.0-6.0-1.0-8.0-0.38","3","3","3","3","3","3","3","3","2","4","3","3","4","2","3","3","3","3","2","3","4","4","4","4","4","3","4","2","3","1","0","0","0","0","0","0","1","0","1","0","0","1","0","0","3","4","3","4","3","1","4","4","3","2","2","794660896956882945","陈","538","","","","","","","","","","","","","","","","","","","","","","","","","","","","","","","","","","","","","","","","","",""
"560","<p style=""color:rgb(150, 250, 100); font-size: 35px;"">他人</p>","e","categorize-html","185","237266","0.0-6.0-1.0-8.0-1.38","3","3","3","3","3","3","3","3","2","4","3","3","4","2","3","3","3","3","2","3","4","4","4","4","4","3","4","2","3","1","0","0","0","0","0","0","1","0","1","0","0","1","0","0","3","4","3","4","3","1","4","4","3","2","2","794660896956882945","陈","538","","","","","","","","","","","","","","","","","","","true","14","4","moral","560","other","他人","","","","","","","","","","","","","","","","",""
"null","","null","html-keyboard-response","186","237516","0.0-6.0-1.0-8.0-0.39","3","3","3","3","3","3","3","3","2","4","3","3","4","2","3","3","3","3","2","3","4","4","4","4","4","3","4","2","3","1","0","0","0","0","0","0","1","0","1","0","0","1","0","0","3","4","3","4","3","1","4","4","3","2","2","794660896956882945","陈","538","","","","","","","","","","","","","","","","","","","","","","","","","","","","","","","","","","","","","","","","","",""
"620","<p style=""color:white; font-size: 35px;"">善良</p>","i","categorize-html","187","238138","0.0-6.0-1.0-8.0-1.39","3","3","3","3","3","3","3","3","2","4","3","3","4","2","3","3","3","3","2","3","4","4","4","4","4","3","4","2","3","1","0","0","0","0","0","0","1","0","1","0","0","1","0","0","3","4","3","4","3","1","4","4","3","2","2","794660896956882945","陈","538","","","","","","","","","","","","","","","","","","","true","14","4","moral","620","positive","善良","","","","","","","","","","","","","","","","",""
"null","","null","html-keyboard-response","188","238390","0.0-6.0-1.0-8.0-0.40","3","3","3","3","3","3","3","3","2","4","3","3","4","2","3","3","3","3","2","3","4","4","4","4","4","3","4","2","3","1","0","0","0","0","0","0","1","0","1","0","0","1","0","0","3","4","3","4","3","1","4","4","3","2","2","794660896956882945","陈","538","","","","","","","","","","","","","","","","","","","","","","","","","","","","","","","","","","","","","","","","","",""
"560","<p style=""color:rgb(150, 250, 100); font-size: 35px;"">他</p>","e","categorize-html","189","238952","0.0-6.0-1.0-8.0-1.40","3","3","3","3","3","3","3","3","2","4","3","3","4","2","3","3","3","3","2","3","4","4","4","4","4","3","4","2","3","1","0","0","0","0","0","0","1","0","1","0","0","1","0","0","3","4","3","4","3","1","4","4","3","2","2","794660896956882945","陈","538","","","","","","","","","","","","","","","","","","","true","14","4","moral","560","other","他","","","","","","","","","","","","","","","","",""
"null","","null","html-keyboard-response","190","239203","0.0-6.0-1.0-8.0-0.41","3","3","3","3","3","3","3","3","2","4","3","3","4","2","3","3","3","3","2","3","4","4","4","4","4","3","4","2","3","1","0","0","0","0","0","0","1","0","1","0","0","1","0","0","3","4","3","4","3","1","4","4","3","2","2","794660896956882945","陈","538","","","","","","","","","","","","","","","","","","","","","","","","","","","","","","","","","","","","","","","","","",""
"897","<p style=""color:white; font-size: 35px;"">正直</p>","i","categorize-html","191","240101","0.0-6.0-1.0-8.0-1.41","3","3","3","3","3","3","3","3","2","4","3","3","4","2","3","3","3","3","2","3","4","4","4","4","4","3","4","2","3","1","0","0","0","0","0","0","1","0","1","0","0","1","0","0","3","4","3","4","3","1","4","4","3","2","2","794660896956882945","陈","538","","","","","","","","","","","","","","","","","","","true","14","4","moral","897","positive","正直","","","","","","","","","","","","","","","","",""
"null","","null","html-keyboard-response","192","240352","0.0-6.0-1.0-8.0-0.42","3","3","3","3","3","3","3","3","2","4","3","3","4","2","3","3","3","3","2","3","4","4","4","4","4","3","4","2","3","1","0","0","0","0","0","0","1","0","1","0","0","1","0","0","3","4","3","4","3","1","4","4","3","2","2","794660896956882945","陈","538","","","","","","","","","","","","","","","","","","","","","","","","","","","","","","","","","","","","","","","","","",""
"449","<p style=""color:rgb(150, 250, 100); font-size: 35px;"">我</p>","i","categorize-html","193","240802","0.0-6.0-1.0-8.0-1.42","3","3","3","3","3","3","3","3","2","4","3","3","4","2","3","3","3","3","2","3","4","4","4","4","4","3","4","2","3","1","0","0","0","0","0","0","1","0","1","0","0","1","0","0","3","4","3","4","3","1","4","4","3","2","2","794660896956882945","陈","538","","","","","","","","","","","","","","","","","","","true","14","4","moral","449","self","我","","","","","","","","","","","","","","","","",""
