"rt","stimulus","response","trial_type","trial_index","time_elapsed","internal_node_id","ses_1","ses_2","ses_3","ses_4","ses_5","ses_6","ses_7","ses_8","ses_9","ses_10","coreself_1","coreself_2","coreself_3","coreself_4","coreself_5","coreself_6","coreself_7","coreself_8","coreself_9","coreself_10","SGPS_1","SGPS_2","SGPS_3","SGPS_4","SGPS_5","SGPS_6","SGPS_7","SGPS_8","SGPS_9","NPI1","NPI2","NPI3","NPI4","NPI5","NPI6","NPI7","NPI8","NPI9","NPI10","NPI11","NPI12","NPI13","NPI14","NPI15","hsns_1","hsns_2","hsns_3","hsns_4","hsns_5","trap1","hsns_6","hsns_7","hsns_8","hsns_9","hsns_10","subj_idx","friend_name","ParticipantID","value","success","user_agent","responses","item_order","radio_event_ids","radio_event_times","key_event_times","mouse_event_times","straightlining","zigzagging","honeypot","timeout","failed_images","failed_audio","failed_video","version_attrib2","version_target2","correct","IAT","screen_id","task_id","RT","condition","word","varname","summary","version_attrib","version_target","time_stamp","view_history","response_type","key_press","avg_frame_time","center_x","center_y","correct_response","identity","Image","question_order","correct_answer","trap1_item"
"3719","
   <p><div style = ""color: white;font-size:25px;"">您好，欢迎参加本次实验。</div> </p>
   <p><div style = ""color: white;font-size:25px;"">为充分保障您的权利，请确保您已经知晓并同意《参与实验同意书》以及《数据公开知情同意书》。</div></p>
   <p><div style = ""color: white;font-size:25px;"">如果您未见过上述内容，请咨询实验员。</div></p>
   <p><div style = ""color: white;font-size:25px;"">如果您选择继续实验，则表示您已经清楚两份知情同意书的内容并同意。</div></p>
   <p><div style = ""color: pink;font-size:30px;"">请确保您记得day0的实验编号，您将在本次实验输入该编号，若您忘记，请咨询实验员后作答。</div></p>
   <p><div style = ""color: lightblue;font-size:25px;"">请您尽可能认真地作答，我们将依据您在各问卷和按键任务中的作答质量发放报酬。</div></p>
   <p> <div style = ""color: green;font-size:25px;""><按空格键至下页></div> </p>
   "," ","html-keyboard-response","0","3724","0.0-0.0","4","3","4","4","3","3","3","2","4","3","4","4","4","5","5","4","4","5","4","4","4","5","4","4","4","4","4","5","4","1","0","1","1","0","1","0","1","0","1","1","0","1","0","1","5","4","4","2","4","2","2","4","4","4","4","776852011219161090","刘","395","","","","","","","","","","","","","","","","","","","","","","","","","","","","","","","","","","","","","","","","","",""
"","","","call-function","1","3725","0.0-1.0-0.0","4","3","4","4","3","3","3","2","4","3","4","4","4","5","5","4","4","5","4","4","4","5","4","4","4","4","4","5","4","1","0","1","1","0","1","0","1","0","1","1","0","1","0","1","5","4","4","2","4","2","2","4","4","4","4","776852011219161090","刘","395","","","","","","","","","","","","","","","","","","","","","","","","","","","","","","","","","","","","","","","","","",""
"31741","","{""friend_name"":""刘"",""ParticipantID"":""395""}","survey-html-form","2","35467","0.0-1.0-1.0","4","3","4","4","3","3","3","2","4","3","4","4","4","5","5","4","4","5","4","4","4","5","4","4","4","4","4","5","4","1","0","1","1","0","1","0","1","0","1","1","0","1","0","1","5","4","4","2","4","2","2","4","4","4","4","776852011219161090","刘","395","","","","","","","","","","","","","","","","","","","","","","","","","","","","","","","","","","","","","","","","","",""
"","","","fullscreen","3","37690","0.0-2.0","4","3","4","4","3","3","3","2","4","3","4","4","4","5","5","4","4","5","4","4","4","5","4","4","4","4","4","5","4","1","0","1","1","0","1","0","1","0","1","1","0","1","0","1","5","4","4","2","4","2","2","4","4","4","4","776852011219161090","刘","395","","true","{}","","","","","","","","","","","","","","","","","","","","","","","","","","","","","","","","","","","","","","",""
"22342.600000023842","","{""Q01"":""4"",""Q02"":""3"",""Q03"":""4"",""Q04"":""4"",""Q05"":""3"",""Q06"":""3"",""Q07"":""3"",""Q08"":""2"",""Q09"":""4"",""Q10"":""3""}","survey-template","4","60039","0.0-3.0","4","3","4","4","3","3","3","2","4","3","4","4","4","5","5","4","4","5","4","4","4","5","4","4","4","4","4","5","4","1","0","1","1","0","1","0","1","0","1","1","0","1","0","1","5","4","4","2","4","2","2","4","4","4","4","776852011219161090","刘","395","","","","{""Q01"":""4"",""Q02"":""3"",""Q03"":""4"",""Q04"":""4"",""Q05"":""3"",""Q06"":""3"",""Q07"":""3"",""Q08"":""2"",""Q09"":""4"",""Q10"":""3""}","[0,1,2,3,4,5,6,7,8,9]","[""Q01"",""Q02"",""Q03"",""Q04"",""Q05"",""Q06"",""Q07"",""Q08"",""Q09"",""Q10""]","[5348.300000011921,7260.400000035763,8180.100000023842,9557.199999988079,10596.100000023842,11835.900000035763,13572,14924.100000023842,16388.100000023842,20163.80000001192]","[]","[5064,5348.300000011921,6305,7260.400000035763,8180.100000023842,9557.199999988079,10596.100000023842,11484.300000011921,11835.900000035763,13572,14924.100000023842,16388.100000023842,19364.69999998808,20163.80000001192,22340.30000001192]","0.4","0.4444444444444444","0","","","","","","","","","","","","","","","","","","","","","","","","","","","","","",""
"27377.19999998808","","{""Q01"":""4"",""Q02"":""4"",""Q03"":""4"",""Q04"":""5"",""Q05"":""5"",""Q06"":""4"",""Q07"":""4"",""Q08"":""5"",""Q09"":""4"",""Q10"":""4""}","survey-template","5","87426","0.0-4.0","4","3","4","4","3","3","3","2","4","3","4","4","4","5","5","4","4","5","4","4","4","5","4","4","4","4","4","5","4","1","0","1","1","0","1","0","1","0","1","1","0","1","0","1","5","4","4","2","4","2","2","4","4","4","4","776852011219161090","刘","395","","","","{""Q01"":""4"",""Q02"":""4"",""Q03"":""4"",""Q04"":""5"",""Q05"":""5"",""Q06"":""4"",""Q07"":""4"",""Q08"":""5"",""Q09"":""4"",""Q10"":""4""}","[0,1,2,3,4,5,6,7,8,9]","[""Q01"",""Q02"",""Q03"",""Q04"",""Q05"",""Q06"",""Q07"",""Q08"",""Q09"",""Q09"",""Q10"",""Q10""]","[4523.5,6979.600000023842,7827.400000035763,12019.5,13675.5,16288.300000011921,18611.900000035763,20611.80000001192,22619.69999998808,22867.80000001192,24275.5,25876]","[]","[1971.5,4523.5,5723.900000035763,6667.400000035763,6979.600000023842,7435.600000023842,7827.400000035763,12019.5,13675.5,15523.5,16288.300000011921,18187.5,18611.900000035763,20611.80000001192,22619.69999998808,22867.80000001192,24275.5,25397.400000035763,25876,27375.19999998808]","0.4","0.2222222222222222","0","","","","","","","","","","","","","","","","","","","","","","","","","","","","","",""
"","","","preload","6","88209","0.0-5.0","4","3","4","4","3","3","3","2","4","3","4","4","4","5","5","4","4","5","4","4","4","5","4","4","4","4","4","5","4","1","0","1","1","0","1","0","1","0","1","1","0","1","0","1","5","4","4","2","4","2","2","4","4","4","4","776852011219161090","刘","395","","true","","","","","","","","","","","false","[]","[]","[]","","","","","","","","","","","","","","","","","","","","","","","","","",""
"14262","
    <h3>词语分类任务</h3>
    <p>在接下来的任务中，你需要对一系列词语进行分类。<p/>
    请先熟悉这些词语，这有利于你完成接下来的任务。</p>
    <table align=""center"" border=1 cellpadding=3 cellspacing=0>
    <tr> <th>类别</th> <th>词语</th> </tr>
    <tr> <td>&emsp;积极&emsp;</td> <td>&emsp;高尚、诚信、善良、君子、廉正、正直&emsp;</td> </tr>
    <tr> <td>&emsp;消极&emsp;</td> <td>&emsp;缺德、卑鄙、不孝、不仁、小人、黑心&emsp;</td> </tr>
    <tr> <td>&emsp;自我&emsp;</td> <td>&emsp;我、我的、自己、自己的、本人、本人的&emsp;</td> </tr>
    <tr> <td>&emsp;他人&emsp;</td> <td>&emsp;他、他的、别人、别人的、他人、他人的&emsp;</td> </tr>
    </table><br/>","0","html-button-response","7","102476","0.0-6.0-1.0-0.0","4","3","4","4","3","3","3","2","4","3","4","4","4","5","5","4","4","5","4","4","4","5","4","4","4","4","4","5","4","1","0","1","1","0","1","0","1","0","1","1","0","1","0","1","5","4","4","2","4","2","2","4","4","4","4","776852011219161090","刘","395","","","","","","","","","","","","","","","","","2","1","","","","","","","","","","","","","","","","","","","","","","","",""
"11512","
    <div class=""tag-bottom""><p>
    —— 任务1：对“自我”词和“他人”词分类 ——<p/>
    不同词语会出现在屏幕中央，类别标签将始终显示在屏幕上方<p/>   
    <span style=""color:#FFD866""><b>请根据上方标签的提示，尽可能正确并且快速地做出按键反应</b></span><p/>
    当按键错误时屏幕中会出现<span style=""color:red""> X </span>，需要按另一个键纠正才能继续<br/><p/>
    请把双手食指分别放在键盘的“E”键和“I”键上<p/>
    按<空格键>开始
    </p></div>"," ","html-keyboard-response","8","113991","0.0-6.0-1.0-1.0","4","3","4","4","3","3","3","2","4","3","4","4","4","5","5","4","4","5","4","4","4","5","4","4","4","4","4","5","4","1","0","1","1","0","1","0","1","0","1","1","0","1","0","1","5","4","4","2","4","2","2","4","4","4","4","776852011219161090","刘","395","","","","","","","","","","","","","","","","","","","","","","","","","","","","","","","","","","","","","","","","","",""
"null","","null","html-keyboard-response","9","114243","0.0-6.0-1.0-2.0-0.0","4","3","4","4","3","3","3","2","4","3","4","4","4","5","5","4","4","5","4","4","4","5","4","4","4","4","4","5","4","1","0","1","1","0","1","0","1","0","1","1","0","1","0","1","5","4","4","2","4","2","2","4","4","4","4","776852011219161090","刘","395","","","","","","","","","","","","","","","","","","","","","","","","","","","","","","","","","","","","","","","","","",""
"1866","<p style=""color:rgb(150, 250, 100); font-size: 35px;"">他人的</p>","i","categorize-html","10","116119","0.0-6.0-1.0-2.0-1.0","4","3","4","4","3","3","3","2","4","3","4","4","4","5","5","4","4","5","4","4","4","5","4","4","4","4","4","5","4","1","0","1","1","0","1","0","1","0","1","1","0","1","0","1","5","4","4","2","4","2","2","4","4","4","4","776852011219161090","刘","395","","","","","","","","","","","","","","","","","","","true","11","1","moral","1866","other","他人的","","","","","","","","","","","","","","","","",""
"null","","null","html-keyboard-response","11","116372","0.0-6.0-1.0-2.0-0.1","4","3","4","4","3","3","3","2","4","3","4","4","4","5","5","4","4","5","4","4","4","5","4","4","4","4","4","5","4","1","0","1","1","0","1","0","1","0","1","1","0","1","0","1","5","4","4","2","4","2","2","4","4","4","4","776852011219161090","刘","395","","","","","","","","","","","","","","","","","","","","","","","","","","","","","","","","","","","","","","","","","",""
"711","<p style=""color:rgb(150, 250, 100); font-size: 35px;"">他的</p>","i","categorize-html","12","117089","0.0-6.0-1.0-2.0-1.1","4","3","4","4","3","3","3","2","4","3","4","4","4","5","5","4","4","5","4","4","4","5","4","4","4","4","4","5","4","1","0","1","1","0","1","0","1","0","1","1","0","1","0","1","5","4","4","2","4","2","2","4","4","4","4","776852011219161090","刘","395","","","","","","","","","","","","","","","","","","","true","11","1","moral","711","other","他的","","","","","","","","","","","","","","","","",""
"null","","null","html-keyboard-response","13","117356","0.0-6.0-1.0-2.0-0.2","4","3","4","4","3","3","3","2","4","3","4","4","4","5","5","4","4","5","4","4","4","5","4","4","4","4","4","5","4","1","0","1","1","0","1","0","1","0","1","1","0","1","0","1","5","4","4","2","4","2","2","4","4","4","4","776852011219161090","刘","395","","","","","","","","","","","","","","","","","","","","","","","","","","","","","","","","","","","","","","","","","",""
"661","<p style=""color:rgb(150, 250, 100); font-size: 35px;"">我的</p>","e","categorize-html","14","118022","0.0-6.0-1.0-2.0-1.2","4","3","4","4","3","3","3","2","4","3","4","4","4","5","5","4","4","5","4","4","4","5","4","4","4","4","4","5","4","1","0","1","1","0","1","0","1","0","1","1","0","1","0","1","5","4","4","2","4","2","2","4","4","4","4","776852011219161090","刘","395","","","","","","","","","","","","","","","","","","","true","11","1","moral","661","self","我的","","","","","","","","","","","","","","","","",""
"null","","null","html-keyboard-response","15","118275","0.0-6.0-1.0-2.0-0.3","4","3","4","4","3","3","3","2","4","3","4","4","4","5","5","4","4","5","4","4","4","5","4","4","4","4","4","5","4","1","0","1","1","0","1","0","1","0","1","1","0","1","0","1","5","4","4","2","4","2","2","4","4","4","4","776852011219161090","刘","395","","","","","","","","","","","","","","","","","","","","","","","","","","","","","","","","","","","","","","","","","",""
"786","<p style=""color:rgb(150, 250, 100); font-size: 35px;"">本人</p>","e","categorize-html","16","119068","0.0-6.0-1.0-2.0-1.3","4","3","4","4","3","3","3","2","4","3","4","4","4","5","5","4","4","5","4","4","4","5","4","4","4","4","4","5","4","1","0","1","1","0","1","0","1","0","1","1","0","1","0","1","5","4","4","2","4","2","2","4","4","4","4","776852011219161090","刘","395","","","","","","","","","","","","","","","","","","","true","11","1","moral","786","self","本人","","","","","","","","","","","","","","","","",""
"null","","null","html-keyboard-response","17","119320","0.0-6.0-1.0-2.0-0.4","4","3","4","4","3","3","3","2","4","3","4","4","4","5","5","4","4","5","4","4","4","5","4","4","4","4","4","5","4","1","0","1","1","0","1","0","1","0","1","1","0","1","0","1","5","4","4","2","4","2","2","4","4","4","4","776852011219161090","刘","395","","","","","","","","","","","","","","","","","","","","","","","","","","","","","","","","","","","","","","","","","",""
"617","<p style=""color:rgb(150, 250, 100); font-size: 35px;"">别人</p>","i","categorize-html","18","119944","0.0-6.0-1.0-2.0-1.4","4","3","4","4","3","3","3","2","4","3","4","4","4","5","5","4","4","5","4","4","4","5","4","4","4","4","4","5","4","1","0","1","1","0","1","0","1","0","1","1","0","1","0","1","5","4","4","2","4","2","2","4","4","4","4","776852011219161090","刘","395","","","","","","","","","","","","","","","","","","","true","11","1","moral","617","other","别人","","","","","","","","","","","","","","","","",""
"null","","null","html-keyboard-response","19","120196","0.0-6.0-1.0-2.0-0.5","4","3","4","4","3","3","3","2","4","3","4","4","4","5","5","4","4","5","4","4","4","5","4","4","4","4","4","5","4","1","0","1","1","0","1","0","1","0","1","1","0","1","0","1","5","4","4","2","4","2","2","4","4","4","4","776852011219161090","刘","395","","","","","","","","","","","","","","","","","","","","","","","","","","","","","","","","","","","","","","","","","",""
"1001","<p style=""color:rgb(150, 250, 100); font-size: 35px;"">别人的</p>","i","categorize-html","20","121204","0.0-6.0-1.0-2.0-1.5","4","3","4","4","3","3","3","2","4","3","4","4","4","5","5","4","4","5","4","4","4","5","4","4","4","4","4","5","4","1","0","1","1","0","1","0","1","0","1","1","0","1","0","1","5","4","4","2","4","2","2","4","4","4","4","776852011219161090","刘","395","","","","","","","","","","","","","","","","","","","true","11","1","moral","1001","other","别人的","","","","","","","","","","","","","","","","",""
"null","","null","html-keyboard-response","21","121456","0.0-6.0-1.0-2.0-0.6","4","3","4","4","3","3","3","2","4","3","4","4","4","5","5","4","4","5","4","4","4","5","4","4","4","4","4","5","4","1","0","1","1","0","1","0","1","0","1","1","0","1","0","1","5","4","4","2","4","2","2","4","4","4","4","776852011219161090","刘","395","","","","","","","","","","","","","","","","","","","","","","","","","","","","","","","","","","","","","","","","","",""
"567","<p style=""color:rgb(150, 250, 100); font-size: 35px;"">自己的</p>","e","categorize-html","22","122029","0.0-6.0-1.0-2.0-1.6","4","3","4","4","3","3","3","2","4","3","4","4","4","5","5","4","4","5","4","4","4","5","4","4","4","4","4","5","4","1","0","1","1","0","1","0","1","0","1","1","0","1","0","1","5","4","4","2","4","2","2","4","4","4","4","776852011219161090","刘","395","","","","","","","","","","","","","","","","","","","true","11","1","moral","567","self","自己的","","","","","","","","","","","","","","","","",""
"null","","null","html-keyboard-response","23","122281","0.0-6.0-1.0-2.0-0.7","4","3","4","4","3","3","3","2","4","3","4","4","4","5","5","4","4","5","4","4","4","5","4","4","4","4","4","5","4","1","0","1","1","0","1","0","1","0","1","1","0","1","0","1","5","4","4","2","4","2","2","4","4","4","4","776852011219161090","刘","395","","","","","","","","","","","","","","","","","","","","","","","","","","","","","","","","","","","","","","","","","",""
"681","<p style=""color:rgb(150, 250, 100); font-size: 35px;"">他人</p>","i","categorize-html","24","122968","0.0-6.0-1.0-2.0-1.7","4","3","4","4","3","3","3","2","4","3","4","4","4","5","5","4","4","5","4","4","4","5","4","4","4","4","4","5","4","1","0","1","1","0","1","0","1","0","1","1","0","1","0","1","5","4","4","2","4","2","2","4","4","4","4","776852011219161090","刘","395","","","","","","","","","","","","","","","","","","","true","11","1","moral","681","other","他人","","","","","","","","","","","","","","","","",""
"null","","null","html-keyboard-response","25","123221","0.0-6.0-1.0-2.0-0.8","4","3","4","4","3","3","3","2","4","3","4","4","4","5","5","4","4","5","4","4","4","5","4","4","4","4","4","5","4","1","0","1","1","0","1","0","1","0","1","1","0","1","0","1","5","4","4","2","4","2","2","4","4","4","4","776852011219161090","刘","395","","","","","","","","","","","","","","","","","","","","","","","","","","","","","","","","","","","","","","","","","",""
"889","<p style=""color:rgb(150, 250, 100); font-size: 35px;"">本人的</p>","e","categorize-html","26","124117","0.0-6.0-1.0-2.0-1.8","4","3","4","4","3","3","3","2","4","3","4","4","4","5","5","4","4","5","4","4","4","5","4","4","4","4","4","5","4","1","0","1","1","0","1","0","1","0","1","1","0","1","0","1","5","4","4","2","4","2","2","4","4","4","4","776852011219161090","刘","395","","","","","","","","","","","","","","","","","","","true","11","1","moral","889","self","本人的","","","","","","","","","","","","","","","","",""
"null","","null","html-keyboard-response","27","124369","0.0-6.0-1.0-2.0-0.9","4","3","4","4","3","3","3","2","4","3","4","4","4","5","5","4","4","5","4","4","4","5","4","4","4","4","4","5","4","1","0","1","1","0","1","0","1","0","1","1","0","1","0","1","5","4","4","2","4","2","2","4","4","4","4","776852011219161090","刘","395","","","","","","","","","","","","","","","","","","","","","","","","","","","","","","","","","","","","","","","","","",""
"704","<p style=""color:rgb(150, 250, 100); font-size: 35px;"">自己</p>","e","categorize-html","28","125080","0.0-6.0-1.0-2.0-1.9","4","3","4","4","3","3","3","2","4","3","4","4","4","5","5","4","4","5","4","4","4","5","4","4","4","4","4","5","4","1","0","1","1","0","1","0","1","0","1","1","0","1","0","1","5","4","4","2","4","2","2","4","4","4","4","776852011219161090","刘","395","","","","","","","","","","","","","","","","","","","true","11","1","moral","704","self","自己","","","","","","","","","","","","","","","","",""
"null","","null","html-keyboard-response","29","125336","0.0-6.0-1.0-2.0-0.10","4","3","4","4","3","3","3","2","4","3","4","4","4","5","5","4","4","5","4","4","4","5","4","4","4","4","4","5","4","1","0","1","1","0","1","0","1","0","1","1","0","1","0","1","5","4","4","2","4","2","2","4","4","4","4","776852011219161090","刘","395","","","","","","","","","","","","","","","","","","","","","","","","","","","","","","","","","","","","","","","","","",""
"1123","<p style=""color:rgb(150, 250, 100); font-size: 35px;"">我</p>","e","categorize-html","30","126464","0.0-6.0-1.0-2.0-1.10","4","3","4","4","3","3","3","2","4","3","4","4","4","5","5","4","4","5","4","4","4","5","4","4","4","4","4","5","4","1","0","1","1","0","1","0","1","0","1","1","0","1","0","1","5","4","4","2","4","2","2","4","4","4","4","776852011219161090","刘","395","","","","","","","","","","","","","","","","","","","true","11","1","moral","1123","self","我","","","","","","","","","","","","","","","","",""
"null","","null","html-keyboard-response","31","126716","0.0-6.0-1.0-2.0-0.11","4","3","4","4","3","3","3","2","4","3","4","4","4","5","5","4","4","5","4","4","4","5","4","4","4","4","4","5","4","1","0","1","1","0","1","0","1","0","1","1","0","1","0","1","5","4","4","2","4","2","2","4","4","4","4","776852011219161090","刘","395","","","","","","","","","","","","","","","","","","","","","","","","","","","","","","","","","","","","","","","","","",""
"718","<p style=""color:rgb(150, 250, 100); font-size: 35px;"">他</p>","i","categorize-html","32","127439","0.0-6.0-1.0-2.0-1.11","4","3","4","4","3","3","3","2","4","3","4","4","4","5","5","4","4","5","4","4","4","5","4","4","4","4","4","5","4","1","0","1","1","0","1","0","1","0","1","1","0","1","0","1","5","4","4","2","4","2","2","4","4","4","4","776852011219161090","刘","395","","","","","","","","","","","","","","","","","","","true","11","1","moral","718","other","他","","","","","","","","","","","","","","","","",""
"11739","
    <div class=""tag-bottom""><p>
    —— 任务2：对“消极”词和“积极”词分类 ——<p/>   
    <span style=""color:#78DCE8""><b>注意上方，类别标签和需要分类的词语都已经改变</b></span><p/>
    <span style=""color:#FFD866""><b>请根据上方标签的提示，尽可能正确并且快速地做出按键反应</b></span><p/>
    当按键错误时屏幕中会出现<span style=""color:red""> X </span>，需要按另一个键纠正才能继续<br/><p/>
    请把双手食指分别放在键盘的“E”键和“I”键上<p/>
    按<空格键>开始
    </p></div>"," ","html-keyboard-response","33","139180","0.0-6.0-1.0-3.0","4","3","4","4","3","3","3","2","4","3","4","4","4","5","5","4","4","5","4","4","4","5","4","4","4","4","4","5","4","1","0","1","1","0","1","0","1","0","1","1","0","1","0","1","5","4","4","2","4","2","2","4","4","4","4","776852011219161090","刘","395","","","","","","","","","","","","","","","","","","","","","","","","","","","","","","","","","","","","","","","","","",""
"null","","null","html-keyboard-response","34","139432","0.0-6.0-1.0-4.0-0.0","4","3","4","4","3","3","3","2","4","3","4","4","4","5","5","4","4","5","4","4","4","5","4","4","4","4","4","5","4","1","0","1","1","0","1","0","1","0","1","1","0","1","0","1","5","4","4","2","4","2","2","4","4","4","4","776852011219161090","刘","395","","","","","","","","","","","","","","","","","","","","","","","","","","","","","","","","","","","","","","","","","",""
"1293","<p style=""color:white; font-size: 35px;"">缺德</p>","e","categorize-html","35","140733","0.0-6.0-1.0-4.0-1.0","4","3","4","4","3","3","3","2","4","3","4","4","4","5","5","4","4","5","4","4","4","5","4","4","4","4","4","5","4","1","0","1","1","0","1","0","1","0","1","1","0","1","0","1","5","4","4","2","4","2","2","4","4","4","4","776852011219161090","刘","395","","","","","","","","","","","","","","","","","","","true","12","2","moral","1293","negative","缺德","","","","","","","","","","","","","","","","",""
"null","","null","html-keyboard-response","36","140985","0.0-6.0-1.0-4.0-0.1","4","3","4","4","3","3","3","2","4","3","4","4","4","5","5","4","4","5","4","4","4","5","4","4","4","4","4","5","4","1","0","1","1","0","1","0","1","0","1","1","0","1","0","1","5","4","4","2","4","2","2","4","4","4","4","776852011219161090","刘","395","","","","","","","","","","","","","","","","","","","","","","","","","","","","","","","","","","","","","","","","","",""
"810","<p style=""color:white; font-size: 35px;"">卑鄙</p>","e","categorize-html","37","141802","0.0-6.0-1.0-4.0-1.1","4","3","4","4","3","3","3","2","4","3","4","4","4","5","5","4","4","5","4","4","4","5","4","4","4","4","4","5","4","1","0","1","1","0","1","0","1","0","1","1","0","1","0","1","5","4","4","2","4","2","2","4","4","4","4","776852011219161090","刘","395","","","","","","","","","","","","","","","","","","","true","12","2","moral","810","negative","卑鄙","","","","","","","","","","","","","","","","",""
"null","","null","html-keyboard-response","38","142055","0.0-6.0-1.0-4.0-0.2","4","3","4","4","3","3","3","2","4","3","4","4","4","5","5","4","4","5","4","4","4","5","4","4","4","4","4","5","4","1","0","1","1","0","1","0","1","0","1","1","0","1","0","1","5","4","4","2","4","2","2","4","4","4","4","776852011219161090","刘","395","","","","","","","","","","","","","","","","","","","","","","","","","","","","","","","","","","","","","","","","","",""
"595","<p style=""color:white; font-size: 35px;"">高尚</p>","i","categorize-html","39","142658","0.0-6.0-1.0-4.0-1.2","4","3","4","4","3","3","3","2","4","3","4","4","4","5","5","4","4","5","4","4","4","5","4","4","4","4","4","5","4","1","0","1","1","0","1","0","1","0","1","1","0","1","0","1","5","4","4","2","4","2","2","4","4","4","4","776852011219161090","刘","395","","","","","","","","","","","","","","","","","","","true","12","2","moral","595","positive","高尚","","","","","","","","","","","","","","","","",""
"null","","null","html-keyboard-response","40","142910","0.0-6.0-1.0-4.0-0.3","4","3","4","4","3","3","3","2","4","3","4","4","4","5","5","4","4","5","4","4","4","5","4","4","4","4","4","5","4","1","0","1","1","0","1","0","1","0","1","1","0","1","0","1","5","4","4","2","4","2","2","4","4","4","4","776852011219161090","刘","395","","","","","","","","","","","","","","","","","","","","","","","","","","","","","","","","","","","","","","","","","",""
"707","<p style=""color:white; font-size: 35px;"">小人</p>","e","categorize-html","41","143620","0.0-6.0-1.0-4.0-1.3","4","3","4","4","3","3","3","2","4","3","4","4","4","5","5","4","4","5","4","4","4","5","4","4","4","4","4","5","4","1","0","1","1","0","1","0","1","0","1","1","0","1","0","1","5","4","4","2","4","2","2","4","4","4","4","776852011219161090","刘","395","","","","","","","","","","","","","","","","","","","true","12","2","moral","707","negative","小人","","","","","","","","","","","","","","","","",""
"null","","null","html-keyboard-response","42","143873","0.0-6.0-1.0-4.0-0.4","4","3","4","4","3","3","3","2","4","3","4","4","4","5","5","4","4","5","4","4","4","5","4","4","4","4","4","5","4","1","0","1","1","0","1","0","1","0","1","1","0","1","0","1","5","4","4","2","4","2","2","4","4","4","4","776852011219161090","刘","395","","","","","","","","","","","","","","","","","","","","","","","","","","","","","","","","","","","","","","","","","",""
"512","<p style=""color:white; font-size: 35px;"">正直</p>","i","categorize-html","43","144392","0.0-6.0-1.0-4.0-1.4","4","3","4","4","3","3","3","2","4","3","4","4","4","5","5","4","4","5","4","4","4","5","4","4","4","4","4","5","4","1","0","1","1","0","1","0","1","0","1","1","0","1","0","1","5","4","4","2","4","2","2","4","4","4","4","776852011219161090","刘","395","","","","","","","","","","","","","","","","","","","true","12","2","moral","512","positive","正直","","","","","","","","","","","","","","","","",""
"null","","null","html-keyboard-response","44","144644","0.0-6.0-1.0-4.0-0.5","4","3","4","4","3","3","3","2","4","3","4","4","4","5","5","4","4","5","4","4","4","5","4","4","4","4","4","5","4","1","0","1","1","0","1","0","1","0","1","1","0","1","0","1","5","4","4","2","4","2","2","4","4","4","4","776852011219161090","刘","395","","","","","","","","","","","","","","","","","","","","","","","","","","","","","","","","","","","","","","","","","",""
"758","<p style=""color:white; font-size: 35px;"">不仁</p>","e","categorize-html","45","145405","0.0-6.0-1.0-4.0-1.5","4","3","4","4","3","3","3","2","4","3","4","4","4","5","5","4","4","5","4","4","4","5","4","4","4","4","4","5","4","1","0","1","1","0","1","0","1","0","1","1","0","1","0","1","5","4","4","2","4","2","2","4","4","4","4","776852011219161090","刘","395","","","","","","","","","","","","","","","","","","","true","12","2","moral","758","negative","不仁","","","","","","","","","","","","","","","","",""
"null","","null","html-keyboard-response","46","145657","0.0-6.0-1.0-4.0-0.6","4","3","4","4","3","3","3","2","4","3","4","4","4","5","5","4","4","5","4","4","4","5","4","4","4","4","4","5","4","1","0","1","1","0","1","0","1","0","1","1","0","1","0","1","5","4","4","2","4","2","2","4","4","4","4","776852011219161090","刘","395","","","","","","","","","","","","","","","","","","","","","","","","","","","","","","","","","","","","","","","","","",""
"757","<p style=""color:white; font-size: 35px;"">君子</p>","i","categorize-html","47","146420","0.0-6.0-1.0-4.0-1.6","4","3","4","4","3","3","3","2","4","3","4","4","4","5","5","4","4","5","4","4","4","5","4","4","4","4","4","5","4","1","0","1","1","0","1","0","1","0","1","1","0","1","0","1","5","4","4","2","4","2","2","4","4","4","4","776852011219161090","刘","395","","","","","","","","","","","","","","","","","","","true","12","2","moral","757","positive","君子","","","","","","","","","","","","","","","","",""
"null","","null","html-keyboard-response","48","146672","0.0-6.0-1.0-4.0-0.7","4","3","4","4","3","3","3","2","4","3","4","4","4","5","5","4","4","5","4","4","4","5","4","4","4","4","4","5","4","1","0","1","1","0","1","0","1","0","1","1","0","1","0","1","5","4","4","2","4","2","2","4","4","4","4","776852011219161090","刘","395","","","","","","","","","","","","","","","","","","","","","","","","","","","","","","","","","","","","","","","","","",""
"605","<p style=""color:white; font-size: 35px;"">廉正</p>","i","categorize-html","49","147283","0.0-6.0-1.0-4.0-1.7","4","3","4","4","3","3","3","2","4","3","4","4","4","5","5","4","4","5","4","4","4","5","4","4","4","4","4","5","4","1","0","1","1","0","1","0","1","0","1","1","0","1","0","1","5","4","4","2","4","2","2","4","4","4","4","776852011219161090","刘","395","","","","","","","","","","","","","","","","","","","true","12","2","moral","605","positive","廉正","","","","","","","","","","","","","","","","",""
"null","","null","html-keyboard-response","50","147535","0.0-6.0-1.0-4.0-0.8","4","3","4","4","3","3","3","2","4","3","4","4","4","5","5","4","4","5","4","4","4","5","4","4","4","4","4","5","4","1","0","1","1","0","1","0","1","0","1","1","0","1","0","1","5","4","4","2","4","2","2","4","4","4","4","776852011219161090","刘","395","","","","","","","","","","","","","","","","","","","","","","","","","","","","","","","","","","","","","","","","","",""
"831","<p style=""color:white; font-size: 35px;"">不孝</p>","e","categorize-html","51","148372","0.0-6.0-1.0-4.0-1.8","4","3","4","4","3","3","3","2","4","3","4","4","4","5","5","4","4","5","4","4","4","5","4","4","4","4","4","5","4","1","0","1","1","0","1","0","1","0","1","1","0","1","0","1","5","4","4","2","4","2","2","4","4","4","4","776852011219161090","刘","395","","","","","","","","","","","","","","","","","","","true","12","2","moral","831","negative","不孝","","","","","","","","","","","","","","","","",""
"null","","null","html-keyboard-response","52","148624","0.0-6.0-1.0-4.0-0.9","4","3","4","4","3","3","3","2","4","3","4","4","4","5","5","4","4","5","4","4","4","5","4","4","4","4","4","5","4","1","0","1","1","0","1","0","1","0","1","1","0","1","0","1","5","4","4","2","4","2","2","4","4","4","4","776852011219161090","刘","395","","","","","","","","","","","","","","","","","","","","","","","","","","","","","","","","","","","","","","","","","",""
"654","<p style=""color:white; font-size: 35px;"">黑心</p>","e","categorize-html","53","149283","0.0-6.0-1.0-4.0-1.9","4","3","4","4","3","3","3","2","4","3","4","4","4","5","5","4","4","5","4","4","4","5","4","4","4","4","4","5","4","1","0","1","1","0","1","0","1","0","1","1","0","1","0","1","5","4","4","2","4","2","2","4","4","4","4","776852011219161090","刘","395","","","","","","","","","","","","","","","","","","","true","12","2","moral","654","negative","黑心","","","","","","","","","","","","","","","","",""
"null","","null","html-keyboard-response","54","149535","0.0-6.0-1.0-4.0-0.10","4","3","4","4","3","3","3","2","4","3","4","4","4","5","5","4","4","5","4","4","4","5","4","4","4","4","4","5","4","1","0","1","1","0","1","0","1","0","1","1","0","1","0","1","5","4","4","2","4","2","2","4","4","4","4","776852011219161090","刘","395","","","","","","","","","","","","","","","","","","","","","","","","","","","","","","","","","","","","","","","","","",""
"570","<p style=""color:white; font-size: 35px;"">善良</p>","i","categorize-html","55","150112","0.0-6.0-1.0-4.0-1.10","4","3","4","4","3","3","3","2","4","3","4","4","4","5","5","4","4","5","4","4","4","5","4","4","4","4","4","5","4","1","0","1","1","0","1","0","1","0","1","1","0","1","0","1","5","4","4","2","4","2","2","4","4","4","4","776852011219161090","刘","395","","","","","","","","","","","","","","","","","","","true","12","2","moral","570","positive","善良","","","","","","","","","","","","","","","","",""
"null","","null","html-keyboard-response","56","150365","0.0-6.0-1.0-4.0-0.11","4","3","4","4","3","3","3","2","4","3","4","4","4","5","5","4","4","5","4","4","4","5","4","4","4","4","4","5","4","1","0","1","1","0","1","0","1","0","1","1","0","1","0","1","5","4","4","2","4","2","2","4","4","4","4","776852011219161090","刘","395","","","","","","","","","","","","","","","","","","","","","","","","","","","","","","","","","","","","","","","","","",""
"581","<p style=""color:white; font-size: 35px;"">诚信</p>","i","categorize-html","57","150951","0.0-6.0-1.0-4.0-1.11","4","3","4","4","3","3","3","2","4","3","4","4","4","5","5","4","4","5","4","4","4","5","4","4","4","4","4","5","4","1","0","1","1","0","1","0","1","0","1","1","0","1","0","1","5","4","4","2","4","2","2","4","4","4","4","776852011219161090","刘","395","","","","","","","","","","","","","","","","","","","true","12","2","moral","581","positive","诚信","","","","","","","","","","","","","","","","",""
"9900","
    <div class=""tag-bottom""><p>
    —— 任务3：对“自我/消极”词和“他人/积极”词分类 ——<p/>
    <span style=""color:#78DCE8""><b>注意上方，之前的四类词语将混合在一起交替呈现</b></span><p/>
    <span style=""color:#FFD866""><b>请根据上方标签的提示，尽可能正确并且快速地做出按键反应</b></span><p/>
    当按键错误时屏幕中会出现<span style=""color:red""> X </span>，需要按另一个键纠正才能继续<br/><p/>
    请把双手食指分别放在键盘的“E”键和“I”键上<p/>
    按<空格键>开始
    </p></div>"," ","html-keyboard-response","58","160854","0.0-6.0-1.0-5.0","4","3","4","4","3","3","3","2","4","3","4","4","4","5","5","4","4","5","4","4","4","5","4","4","4","4","4","5","4","1","0","1","1","0","1","0","1","0","1","1","0","1","0","1","5","4","4","2","4","2","2","4","4","4","4","776852011219161090","刘","395","","","","","","","","","","","","","","","","","","","","","","","","","","","","","","","","","","","","","","","","","",""
"null","","null","html-keyboard-response","59","161107","0.0-6.0-1.0-6.0-0.0","4","3","4","4","3","3","3","2","4","3","4","4","4","5","5","4","4","5","4","4","4","5","4","4","4","4","4","5","4","1","0","1","1","0","1","0","1","0","1","1","0","1","0","1","5","4","4","2","4","2","2","4","4","4","4","776852011219161090","刘","395","","","","","","","","","","","","","","","","","","","","","","","","","","","","","","","","","","","","","","","","","",""
"771","<p style=""color:rgb(150, 250, 100); font-size: 35px;"">别人的</p>","i","categorize-html","60","161886","0.0-6.0-1.0-6.0-1.0","4","3","4","4","3","3","3","2","4","3","4","4","4","5","5","4","4","5","4","4","4","5","4","4","4","4","4","5","4","1","0","1","1","0","1","0","1","0","1","1","0","1","0","1","5","4","4","2","4","2","2","4","4","4","4","776852011219161090","刘","395","","","","","","","","","","","","","","","","","","","true","13","3","moral","771","other","别人的","","","","","","","","","","","","","","","","",""
"null","","null","html-keyboard-response","61","162138","0.0-6.0-1.0-6.0-0.1","4","3","4","4","3","3","3","2","4","3","4","4","4","5","5","4","4","5","4","4","4","5","4","4","4","4","4","5","4","1","0","1","1","0","1","0","1","0","1","1","0","1","0","1","5","4","4","2","4","2","2","4","4","4","4","776852011219161090","刘","395","","","","","","","","","","","","","","","","","","","","","","","","","","","","","","","","","","","","","","","","","",""
"652","<p style=""color:white; font-size: 35px;"">小人</p>","e","categorize-html","62","162796","0.0-6.0-1.0-6.0-1.1","4","3","4","4","3","3","3","2","4","3","4","4","4","5","5","4","4","5","4","4","4","5","4","4","4","4","4","5","4","1","0","1","1","0","1","0","1","0","1","1","0","1","0","1","5","4","4","2","4","2","2","4","4","4","4","776852011219161090","刘","395","","","","","","","","","","","","","","","","","","","true","13","3","moral","652","negative","小人","","","","","","","","","","","","","","","","",""
"null","","null","html-keyboard-response","63","163047","0.0-6.0-1.0-6.0-0.2","4","3","4","4","3","3","3","2","4","3","4","4","4","5","5","4","4","5","4","4","4","5","4","4","4","4","4","5","4","1","0","1","1","0","1","0","1","0","1","1","0","1","0","1","5","4","4","2","4","2","2","4","4","4","4","776852011219161090","刘","395","","","","","","","","","","","","","","","","","","","","","","","","","","","","","","","","","","","","","","","","","",""
"553","<p style=""color:rgb(150, 250, 100); font-size: 35px;"">本人的</p>","i","categorize-html","64","164058","0.0-6.0-1.0-6.0-1.2","4","3","4","4","3","3","3","2","4","3","4","4","4","5","5","4","4","5","4","4","4","5","4","4","4","4","4","5","4","1","0","1","1","0","1","0","1","0","1","1","0","1","0","1","5","4","4","2","4","2","2","4","4","4","4","776852011219161090","刘","395","","","","","","","","","","","","","","","","","","","false","13","3","moral","1434.818181818182","self","本人的","","","","","","","","","","","","","","","","",""
"null","","null","html-keyboard-response","65","164310","0.0-6.0-1.0-6.0-0.3","4","3","4","4","3","3","3","2","4","3","4","4","4","5","5","4","4","5","4","4","4","5","4","4","4","4","4","5","4","1","0","1","1","0","1","0","1","0","1","1","0","1","0","1","5","4","4","2","4","2","2","4","4","4","4","776852011219161090","刘","395","","","","","","","","","","","","","","","","","","","","","","","","","","","","","","","","","","","","","","","","","",""
"766","<p style=""color:white; font-size: 35px;"">廉正</p>","i","categorize-html","66","165083","0.0-6.0-1.0-6.0-1.3","4","3","4","4","3","3","3","2","4","3","4","4","4","5","5","4","4","5","4","4","4","5","4","4","4","4","4","5","4","1","0","1","1","0","1","0","1","0","1","1","0","1","0","1","5","4","4","2","4","2","2","4","4","4","4","776852011219161090","刘","395","","","","","","","","","","","","","","","","","","","true","13","3","moral","766","positive","廉正","","","","","","","","","","","","","","","","",""
"null","","null","html-keyboard-response","67","165335","0.0-6.0-1.0-6.0-0.4","4","3","4","4","3","3","3","2","4","3","4","4","4","5","5","4","4","5","4","4","4","5","4","4","4","4","4","5","4","1","0","1","1","0","1","0","1","0","1","1","0","1","0","1","5","4","4","2","4","2","2","4","4","4","4","776852011219161090","刘","395","","","","","","","","","","","","","","","","","","","","","","","","","","","","","","","","","","","","","","","","","",""
"690","<p style=""color:rgb(150, 250, 100); font-size: 35px;"">自己</p>","e","categorize-html","68","166030","0.0-6.0-1.0-6.0-1.4","4","3","4","4","3","3","3","2","4","3","4","4","4","5","5","4","4","5","4","4","4","5","4","4","4","4","4","5","4","1","0","1","1","0","1","0","1","0","1","1","0","1","0","1","5","4","4","2","4","2","2","4","4","4","4","776852011219161090","刘","395","","","","","","","","","","","","","","","","","","","true","13","3","moral","690","self","自己","","","","","","","","","","","","","","","","",""
"null","","null","html-keyboard-response","69","166283","0.0-6.0-1.0-6.0-0.5","4","3","4","4","3","3","3","2","4","3","4","4","4","5","5","4","4","5","4","4","4","5","4","4","4","4","4","5","4","1","0","1","1","0","1","0","1","0","1","1","0","1","0","1","5","4","4","2","4","2","2","4","4","4","4","776852011219161090","刘","395","","","","","","","","","","","","","","","","","","","","","","","","","","","","","","","","","","","","","","","","","",""
"857","<p style=""color:white; font-size: 35px;"">正直</p>","i","categorize-html","70","167150","0.0-6.0-1.0-6.0-1.5","4","3","4","4","3","3","3","2","4","3","4","4","4","5","5","4","4","5","4","4","4","5","4","4","4","4","4","5","4","1","0","1","1","0","1","0","1","0","1","1","0","1","0","1","5","4","4","2","4","2","2","4","4","4","4","776852011219161090","刘","395","","","","","","","","","","","","","","","","","","","true","13","3","moral","857","positive","正直","","","","","","","","","","","","","","","","",""
"null","","null","html-keyboard-response","71","167402","0.0-6.0-1.0-6.0-0.6","4","3","4","4","3","3","3","2","4","3","4","4","4","5","5","4","4","5","4","4","4","5","4","4","4","4","4","5","4","1","0","1","1","0","1","0","1","0","1","1","0","1","0","1","5","4","4","2","4","2","2","4","4","4","4","776852011219161090","刘","395","","","","","","","","","","","","","","","","","","","","","","","","","","","","","","","","","","","","","","","","","",""
"910","<p style=""color:rgb(150, 250, 100); font-size: 35px;"">他的</p>","e","categorize-html","72","168751","0.0-6.0-1.0-6.0-1.6","4","3","4","4","3","3","3","2","4","3","4","4","4","5","5","4","4","5","4","4","4","5","4","4","4","4","4","5","4","1","0","1","1","0","1","0","1","0","1","1","0","1","0","1","5","4","4","2","4","2","2","4","4","4","4","776852011219161090","刘","395","","","","","","","","","","","","","","","","","","","false","13","3","moral","1434.818181818182","other","他的","","","","","","","","","","","","","","","","",""
"null","","null","html-keyboard-response","73","169003","0.0-6.0-1.0-6.0-0.7","4","3","4","4","3","3","3","2","4","3","4","4","4","5","5","4","4","5","4","4","4","5","4","4","4","4","4","5","4","1","0","1","1","0","1","0","1","0","1","1","0","1","0","1","5","4","4","2","4","2","2","4","4","4","4","776852011219161090","刘","395","","","","","","","","","","","","","","","","","","","","","","","","","","","","","","","","","","","","","","","","","",""
"715","<p style=""color:white; font-size: 35px;"">黑心</p>","e","categorize-html","74","169723","0.0-6.0-1.0-6.0-1.7","4","3","4","4","3","3","3","2","4","3","4","4","4","5","5","4","4","5","4","4","4","5","4","4","4","4","4","5","4","1","0","1","1","0","1","0","1","0","1","1","0","1","0","1","5","4","4","2","4","2","2","4","4","4","4","776852011219161090","刘","395","","","","","","","","","","","","","","","","","","","true","13","3","moral","715","negative","黑心","","","","","","","","","","","","","","","","",""
"null","","null","html-keyboard-response","75","169976","0.0-6.0-1.0-6.0-0.8","4","3","4","4","3","3","3","2","4","3","4","4","4","5","5","4","4","5","4","4","4","5","4","4","4","4","4","5","4","1","0","1","1","0","1","0","1","0","1","1","0","1","0","1","5","4","4","2","4","2","2","4","4","4","4","776852011219161090","刘","395","","","","","","","","","","","","","","","","","","","","","","","","","","","","","","","","","","","","","","","","","",""
"686","<p style=""color:rgb(150, 250, 100); font-size: 35px;"">他人的</p>","i","categorize-html","76","170669","0.0-6.0-1.0-6.0-1.8","4","3","4","4","3","3","3","2","4","3","4","4","4","5","5","4","4","5","4","4","4","5","4","4","4","4","4","5","4","1","0","1","1","0","1","0","1","0","1","1","0","1","0","1","5","4","4","2","4","2","2","4","4","4","4","776852011219161090","刘","395","","","","","","","","","","","","","","","","","","","true","13","3","moral","686","other","他人的","","","","","","","","","","","","","","","","",""
"null","","null","html-keyboard-response","77","170921","0.0-6.0-1.0-6.0-0.9","4","3","4","4","3","3","3","2","4","3","4","4","4","5","5","4","4","5","4","4","4","5","4","4","4","4","4","5","4","1","0","1","1","0","1","0","1","0","1","1","0","1","0","1","5","4","4","2","4","2","2","4","4","4","4","776852011219161090","刘","395","","","","","","","","","","","","","","","","","","","","","","","","","","","","","","","","","","","","","","","","","",""
"804","<p style=""color:white; font-size: 35px;"">卑鄙</p>","e","categorize-html","78","171732","0.0-6.0-1.0-6.0-1.9","4","3","4","4","3","3","3","2","4","3","4","4","4","5","5","4","4","5","4","4","4","5","4","4","4","4","4","5","4","1","0","1","1","0","1","0","1","0","1","1","0","1","0","1","5","4","4","2","4","2","2","4","4","4","4","776852011219161090","刘","395","","","","","","","","","","","","","","","","","","","true","13","3","moral","804","negative","卑鄙","","","","","","","","","","","","","","","","",""
"null","","null","html-keyboard-response","79","171991","0.0-6.0-1.0-6.0-0.10","4","3","4","4","3","3","3","2","4","3","4","4","4","5","5","4","4","5","4","4","4","5","4","4","4","4","4","5","4","1","0","1","1","0","1","0","1","0","1","1","0","1","0","1","5","4","4","2","4","2","2","4","4","4","4","776852011219161090","刘","395","","","","","","","","","","","","","","","","","","","","","","","","","","","","","","","","","","","","","","","","","",""
"826","<p style=""color:rgb(150, 250, 100); font-size: 35px;"">我的</p>","e","categorize-html","80","172825","0.0-6.0-1.0-6.0-1.10","4","3","4","4","3","3","3","2","4","3","4","4","4","5","5","4","4","5","4","4","4","5","4","4","4","4","4","5","4","1","0","1","1","0","1","0","1","0","1","1","0","1","0","1","5","4","4","2","4","2","2","4","4","4","4","776852011219161090","刘","395","","","","","","","","","","","","","","","","","","","true","13","3","moral","826","self","我的","","","","","","","","","","","","","","","","",""
"null","","null","html-keyboard-response","81","173077","0.0-6.0-1.0-6.0-0.11","4","3","4","4","3","3","3","2","4","3","4","4","4","5","5","4","4","5","4","4","4","5","4","4","4","4","4","5","4","1","0","1","1","0","1","0","1","0","1","1","0","1","0","1","5","4","4","2","4","2","2","4","4","4","4","776852011219161090","刘","395","","","","","","","","","","","","","","","","","","","","","","","","","","","","","","","","","","","","","","","","","",""
"593","<p style=""color:white; font-size: 35px;"">诚信</p>","i","categorize-html","82","173676","0.0-6.0-1.0-6.0-1.11","4","3","4","4","3","3","3","2","4","3","4","4","4","5","5","4","4","5","4","4","4","5","4","4","4","4","4","5","4","1","0","1","1","0","1","0","1","0","1","1","0","1","0","1","5","4","4","2","4","2","2","4","4","4","4","776852011219161090","刘","395","","","","","","","","","","","","","","","","","","","true","13","3","moral","593","positive","诚信","","","","","","","","","","","","","","","","",""
"null","","null","html-keyboard-response","83","173927","0.0-6.0-1.0-6.0-0.12","4","3","4","4","3","3","3","2","4","3","4","4","4","5","5","4","4","5","4","4","4","5","4","4","4","4","4","5","4","1","0","1","1","0","1","0","1","0","1","1","0","1","0","1","5","4","4","2","4","2","2","4","4","4","4","776852011219161090","刘","395","","","","","","","","","","","","","","","","","","","","","","","","","","","","","","","","","","","","","","","","","",""
"857","<p style=""color:rgb(150, 250, 100); font-size: 35px;"">自己的</p>","e","categorize-html","84","174790","0.0-6.0-1.0-6.0-1.12","4","3","4","4","3","3","3","2","4","3","4","4","4","5","5","4","4","5","4","4","4","5","4","4","4","4","4","5","4","1","0","1","1","0","1","0","1","0","1","1","0","1","0","1","5","4","4","2","4","2","2","4","4","4","4","776852011219161090","刘","395","","","","","","","","","","","","","","","","","","","true","13","3","moral","857","self","自己的","","","","","","","","","","","","","","","","",""
"null","","null","html-keyboard-response","85","175042","0.0-6.0-1.0-6.0-0.13","4","3","4","4","3","3","3","2","4","3","4","4","4","5","5","4","4","5","4","4","4","5","4","4","4","4","4","5","4","1","0","1","1","0","1","0","1","0","1","1","0","1","0","1","5","4","4","2","4","2","2","4","4","4","4","776852011219161090","刘","395","","","","","","","","","","","","","","","","","","","","","","","","","","","","","","","","","","","","","","","","","",""
"855","<p style=""color:white; font-size: 35px;"">不仁</p>","e","categorize-html","86","175902","0.0-6.0-1.0-6.0-1.13","4","3","4","4","3","3","3","2","4","3","4","4","4","5","5","4","4","5","4","4","4","5","4","4","4","4","4","5","4","1","0","1","1","0","1","0","1","0","1","1","0","1","0","1","5","4","4","2","4","2","2","4","4","4","4","776852011219161090","刘","395","","","","","","","","","","","","","","","","","","","true","13","3","moral","855","negative","不仁","","","","","","","","","","","","","","","","",""
"null","","null","html-keyboard-response","87","176155","0.0-6.0-1.0-6.0-0.14","4","3","4","4","3","3","3","2","4","3","4","4","4","5","5","4","4","5","4","4","4","5","4","4","4","4","4","5","4","1","0","1","1","0","1","0","1","0","1","1","0","1","0","1","5","4","4","2","4","2","2","4","4","4","4","776852011219161090","刘","395","","","","","","","","","","","","","","","","","","","","","","","","","","","","","","","","","","","","","","","","","",""
"704","<p style=""color:rgb(150, 250, 100); font-size: 35px;"">他人</p>","i","categorize-html","88","176863","0.0-6.0-1.0-6.0-1.14","4","3","4","4","3","3","3","2","4","3","4","4","4","5","5","4","4","5","4","4","4","5","4","4","4","4","4","5","4","1","0","1","1","0","1","0","1","0","1","1","0","1","0","1","5","4","4","2","4","2","2","4","4","4","4","776852011219161090","刘","395","","","","","","","","","","","","","","","","","","","true","13","3","moral","704","other","他人","","","","","","","","","","","","","","","","",""
"null","","null","html-keyboard-response","89","177115","0.0-6.0-1.0-6.0-0.15","4","3","4","4","3","3","3","2","4","3","4","4","4","5","5","4","4","5","4","4","4","5","4","4","4","4","4","5","4","1","0","1","1","0","1","0","1","0","1","1","0","1","0","1","5","4","4","2","4","2","2","4","4","4","4","776852011219161090","刘","395","","","","","","","","","","","","","","","","","","","","","","","","","","","","","","","","","","","","","","","","","",""
"774","<p style=""color:white; font-size: 35px;"">君子</p>","i","categorize-html","90","177895","0.0-6.0-1.0-6.0-1.15","4","3","4","4","3","3","3","2","4","3","4","4","4","5","5","4","4","5","4","4","4","5","4","4","4","4","4","5","4","1","0","1","1","0","1","0","1","0","1","1","0","1","0","1","5","4","4","2","4","2","2","4","4","4","4","776852011219161090","刘","395","","","","","","","","","","","","","","","","","","","true","13","3","moral","774","positive","君子","","","","","","","","","","","","","","","","",""
"null","","null","html-keyboard-response","91","178148","0.0-6.0-1.0-6.0-0.16","4","3","4","4","3","3","3","2","4","3","4","4","4","5","5","4","4","5","4","4","4","5","4","4","4","4","4","5","4","1","0","1","1","0","1","0","1","0","1","1","0","1","0","1","5","4","4","2","4","2","2","4","4","4","4","776852011219161090","刘","395","","","","","","","","","","","","","","","","","","","","","","","","","","","","","","","","","","","","","","","","","",""
"685","<p style=""color:rgb(150, 250, 100); font-size: 35px;"">别人</p>","i","categorize-html","92","178839","0.0-6.0-1.0-6.0-1.16","4","3","4","4","3","3","3","2","4","3","4","4","4","5","5","4","4","5","4","4","4","5","4","4","4","4","4","5","4","1","0","1","1","0","1","0","1","0","1","1","0","1","0","1","5","4","4","2","4","2","2","4","4","4","4","776852011219161090","刘","395","","","","","","","","","","","","","","","","","","","true","13","3","moral","685","other","别人","","","","","","","","","","","","","","","","",""
"null","","null","html-keyboard-response","93","179090","0.0-6.0-1.0-6.0-0.17","4","3","4","4","3","3","3","2","4","3","4","4","4","5","5","4","4","5","4","4","4","5","4","4","4","4","4","5","4","1","0","1","1","0","1","0","1","0","1","1","0","1","0","1","5","4","4","2","4","2","2","4","4","4","4","776852011219161090","刘","395","","","","","","","","","","","","","","","","","","","","","","","","","","","","","","","","","","","","","","","","","",""
"985","<p style=""color:white; font-size: 35px;"">不孝</p>","e","categorize-html","94","180080","0.0-6.0-1.0-6.0-1.17","4","3","4","4","3","3","3","2","4","3","4","4","4","5","5","4","4","5","4","4","4","5","4","4","4","4","4","5","4","1","0","1","1","0","1","0","1","0","1","1","0","1","0","1","5","4","4","2","4","2","2","4","4","4","4","776852011219161090","刘","395","","","","","","","","","","","","","","","","","","","true","13","3","moral","985","negative","不孝","","","","","","","","","","","","","","","","",""
"null","","null","html-keyboard-response","95","180332","0.0-6.0-1.0-6.0-0.18","4","3","4","4","3","3","3","2","4","3","4","4","4","5","5","4","4","5","4","4","4","5","4","4","4","4","4","5","4","1","0","1","1","0","1","0","1","0","1","1","0","1","0","1","5","4","4","2","4","2","2","4","4","4","4","776852011219161090","刘","395","","","","","","","","","","","","","","","","","","","","","","","","","","","","","","","","","","","","","","","","","",""
"734","<p style=""color:rgb(150, 250, 100); font-size: 35px;"">本人</p>","e","categorize-html","96","181072","0.0-6.0-1.0-6.0-1.18","4","3","4","4","3","3","3","2","4","3","4","4","4","5","5","4","4","5","4","4","4","5","4","4","4","4","4","5","4","1","0","1","1","0","1","0","1","0","1","1","0","1","0","1","5","4","4","2","4","2","2","4","4","4","4","776852011219161090","刘","395","","","","","","","","","","","","","","","","","","","true","13","3","moral","734","self","本人","","","","","","","","","","","","","","","","",""
"null","","null","html-keyboard-response","97","181325","0.0-6.0-1.0-6.0-0.19","4","3","4","4","3","3","3","2","4","3","4","4","4","5","5","4","4","5","4","4","4","5","4","4","4","4","4","5","4","1","0","1","1","0","1","0","1","0","1","1","0","1","0","1","5","4","4","2","4","2","2","4","4","4","4","776852011219161090","刘","395","","","","","","","","","","","","","","","","","","","","","","","","","","","","","","","","","","","","","","","","","",""
"624","<p style=""color:white; font-size: 35px;"">善良</p>","i","categorize-html","98","181952","0.0-6.0-1.0-6.0-1.19","4","3","4","4","3","3","3","2","4","3","4","4","4","5","5","4","4","5","4","4","4","5","4","4","4","4","4","5","4","1","0","1","1","0","1","0","1","0","1","1","0","1","0","1","5","4","4","2","4","2","2","4","4","4","4","776852011219161090","刘","395","","","","","","","","","","","","","","","","","","","true","13","3","moral","624","positive","善良","","","","","","","","","","","","","","","","",""
"null","","null","html-keyboard-response","99","182203","0.0-6.0-1.0-6.0-0.20","4","3","4","4","3","3","3","2","4","3","4","4","4","5","5","4","4","5","4","4","4","5","4","4","4","4","4","5","4","1","0","1","1","0","1","0","1","0","1","1","0","1","0","1","5","4","4","2","4","2","2","4","4","4","4","776852011219161090","刘","395","","","","","","","","","","","","","","","","","","","","","","","","","","","","","","","","","","","","","","","","","",""
"1255","<p style=""color:rgb(150, 250, 100); font-size: 35px;"">他</p>","i","categorize-html","100","183464","0.0-6.0-1.0-6.0-1.20","4","3","4","4","3","3","3","2","4","3","4","4","4","5","5","4","4","5","4","4","4","5","4","4","4","4","4","5","4","1","0","1","1","0","1","0","1","0","1","1","0","1","0","1","5","4","4","2","4","2","2","4","4","4","4","776852011219161090","刘","395","","","","","","","","","","","","","","","","","","","true","13","3","moral","1255","other","他","","","","","","","","","","","","","","","","",""
"null","","null","html-keyboard-response","101","183717","0.0-6.0-1.0-6.0-0.21","4","3","4","4","3","3","3","2","4","3","4","4","4","5","5","4","4","5","4","4","4","5","4","4","4","4","4","5","4","1","0","1","1","0","1","0","1","0","1","1","0","1","0","1","5","4","4","2","4","2","2","4","4","4","4","776852011219161090","刘","395","","","","","","","","","","","","","","","","","","","","","","","","","","","","","","","","","","","","","","","","","",""
"1687","<p style=""color:white; font-size: 35px;"">高尚</p>","i","categorize-html","102","185407","0.0-6.0-1.0-6.0-1.21","4","3","4","4","3","3","3","2","4","3","4","4","4","5","5","4","4","5","4","4","4","5","4","4","4","4","4","5","4","1","0","1","1","0","1","0","1","0","1","1","0","1","0","1","5","4","4","2","4","2","2","4","4","4","4","776852011219161090","刘","395","","","","","","","","","","","","","","","","","","","true","13","3","moral","1687","positive","高尚","","","","","","","","","","","","","","","","",""
"null","","null","html-keyboard-response","103","185669","0.0-6.0-1.0-6.0-0.22","4","3","4","4","3","3","3","2","4","3","4","4","4","5","5","4","4","5","4","4","4","5","4","4","4","4","4","5","4","1","0","1","1","0","1","0","1","0","1","1","0","1","0","1","5","4","4","2","4","2","2","4","4","4","4","776852011219161090","刘","395","","","","","","","","","","","","","","","","","","","","","","","","","","","","","","","","","","","","","","","","","",""
"1176","<p style=""color:rgb(150, 250, 100); font-size: 35px;"">我</p>","e","categorize-html","104","186848","0.0-6.0-1.0-6.0-1.22","4","3","4","4","3","3","3","2","4","3","4","4","4","5","5","4","4","5","4","4","4","5","4","4","4","4","4","5","4","1","0","1","1","0","1","0","1","0","1","1","0","1","0","1","5","4","4","2","4","2","2","4","4","4","4","776852011219161090","刘","395","","","","","","","","","","","","","","","","","","","true","13","3","moral","1176","self","我","","","","","","","","","","","","","","","","",""
"null","","null","html-keyboard-response","105","187099","0.0-6.0-1.0-6.0-0.23","4","3","4","4","3","3","3","2","4","3","4","4","4","5","5","4","4","5","4","4","4","5","4","4","4","4","4","5","4","1","0","1","1","0","1","0","1","0","1","1","0","1","0","1","5","4","4","2","4","2","2","4","4","4","4","776852011219161090","刘","395","","","","","","","","","","","","","","","","","","","","","","","","","","","","","","","","","","","","","","","","","",""
"670","<p style=""color:white; font-size: 35px;"">缺德</p>","e","categorize-html","106","187773","0.0-6.0-1.0-6.0-1.23","4","3","4","4","3","3","3","2","4","3","4","4","4","5","5","4","4","5","4","4","4","5","4","4","4","4","4","5","4","1","0","1","1","0","1","0","1","0","1","1","0","1","0","1","5","4","4","2","4","2","2","4","4","4","4","776852011219161090","刘","395","","","","","","","","","","","","","","","","","","","true","13","3","moral","670","negative","缺德","","","","","","","","","","","","","","","","",""
"1258","
    <div class=""tag-bottom""><p>
    —— 任务4：对“自我/消极”词和“他人/积极”词分类 ——<p/>
    <span style=""color:#78DCE8""><b>与刚才的任务完全相同，请再次对这四类词语分类</b></span><p/>
    <span style=""color:#FFD866""><b>请根据上方标签的提示，尽可能正确并且快速地做出按键反应</b></span><p/>
    当按键错误时屏幕中会出现<span style=""color:red""> X </span>，需要按另一个键纠正才能继续<br/><p/>
    请把双手食指分别放在键盘的“E”键和“I”键上<p/>
    按<空格键>开始
    </p></div>"," ","html-keyboard-response","107","189035","0.0-6.0-1.0-7.0","4","3","4","4","3","3","3","2","4","3","4","4","4","5","5","4","4","5","4","4","4","5","4","4","4","4","4","5","4","1","0","1","1","0","1","0","1","0","1","1","0","1","0","1","5","4","4","2","4","2","2","4","4","4","4","776852011219161090","刘","395","","","","","","","","","","","","","","","","","","","","","","","","","","","","","","","","","","","","","","","","","",""
"null","","null","html-keyboard-response","108","189287","0.0-6.0-1.0-8.0-0.0","4","3","4","4","3","3","3","2","4","3","4","4","4","5","5","4","4","5","4","4","4","5","4","4","4","4","4","5","4","1","0","1","1","0","1","0","1","0","1","1","0","1","0","1","5","4","4","2","4","2","2","4","4","4","4","776852011219161090","刘","395","","","","","","","","","","","","","","","","","","","","","","","","","","","","","","","","","","","","","","","","","",""
"892","<p style=""color:rgb(150, 250, 100); font-size: 35px;"">自己的</p>","e","categorize-html","109","190187","0.0-6.0-1.0-8.0-1.0","4","3","4","4","3","3","3","2","4","3","4","4","4","5","5","4","4","5","4","4","4","5","4","4","4","4","4","5","4","1","0","1","1","0","1","0","1","0","1","1","0","1","0","1","5","4","4","2","4","2","2","4","4","4","4","776852011219161090","刘","395","","","","","","","","","","","","","","","","","","","true","14","4","moral","892","self","自己的","","","","","","","","","","","","","","","","",""
"null","","null","html-keyboard-response","110","190439","0.0-6.0-1.0-8.0-0.1","4","3","4","4","3","3","3","2","4","3","4","4","4","5","5","4","4","5","4","4","4","5","4","4","4","4","4","5","4","1","0","1","1","0","1","0","1","0","1","1","0","1","0","1","5","4","4","2","4","2","2","4","4","4","4","776852011219161090","刘","395","","","","","","","","","","","","","","","","","","","","","","","","","","","","","","","","","","","","","","","","","",""
"878","<p style=""color:white; font-size: 35px;"">不孝</p>","e","categorize-html","111","191324","0.0-6.0-1.0-8.0-1.1","4","3","4","4","3","3","3","2","4","3","4","4","4","5","5","4","4","5","4","4","4","5","4","4","4","4","4","5","4","1","0","1","1","0","1","0","1","0","1","1","0","1","0","1","5","4","4","2","4","2","2","4","4","4","4","776852011219161090","刘","395","","","","","","","","","","","","","","","","","","","true","14","4","moral","878","negative","不孝","","","","","","","","","","","","","","","","",""
"null","","null","html-keyboard-response","112","191578","0.0-6.0-1.0-8.0-0.2","4","3","4","4","3","3","3","2","4","3","4","4","4","5","5","4","4","5","4","4","4","5","4","4","4","4","4","5","4","1","0","1","1","0","1","0","1","0","1","1","0","1","0","1","5","4","4","2","4","2","2","4","4","4","4","776852011219161090","刘","395","","","","","","","","","","","","","","","","","","","","","","","","","","","","","","","","","","","","","","","","","",""
"633","<p style=""color:rgb(150, 250, 100); font-size: 35px;"">他人</p>","i","categorize-html","113","192217","0.0-6.0-1.0-8.0-1.2","4","3","4","4","3","3","3","2","4","3","4","4","4","5","5","4","4","5","4","4","4","5","4","4","4","4","4","5","4","1","0","1","1","0","1","0","1","0","1","1","0","1","0","1","5","4","4","2","4","2","2","4","4","4","4","776852011219161090","刘","395","","","","","","","","","","","","","","","","","","","true","14","4","moral","633","other","他人","","","","","","","","","","","","","","","","",""
"null","","null","html-keyboard-response","114","192469","0.0-6.0-1.0-8.0-0.3","4","3","4","4","3","3","3","2","4","3","4","4","4","5","5","4","4","5","4","4","4","5","4","4","4","4","4","5","4","1","0","1","1","0","1","0","1","0","1","1","0","1","0","1","5","4","4","2","4","2","2","4","4","4","4","776852011219161090","刘","395","","","","","","","","","","","","","","","","","","","","","","","","","","","","","","","","","","","","","","","","","",""
"586","<p style=""color:white; font-size: 35px;"">善良</p>","i","categorize-html","115","193061","0.0-6.0-1.0-8.0-1.3","4","3","4","4","3","3","3","2","4","3","4","4","4","5","5","4","4","5","4","4","4","5","4","4","4","4","4","5","4","1","0","1","1","0","1","0","1","0","1","1","0","1","0","1","5","4","4","2","4","2","2","4","4","4","4","776852011219161090","刘","395","","","","","","","","","","","","","","","","","","","true","14","4","moral","586","positive","善良","","","","","","","","","","","","","","","","",""
"null","","null","html-keyboard-response","116","193313","0.0-6.0-1.0-8.0-0.4","4","3","4","4","3","3","3","2","4","3","4","4","4","5","5","4","4","5","4","4","4","5","4","4","4","4","4","5","4","1","0","1","1","0","1","0","1","0","1","1","0","1","0","1","5","4","4","2","4","2","2","4","4","4","4","776852011219161090","刘","395","","","","","","","","","","","","","","","","","","","","","","","","","","","","","","","","","","","","","","","","","",""
"1009","<p style=""color:rgb(150, 250, 100); font-size: 35px;"">他人的</p>","i","categorize-html","117","194328","0.0-6.0-1.0-8.0-1.4","4","3","4","4","3","3","3","2","4","3","4","4","4","5","5","4","4","5","4","4","4","5","4","4","4","4","4","5","4","1","0","1","1","0","1","0","1","0","1","1","0","1","0","1","5","4","4","2","4","2","2","4","4","4","4","776852011219161090","刘","395","","","","","","","","","","","","","","","","","","","true","14","4","moral","1009","other","他人的","","","","","","","","","","","","","","","","",""
"null","","null","html-keyboard-response","118","194592","0.0-6.0-1.0-8.0-0.5","4","3","4","4","3","3","3","2","4","3","4","4","4","5","5","4","4","5","4","4","4","5","4","4","4","4","4","5","4","1","0","1","1","0","1","0","1","0","1","1","0","1","0","1","5","4","4","2","4","2","2","4","4","4","4","776852011219161090","刘","395","","","","","","","","","","","","","","","","","","","","","","","","","","","","","","","","","","","","","","","","","",""
"1044","<p style=""color:white; font-size: 35px;"">不仁</p>","e","categorize-html","119","195643","0.0-6.0-1.0-8.0-1.5","4","3","4","4","3","3","3","2","4","3","4","4","4","5","5","4","4","5","4","4","4","5","4","4","4","4","4","5","4","1","0","1","1","0","1","0","1","0","1","1","0","1","0","1","5","4","4","2","4","2","2","4","4","4","4","776852011219161090","刘","395","","","","","","","","","","","","","","","","","","","true","14","4","moral","1044","negative","不仁","","","","","","","","","","","","","","","","",""
"null","","null","html-keyboard-response","120","195896","0.0-6.0-1.0-8.0-0.6","4","3","4","4","3","3","3","2","4","3","4","4","4","5","5","4","4","5","4","4","4","5","4","4","4","4","4","5","4","1","0","1","1","0","1","0","1","0","1","1","0","1","0","1","5","4","4","2","4","2","2","4","4","4","4","776852011219161090","刘","395","","","","","","","","","","","","","","","","","","","","","","","","","","","","","","","","","","","","","","","","","",""
"758","<p style=""color:rgb(150, 250, 100); font-size: 35px;"">我</p>","e","categorize-html","121","196659","0.0-6.0-1.0-8.0-1.6","4","3","4","4","3","3","3","2","4","3","4","4","4","5","5","4","4","5","4","4","4","5","4","4","4","4","4","5","4","1","0","1","1","0","1","0","1","0","1","1","0","1","0","1","5","4","4","2","4","2","2","4","4","4","4","776852011219161090","刘","395","","","","","","","","","","","","","","","","","","","true","14","4","moral","758","self","我","","","","","","","","","","","","","","","","",""
"null","","null","html-keyboard-response","122","196920","0.0-6.0-1.0-8.0-0.7","4","3","4","4","3","3","3","2","4","3","4","4","4","5","5","4","4","5","4","4","4","5","4","4","4","4","4","5","4","1","0","1","1","0","1","0","1","0","1","1","0","1","0","1","5","4","4","2","4","2","2","4","4","4","4","776852011219161090","刘","395","","","","","","","","","","","","","","","","","","","","","","","","","","","","","","","","","","","","","","","","","",""
"664","<p style=""color:white; font-size: 35px;"">君子</p>","i","categorize-html","123","197589","0.0-6.0-1.0-8.0-1.7","4","3","4","4","3","3","3","2","4","3","4","4","4","5","5","4","4","5","4","4","4","5","4","4","4","4","4","5","4","1","0","1","1","0","1","0","1","0","1","1","0","1","0","1","5","4","4","2","4","2","2","4","4","4","4","776852011219161090","刘","395","","","","","","","","","","","","","","","","","","","true","14","4","moral","664","positive","君子","","","","","","","","","","","","","","","","",""
"null","","null","html-keyboard-response","124","197841","0.0-6.0-1.0-8.0-0.8","4","3","4","4","3","3","3","2","4","3","4","4","4","5","5","4","4","5","4","4","4","5","4","4","4","4","4","5","4","1","0","1","1","0","1","0","1","0","1","1","0","1","0","1","5","4","4","2","4","2","2","4","4","4","4","776852011219161090","刘","395","","","","","","","","","","","","","","","","","","","","","","","","","","","","","","","","","","","","","","","","","",""
"722","<p style=""color:rgb(150, 250, 100); font-size: 35px;"">自己</p>","e","categorize-html","125","198569","0.0-6.0-1.0-8.0-1.8","4","3","4","4","3","3","3","2","4","3","4","4","4","5","5","4","4","5","4","4","4","5","4","4","4","4","4","5","4","1","0","1","1","0","1","0","1","0","1","1","0","1","0","1","5","4","4","2","4","2","2","4","4","4","4","776852011219161090","刘","395","","","","","","","","","","","","","","","","","","","true","14","4","moral","722","self","自己","","","","","","","","","","","","","","","","",""
"null","","null","html-keyboard-response","126","198821","0.0-6.0-1.0-8.0-0.9","4","3","4","4","3","3","3","2","4","3","4","4","4","5","5","4","4","5","4","4","4","5","4","4","4","4","4","5","4","1","0","1","1","0","1","0","1","0","1","1","0","1","0","1","5","4","4","2","4","2","2","4","4","4","4","776852011219161090","刘","395","","","","","","","","","","","","","","","","","","","","","","","","","","","","","","","","","","","","","","","","","",""
"852","<p style=""color:white; font-size: 35px;"">小人</p>","e","categorize-html","127","199680","0.0-6.0-1.0-8.0-1.9","4","3","4","4","3","3","3","2","4","3","4","4","4","5","5","4","4","5","4","4","4","5","4","4","4","4","4","5","4","1","0","1","1","0","1","0","1","0","1","1","0","1","0","1","5","4","4","2","4","2","2","4","4","4","4","776852011219161090","刘","395","","","","","","","","","","","","","","","","","","","true","14","4","moral","852","negative","小人","","","","","","","","","","","","","","","","",""
"null","","null","html-keyboard-response","128","199936","0.0-6.0-1.0-8.0-0.10","4","3","4","4","3","3","3","2","4","3","4","4","4","5","5","4","4","5","4","4","4","5","4","4","4","4","4","5","4","1","0","1","1","0","1","0","1","0","1","1","0","1","0","1","5","4","4","2","4","2","2","4","4","4","4","776852011219161090","刘","395","","","","","","","","","","","","","","","","","","","","","","","","","","","","","","","","","","","","","","","","","",""
"572","<p style=""color:rgb(150, 250, 100); font-size: 35px;"">别人</p>","i","categorize-html","129","200512","0.0-6.0-1.0-8.0-1.10","4","3","4","4","3","3","3","2","4","3","4","4","4","5","5","4","4","5","4","4","4","5","4","4","4","4","4","5","4","1","0","1","1","0","1","0","1","0","1","1","0","1","0","1","5","4","4","2","4","2","2","4","4","4","4","776852011219161090","刘","395","","","","","","","","","","","","","","","","","","","true","14","4","moral","572","other","别人","","","","","","","","","","","","","","","","",""
"null","","null","html-keyboard-response","130","200765","0.0-6.0-1.0-8.0-0.11","4","3","4","4","3","3","3","2","4","3","4","4","4","5","5","4","4","5","4","4","4","5","4","4","4","4","4","5","4","1","0","1","1","0","1","0","1","0","1","1","0","1","0","1","5","4","4","2","4","2","2","4","4","4","4","776852011219161090","刘","395","","","","","","","","","","","","","","","","","","","","","","","","","","","","","","","","","","","","","","","","","",""
"617","<p style=""color:white; font-size: 35px;"">高尚</p>","i","categorize-html","131","201388","0.0-6.0-1.0-8.0-1.11","4","3","4","4","3","3","3","2","4","3","4","4","4","5","5","4","4","5","4","4","4","5","4","4","4","4","4","5","4","1","0","1","1","0","1","0","1","0","1","1","0","1","0","1","5","4","4","2","4","2","2","4","4","4","4","776852011219161090","刘","395","","","","","","","","","","","","","","","","","","","true","14","4","moral","617","positive","高尚","","","","","","","","","","","","","","","","",""
"null","","null","html-keyboard-response","132","201643","0.0-6.0-1.0-8.0-0.12","4","3","4","4","3","3","3","2","4","3","4","4","4","5","5","4","4","5","4","4","4","5","4","4","4","4","4","5","4","1","0","1","1","0","1","0","1","0","1","1","0","1","0","1","5","4","4","2","4","2","2","4","4","4","4","776852011219161090","刘","395","","","","","","","","","","","","","","","","","","","","","","","","","","","","","","","","","","","","","","","","","",""
"1161","<p style=""color:rgb(150, 250, 100); font-size: 35px;"">我的</p>","e","categorize-html","133","202810","0.0-6.0-1.0-8.0-1.12","4","3","4","4","3","3","3","2","4","3","4","4","4","5","5","4","4","5","4","4","4","5","4","4","4","4","4","5","4","1","0","1","1","0","1","0","1","0","1","1","0","1","0","1","5","4","4","2","4","2","2","4","4","4","4","776852011219161090","刘","395","","","","","","","","","","","","","","","","","","","true","14","4","moral","1161","self","我的","","","","","","","","","","","","","","","","",""
"null","","null","html-keyboard-response","134","203062","0.0-6.0-1.0-8.0-0.13","4","3","4","4","3","3","3","2","4","3","4","4","4","5","5","4","4","5","4","4","4","5","4","4","4","4","4","5","4","1","0","1","1","0","1","0","1","0","1","1","0","1","0","1","5","4","4","2","4","2","2","4","4","4","4","776852011219161090","刘","395","","","","","","","","","","","","","","","","","","","","","","","","","","","","","","","","","","","","","","","","","",""
"533","<p style=""color:white; font-size: 35px;"">正直</p>","i","categorize-html","135","203601","0.0-6.0-1.0-8.0-1.13","4","3","4","4","3","3","3","2","4","3","4","4","4","5","5","4","4","5","4","4","4","5","4","4","4","4","4","5","4","1","0","1","1","0","1","0","1","0","1","1","0","1","0","1","5","4","4","2","4","2","2","4","4","4","4","776852011219161090","刘","395","","","","","","","","","","","","","","","","","","","true","14","4","moral","533","positive","正直","","","","","","","","","","","","","","","","",""
"null","","null","html-keyboard-response","136","203853","0.0-6.0-1.0-8.0-0.14","4","3","4","4","3","3","3","2","4","3","4","4","4","5","5","4","4","5","4","4","4","5","4","4","4","4","4","5","4","1","0","1","1","0","1","0","1","0","1","1","0","1","0","1","5","4","4","2","4","2","2","4","4","4","4","776852011219161090","刘","395","","","","","","","","","","","","","","","","","","","","","","","","","","","","","","","","","","","","","","","","","",""
"653","<p style=""color:rgb(150, 250, 100); font-size: 35px;"">他的</p>","i","categorize-html","137","204511","0.0-6.0-1.0-8.0-1.14","4","3","4","4","3","3","3","2","4","3","4","4","4","5","5","4","4","5","4","4","4","5","4","4","4","4","4","5","4","1","0","1","1","0","1","0","1","0","1","1","0","1","0","1","5","4","4","2","4","2","2","4","4","4","4","776852011219161090","刘","395","","","","","","","","","","","","","","","","","","","true","14","4","moral","653","other","他的","","","","","","","","","","","","","","","","",""
"null","","null","html-keyboard-response","138","204764","0.0-6.0-1.0-8.0-0.15","4","3","4","4","3","3","3","2","4","3","4","4","4","5","5","4","4","5","4","4","4","5","4","4","4","4","4","5","4","1","0","1","1","0","1","0","1","0","1","1","0","1","0","1","5","4","4","2","4","2","2","4","4","4","4","776852011219161090","刘","395","","","","","","","","","","","","","","","","","","","","","","","","","","","","","","","","","","","","","","","","","",""
"646","<p style=""color:white; font-size: 35px;"">卑鄙</p>","e","categorize-html","139","205414","0.0-6.0-1.0-8.0-1.15","4","3","4","4","3","3","3","2","4","3","4","4","4","5","5","4","4","5","4","4","4","5","4","4","4","4","4","5","4","1","0","1","1","0","1","0","1","0","1","1","0","1","0","1","5","4","4","2","4","2","2","4","4","4","4","776852011219161090","刘","395","","","","","","","","","","","","","","","","","","","true","14","4","moral","646","negative","卑鄙","","","","","","","","","","","","","","","","",""
"null","","null","html-keyboard-response","140","205666","0.0-6.0-1.0-8.0-0.16","4","3","4","4","3","3","3","2","4","3","4","4","4","5","5","4","4","5","4","4","4","5","4","4","4","4","4","5","4","1","0","1","1","0","1","0","1","0","1","1","0","1","0","1","5","4","4","2","4","2","2","4","4","4","4","776852011219161090","刘","395","","","","","","","","","","","","","","","","","","","","","","","","","","","","","","","","","","","","","","","","","",""
"735","<p style=""color:rgb(150, 250, 100); font-size: 35px;"">我的</p>","e","categorize-html","141","206406","0.0-6.0-1.0-8.0-1.16","4","3","4","4","3","3","3","2","4","3","4","4","4","5","5","4","4","5","4","4","4","5","4","4","4","4","4","5","4","1","0","1","1","0","1","0","1","0","1","1","0","1","0","1","5","4","4","2","4","2","2","4","4","4","4","776852011219161090","刘","395","","","","","","","","","","","","","","","","","","","true","14","4","moral","735","self","我的","","","","","","","","","","","","","","","","",""
"null","","null","html-keyboard-response","142","206658","0.0-6.0-1.0-8.0-0.17","4","3","4","4","3","3","3","2","4","3","4","4","4","5","5","4","4","5","4","4","4","5","4","4","4","4","4","5","4","1","0","1","1","0","1","0","1","0","1","1","0","1","0","1","5","4","4","2","4","2","2","4","4","4","4","776852011219161090","刘","395","","","","","","","","","","","","","","","","","","","","","","","","","","","","","","","","","","","","","","","","","",""
"610","<p style=""color:white; font-size: 35px;"">君子</p>","i","categorize-html","143","207274","0.0-6.0-1.0-8.0-1.17","4","3","4","4","3","3","3","2","4","3","4","4","4","5","5","4","4","5","4","4","4","5","4","4","4","4","4","5","4","1","0","1","1","0","1","0","1","0","1","1","0","1","0","1","5","4","4","2","4","2","2","4","4","4","4","776852011219161090","刘","395","","","","","","","","","","","","","","","","","","","true","14","4","moral","610","positive","君子","","","","","","","","","","","","","","","","",""
"null","","null","html-keyboard-response","144","207527","0.0-6.0-1.0-8.0-0.18","4","3","4","4","3","3","3","2","4","3","4","4","4","5","5","4","4","5","4","4","4","5","4","4","4","4","4","5","4","1","0","1","1","0","1","0","1","0","1","1","0","1","0","1","5","4","4","2","4","2","2","4","4","4","4","776852011219161090","刘","395","","","","","","","","","","","","","","","","","","","","","","","","","","","","","","","","","","","","","","","","","",""
"692","<p style=""color:rgb(150, 250, 100); font-size: 35px;"">别人的</p>","i","categorize-html","145","208226","0.0-6.0-1.0-8.0-1.18","4","3","4","4","3","3","3","2","4","3","4","4","4","5","5","4","4","5","4","4","4","5","4","4","4","4","4","5","4","1","0","1","1","0","1","0","1","0","1","1","0","1","0","1","5","4","4","2","4","2","2","4","4","4","4","776852011219161090","刘","395","","","","","","","","","","","","","","","","","","","true","14","4","moral","692","other","别人的","","","","","","","","","","","","","","","","",""
"null","","null","html-keyboard-response","146","208479","0.0-6.0-1.0-8.0-0.19","4","3","4","4","3","3","3","2","4","3","4","4","4","5","5","4","4","5","4","4","4","5","4","4","4","4","4","5","4","1","0","1","1","0","1","0","1","0","1","1","0","1","0","1","5","4","4","2","4","2","2","4","4","4","4","776852011219161090","刘","395","","","","","","","","","","","","","","","","","","","","","","","","","","","","","","","","","","","","","","","","","",""
"663","<p style=""color:white; font-size: 35px;"">卑鄙</p>","e","categorize-html","147","209148","0.0-6.0-1.0-8.0-1.19","4","3","4","4","3","3","3","2","4","3","4","4","4","5","5","4","4","5","4","4","4","5","4","4","4","4","4","5","4","1","0","1","1","0","1","0","1","0","1","1","0","1","0","1","5","4","4","2","4","2","2","4","4","4","4","776852011219161090","刘","395","","","","","","","","","","","","","","","","","","","true","14","4","moral","663","negative","卑鄙","","","","","","","","","","","","","","","","",""
"null","","null","html-keyboard-response","148","209400","0.0-6.0-1.0-8.0-0.20","4","3","4","4","3","3","3","2","4","3","4","4","4","5","5","4","4","5","4","4","4","5","4","4","4","4","4","5","4","1","0","1","1","0","1","0","1","0","1","1","0","1","0","1","5","4","4","2","4","2","2","4","4","4","4","776852011219161090","刘","395","","","","","","","","","","","","","","","","","","","","","","","","","","","","","","","","","","","","","","","","","",""
"582","<p style=""color:rgb(150, 250, 100); font-size: 35px;"">他人</p>","i","categorize-html","149","209987","0.0-6.0-1.0-8.0-1.20","4","3","4","4","3","3","3","2","4","3","4","4","4","5","5","4","4","5","4","4","4","5","4","4","4","4","4","5","4","1","0","1","1","0","1","0","1","0","1","1","0","1","0","1","5","4","4","2","4","2","2","4","4","4","4","776852011219161090","刘","395","","","","","","","","","","","","","","","","","","","true","14","4","moral","582","other","他人","","","","","","","","","","","","","","","","",""
"null","","null","html-keyboard-response","150","210238","0.0-6.0-1.0-8.0-0.21","4","3","4","4","3","3","3","2","4","3","4","4","4","5","5","4","4","5","4","4","4","5","4","4","4","4","4","5","4","1","0","1","1","0","1","0","1","0","1","1","0","1","0","1","5","4","4","2","4","2","2","4","4","4","4","776852011219161090","刘","395","","","","","","","","","","","","","","","","","","","","","","","","","","","","","","","","","","","","","","","","","",""
"1704","<p style=""color:white; font-size: 35px;"">不孝</p>","e","categorize-html","151","211948","0.0-6.0-1.0-8.0-1.21","4","3","4","4","3","3","3","2","4","3","4","4","4","5","5","4","4","5","4","4","4","5","4","4","4","4","4","5","4","1","0","1","1","0","1","0","1","0","1","1","0","1","0","1","5","4","4","2","4","2","2","4","4","4","4","776852011219161090","刘","395","","","","","","","","","","","","","","","","","","","true","14","4","moral","1704","negative","不孝","","","","","","","","","","","","","","","","",""
"null","","null","html-keyboard-response","152","212201","0.0-6.0-1.0-8.0-0.22","4","3","4","4","3","3","3","2","4","3","4","4","4","5","5","4","4","5","4","4","4","5","4","4","4","4","4","5","4","1","0","1","1","0","1","0","1","0","1","1","0","1","0","1","5","4","4","2","4","2","2","4","4","4","4","776852011219161090","刘","395","","","","","","","","","","","","","","","","","","","","","","","","","","","","","","","","","","","","","","","","","",""
"952","<p style=""color:rgb(150, 250, 100); font-size: 35px;"">本人</p>","e","categorize-html","153","213158","0.0-6.0-1.0-8.0-1.22","4","3","4","4","3","3","3","2","4","3","4","4","4","5","5","4","4","5","4","4","4","5","4","4","4","4","4","5","4","1","0","1","1","0","1","0","1","0","1","1","0","1","0","1","5","4","4","2","4","2","2","4","4","4","4","776852011219161090","刘","395","","","","","","","","","","","","","","","","","","","true","14","4","moral","952","self","本人","","","","","","","","","","","","","","","","",""
"null","","null","html-keyboard-response","154","213411","0.0-6.0-1.0-8.0-0.23","4","3","4","4","3","3","3","2","4","3","4","4","4","5","5","4","4","5","4","4","4","5","4","4","4","4","4","5","4","1","0","1","1","0","1","0","1","0","1","1","0","1","0","1","5","4","4","2","4","2","2","4","4","4","4","776852011219161090","刘","395","","","","","","","","","","","","","","","","","","","","","","","","","","","","","","","","","","","","","","","","","",""
"598","<p style=""color:white; font-size: 35px;"">诚信</p>","i","categorize-html","155","214014","0.0-6.0-1.0-8.0-1.23","4","3","4","4","3","3","3","2","4","3","4","4","4","5","5","4","4","5","4","4","4","5","4","4","4","4","4","5","4","1","0","1","1","0","1","0","1","0","1","1","0","1","0","1","5","4","4","2","4","2","2","4","4","4","4","776852011219161090","刘","395","","","","","","","","","","","","","","","","","","","true","14","4","moral","598","positive","诚信","","","","","","","","","","","","","","","","",""
"null","","null","html-keyboard-response","156","214267","0.0-6.0-1.0-8.0-0.24","4","3","4","4","3","3","3","2","4","3","4","4","4","5","5","4","4","5","4","4","4","5","4","4","4","4","4","5","4","1","0","1","1","0","1","0","1","0","1","1","0","1","0","1","5","4","4","2","4","2","2","4","4","4","4","776852011219161090","刘","395","","","","","","","","","","","","","","","","","","","","","","","","","","","","","","","","","","","","","","","","","",""
"688","<p style=""color:rgb(150, 250, 100); font-size: 35px;"">别人</p>","i","categorize-html","157","214960","0.0-6.0-1.0-8.0-1.24","4","3","4","4","3","3","3","2","4","3","4","4","4","5","5","4","4","5","4","4","4","5","4","4","4","4","4","5","4","1","0","1","1","0","1","0","1","0","1","1","0","1","0","1","5","4","4","2","4","2","2","4","4","4","4","776852011219161090","刘","395","","","","","","","","","","","","","","","","","","","true","14","4","moral","688","other","别人","","","","","","","","","","","","","","","","",""
"null","","null","html-keyboard-response","158","215212","0.0-6.0-1.0-8.0-0.25","4","3","4","4","3","3","3","2","4","3","4","4","4","5","5","4","4","5","4","4","4","5","4","4","4","4","4","5","4","1","0","1","1","0","1","0","1","0","1","1","0","1","0","1","5","4","4","2","4","2","2","4","4","4","4","776852011219161090","刘","395","","","","","","","","","","","","","","","","","","","","","","","","","","","","","","","","","","","","","","","","","",""
"742","<p style=""color:white; font-size: 35px;"">高尚</p>","i","categorize-html","159","215959","0.0-6.0-1.0-8.0-1.25","4","3","4","4","3","3","3","2","4","3","4","4","4","5","5","4","4","5","4","4","4","5","4","4","4","4","4","5","4","1","0","1","1","0","1","0","1","0","1","1","0","1","0","1","5","4","4","2","4","2","2","4","4","4","4","776852011219161090","刘","395","","","","","","","","","","","","","","","","","","","true","14","4","moral","742","positive","高尚","","","","","","","","","","","","","","","","",""
"null","","null","html-keyboard-response","160","216227","0.0-6.0-1.0-8.0-0.26","4","3","4","4","3","3","3","2","4","3","4","4","4","5","5","4","4","5","4","4","4","5","4","4","4","4","4","5","4","1","0","1","1","0","1","0","1","0","1","1","0","1","0","1","5","4","4","2","4","2","2","4","4","4","4","776852011219161090","刘","395","","","","","","","","","","","","","","","","","","","","","","","","","","","","","","","","","","","","","","","","","",""
"1957","<p style=""color:rgb(150, 250, 100); font-size: 35px;"">自己的</p>","e","categorize-html","161","218190","0.0-6.0-1.0-8.0-1.26","4","3","4","4","3","3","3","2","4","3","4","4","4","5","5","4","4","5","4","4","4","5","4","4","4","4","4","5","4","1","0","1","1","0","1","0","1","0","1","1","0","1","0","1","5","4","4","2","4","2","2","4","4","4","4","776852011219161090","刘","395","","","","","","","","","","","","","","","","","","","true","14","4","moral","1957","self","自己的","","","","","","","","","","","","","","","","",""
"null","","null","html-keyboard-response","162","218441","0.0-6.0-1.0-8.0-0.27","4","3","4","4","3","3","3","2","4","3","4","4","4","5","5","4","4","5","4","4","4","5","4","4","4","4","4","5","4","1","0","1","1","0","1","0","1","0","1","1","0","1","0","1","5","4","4","2","4","2","2","4","4","4","4","776852011219161090","刘","395","","","","","","","","","","","","","","","","","","","","","","","","","","","","","","","","","","","","","","","","","",""
"1046","<p style=""color:white; font-size: 35px;"">缺德</p>","e","categorize-html","163","219493","0.0-6.0-1.0-8.0-1.27","4","3","4","4","3","3","3","2","4","3","4","4","4","5","5","4","4","5","4","4","4","5","4","4","4","4","4","5","4","1","0","1","1","0","1","0","1","0","1","1","0","1","0","1","5","4","4","2","4","2","2","4","4","4","4","776852011219161090","刘","395","","","","","","","","","","","","","","","","","","","true","14","4","moral","1046","negative","缺德","","","","","","","","","","","","","","","","",""
"null","","null","html-keyboard-response","164","219745","0.0-6.0-1.0-8.0-0.28","4","3","4","4","3","3","3","2","4","3","4","4","4","5","5","4","4","5","4","4","4","5","4","4","4","4","4","5","4","1","0","1","1","0","1","0","1","0","1","1","0","1","0","1","5","4","4","2","4","2","2","4","4","4","4","776852011219161090","刘","395","","","","","","","","","","","","","","","","","","","","","","","","","","","","","","","","","","","","","","","","","",""
"971","<p style=""color:rgb(150, 250, 100); font-size: 35px;"">本人的</p>","e","categorize-html","165","220722","0.0-6.0-1.0-8.0-1.28","4","3","4","4","3","3","3","2","4","3","4","4","4","5","5","4","4","5","4","4","4","5","4","4","4","4","4","5","4","1","0","1","1","0","1","0","1","0","1","1","0","1","0","1","5","4","4","2","4","2","2","4","4","4","4","776852011219161090","刘","395","","","","","","","","","","","","","","","","","","","true","14","4","moral","971","self","本人的","","","","","","","","","","","","","","","","",""
"null","","null","html-keyboard-response","166","220974","0.0-6.0-1.0-8.0-0.29","4","3","4","4","3","3","3","2","4","3","4","4","4","5","5","4","4","5","4","4","4","5","4","4","4","4","4","5","4","1","0","1","1","0","1","0","1","0","1","1","0","1","0","1","5","4","4","2","4","2","2","4","4","4","4","776852011219161090","刘","395","","","","","","","","","","","","","","","","","","","","","","","","","","","","","","","","","","","","","","","","","",""
"1308","<p style=""color:white; font-size: 35px;"">小人</p>","e","categorize-html","167","222287","0.0-6.0-1.0-8.0-1.29","4","3","4","4","3","3","3","2","4","3","4","4","4","5","5","4","4","5","4","4","4","5","4","4","4","4","4","5","4","1","0","1","1","0","1","0","1","0","1","1","0","1","0","1","5","4","4","2","4","2","2","4","4","4","4","776852011219161090","刘","395","","","","","","","","","","","","","","","","","","","true","14","4","moral","1308","negative","小人","","","","","","","","","","","","","","","","",""
"null","","null","html-keyboard-response","168","222538","0.0-6.0-1.0-8.0-0.30","4","3","4","4","3","3","3","2","4","3","4","4","4","5","5","4","4","5","4","4","4","5","4","4","4","4","4","5","4","1","0","1","1","0","1","0","1","0","1","1","0","1","0","1","5","4","4","2","4","2","2","4","4","4","4","776852011219161090","刘","395","","","","","","","","","","","","","","","","","","","","","","","","","","","","","","","","","","","","","","","","","",""
"824","<p style=""color:rgb(150, 250, 100); font-size: 35px;"">他</p>","i","categorize-html","169","223368","0.0-6.0-1.0-8.0-1.30","4","3","4","4","3","3","3","2","4","3","4","4","4","5","5","4","4","5","4","4","4","5","4","4","4","4","4","5","4","1","0","1","1","0","1","0","1","0","1","1","0","1","0","1","5","4","4","2","4","2","2","4","4","4","4","776852011219161090","刘","395","","","","","","","","","","","","","","","","","","","true","14","4","moral","824","other","他","","","","","","","","","","","","","","","","",""
"null","","null","html-keyboard-response","170","223621","0.0-6.0-1.0-8.0-0.31","4","3","4","4","3","3","3","2","4","3","4","4","4","5","5","4","4","5","4","4","4","5","4","4","4","4","4","5","4","1","0","1","1","0","1","0","1","0","1","1","0","1","0","1","5","4","4","2","4","2","2","4","4","4","4","776852011219161090","刘","395","","","","","","","","","","","","","","","","","","","","","","","","","","","","","","","","","","","","","","","","","",""
"1077","<p style=""color:white; font-size: 35px;"">正直</p>","i","categorize-html","171","224702","0.0-6.0-1.0-8.0-1.31","4","3","4","4","3","3","3","2","4","3","4","4","4","5","5","4","4","5","4","4","4","5","4","4","4","4","4","5","4","1","0","1","1","0","1","0","1","0","1","1","0","1","0","1","5","4","4","2","4","2","2","4","4","4","4","776852011219161090","刘","395","","","","","","","","","","","","","","","","","","","true","14","4","moral","1077","positive","正直","","","","","","","","","","","","","","","","",""
"null","","null","html-keyboard-response","172","224953","0.0-6.0-1.0-8.0-0.32","4","3","4","4","3","3","3","2","4","3","4","4","4","5","5","4","4","5","4","4","4","5","4","4","4","4","4","5","4","1","0","1","1","0","1","0","1","0","1","1","0","1","0","1","5","4","4","2","4","2","2","4","4","4","4","776852011219161090","刘","395","","","","","","","","","","","","","","","","","","","","","","","","","","","","","","","","","","","","","","","","","",""
"1207","<p style=""color:rgb(150, 250, 100); font-size: 35px;"">本人</p>","e","categorize-html","173","226165","0.0-6.0-1.0-8.0-1.32","4","3","4","4","3","3","3","2","4","3","4","4","4","5","5","4","4","5","4","4","4","5","4","4","4","4","4","5","4","1","0","1","1","0","1","0","1","0","1","1","0","1","0","1","5","4","4","2","4","2","2","4","4","4","4","776852011219161090","刘","395","","","","","","","","","","","","","","","","","","","true","14","4","moral","1207","self","本人","","","","","","","","","","","","","","","","",""
"null","","null","html-keyboard-response","174","226417","0.0-6.0-1.0-8.0-0.33","4","3","4","4","3","3","3","2","4","3","4","4","4","5","5","4","4","5","4","4","4","5","4","4","4","4","4","5","4","1","0","1","1","0","1","0","1","0","1","1","0","1","0","1","5","4","4","2","4","2","2","4","4","4","4","776852011219161090","刘","395","","","","","","","","","","","","","","","","","","","","","","","","","","","","","","","","","","","","","","","","","",""
"678","<p style=""color:white; font-size: 35px;"">黑心</p>","e","categorize-html","175","227101","0.0-6.0-1.0-8.0-1.33","4","3","4","4","3","3","3","2","4","3","4","4","4","5","5","4","4","5","4","4","4","5","4","4","4","4","4","5","4","1","0","1","1","0","1","0","1","0","1","1","0","1","0","1","5","4","4","2","4","2","2","4","4","4","4","776852011219161090","刘","395","","","","","","","","","","","","","","","","","","","true","14","4","moral","678","negative","黑心","","","","","","","","","","","","","","","","",""
"null","","null","html-keyboard-response","176","227353","0.0-6.0-1.0-8.0-0.34","4","3","4","4","3","3","3","2","4","3","4","4","4","5","5","4","4","5","4","4","4","5","4","4","4","4","4","5","4","1","0","1","1","0","1","0","1","0","1","1","0","1","0","1","5","4","4","2","4","2","2","4","4","4","4","776852011219161090","刘","395","","","","","","","","","","","","","","","","","","","","","","","","","","","","","","","","","","","","","","","","","",""
"649","<p style=""color:rgb(150, 250, 100); font-size: 35px;"">别人的</p>","i","categorize-html","177","228007","0.0-6.0-1.0-8.0-1.34","4","3","4","4","3","3","3","2","4","3","4","4","4","5","5","4","4","5","4","4","4","5","4","4","4","4","4","5","4","1","0","1","1","0","1","0","1","0","1","1","0","1","0","1","5","4","4","2","4","2","2","4","4","4","4","776852011219161090","刘","395","","","","","","","","","","","","","","","","","","","true","14","4","moral","649","other","别人的","","","","","","","","","","","","","","","","",""
"null","","null","html-keyboard-response","178","228259","0.0-6.0-1.0-8.0-0.35","4","3","4","4","3","3","3","2","4","3","4","4","4","5","5","4","4","5","4","4","4","5","4","4","4","4","4","5","4","1","0","1","1","0","1","0","1","0","1","1","0","1","0","1","5","4","4","2","4","2","2","4","4","4","4","776852011219161090","刘","395","","","","","","","","","","","","","","","","","","","","","","","","","","","","","","","","","","","","","","","","","",""
"688","<p style=""color:white; font-size: 35px;"">诚信</p>","i","categorize-html","179","228952","0.0-6.0-1.0-8.0-1.35","4","3","4","4","3","3","3","2","4","3","4","4","4","5","5","4","4","5","4","4","4","5","4","4","4","4","4","5","4","1","0","1","1","0","1","0","1","0","1","1","0","1","0","1","5","4","4","2","4","2","2","4","4","4","4","776852011219161090","刘","395","","","","","","","","","","","","","","","","","","","true","14","4","moral","688","positive","诚信","","","","","","","","","","","","","","","","",""
"null","","null","html-keyboard-response","180","229203","0.0-6.0-1.0-8.0-0.36","4","3","4","4","3","3","3","2","4","3","4","4","4","5","5","4","4","5","4","4","4","5","4","4","4","4","4","5","4","1","0","1","1","0","1","0","1","0","1","1","0","1","0","1","5","4","4","2","4","2","2","4","4","4","4","776852011219161090","刘","395","","","","","","","","","","","","","","","","","","","","","","","","","","","","","","","","","","","","","","","","","",""
"768","<p style=""color:rgb(150, 250, 100); font-size: 35px;"">他</p>","i","categorize-html","181","229978","0.0-6.0-1.0-8.0-1.36","4","3","4","4","3","3","3","2","4","3","4","4","4","5","5","4","4","5","4","4","4","5","4","4","4","4","4","5","4","1","0","1","1","0","1","0","1","0","1","1","0","1","0","1","5","4","4","2","4","2","2","4","4","4","4","776852011219161090","刘","395","","","","","","","","","","","","","","","","","","","true","14","4","moral","768","other","他","","","","","","","","","","","","","","","","",""
"null","","null","html-keyboard-response","182","230229","0.0-6.0-1.0-8.0-0.37","4","3","4","4","3","3","3","2","4","3","4","4","4","5","5","4","4","5","4","4","4","5","4","4","4","4","4","5","4","1","0","1","1","0","1","0","1","0","1","1","0","1","0","1","5","4","4","2","4","2","2","4","4","4","4","776852011219161090","刘","395","","","","","","","","","","","","","","","","","","","","","","","","","","","","","","","","","","","","","","","","","",""
"1037","<p style=""color:white; font-size: 35px;"">不仁</p>","e","categorize-html","183","231271","0.0-6.0-1.0-8.0-1.37","4","3","4","4","3","3","3","2","4","3","4","4","4","5","5","4","4","5","4","4","4","5","4","4","4","4","4","5","4","1","0","1","1","0","1","0","1","0","1","1","0","1","0","1","5","4","4","2","4","2","2","4","4","4","4","776852011219161090","刘","395","","","","","","","","","","","","","","","","","","","true","14","4","moral","1037","negative","不仁","","","","","","","","","","","","","","","","",""
"null","","null","html-keyboard-response","184","231524","0.0-6.0-1.0-8.0-0.38","4","3","4","4","3","3","3","2","4","3","4","4","4","5","5","4","4","5","4","4","4","5","4","4","4","4","4","5","4","1","0","1","1","0","1","0","1","0","1","1","0","1","0","1","5","4","4","2","4","2","2","4","4","4","4","776852011219161090","刘","395","","","","","","","","","","","","","","","","","","","","","","","","","","","","","","","","","","","","","","","","","",""
"758","<p style=""color:rgb(150, 250, 100); font-size: 35px;"">本人的</p>","e","categorize-html","185","232288","0.0-6.0-1.0-8.0-1.38","4","3","4","4","3","3","3","2","4","3","4","4","4","5","5","4","4","5","4","4","4","5","4","4","4","4","4","5","4","1","0","1","1","0","1","0","1","0","1","1","0","1","0","1","5","4","4","2","4","2","2","4","4","4","4","776852011219161090","刘","395","","","","","","","","","","","","","","","","","","","true","14","4","moral","758","self","本人的","","","","","","","","","","","","","","","","",""
"null","","null","html-keyboard-response","186","232540","0.0-6.0-1.0-8.0-0.39","4","3","4","4","3","3","3","2","4","3","4","4","4","5","5","4","4","5","4","4","4","5","4","4","4","4","4","5","4","1","0","1","1","0","1","0","1","0","1","1","0","1","0","1","5","4","4","2","4","2","2","4","4","4","4","776852011219161090","刘","395","","","","","","","","","","","","","","","","","","","","","","","","","","","","","","","","","","","","","","","","","",""
"923","<p style=""color:white; font-size: 35px;"">廉正</p>","i","categorize-html","187","233469","0.0-6.0-1.0-8.0-1.39","4","3","4","4","3","3","3","2","4","3","4","4","4","5","5","4","4","5","4","4","4","5","4","4","4","4","4","5","4","1","0","1","1","0","1","0","1","0","1","1","0","1","0","1","5","4","4","2","4","2","2","4","4","4","4","776852011219161090","刘","395","","","","","","","","","","","","","","","","","","","true","14","4","moral","923","positive","廉正","","","","","","","","","","","","","","","","",""
"null","","null","html-keyboard-response","188","233729","0.0-6.0-1.0-8.0-0.40","4","3","4","4","3","3","3","2","4","3","4","4","4","5","5","4","4","5","4","4","4","5","4","4","4","4","4","5","4","1","0","1","1","0","1","0","1","0","1","1","0","1","0","1","5","4","4","2","4","2","2","4","4","4","4","776852011219161090","刘","395","","","","","","","","","","","","","","","","","","","","","","","","","","","","","","","","","","","","","","","","","",""
"906","<p style=""color:rgb(150, 250, 100); font-size: 35px;"">自己</p>","e","categorize-html","189","234641","0.0-6.0-1.0-8.0-1.40","4","3","4","4","3","3","3","2","4","3","4","4","4","5","5","4","4","5","4","4","4","5","4","4","4","4","4","5","4","1","0","1","1","0","1","0","1","0","1","1","0","1","0","1","5","4","4","2","4","2","2","4","4","4","4","776852011219161090","刘","395","","","","","","","","","","","","","","","","","","","true","14","4","moral","906","self","自己","","","","","","","","","","","","","","","","",""
"null","","null","html-keyboard-response","190","234893","0.0-6.0-1.0-8.0-0.41","4","3","4","4","3","3","3","2","4","3","4","4","4","5","5","4","4","5","4","4","4","5","4","4","4","4","4","5","4","1","0","1","1","0","1","0","1","0","1","1","0","1","0","1","5","4","4","2","4","2","2","4","4","4","4","776852011219161090","刘","395","","","","","","","","","","","","","","","","","","","","","","","","","","","","","","","","","","","","","","","","","",""
"700","<p style=""color:white; font-size: 35px;"">廉正</p>","i","categorize-html","191","235598","0.0-6.0-1.0-8.0-1.41","4","3","4","4","3","3","3","2","4","3","4","4","4","5","5","4","4","5","4","4","4","5","4","4","4","4","4","5","4","1","0","1","1","0","1","0","1","0","1","1","0","1","0","1","5","4","4","2","4","2","2","4","4","4","4","776852011219161090","刘","395","","","","","","","","","","","","","","","","","","","true","14","4","moral","700","positive","廉正","","","","","","","","","","","","","","","","",""
"null","","null","html-keyboard-response","192","235850","0.0-6.0-1.0-8.0-0.42","4","3","4","4","3","3","3","2","4","3","4","4","4","5","5","4","4","5","4","4","4","5","4","4","4","4","4","5","4","1","0","1","1","0","1","0","1","0","1","1","0","1","0","1","5","4","4","2","4","2","2","4","4","4","4","776852011219161090","刘","395","","","","","","","","","","","","","","","","","","","","","","","","","","","","","","","","","","","","","","","","","",""
