"rt","stimulus","response","trial_type","trial_index","time_elapsed","internal_node_id","ses_1","ses_2","ses_3","ses_4","ses_5","ses_6","ses_7","ses_8","ses_9","ses_10","coreself_1","coreself_2","coreself_3","coreself_4","coreself_5","coreself_6","coreself_7","coreself_8","coreself_9","coreself_10","SGPS_1","SGPS_2","SGPS_3","SGPS_4","SGPS_5","SGPS_6","SGPS_7","SGPS_8","SGPS_9","NPI1","NPI2","NPI3","NPI4","NPI5","NPI6","NPI7","NPI8","NPI9","NPI10","NPI11","NPI12","NPI13","NPI14","NPI15","hsns_1","hsns_2","hsns_3","hsns_4","hsns_5","trap1","hsns_6","hsns_7","hsns_8","hsns_9","hsns_10","subj_idx","friend_name","ParticipantID","value","success","user_agent","responses","item_order","radio_event_ids","radio_event_times","key_event_times","mouse_event_times","straightlining","zigzagging","honeypot","timeout","failed_images","failed_audio","failed_video","version_attrib","version_target","correct","IAT","screen_id","task_id","RT","condition","word","varname","summary","version_attrib2","version_target2","time_stamp","view_history","response_type","key_press","avg_frame_time","center_x","center_y","correct_response","identity","Image","question_order","correct_answer","trap1_item"
"1371","
   <p><div style = ""color: white;font-size:25px;"">您好，欢迎参加本次实验。</div> </p>
   <p><div style = ""color: white;font-size:25px;"">为充分保障您的权利，请确保您已经知晓并同意《参与实验同意书》以及《数据公开知情同意书》。</div></p>
   <p><div style = ""color: white;font-size:25px;"">如果您未见过上述内容，请咨询实验员。</div></p>
   <p><div style = ""color: white;font-size:25px;"">如果您选择继续实验，则表示您已经清楚两份知情同意书的内容并同意。</div></p>
   <p><div style = ""color: pink;font-size:30px;"">请确保您记得day0的实验编号，您将在本次实验输入该编号，若您忘记，请咨询实验员后作答。</div></p>
   <p><div style = ""color: lightblue;font-size:25px;"">请您尽可能认真地作答，我们将依据您在各问卷和按键任务中的作答质量发放报酬。</div></p>
   <p> <div style = ""color: green;font-size:25px;""><按空格键至下页></div> </p>
   "," ","html-keyboard-response","0","1373","0.0-0.0","4","4","4","4","4","4","4","4","4","4","5","5","5","5","5","5","5","5","5","5","1","1","1","1","1","1","1","1","1","1","0","1","1","0","0","0","1","0","1","1","0","0","0","1","5","1","1","1","1","5","1","1","4","1","1","628519267599384576","董","235","","","","","","","","","","","","","","","","","","","","","","","","","","","","","","","","","","","","","","","","","",""
"","","","call-function","1","1374","0.0-1.0-0.0","4","4","4","4","4","4","4","4","4","4","5","5","5","5","5","5","5","5","5","5","1","1","1","1","1","1","1","1","1","1","0","1","1","0","0","0","1","0","1","1","0","0","0","1","5","1","1","1","1","5","1","1","4","1","1","628519267599384576","董","235","","","","","","","","","","","","","","","","","","","","","","","","","","","","","","","","","","","","","","","","","",""
"42362","","{""friend_name"":""董"",""ParticipantID"":""235""}","survey-html-form","2","43737","0.0-1.0-1.0","4","4","4","4","4","4","4","4","4","4","5","5","5","5","5","5","5","5","5","5","1","1","1","1","1","1","1","1","1","1","0","1","1","0","0","0","1","0","1","1","0","0","0","1","5","1","1","1","1","5","1","1","4","1","1","628519267599384576","董","235","","","","","","","","","","","","","","","","","","","","","","","","","","","","","","","","","","","","","","","","","",""
"","","","fullscreen","3","45691","0.0-2.0","4","4","4","4","4","4","4","4","4","4","5","5","5","5","5","5","5","5","5","5","1","1","1","1","1","1","1","1","1","1","0","1","1","0","0","0","1","0","1","1","0","0","0","1","5","1","1","1","1","5","1","1","4","1","1","628519267599384576","董","235","","true","{}","","","","","","","","","","","","","","","","","","","","","","","","","","","","","","","","","","","","","","",""
"31399.80000001192","","{""Q01"":""4"",""Q02"":""4"",""Q03"":""4"",""Q04"":""4"",""Q05"":""4"",""Q06"":""4"",""Q07"":""4"",""Q08"":""4"",""Q09"":""4"",""Q10"":""4""}","survey-template","4","77092","0.0-3.0","4","4","4","4","4","4","4","4","4","4","5","5","5","5","5","5","5","5","5","5","1","1","1","1","1","1","1","1","1","1","0","1","1","0","0","0","1","0","1","1","0","0","0","1","5","1","1","1","1","5","1","1","4","1","1","628519267599384576","董","235","","","","{""Q01"":""4"",""Q02"":""4"",""Q03"":""4"",""Q04"":""4"",""Q05"":""4"",""Q06"":""4"",""Q07"":""4"",""Q08"":""4"",""Q09"":""4"",""Q10"":""4""}","[0,1,2,3,4,5,6,7,8,9]","[""Q01"",""Q02"",""Q03"",""Q04"",""Q05"",""Q07"",""Q09"",""Q08"",""Q10"",""Q06""]","[5595.699999988079,7581.899999976158,9748.100000023842,11600.100000023842,15753.699999988079,18474.899999976158,22245.600000023842,22994.80000001192,24487.600000023842,28278.69999998808]","[]","[5595.699999988079,7581.899999976158,9748.100000023842,11600.100000023842,15753.699999988079,17065.899999976158,18474.899999976158,20371.30000001192,22245.600000023842,22994.80000001192,24487.600000023842,25656.899999976158,28278.69999998808,31398.899999976158]","0.5","0.5555555555555556","0","","","","","","","","","","","","","","","","","","","","","","","","","","","","","",""
"45164.39999997616","","{""Q01"":""5"",""Q02"":""5"",""Q03"":""5"",""Q04"":""5"",""Q05"":""5"",""Q06"":""5"",""Q07"":""5"",""Q08"":""5"",""Q09"":""5"",""Q10"":""5""}","survey-template","5","122261","0.0-4.0","4","4","4","4","4","4","4","4","4","4","5","5","5","5","5","5","5","5","5","5","1","1","1","1","1","1","1","1","1","1","0","1","1","0","0","0","1","0","1","1","0","0","0","1","5","1","1","1","1","5","1","1","4","1","1","628519267599384576","董","235","","","","{""Q01"":""5"",""Q02"":""5"",""Q03"":""5"",""Q04"":""5"",""Q05"":""5"",""Q06"":""5"",""Q07"":""5"",""Q08"":""5"",""Q09"":""5"",""Q10"":""5""}","[0,1,2,3,4,5,6,7,8,9]","[""Q01"",""Q02"",""Q03"",""Q04"",""Q05"",""Q06"",""Q07"",""Q08"",""Q09"",""Q10""]","[20290.19999998808,21721.5,23385.80000001192,25679.69999998808,30687,34091.5,36136.5,40687.60000002384,42260.30000001192,44121.39999997616]","[]","[20290.19999998808,21721.5,23385.80000001192,25679.69999998808,30687,32479.69999998808,34091.5,35348.89999997616,36136.5,40687.60000002384,42260.30000001192,44121.39999997616,45163.5]","0.6","0.7777777777777778","0","","","","","","","","","","","","","","","","","","","","","","","","","","","","","",""
"","","","preload","6","125118","0.0-5.0","4","4","4","4","4","4","4","4","4","4","5","5","5","5","5","5","5","5","5","5","1","1","1","1","1","1","1","1","1","1","0","1","1","0","0","0","1","0","1","1","0","0","0","1","5","1","1","1","1","5","1","1","4","1","1","628519267599384576","董","235","","true","","","","","","","","","","","false","[]","[]","[]","","","","","","","","","","","","","","","","","","","","","","","","","",""
"21167","
    <h3>词语分类任务</h3>
    <p>在接下来的任务中，你需要对一系列词语进行分类。</p>
    <p>请先熟悉这些词语，这有利于你完成接下来的任务。</p>
    <table align=""center"" border=1 cellpadding=3 cellspacing=0>
    <tr> <th>类别</th> <th>词语</th> </tr>
    <tr> <td>&emsp;积极&emsp;</td> <td>&emsp;能干、全能、全才、高效、精干、天才&emsp;</td> </tr>
    <tr> <td>&emsp;消极&emsp;</td> <td>&emsp;无能、低能、废物、拙笨、愚钝、蠢笨&emsp;</td> </tr>
    <tr> <td>&emsp;自我&emsp;</td> <td>&emsp;我、我的、自己、自己的、本人、本人的&emsp;</td> </tr>
    <tr> <td>&emsp;他人&emsp;</td> <td>&emsp;他、他的、别人、别人的、他人、他人的&emsp;</td> </tr>
    </table><br/>","0","html-button-response","7","146287","0.0-6.0-0.0-0.0","4","4","4","4","4","4","4","4","4","4","5","5","5","5","5","5","5","5","5","5","1","1","1","1","1","1","1","1","1","1","0","1","1","0","0","0","1","0","1","1","0","0","0","1","5","1","1","1","1","5","1","1","4","1","1","628519267599384576","董","235","","","","","","","","","","","","","","","","","2","1","","","","","","","","","","","","","","","","","","","","","","","",""
"6796","
    <div class=""tag-bottom"">
    <p> —— 任务1：对“自我”词和“他人”词分类 ——<p/>
    不同词语会出现在屏幕中央，类别标签将始终显示在屏幕上方<p/>   
    <span style=""color:#FFD866""><b>请根据上方标签的提示，尽可能正确并且快速地做出按键反应</b></span><p/>
    当按键错误时屏幕中会出现<span style=""color:red""> X </span>，需要按另一个键纠正才能继续<br/><p/>
    请把双手食指分别放在键盘的“E”键和“I”键上<p/>
    按<空格键>开始
    </p></div>"," ","html-keyboard-response","8","153086","0.0-6.0-0.0-1.0","4","4","4","4","4","4","4","4","4","4","5","5","5","5","5","5","5","5","5","5","1","1","1","1","1","1","1","1","1","1","0","1","1","0","0","0","1","0","1","1","0","0","0","1","5","1","1","1","1","5","1","1","4","1","1","628519267599384576","董","235","","","","","","","","","","","","","","","","","","","","","","","","","","","","","","","","","","","","","","","","","",""
"null","","null","html-keyboard-response","9","153338","0.0-6.0-0.0-2.0-0.0","4","4","4","4","4","4","4","4","4","4","5","5","5","5","5","5","5","5","5","5","1","1","1","1","1","1","1","1","1","1","0","1","1","0","0","0","1","0","1","1","0","0","0","1","5","1","1","1","1","5","1","1","4","1","1","628519267599384576","董","235","","","","","","","","","","","","","","","","","","","","","","","","","","","","","","","","","","","","","","","","","",""
"682","<p style=""color:rgb(150, 250, 100); font-size: 35px;"">他的</p>","i","categorize-html","10","154022","0.0-6.0-0.0-2.0-1.0","4","4","4","4","4","4","4","4","4","4","5","5","5","5","5","5","5","5","5","5","1","1","1","1","1","1","1","1","1","1","0","1","1","0","0","0","1","0","1","1","0","0","0","1","5","1","1","1","1","5","1","1","4","1","1","628519267599384576","董","235","","","","","","","","","","","","","","","","","","","true","1","1","ability","682","other","他的","","","","","","","","","","","","","","","","",""
"null","","null","html-keyboard-response","11","154274","0.0-6.0-0.0-2.0-0.1","4","4","4","4","4","4","4","4","4","4","5","5","5","5","5","5","5","5","5","5","1","1","1","1","1","1","1","1","1","1","0","1","1","0","0","0","1","0","1","1","0","0","0","1","5","1","1","1","1","5","1","1","4","1","1","628519267599384576","董","235","","","","","","","","","","","","","","","","","","","","","","","","","","","","","","","","","","","","","","","","","",""
"788","<p style=""color:rgb(150, 250, 100); font-size: 35px;"">别人的</p>","i","categorize-html","12","155064","0.0-6.0-0.0-2.0-1.1","4","4","4","4","4","4","4","4","4","4","5","5","5","5","5","5","5","5","5","5","1","1","1","1","1","1","1","1","1","1","0","1","1","0","0","0","1","0","1","1","0","0","0","1","5","1","1","1","1","5","1","1","4","1","1","628519267599384576","董","235","","","","","","","","","","","","","","","","","","","true","1","1","ability","788","other","别人的","","","","","","","","","","","","","","","","",""
"null","","null","html-keyboard-response","13","155314","0.0-6.0-0.0-2.0-0.2","4","4","4","4","4","4","4","4","4","4","5","5","5","5","5","5","5","5","5","5","1","1","1","1","1","1","1","1","1","1","0","1","1","0","0","0","1","0","1","1","0","0","0","1","5","1","1","1","1","5","1","1","4","1","1","628519267599384576","董","235","","","","","","","","","","","","","","","","","","","","","","","","","","","","","","","","","","","","","","","","","",""
"532","<p style=""color:rgb(150, 250, 100); font-size: 35px;"">他人</p>","i","categorize-html","14","155847","0.0-6.0-0.0-2.0-1.2","4","4","4","4","4","4","4","4","4","4","5","5","5","5","5","5","5","5","5","5","1","1","1","1","1","1","1","1","1","1","0","1","1","0","0","0","1","0","1","1","0","0","0","1","5","1","1","1","1","5","1","1","4","1","1","628519267599384576","董","235","","","","","","","","","","","","","","","","","","","true","1","1","ability","532","other","他人","","","","","","","","","","","","","","","","",""
"null","","null","html-keyboard-response","15","156098","0.0-6.0-0.0-2.0-0.3","4","4","4","4","4","4","4","4","4","4","5","5","5","5","5","5","5","5","5","5","1","1","1","1","1","1","1","1","1","1","0","1","1","0","0","0","1","0","1","1","0","0","0","1","5","1","1","1","1","5","1","1","4","1","1","628519267599384576","董","235","","","","","","","","","","","","","","","","","","","","","","","","","","","","","","","","","","","","","","","","","",""
"627","<p style=""color:rgb(150, 250, 100); font-size: 35px;"">别人</p>","i","categorize-html","16","156727","0.0-6.0-0.0-2.0-1.3","4","4","4","4","4","4","4","4","4","4","5","5","5","5","5","5","5","5","5","5","1","1","1","1","1","1","1","1","1","1","0","1","1","0","0","0","1","0","1","1","0","0","0","1","5","1","1","1","1","5","1","1","4","1","1","628519267599384576","董","235","","","","","","","","","","","","","","","","","","","true","1","1","ability","627","other","别人","","","","","","","","","","","","","","","","",""
"null","","null","html-keyboard-response","17","156984","0.0-6.0-0.0-2.0-0.4","4","4","4","4","4","4","4","4","4","4","5","5","5","5","5","5","5","5","5","5","1","1","1","1","1","1","1","1","1","1","0","1","1","0","0","0","1","0","1","1","0","0","0","1","5","1","1","1","1","5","1","1","4","1","1","628519267599384576","董","235","","","","","","","","","","","","","","","","","","","","","","","","","","","","","","","","","","","","","","","","","",""
"661","<p style=""color:rgb(150, 250, 100); font-size: 35px;"">我的</p>","e","categorize-html","18","157647","0.0-6.0-0.0-2.0-1.4","4","4","4","4","4","4","4","4","4","4","5","5","5","5","5","5","5","5","5","5","1","1","1","1","1","1","1","1","1","1","0","1","1","0","0","0","1","0","1","1","0","0","0","1","5","1","1","1","1","5","1","1","4","1","1","628519267599384576","董","235","","","","","","","","","","","","","","","","","","","true","1","1","ability","661","self","我的","","","","","","","","","","","","","","","","",""
"null","","null","html-keyboard-response","19","157899","0.0-6.0-0.0-2.0-0.5","4","4","4","4","4","4","4","4","4","4","5","5","5","5","5","5","5","5","5","5","1","1","1","1","1","1","1","1","1","1","0","1","1","0","0","0","1","0","1","1","0","0","0","1","5","1","1","1","1","5","1","1","4","1","1","628519267599384576","董","235","","","","","","","","","","","","","","","","","","","","","","","","","","","","","","","","","","","","","","","","","",""
"587","<p style=""color:rgb(150, 250, 100); font-size: 35px;"">他</p>","i","categorize-html","20","158488","0.0-6.0-0.0-2.0-1.5","4","4","4","4","4","4","4","4","4","4","5","5","5","5","5","5","5","5","5","5","1","1","1","1","1","1","1","1","1","1","0","1","1","0","0","0","1","0","1","1","0","0","0","1","5","1","1","1","1","5","1","1","4","1","1","628519267599384576","董","235","","","","","","","","","","","","","","","","","","","true","1","1","ability","587","other","他","","","","","","","","","","","","","","","","",""
"null","","null","html-keyboard-response","21","158739","0.0-6.0-0.0-2.0-0.6","4","4","4","4","4","4","4","4","4","4","5","5","5","5","5","5","5","5","5","5","1","1","1","1","1","1","1","1","1","1","0","1","1","0","0","0","1","0","1","1","0","0","0","1","5","1","1","1","1","5","1","1","4","1","1","628519267599384576","董","235","","","","","","","","","","","","","","","","","","","","","","","","","","","","","","","","","","","","","","","","","",""
"786","<p style=""color:rgb(150, 250, 100); font-size: 35px;"">本人的</p>","e","categorize-html","22","159527","0.0-6.0-0.0-2.0-1.6","4","4","4","4","4","4","4","4","4","4","5","5","5","5","5","5","5","5","5","5","1","1","1","1","1","1","1","1","1","1","0","1","1","0","0","0","1","0","1","1","0","0","0","1","5","1","1","1","1","5","1","1","4","1","1","628519267599384576","董","235","","","","","","","","","","","","","","","","","","","true","1","1","ability","786","self","本人的","","","","","","","","","","","","","","","","",""
"null","","null","html-keyboard-response","23","159778","0.0-6.0-0.0-2.0-0.7","4","4","4","4","4","4","4","4","4","4","5","5","5","5","5","5","5","5","5","5","1","1","1","1","1","1","1","1","1","1","0","1","1","0","0","0","1","0","1","1","0","0","0","1","5","1","1","1","1","5","1","1","4","1","1","628519267599384576","董","235","","","","","","","","","","","","","","","","","","","","","","","","","","","","","","","","","","","","","","","","","",""
"572","<p style=""color:rgb(150, 250, 100); font-size: 35px;"">本人</p>","e","categorize-html","24","160352","0.0-6.0-0.0-2.0-1.7","4","4","4","4","4","4","4","4","4","4","5","5","5","5","5","5","5","5","5","5","1","1","1","1","1","1","1","1","1","1","0","1","1","0","0","0","1","0","1","1","0","0","0","1","5","1","1","1","1","5","1","1","4","1","1","628519267599384576","董","235","","","","","","","","","","","","","","","","","","","true","1","1","ability","572","self","本人","","","","","","","","","","","","","","","","",""
"null","","null","html-keyboard-response","25","160603","0.0-6.0-0.0-2.0-0.8","4","4","4","4","4","4","4","4","4","4","5","5","5","5","5","5","5","5","5","5","1","1","1","1","1","1","1","1","1","1","0","1","1","0","0","0","1","0","1","1","0","0","0","1","5","1","1","1","1","5","1","1","4","1","1","628519267599384576","董","235","","","","","","","","","","","","","","","","","","","","","","","","","","","","","","","","","","","","","","","","","",""
"530","<p style=""color:rgb(150, 250, 100); font-size: 35px;"">自己</p>","e","categorize-html","26","161136","0.0-6.0-0.0-2.0-1.8","4","4","4","4","4","4","4","4","4","4","5","5","5","5","5","5","5","5","5","5","1","1","1","1","1","1","1","1","1","1","0","1","1","0","0","0","1","0","1","1","0","0","0","1","5","1","1","1","1","5","1","1","4","1","1","628519267599384576","董","235","","","","","","","","","","","","","","","","","","","true","1","1","ability","530","self","自己","","","","","","","","","","","","","","","","",""
"null","","null","html-keyboard-response","27","161386","0.0-6.0-0.0-2.0-0.9","4","4","4","4","4","4","4","4","4","4","5","5","5","5","5","5","5","5","5","5","1","1","1","1","1","1","1","1","1","1","0","1","1","0","0","0","1","0","1","1","0","0","0","1","5","1","1","1","1","5","1","1","4","1","1","628519267599384576","董","235","","","","","","","","","","","","","","","","","","","","","","","","","","","","","","","","","","","","","","","","","",""
"651","<p style=""color:rgb(150, 250, 100); font-size: 35px;"">他人的</p>","i","categorize-html","28","162039","0.0-6.0-0.0-2.0-1.9","4","4","4","4","4","4","4","4","4","4","5","5","5","5","5","5","5","5","5","5","1","1","1","1","1","1","1","1","1","1","0","1","1","0","0","0","1","0","1","1","0","0","0","1","5","1","1","1","1","5","1","1","4","1","1","628519267599384576","董","235","","","","","","","","","","","","","","","","","","","true","1","1","ability","651","other","他人的","","","","","","","","","","","","","","","","",""
"null","","null","html-keyboard-response","29","162291","0.0-6.0-0.0-2.0-0.10","4","4","4","4","4","4","4","4","4","4","5","5","5","5","5","5","5","5","5","5","1","1","1","1","1","1","1","1","1","1","0","1","1","0","0","0","1","0","1","1","0","0","0","1","5","1","1","1","1","5","1","1","4","1","1","628519267599384576","董","235","","","","","","","","","","","","","","","","","","","","","","","","","","","","","","","","","","","","","","","","","",""
"618","<p style=""color:rgb(150, 250, 100); font-size: 35px;"">我</p>","e","categorize-html","30","162910","0.0-6.0-0.0-2.0-1.10","4","4","4","4","4","4","4","4","4","4","5","5","5","5","5","5","5","5","5","5","1","1","1","1","1","1","1","1","1","1","0","1","1","0","0","0","1","0","1","1","0","0","0","1","5","1","1","1","1","5","1","1","4","1","1","628519267599384576","董","235","","","","","","","","","","","","","","","","","","","true","1","1","ability","618","self","我","","","","","","","","","","","","","","","","",""
"null","","null","html-keyboard-response","31","163161","0.0-6.0-0.0-2.0-0.11","4","4","4","4","4","4","4","4","4","4","5","5","5","5","5","5","5","5","5","5","1","1","1","1","1","1","1","1","1","1","0","1","1","0","0","0","1","0","1","1","0","0","0","1","5","1","1","1","1","5","1","1","4","1","1","628519267599384576","董","235","","","","","","","","","","","","","","","","","","","","","","","","","","","","","","","","","","","","","","","","","",""
"612","<p style=""color:rgb(150, 250, 100); font-size: 35px;"">自己的</p>","e","categorize-html","32","163775","0.0-6.0-0.0-2.0-1.11","4","4","4","4","4","4","4","4","4","4","5","5","5","5","5","5","5","5","5","5","1","1","1","1","1","1","1","1","1","1","0","1","1","0","0","0","1","0","1","1","0","0","0","1","5","1","1","1","1","5","1","1","4","1","1","628519267599384576","董","235","","","","","","","","","","","","","","","","","","","true","1","1","ability","612","self","自己的","","","","","","","","","","","","","","","","",""
"5570","
    <div class=""tag-bottom""><p>
    —— 任务2：对“消极”词和“积极”词分类 ——<p/>   
    <span style=""color:#78DCE8""><b>注意上方，类别标签和需要分类的词语都已经改变</b></span><p/>
    <span style=""color:#FFD866""><b>请根据上方标签的提示，尽可能正确并且快速地做出按键反应</b></span><p/>
    当按键错误时屏幕中会出现<span style=""color:red""> X </span>，需要按另一个键纠正才能继续<br/><p/>
    请把双手食指分别放在键盘的“E”键和“I”键上<p/>
    按<空格键>开始
    </p></div>"," ","html-keyboard-response","33","169346","0.0-6.0-0.0-3.0","4","4","4","4","4","4","4","4","4","4","5","5","5","5","5","5","5","5","5","5","1","1","1","1","1","1","1","1","1","1","0","1","1","0","0","0","1","0","1","1","0","0","0","1","5","1","1","1","1","5","1","1","4","1","1","628519267599384576","董","235","","","","","","","","","","","","","","","","","","","","","","","","","","","","","","","","","","","","","","","","","",""
"null","","null","html-keyboard-response","34","169597","0.0-6.0-0.0-4.0-0.0","4","4","4","4","4","4","4","4","4","4","5","5","5","5","5","5","5","5","5","5","1","1","1","1","1","1","1","1","1","1","0","1","1","0","0","0","1","0","1","1","0","0","0","1","5","1","1","1","1","5","1","1","4","1","1","628519267599384576","董","235","","","","","","","","","","","","","","","","","","","","","","","","","","","","","","","","","","","","","","","","","",""
"832","<p style=""color:white; font-size: 35px;"">天才</p>","i","categorize-html","35","170432","0.0-6.0-0.0-4.0-1.0","4","4","4","4","4","4","4","4","4","4","5","5","5","5","5","5","5","5","5","5","1","1","1","1","1","1","1","1","1","1","0","1","1","0","0","0","1","0","1","1","0","0","0","1","5","1","1","1","1","5","1","1","4","1","1","628519267599384576","董","235","","","","","","","","","","","","","","","","","","","true","2","2","ability","832","positive","天才","","","","","","","","","","","","","","","","",""
"null","","null","html-keyboard-response","36","170683","0.0-6.0-0.0-4.0-0.1","4","4","4","4","4","4","4","4","4","4","5","5","5","5","5","5","5","5","5","5","1","1","1","1","1","1","1","1","1","1","0","1","1","0","0","0","1","0","1","1","0","0","0","1","5","1","1","1","1","5","1","1","4","1","1","628519267599384576","董","235","","","","","","","","","","","","","","","","","","","","","","","","","","","","","","","","","","","","","","","","","",""
"611","<p style=""color:white; font-size: 35px;"">废物</p>","e","categorize-html","37","171295","0.0-6.0-0.0-4.0-1.1","4","4","4","4","4","4","4","4","4","4","5","5","5","5","5","5","5","5","5","5","1","1","1","1","1","1","1","1","1","1","0","1","1","0","0","0","1","0","1","1","0","0","0","1","5","1","1","1","1","5","1","1","4","1","1","628519267599384576","董","235","","","","","","","","","","","","","","","","","","","true","2","2","ability","611","negative","废物","","","","","","","","","","","","","","","","",""
"null","","null","html-keyboard-response","38","171547","0.0-6.0-0.0-4.0-0.2","4","4","4","4","4","4","4","4","4","4","5","5","5","5","5","5","5","5","5","5","1","1","1","1","1","1","1","1","1","1","0","1","1","0","0","0","1","0","1","1","0","0","0","1","5","1","1","1","1","5","1","1","4","1","1","628519267599384576","董","235","","","","","","","","","","","","","","","","","","","","","","","","","","","","","","","","","","","","","","","","","",""
"715","<p style=""color:white; font-size: 35px;"">拙笨</p>","e","categorize-html","39","172263","0.0-6.0-0.0-4.0-1.2","4","4","4","4","4","4","4","4","4","4","5","5","5","5","5","5","5","5","5","5","1","1","1","1","1","1","1","1","1","1","0","1","1","0","0","0","1","0","1","1","0","0","0","1","5","1","1","1","1","5","1","1","4","1","1","628519267599384576","董","235","","","","","","","","","","","","","","","","","","","true","2","2","ability","715","negative","拙笨","","","","","","","","","","","","","","","","",""
"null","","null","html-keyboard-response","40","172515","0.0-6.0-0.0-4.0-0.3","4","4","4","4","4","4","4","4","4","4","5","5","5","5","5","5","5","5","5","5","1","1","1","1","1","1","1","1","1","1","0","1","1","0","0","0","1","0","1","1","0","0","0","1","5","1","1","1","1","5","1","1","4","1","1","628519267599384576","董","235","","","","","","","","","","","","","","","","","","","","","","","","","","","","","","","","","","","","","","","","","",""
"531","<p style=""color:white; font-size: 35px;"">低能</p>","e","categorize-html","41","173048","0.0-6.0-0.0-4.0-1.3","4","4","4","4","4","4","4","4","4","4","5","5","5","5","5","5","5","5","5","5","1","1","1","1","1","1","1","1","1","1","0","1","1","0","0","0","1","0","1","1","0","0","0","1","5","1","1","1","1","5","1","1","4","1","1","628519267599384576","董","235","","","","","","","","","","","","","","","","","","","true","2","2","ability","531","negative","低能","","","","","","","","","","","","","","","","",""
"null","","null","html-keyboard-response","42","173299","0.0-6.0-0.0-4.0-0.4","4","4","4","4","4","4","4","4","4","4","5","5","5","5","5","5","5","5","5","5","1","1","1","1","1","1","1","1","1","1","0","1","1","0","0","0","1","0","1","1","0","0","0","1","5","1","1","1","1","5","1","1","4","1","1","628519267599384576","董","235","","","","","","","","","","","","","","","","","","","","","","","","","","","","","","","","","","","","","","","","","",""
"505","<p style=""color:white; font-size: 35px;"">愚钝</p>","e","categorize-html","43","173806","0.0-6.0-0.0-4.0-1.4","4","4","4","4","4","4","4","4","4","4","5","5","5","5","5","5","5","5","5","5","1","1","1","1","1","1","1","1","1","1","0","1","1","0","0","0","1","0","1","1","0","0","0","1","5","1","1","1","1","5","1","1","4","1","1","628519267599384576","董","235","","","","","","","","","","","","","","","","","","","true","2","2","ability","505","negative","愚钝","","","","","","","","","","","","","","","","",""
"null","","null","html-keyboard-response","44","174057","0.0-6.0-0.0-4.0-0.5","4","4","4","4","4","4","4","4","4","4","5","5","5","5","5","5","5","5","5","5","1","1","1","1","1","1","1","1","1","1","0","1","1","0","0","0","1","0","1","1","0","0","0","1","5","1","1","1","1","5","1","1","4","1","1","628519267599384576","董","235","","","","","","","","","","","","","","","","","","","","","","","","","","","","","","","","","","","","","","","","","",""
"524","<p style=""color:white; font-size: 35px;"">无能</p>","e","categorize-html","45","174583","0.0-6.0-0.0-4.0-1.5","4","4","4","4","4","4","4","4","4","4","5","5","5","5","5","5","5","5","5","5","1","1","1","1","1","1","1","1","1","1","0","1","1","0","0","0","1","0","1","1","0","0","0","1","5","1","1","1","1","5","1","1","4","1","1","628519267599384576","董","235","","","","","","","","","","","","","","","","","","","true","2","2","ability","524","negative","无能","","","","","","","","","","","","","","","","",""
"null","","null","html-keyboard-response","46","174835","0.0-6.0-0.0-4.0-0.6","4","4","4","4","4","4","4","4","4","4","5","5","5","5","5","5","5","5","5","5","1","1","1","1","1","1","1","1","1","1","0","1","1","0","0","0","1","0","1","1","0","0","0","1","5","1","1","1","1","5","1","1","4","1","1","628519267599384576","董","235","","","","","","","","","","","","","","","","","","","","","","","","","","","","","","","","","","","","","","","","","",""
"475","<p style=""color:white; font-size: 35px;"">蠢笨</p>","e","categorize-html","47","175312","0.0-6.0-0.0-4.0-1.6","4","4","4","4","4","4","4","4","4","4","5","5","5","5","5","5","5","5","5","5","1","1","1","1","1","1","1","1","1","1","0","1","1","0","0","0","1","0","1","1","0","0","0","1","5","1","1","1","1","5","1","1","4","1","1","628519267599384576","董","235","","","","","","","","","","","","","","","","","","","true","2","2","ability","475","negative","蠢笨","","","","","","","","","","","","","","","","",""
"null","","null","html-keyboard-response","48","175563","0.0-6.0-0.0-4.0-0.7","4","4","4","4","4","4","4","4","4","4","5","5","5","5","5","5","5","5","5","5","1","1","1","1","1","1","1","1","1","1","0","1","1","0","0","0","1","0","1","1","0","0","0","1","5","1","1","1","1","5","1","1","4","1","1","628519267599384576","董","235","","","","","","","","","","","","","","","","","","","","","","","","","","","","","","","","","","","","","","","","","",""
"730","<p style=""color:white; font-size: 35px;"">能干</p>","i","categorize-html","49","176296","0.0-6.0-0.0-4.0-1.7","4","4","4","4","4","4","4","4","4","4","5","5","5","5","5","5","5","5","5","5","1","1","1","1","1","1","1","1","1","1","0","1","1","0","0","0","1","0","1","1","0","0","0","1","5","1","1","1","1","5","1","1","4","1","1","628519267599384576","董","235","","","","","","","","","","","","","","","","","","","true","2","2","ability","730","positive","能干","","","","","","","","","","","","","","","","",""
"null","","null","html-keyboard-response","50","176546","0.0-6.0-0.0-4.0-0.8","4","4","4","4","4","4","4","4","4","4","5","5","5","5","5","5","5","5","5","5","1","1","1","1","1","1","1","1","1","1","0","1","1","0","0","0","1","0","1","1","0","0","0","1","5","1","1","1","1","5","1","1","4","1","1","628519267599384576","董","235","","","","","","","","","","","","","","","","","","","","","","","","","","","","","","","","","","","","","","","","","",""
"603","<p style=""color:white; font-size: 35px;"">全能</p>","i","categorize-html","51","177150","0.0-6.0-0.0-4.0-1.8","4","4","4","4","4","4","4","4","4","4","5","5","5","5","5","5","5","5","5","5","1","1","1","1","1","1","1","1","1","1","0","1","1","0","0","0","1","0","1","1","0","0","0","1","5","1","1","1","1","5","1","1","4","1","1","628519267599384576","董","235","","","","","","","","","","","","","","","","","","","true","2","2","ability","603","positive","全能","","","","","","","","","","","","","","","","",""
"null","","null","html-keyboard-response","52","177401","0.0-6.0-0.0-4.0-0.9","4","4","4","4","4","4","4","4","4","4","5","5","5","5","5","5","5","5","5","5","1","1","1","1","1","1","1","1","1","1","0","1","1","0","0","0","1","0","1","1","0","0","0","1","5","1","1","1","1","5","1","1","4","1","1","628519267599384576","董","235","","","","","","","","","","","","","","","","","","","","","","","","","","","","","","","","","","","","","","","","","",""
"588","<p style=""color:white; font-size: 35px;"">高效</p>","i","categorize-html","53","177991","0.0-6.0-0.0-4.0-1.9","4","4","4","4","4","4","4","4","4","4","5","5","5","5","5","5","5","5","5","5","1","1","1","1","1","1","1","1","1","1","0","1","1","0","0","0","1","0","1","1","0","0","0","1","5","1","1","1","1","5","1","1","4","1","1","628519267599384576","董","235","","","","","","","","","","","","","","","","","","","true","2","2","ability","588","positive","高效","","","","","","","","","","","","","","","","",""
"null","","null","html-keyboard-response","54","178243","0.0-6.0-0.0-4.0-0.10","4","4","4","4","4","4","4","4","4","4","5","5","5","5","5","5","5","5","5","5","1","1","1","1","1","1","1","1","1","1","0","1","1","0","0","0","1","0","1","1","0","0","0","1","5","1","1","1","1","5","1","1","4","1","1","628519267599384576","董","235","","","","","","","","","","","","","","","","","","","","","","","","","","","","","","","","","","","","","","","","","",""
"507","<p style=""color:white; font-size: 35px;"">全才</p>","i","categorize-html","55","178751","0.0-6.0-0.0-4.0-1.10","4","4","4","4","4","4","4","4","4","4","5","5","5","5","5","5","5","5","5","5","1","1","1","1","1","1","1","1","1","1","0","1","1","0","0","0","1","0","1","1","0","0","0","1","5","1","1","1","1","5","1","1","4","1","1","628519267599384576","董","235","","","","","","","","","","","","","","","","","","","true","2","2","ability","507","positive","全才","","","","","","","","","","","","","","","","",""
"null","","null","html-keyboard-response","56","179002","0.0-6.0-0.0-4.0-0.11","4","4","4","4","4","4","4","4","4","4","5","5","5","5","5","5","5","5","5","5","1","1","1","1","1","1","1","1","1","1","0","1","1","0","0","0","1","0","1","1","0","0","0","1","5","1","1","1","1","5","1","1","4","1","1","628519267599384576","董","235","","","","","","","","","","","","","","","","","","","","","","","","","","","","","","","","","","","","","","","","","",""
"796","<p style=""color:white; font-size: 35px;"">精干</p>","i","categorize-html","57","179799","0.0-6.0-0.0-4.0-1.11","4","4","4","4","4","4","4","4","4","4","5","5","5","5","5","5","5","5","5","5","1","1","1","1","1","1","1","1","1","1","0","1","1","0","0","0","1","0","1","1","0","0","0","1","5","1","1","1","1","5","1","1","4","1","1","628519267599384576","董","235","","","","","","","","","","","","","","","","","","","true","2","2","ability","796","positive","精干","","","","","","","","","","","","","","","","",""
"6758","
    <div class=""tag-bottom""><p>
    —— 任务3：对“自我/消极”词和“他人/积极”词分类 ——<p/>
    <span style=""color:#78DCE8""><b>注意上方，之前的四类词语将混合在一起交替呈现</b></span><p/>
    <span style=""color:#FFD866""><b>请根据上方标签的提示，尽可能正确并且快速地做出按键反应</b></span><p/>
    当按键错误时屏幕中会出现<span style=""color:red""> X </span>，需要按另一个键纠正才能继续<br/><p/>
    请把双手食指分别放在键盘的“E”键和“I”键上<p/>
    按<空格键>开始
    </p></div>"," ","html-keyboard-response","58","186558","0.0-6.0-0.0-5.0","4","4","4","4","4","4","4","4","4","4","5","5","5","5","5","5","5","5","5","5","1","1","1","1","1","1","1","1","1","1","0","1","1","0","0","0","1","0","1","1","0","0","0","1","5","1","1","1","1","5","1","1","4","1","1","628519267599384576","董","235","","","","","","","","","","","","","","","","","","","","","","","","","","","","","","","","","","","","","","","","","",""
"null","","null","html-keyboard-response","59","186808","0.0-6.0-0.0-6.0-0.0","4","4","4","4","4","4","4","4","4","4","5","5","5","5","5","5","5","5","5","5","1","1","1","1","1","1","1","1","1","1","0","1","1","0","0","0","1","0","1","1","0","0","0","1","5","1","1","1","1","5","1","1","4","1","1","628519267599384576","董","235","","","","","","","","","","","","","","","","","","","","","","","","","","","","","","","","","","","","","","","","","",""
"517","<p style=""color:rgb(150, 250, 100); font-size: 35px;"">我的</p>","e","categorize-html","60","187328","0.0-6.0-0.0-6.0-1.0","4","4","4","4","4","4","4","4","4","4","5","5","5","5","5","5","5","5","5","5","1","1","1","1","1","1","1","1","1","1","0","1","1","0","0","0","1","0","1","1","0","0","0","1","5","1","1","1","1","5","1","1","4","1","1","628519267599384576","董","235","","","","","","","","","","","","","","","","","","","true","3","3","ability","517","self","我的","","","","","","","","","","","","","","","","",""
"null","","null","html-keyboard-response","61","187580","0.0-6.0-0.0-6.0-0.1","4","4","4","4","4","4","4","4","4","4","5","5","5","5","5","5","5","5","5","5","1","1","1","1","1","1","1","1","1","1","0","1","1","0","0","0","1","0","1","1","0","0","0","1","5","1","1","1","1","5","1","1","4","1","1","628519267599384576","董","235","","","","","","","","","","","","","","","","","","","","","","","","","","","","","","","","","","","","","","","","","",""
"505","<p style=""color:white; font-size: 35px;"">蠢笨</p>","e","categorize-html","62","188087","0.0-6.0-0.0-6.0-1.1","4","4","4","4","4","4","4","4","4","4","5","5","5","5","5","5","5","5","5","5","1","1","1","1","1","1","1","1","1","1","0","1","1","0","0","0","1","0","1","1","0","0","0","1","5","1","1","1","1","5","1","1","4","1","1","628519267599384576","董","235","","","","","","","","","","","","","","","","","","","true","3","3","ability","505","negative","蠢笨","","","","","","","","","","","","","","","","",""
"null","","null","html-keyboard-response","63","188339","0.0-6.0-0.0-6.0-0.2","4","4","4","4","4","4","4","4","4","4","5","5","5","5","5","5","5","5","5","5","1","1","1","1","1","1","1","1","1","1","0","1","1","0","0","0","1","0","1","1","0","0","0","1","5","1","1","1","1","5","1","1","4","1","1","628519267599384576","董","235","","","","","","","","","","","","","","","","","","","","","","","","","","","","","","","","","","","","","","","","","",""
"786","<p style=""color:rgb(150, 250, 100); font-size: 35px;"">他人的</p>","i","categorize-html","64","189127","0.0-6.0-0.0-6.0-1.2","4","4","4","4","4","4","4","4","4","4","5","5","5","5","5","5","5","5","5","5","1","1","1","1","1","1","1","1","1","1","0","1","1","0","0","0","1","0","1","1","0","0","0","1","5","1","1","1","1","5","1","1","4","1","1","628519267599384576","董","235","","","","","","","","","","","","","","","","","","","true","3","3","ability","786","other","他人的","","","","","","","","","","","","","","","","",""
"null","","null","html-keyboard-response","65","189378","0.0-6.0-0.0-6.0-0.3","4","4","4","4","4","4","4","4","4","4","5","5","5","5","5","5","5","5","5","5","1","1","1","1","1","1","1","1","1","1","0","1","1","0","0","0","1","0","1","1","0","0","0","1","5","1","1","1","1","5","1","1","4","1","1","628519267599384576","董","235","","","","","","","","","","","","","","","","","","","","","","","","","","","","","","","","","","","","","","","","","",""
"723","<p style=""color:white; font-size: 35px;"">全能</p>","i","categorize-html","66","190103","0.0-6.0-0.0-6.0-1.3","4","4","4","4","4","4","4","4","4","4","5","5","5","5","5","5","5","5","5","5","1","1","1","1","1","1","1","1","1","1","0","1","1","0","0","0","1","0","1","1","0","0","0","1","5","1","1","1","1","5","1","1","4","1","1","628519267599384576","董","235","","","","","","","","","","","","","","","","","","","true","3","3","ability","723","positive","全能","","","","","","","","","","","","","","","","",""
"null","","null","html-keyboard-response","67","190354","0.0-6.0-0.0-6.0-0.4","4","4","4","4","4","4","4","4","4","4","5","5","5","5","5","5","5","5","5","5","1","1","1","1","1","1","1","1","1","1","0","1","1","0","0","0","1","0","1","1","0","0","0","1","5","1","1","1","1","5","1","1","4","1","1","628519267599384576","董","235","","","","","","","","","","","","","","","","","","","","","","","","","","","","","","","","","","","","","","","","","",""
"669","<p style=""color:rgb(150, 250, 100); font-size: 35px;"">本人</p>","e","categorize-html","68","191024","0.0-6.0-0.0-6.0-1.4","4","4","4","4","4","4","4","4","4","4","5","5","5","5","5","5","5","5","5","5","1","1","1","1","1","1","1","1","1","1","0","1","1","0","0","0","1","0","1","1","0","0","0","1","5","1","1","1","1","5","1","1","4","1","1","628519267599384576","董","235","","","","","","","","","","","","","","","","","","","true","3","3","ability","669","self","本人","","","","","","","","","","","","","","","","",""
"null","","null","html-keyboard-response","69","191276","0.0-6.0-0.0-6.0-0.5","4","4","4","4","4","4","4","4","4","4","5","5","5","5","5","5","5","5","5","5","1","1","1","1","1","1","1","1","1","1","0","1","1","0","0","0","1","0","1","1","0","0","0","1","5","1","1","1","1","5","1","1","4","1","1","628519267599384576","董","235","","","","","","","","","","","","","","","","","","","","","","","","","","","","","","","","","","","","","","","","","",""
"721","<p style=""color:white; font-size: 35px;"">无能</p>","e","categorize-html","70","191999","0.0-6.0-0.0-6.0-1.5","4","4","4","4","4","4","4","4","4","4","5","5","5","5","5","5","5","5","5","5","1","1","1","1","1","1","1","1","1","1","0","1","1","0","0","0","1","0","1","1","0","0","0","1","5","1","1","1","1","5","1","1","4","1","1","628519267599384576","董","235","","","","","","","","","","","","","","","","","","","true","3","3","ability","721","negative","无能","","","","","","","","","","","","","","","","",""
"null","","null","html-keyboard-response","71","192250","0.0-6.0-0.0-6.0-0.6","4","4","4","4","4","4","4","4","4","4","5","5","5","5","5","5","5","5","5","5","1","1","1","1","1","1","1","1","1","1","0","1","1","0","0","0","1","0","1","1","0","0","0","1","5","1","1","1","1","5","1","1","4","1","1","628519267599384576","董","235","","","","","","","","","","","","","","","","","","","","","","","","","","","","","","","","","","","","","","","","","",""
"700","<p style=""color:rgb(150, 250, 100); font-size: 35px;"">别人</p>","i","categorize-html","72","192951","0.0-6.0-0.0-6.0-1.6","4","4","4","4","4","4","4","4","4","4","5","5","5","5","5","5","5","5","5","5","1","1","1","1","1","1","1","1","1","1","0","1","1","0","0","0","1","0","1","1","0","0","0","1","5","1","1","1","1","5","1","1","4","1","1","628519267599384576","董","235","","","","","","","","","","","","","","","","","","","true","3","3","ability","700","other","别人","","","","","","","","","","","","","","","","",""
"null","","null","html-keyboard-response","73","193202","0.0-6.0-0.0-6.0-0.7","4","4","4","4","4","4","4","4","4","4","5","5","5","5","5","5","5","5","5","5","1","1","1","1","1","1","1","1","1","1","0","1","1","0","0","0","1","0","1","1","0","0","0","1","5","1","1","1","1","5","1","1","4","1","1","628519267599384576","董","235","","","","","","","","","","","","","","","","","","","","","","","","","","","","","","","","","","","","","","","","","",""
"675","<p style=""color:white; font-size: 35px;"">天才</p>","i","categorize-html","74","193880","0.0-6.0-0.0-6.0-1.7","4","4","4","4","4","4","4","4","4","4","5","5","5","5","5","5","5","5","5","5","1","1","1","1","1","1","1","1","1","1","0","1","1","0","0","0","1","0","1","1","0","0","0","1","5","1","1","1","1","5","1","1","4","1","1","628519267599384576","董","235","","","","","","","","","","","","","","","","","","","true","3","3","ability","675","positive","天才","","","","","","","","","","","","","","","","",""
"null","","null","html-keyboard-response","75","194131","0.0-6.0-0.0-6.0-0.8","4","4","4","4","4","4","4","4","4","4","5","5","5","5","5","5","5","5","5","5","1","1","1","1","1","1","1","1","1","1","0","1","1","0","0","0","1","0","1","1","0","0","0","1","5","1","1","1","1","5","1","1","4","1","1","628519267599384576","董","235","","","","","","","","","","","","","","","","","","","","","","","","","","","","","","","","","","","","","","","","","",""
"819","<p style=""color:rgb(150, 250, 100); font-size: 35px;"">本人的</p>","i","categorize-html","76","195519","0.0-6.0-0.0-6.0-1.8","4","4","4","4","4","4","4","4","4","4","5","5","5","5","5","5","5","5","5","5","1","1","1","1","1","1","1","1","1","1","0","1","1","0","0","0","1","0","1","1","0","0","0","1","5","1","1","1","1","5","1","1","4","1","1","628519267599384576","董","235","","","","","","","","","","","","","","","","","","","false","3","3","ability","1354.086956521739","self","本人的","","","","","","","","","","","","","","","","",""
"null","","null","html-keyboard-response","77","195770","0.0-6.0-0.0-6.0-0.9","4","4","4","4","4","4","4","4","4","4","5","5","5","5","5","5","5","5","5","5","1","1","1","1","1","1","1","1","1","1","0","1","1","0","0","0","1","0","1","1","0","0","0","1","5","1","1","1","1","5","1","1","4","1","1","628519267599384576","董","235","","","","","","","","","","","","","","","","","","","","","","","","","","","","","","","","","","","","","","","","","",""
"804","<p style=""color:white; font-size: 35px;"">高效</p>","i","categorize-html","78","196575","0.0-6.0-0.0-6.0-1.9","4","4","4","4","4","4","4","4","4","4","5","5","5","5","5","5","5","5","5","5","1","1","1","1","1","1","1","1","1","1","0","1","1","0","0","0","1","0","1","1","0","0","0","1","5","1","1","1","1","5","1","1","4","1","1","628519267599384576","董","235","","","","","","","","","","","","","","","","","","","true","3","3","ability","804","positive","高效","","","","","","","","","","","","","","","","",""
"null","","null","html-keyboard-response","79","196827","0.0-6.0-0.0-6.0-0.10","4","4","4","4","4","4","4","4","4","4","5","5","5","5","5","5","5","5","5","5","1","1","1","1","1","1","1","1","1","1","0","1","1","0","0","0","1","0","1","1","0","0","0","1","5","1","1","1","1","5","1","1","4","1","1","628519267599384576","董","235","","","","","","","","","","","","","","","","","","","","","","","","","","","","","","","","","","","","","","","","","",""
"859","<p style=""color:rgb(150, 250, 100); font-size: 35px;"">别人的</p>","i","categorize-html","80","197687","0.0-6.0-0.0-6.0-1.10","4","4","4","4","4","4","4","4","4","4","5","5","5","5","5","5","5","5","5","5","1","1","1","1","1","1","1","1","1","1","0","1","1","0","0","0","1","0","1","1","0","0","0","1","5","1","1","1","1","5","1","1","4","1","1","628519267599384576","董","235","","","","","","","","","","","","","","","","","","","true","3","3","ability","859","other","别人的","","","","","","","","","","","","","","","","",""
"null","","null","html-keyboard-response","81","197938","0.0-6.0-0.0-6.0-0.11","4","4","4","4","4","4","4","4","4","4","5","5","5","5","5","5","5","5","5","5","1","1","1","1","1","1","1","1","1","1","0","1","1","0","0","0","1","0","1","1","0","0","0","1","5","1","1","1","1","5","1","1","4","1","1","628519267599384576","董","235","","","","","","","","","","","","","","","","","","","","","","","","","","","","","","","","","","","","","","","","","",""
"714","<p style=""color:white; font-size: 35px;"">拙笨</p>","e","categorize-html","82","198655","0.0-6.0-0.0-6.0-1.11","4","4","4","4","4","4","4","4","4","4","5","5","5","5","5","5","5","5","5","5","1","1","1","1","1","1","1","1","1","1","0","1","1","0","0","0","1","0","1","1","0","0","0","1","5","1","1","1","1","5","1","1","4","1","1","628519267599384576","董","235","","","","","","","","","","","","","","","","","","","true","3","3","ability","714","negative","拙笨","","","","","","","","","","","","","","","","",""
"null","","null","html-keyboard-response","83","198907","0.0-6.0-0.0-6.0-0.12","4","4","4","4","4","4","4","4","4","4","5","5","5","5","5","5","5","5","5","5","1","1","1","1","1","1","1","1","1","1","0","1","1","0","0","0","1","0","1","1","0","0","0","1","5","1","1","1","1","5","1","1","4","1","1","628519267599384576","董","235","","","","","","","","","","","","","","","","","","","","","","","","","","","","","","","","","","","","","","","","","",""
"1026","<p style=""color:rgb(150, 250, 100); font-size: 35px;"">他人</p>","i","categorize-html","84","199936","0.0-6.0-0.0-6.0-1.12","4","4","4","4","4","4","4","4","4","4","5","5","5","5","5","5","5","5","5","5","1","1","1","1","1","1","1","1","1","1","0","1","1","0","0","0","1","0","1","1","0","0","0","1","5","1","1","1","1","5","1","1","4","1","1","628519267599384576","董","235","","","","","","","","","","","","","","","","","","","true","3","3","ability","1026","other","他人","","","","","","","","","","","","","","","","",""
"null","","null","html-keyboard-response","85","200188","0.0-6.0-0.0-6.0-0.13","4","4","4","4","4","4","4","4","4","4","5","5","5","5","5","5","5","5","5","5","1","1","1","1","1","1","1","1","1","1","0","1","1","0","0","0","1","0","1","1","0","0","0","1","5","1","1","1","1","5","1","1","4","1","1","628519267599384576","董","235","","","","","","","","","","","","","","","","","","","","","","","","","","","","","","","","","","","","","","","","","",""
"762","<p style=""color:white; font-size: 35px;"">废物</p>","e","categorize-html","86","200952","0.0-6.0-0.0-6.0-1.13","4","4","4","4","4","4","4","4","4","4","5","5","5","5","5","5","5","5","5","5","1","1","1","1","1","1","1","1","1","1","0","1","1","0","0","0","1","0","1","1","0","0","0","1","5","1","1","1","1","5","1","1","4","1","1","628519267599384576","董","235","","","","","","","","","","","","","","","","","","","true","3","3","ability","762","negative","废物","","","","","","","","","","","","","","","","",""
"null","","null","html-keyboard-response","87","201202","0.0-6.0-0.0-6.0-0.14","4","4","4","4","4","4","4","4","4","4","5","5","5","5","5","5","5","5","5","5","1","1","1","1","1","1","1","1","1","1","0","1","1","0","0","0","1","0","1","1","0","0","0","1","5","1","1","1","1","5","1","1","4","1","1","628519267599384576","董","235","","","","","","","","","","","","","","","","","","","","","","","","","","","","","","","","","","","","","","","","","",""
"842","<p style=""color:rgb(150, 250, 100); font-size: 35px;"">自己</p>","e","categorize-html","88","202046","0.0-6.0-0.0-6.0-1.14","4","4","4","4","4","4","4","4","4","4","5","5","5","5","5","5","5","5","5","5","1","1","1","1","1","1","1","1","1","1","0","1","1","0","0","0","1","0","1","1","0","0","0","1","5","1","1","1","1","5","1","1","4","1","1","628519267599384576","董","235","","","","","","","","","","","","","","","","","","","true","3","3","ability","842","self","自己","","","","","","","","","","","","","","","","",""
"null","","null","html-keyboard-response","89","202297","0.0-6.0-0.0-6.0-0.15","4","4","4","4","4","4","4","4","4","4","5","5","5","5","5","5","5","5","5","5","1","1","1","1","1","1","1","1","1","1","0","1","1","0","0","0","1","0","1","1","0","0","0","1","5","1","1","1","1","5","1","1","4","1","1","628519267599384576","董","235","","","","","","","","","","","","","","","","","","","","","","","","","","","","","","","","","","","","","","","","","",""
"637","<p style=""color:white; font-size: 35px;"">能干</p>","i","categorize-html","90","202935","0.0-6.0-0.0-6.0-1.15","4","4","4","4","4","4","4","4","4","4","5","5","5","5","5","5","5","5","5","5","1","1","1","1","1","1","1","1","1","1","0","1","1","0","0","0","1","0","1","1","0","0","0","1","5","1","1","1","1","5","1","1","4","1","1","628519267599384576","董","235","","","","","","","","","","","","","","","","","","","true","3","3","ability","637","positive","能干","","","","","","","","","","","","","","","","",""
"null","","null","html-keyboard-response","91","203186","0.0-6.0-0.0-6.0-0.16","4","4","4","4","4","4","4","4","4","4","5","5","5","5","5","5","5","5","5","5","1","1","1","1","1","1","1","1","1","1","0","1","1","0","0","0","1","0","1","1","0","0","0","1","5","1","1","1","1","5","1","1","4","1","1","628519267599384576","董","235","","","","","","","","","","","","","","","","","","","","","","","","","","","","","","","","","","","","","","","","","",""
"915","<p style=""color:rgb(150, 250, 100); font-size: 35px;"">我</p>","e","categorize-html","92","204104","0.0-6.0-0.0-6.0-1.16","4","4","4","4","4","4","4","4","4","4","5","5","5","5","5","5","5","5","5","5","1","1","1","1","1","1","1","1","1","1","0","1","1","0","0","0","1","0","1","1","0","0","0","1","5","1","1","1","1","5","1","1","4","1","1","628519267599384576","董","235","","","","","","","","","","","","","","","","","","","true","3","3","ability","915","self","我","","","","","","","","","","","","","","","","",""
"null","","null","html-keyboard-response","93","204355","0.0-6.0-0.0-6.0-0.17","4","4","4","4","4","4","4","4","4","4","5","5","5","5","5","5","5","5","5","5","1","1","1","1","1","1","1","1","1","1","0","1","1","0","0","0","1","0","1","1","0","0","0","1","5","1","1","1","1","5","1","1","4","1","1","628519267599384576","董","235","","","","","","","","","","","","","","","","","","","","","","","","","","","","","","","","","","","","","","","","","",""
"754","<p style=""color:white; font-size: 35px;"">愚钝</p>","e","categorize-html","94","205111","0.0-6.0-0.0-6.0-1.17","4","4","4","4","4","4","4","4","4","4","5","5","5","5","5","5","5","5","5","5","1","1","1","1","1","1","1","1","1","1","0","1","1","0","0","0","1","0","1","1","0","0","0","1","5","1","1","1","1","5","1","1","4","1","1","628519267599384576","董","235","","","","","","","","","","","","","","","","","","","true","3","3","ability","754","negative","愚钝","","","","","","","","","","","","","","","","",""
"null","","null","html-keyboard-response","95","205362","0.0-6.0-0.0-6.0-0.18","4","4","4","4","4","4","4","4","4","4","5","5","5","5","5","5","5","5","5","5","1","1","1","1","1","1","1","1","1","1","0","1","1","0","0","0","1","0","1","1","0","0","0","1","5","1","1","1","1","5","1","1","4","1","1","628519267599384576","董","235","","","","","","","","","","","","","","","","","","","","","","","","","","","","","","","","","","","","","","","","","",""
"770","<p style=""color:rgb(150, 250, 100); font-size: 35px;"">他的</p>","i","categorize-html","96","206134","0.0-6.0-0.0-6.0-1.18","4","4","4","4","4","4","4","4","4","4","5","5","5","5","5","5","5","5","5","5","1","1","1","1","1","1","1","1","1","1","0","1","1","0","0","0","1","0","1","1","0","0","0","1","5","1","1","1","1","5","1","1","4","1","1","628519267599384576","董","235","","","","","","","","","","","","","","","","","","","true","3","3","ability","770","other","他的","","","","","","","","","","","","","","","","",""
"null","","null","html-keyboard-response","97","206386","0.0-6.0-0.0-6.0-0.19","4","4","4","4","4","4","4","4","4","4","5","5","5","5","5","5","5","5","5","5","1","1","1","1","1","1","1","1","1","1","0","1","1","0","0","0","1","0","1","1","0","0","0","1","5","1","1","1","1","5","1","1","4","1","1","628519267599384576","董","235","","","","","","","","","","","","","","","","","","","","","","","","","","","","","","","","","","","","","","","","","",""
"1155","<p style=""color:white; font-size: 35px;"">全才</p>","i","categorize-html","98","207543","0.0-6.0-0.0-6.0-1.19","4","4","4","4","4","4","4","4","4","4","5","5","5","5","5","5","5","5","5","5","1","1","1","1","1","1","1","1","1","1","0","1","1","0","0","0","1","0","1","1","0","0","0","1","5","1","1","1","1","5","1","1","4","1","1","628519267599384576","董","235","","","","","","","","","","","","","","","","","","","true","3","3","ability","1155","positive","全才","","","","","","","","","","","","","","","","",""
"null","","null","html-keyboard-response","99","207794","0.0-6.0-0.0-6.0-0.20","4","4","4","4","4","4","4","4","4","4","5","5","5","5","5","5","5","5","5","5","1","1","1","1","1","1","1","1","1","1","0","1","1","0","0","0","1","0","1","1","0","0","0","1","5","1","1","1","1","5","1","1","4","1","1","628519267599384576","董","235","","","","","","","","","","","","","","","","","","","","","","","","","","","","","","","","","","","","","","","","","",""
"626","<p style=""color:rgb(150, 250, 100); font-size: 35px;"">他</p>","i","categorize-html","100","208422","0.0-6.0-0.0-6.0-1.20","4","4","4","4","4","4","4","4","4","4","5","5","5","5","5","5","5","5","5","5","1","1","1","1","1","1","1","1","1","1","0","1","1","0","0","0","1","0","1","1","0","0","0","1","5","1","1","1","1","5","1","1","4","1","1","628519267599384576","董","235","","","","","","","","","","","","","","","","","","","true","3","3","ability","626","other","他","","","","","","","","","","","","","","","","",""
"null","","null","html-keyboard-response","101","208673","0.0-6.0-0.0-6.0-0.21","4","4","4","4","4","4","4","4","4","4","5","5","5","5","5","5","5","5","5","5","1","1","1","1","1","1","1","1","1","1","0","1","1","0","0","0","1","0","1","1","0","0","0","1","5","1","1","1","1","5","1","1","4","1","1","628519267599384576","董","235","","","","","","","","","","","","","","","","","","","","","","","","","","","","","","","","","","","","","","","","","",""
"619","<p style=""color:white; font-size: 35px;"">精干</p>","i","categorize-html","102","209294","0.0-6.0-0.0-6.0-1.21","4","4","4","4","4","4","4","4","4","4","5","5","5","5","5","5","5","5","5","5","1","1","1","1","1","1","1","1","1","1","0","1","1","0","0","0","1","0","1","1","0","0","0","1","5","1","1","1","1","5","1","1","4","1","1","628519267599384576","董","235","","","","","","","","","","","","","","","","","","","true","3","3","ability","619","positive","精干","","","","","","","","","","","","","","","","",""
"null","","null","html-keyboard-response","103","209545","0.0-6.0-0.0-6.0-0.22","4","4","4","4","4","4","4","4","4","4","5","5","5","5","5","5","5","5","5","5","1","1","1","1","1","1","1","1","1","1","0","1","1","0","0","0","1","0","1","1","0","0","0","1","5","1","1","1","1","5","1","1","4","1","1","628519267599384576","董","235","","","","","","","","","","","","","","","","","","","","","","","","","","","","","","","","","","","","","","","","","",""
"733","<p style=""color:rgb(150, 250, 100); font-size: 35px;"">自己的</p>","e","categorize-html","104","210281","0.0-6.0-0.0-6.0-1.22","4","4","4","4","4","4","4","4","4","4","5","5","5","5","5","5","5","5","5","5","1","1","1","1","1","1","1","1","1","1","0","1","1","0","0","0","1","0","1","1","0","0","0","1","5","1","1","1","1","5","1","1","4","1","1","628519267599384576","董","235","","","","","","","","","","","","","","","","","","","true","3","3","ability","733","self","自己的","","","","","","","","","","","","","","","","",""
"null","","null","html-keyboard-response","105","210532","0.0-6.0-0.0-6.0-0.23","4","4","4","4","4","4","4","4","4","4","5","5","5","5","5","5","5","5","5","5","1","1","1","1","1","1","1","1","1","1","0","1","1","0","0","0","1","0","1","1","0","0","0","1","5","1","1","1","1","5","1","1","4","1","1","628519267599384576","董","235","","","","","","","","","","","","","","","","","","","","","","","","","","","","","","","","","","","","","","","","","",""
"832","<p style=""color:white; font-size: 35px;"">低能</p>","e","categorize-html","106","211366","0.0-6.0-0.0-6.0-1.23","4","4","4","4","4","4","4","4","4","4","5","5","5","5","5","5","5","5","5","5","1","1","1","1","1","1","1","1","1","1","0","1","1","0","0","0","1","0","1","1","0","0","0","1","5","1","1","1","1","5","1","1","4","1","1","628519267599384576","董","235","","","","","","","","","","","","","","","","","","","true","3","3","ability","832","negative","低能","","","","","","","","","","","","","","","","",""
"7687","
    <div class=""tag-bottom""><p>
    —— 任务4：对“自我/消极”词和“他人/积极”词分类 ——<p/>
    <span style=""color:#78DCE8""><b>与刚才的任务完全相同，请再次对这四类词语分类</b></span><p/>
    <span style=""color:#FFD866""><b>请根据上方标签的提示，尽可能正确并且快速地做出按键反应</b></span><p/>
    当按键错误时屏幕中会出现<span style=""color:red""> X </span>，需要按另一个键纠正才能继续<br/><p/>
    请把双手食指分别放在键盘的“E”键和“I”键上<p/>
    按<空格键>开始
    </p></div>"," ","html-keyboard-response","107","219053","0.0-6.0-0.0-7.0","4","4","4","4","4","4","4","4","4","4","5","5","5","5","5","5","5","5","5","5","1","1","1","1","1","1","1","1","1","1","0","1","1","0","0","0","1","0","1","1","0","0","0","1","5","1","1","1","1","5","1","1","4","1","1","628519267599384576","董","235","","","","","","","","","","","","","","","","","","","","","","","","","","","","","","","","","","","","","","","","","",""
"null","","null","html-keyboard-response","108","219304","0.0-6.0-0.0-8.0-0.0","4","4","4","4","4","4","4","4","4","4","5","5","5","5","5","5","5","5","5","5","1","1","1","1","1","1","1","1","1","1","0","1","1","0","0","0","1","0","1","1","0","0","0","1","5","1","1","1","1","5","1","1","4","1","1","628519267599384576","董","235","","","","","","","","","","","","","","","","","","","","","","","","","","","","","","","","","","","","","","","","","",""
"627","<p style=""color:rgb(150, 250, 100); font-size: 35px;"">他人</p>","i","categorize-html","109","219934","0.0-6.0-0.0-8.0-1.0","4","4","4","4","4","4","4","4","4","4","5","5","5","5","5","5","5","5","5","5","1","1","1","1","1","1","1","1","1","1","0","1","1","0","0","0","1","0","1","1","0","0","0","1","5","1","1","1","1","5","1","1","4","1","1","628519267599384576","董","235","","","","","","","","","","","","","","","","","","","true","4","4","ability","627","other","他人","","","","","","","","","","","","","","","","",""
"null","","null","html-keyboard-response","110","220186","0.0-6.0-0.0-8.0-0.1","4","4","4","4","4","4","4","4","4","4","5","5","5","5","5","5","5","5","5","5","1","1","1","1","1","1","1","1","1","1","0","1","1","0","0","0","1","0","1","1","0","0","0","1","5","1","1","1","1","5","1","1","4","1","1","628519267599384576","董","235","","","","","","","","","","","","","","","","","","","","","","","","","","","","","","","","","","","","","","","","","",""
"570","<p style=""color:white; font-size: 35px;"">废物</p>","e","categorize-html","111","220757","0.0-6.0-0.0-8.0-1.1","4","4","4","4","4","4","4","4","4","4","5","5","5","5","5","5","5","5","5","5","1","1","1","1","1","1","1","1","1","1","0","1","1","0","0","0","1","0","1","1","0","0","0","1","5","1","1","1","1","5","1","1","4","1","1","628519267599384576","董","235","","","","","","","","","","","","","","","","","","","true","4","4","ability","570","negative","废物","","","","","","","","","","","","","","","","",""
"null","","null","html-keyboard-response","112","221020","0.0-6.0-0.0-8.0-0.2","4","4","4","4","4","4","4","4","4","4","5","5","5","5","5","5","5","5","5","5","1","1","1","1","1","1","1","1","1","1","0","1","1","0","0","0","1","0","1","1","0","0","0","1","5","1","1","1","1","5","1","1","4","1","1","628519267599384576","董","235","","","","","","","","","","","","","","","","","","","","","","","","","","","","","","","","","","","","","","","","","",""
"529","<p style=""color:rgb(150, 250, 100); font-size: 35px;"">本人</p>","e","categorize-html","113","221551","0.0-6.0-0.0-8.0-1.2","4","4","4","4","4","4","4","4","4","4","5","5","5","5","5","5","5","5","5","5","1","1","1","1","1","1","1","1","1","1","0","1","1","0","0","0","1","0","1","1","0","0","0","1","5","1","1","1","1","5","1","1","4","1","1","628519267599384576","董","235","","","","","","","","","","","","","","","","","","","true","4","4","ability","529","self","本人","","","","","","","","","","","","","","","","",""
"null","","null","html-keyboard-response","114","221802","0.0-6.0-0.0-8.0-0.3","4","4","4","4","4","4","4","4","4","4","5","5","5","5","5","5","5","5","5","5","1","1","1","1","1","1","1","1","1","1","0","1","1","0","0","0","1","0","1","1","0","0","0","1","5","1","1","1","1","5","1","1","4","1","1","628519267599384576","董","235","","","","","","","","","","","","","","","","","","","","","","","","","","","","","","","","","","","","","","","","","",""
"554","<p style=""color:white; font-size: 35px;"">全能</p>","i","categorize-html","115","222359","0.0-6.0-0.0-8.0-1.3","4","4","4","4","4","4","4","4","4","4","5","5","5","5","5","5","5","5","5","5","1","1","1","1","1","1","1","1","1","1","0","1","1","0","0","0","1","0","1","1","0","0","0","1","5","1","1","1","1","5","1","1","4","1","1","628519267599384576","董","235","","","","","","","","","","","","","","","","","","","true","4","4","ability","554","positive","全能","","","","","","","","","","","","","","","","",""
"null","","null","html-keyboard-response","116","222618","0.0-6.0-0.0-8.0-0.4","4","4","4","4","4","4","4","4","4","4","5","5","5","5","5","5","5","5","5","5","1","1","1","1","1","1","1","1","1","1","0","1","1","0","0","0","1","0","1","1","0","0","0","1","5","1","1","1","1","5","1","1","4","1","1","628519267599384576","董","235","","","","","","","","","","","","","","","","","","","","","","","","","","","","","","","","","","","","","","","","","",""
"634","<p style=""color:rgb(150, 250, 100); font-size: 35px;"">别人</p>","i","categorize-html","117","223255","0.0-6.0-0.0-8.0-1.4","4","4","4","4","4","4","4","4","4","4","5","5","5","5","5","5","5","5","5","5","1","1","1","1","1","1","1","1","1","1","0","1","1","0","0","0","1","0","1","1","0","0","0","1","5","1","1","1","1","5","1","1","4","1","1","628519267599384576","董","235","","","","","","","","","","","","","","","","","","","true","4","4","ability","634","other","别人","","","","","","","","","","","","","","","","",""
"null","","null","html-keyboard-response","118","223506","0.0-6.0-0.0-8.0-0.5","4","4","4","4","4","4","4","4","4","4","5","5","5","5","5","5","5","5","5","5","1","1","1","1","1","1","1","1","1","1","0","1","1","0","0","0","1","0","1","1","0","0","0","1","5","1","1","1","1","5","1","1","4","1","1","628519267599384576","董","235","","","","","","","","","","","","","","","","","","","","","","","","","","","","","","","","","","","","","","","","","",""
"555","<p style=""color:white; font-size: 35px;"">废物</p>","e","categorize-html","119","224063","0.0-6.0-0.0-8.0-1.5","4","4","4","4","4","4","4","4","4","4","5","5","5","5","5","5","5","5","5","5","1","1","1","1","1","1","1","1","1","1","0","1","1","0","0","0","1","0","1","1","0","0","0","1","5","1","1","1","1","5","1","1","4","1","1","628519267599384576","董","235","","","","","","","","","","","","","","","","","","","true","4","4","ability","555","negative","废物","","","","","","","","","","","","","","","","",""
"null","","null","html-keyboard-response","120","224314","0.0-6.0-0.0-8.0-0.6","4","4","4","4","4","4","4","4","4","4","5","5","5","5","5","5","5","5","5","5","1","1","1","1","1","1","1","1","1","1","0","1","1","0","0","0","1","0","1","1","0","0","0","1","5","1","1","1","1","5","1","1","4","1","1","628519267599384576","董","235","","","","","","","","","","","","","","","","","","","","","","","","","","","","","","","","","","","","","","","","","",""
"625","<p style=""color:rgb(150, 250, 100); font-size: 35px;"">本人的</p>","e","categorize-html","121","224941","0.0-6.0-0.0-8.0-1.6","4","4","4","4","4","4","4","4","4","4","5","5","5","5","5","5","5","5","5","5","1","1","1","1","1","1","1","1","1","1","0","1","1","0","0","0","1","0","1","1","0","0","0","1","5","1","1","1","1","5","1","1","4","1","1","628519267599384576","董","235","","","","","","","","","","","","","","","","","","","true","4","4","ability","625","self","本人的","","","","","","","","","","","","","","","","",""
"null","","null","html-keyboard-response","122","225192","0.0-6.0-0.0-8.0-0.7","4","4","4","4","4","4","4","4","4","4","5","5","5","5","5","5","5","5","5","5","1","1","1","1","1","1","1","1","1","1","0","1","1","0","0","0","1","0","1","1","0","0","0","1","5","1","1","1","1","5","1","1","4","1","1","628519267599384576","董","235","","","","","","","","","","","","","","","","","","","","","","","","","","","","","","","","","","","","","","","","","",""
"611","<p style=""color:white; font-size: 35px;"">能干</p>","i","categorize-html","123","225806","0.0-6.0-0.0-8.0-1.7","4","4","4","4","4","4","4","4","4","4","5","5","5","5","5","5","5","5","5","5","1","1","1","1","1","1","1","1","1","1","0","1","1","0","0","0","1","0","1","1","0","0","0","1","5","1","1","1","1","5","1","1","4","1","1","628519267599384576","董","235","","","","","","","","","","","","","","","","","","","true","4","4","ability","611","positive","能干","","","","","","","","","","","","","","","","",""
"null","","null","html-keyboard-response","124","226058","0.0-6.0-0.0-8.0-0.8","4","4","4","4","4","4","4","4","4","4","5","5","5","5","5","5","5","5","5","5","1","1","1","1","1","1","1","1","1","1","0","1","1","0","0","0","1","0","1","1","0","0","0","1","5","1","1","1","1","5","1","1","4","1","1","628519267599384576","董","235","","","","","","","","","","","","","","","","","","","","","","","","","","","","","","","","","","","","","","","","","",""
"603","<p style=""color:rgb(150, 250, 100); font-size: 35px;"">本人</p>","e","categorize-html","125","226663","0.0-6.0-0.0-8.0-1.8","4","4","4","4","4","4","4","4","4","4","5","5","5","5","5","5","5","5","5","5","1","1","1","1","1","1","1","1","1","1","0","1","1","0","0","0","1","0","1","1","0","0","0","1","5","1","1","1","1","5","1","1","4","1","1","628519267599384576","董","235","","","","","","","","","","","","","","","","","","","true","4","4","ability","603","self","本人","","","","","","","","","","","","","","","","",""
"null","","null","html-keyboard-response","126","226915","0.0-6.0-0.0-8.0-0.9","4","4","4","4","4","4","4","4","4","4","5","5","5","5","5","5","5","5","5","5","1","1","1","1","1","1","1","1","1","1","0","1","1","0","0","0","1","0","1","1","0","0","0","1","5","1","1","1","1","5","1","1","4","1","1","628519267599384576","董","235","","","","","","","","","","","","","","","","","","","","","","","","","","","","","","","","","","","","","","","","","",""
"810","<p style=""color:white; font-size: 35px;"">全才</p>","i","categorize-html","127","227727","0.0-6.0-0.0-8.0-1.9","4","4","4","4","4","4","4","4","4","4","5","5","5","5","5","5","5","5","5","5","1","1","1","1","1","1","1","1","1","1","0","1","1","0","0","0","1","0","1","1","0","0","0","1","5","1","1","1","1","5","1","1","4","1","1","628519267599384576","董","235","","","","","","","","","","","","","","","","","","","true","4","4","ability","810","positive","全才","","","","","","","","","","","","","","","","",""
"null","","null","html-keyboard-response","128","227978","0.0-6.0-0.0-8.0-0.10","4","4","4","4","4","4","4","4","4","4","5","5","5","5","5","5","5","5","5","5","1","1","1","1","1","1","1","1","1","1","0","1","1","0","0","0","1","0","1","1","0","0","0","1","5","1","1","1","1","5","1","1","4","1","1","628519267599384576","董","235","","","","","","","","","","","","","","","","","","","","","","","","","","","","","","","","","","","","","","","","","",""
"587","<p style=""color:rgb(150, 250, 100); font-size: 35px;"">别人的</p>","i","categorize-html","129","228566","0.0-6.0-0.0-8.0-1.10","4","4","4","4","4","4","4","4","4","4","5","5","5","5","5","5","5","5","5","5","1","1","1","1","1","1","1","1","1","1","0","1","1","0","0","0","1","0","1","1","0","0","0","1","5","1","1","1","1","5","1","1","4","1","1","628519267599384576","董","235","","","","","","","","","","","","","","","","","","","true","4","4","ability","587","other","别人的","","","","","","","","","","","","","","","","",""
"null","","null","html-keyboard-response","130","228817","0.0-6.0-0.0-8.0-0.11","4","4","4","4","4","4","4","4","4","4","5","5","5","5","5","5","5","5","5","5","1","1","1","1","1","1","1","1","1","1","0","1","1","0","0","0","1","0","1","1","0","0","0","1","5","1","1","1","1","5","1","1","4","1","1","628519267599384576","董","235","","","","","","","","","","","","","","","","","","","","","","","","","","","","","","","","","","","","","","","","","",""
"603","<p style=""color:white; font-size: 35px;"">蠢笨</p>","e","categorize-html","131","229423","0.0-6.0-0.0-8.0-1.11","4","4","4","4","4","4","4","4","4","4","5","5","5","5","5","5","5","5","5","5","1","1","1","1","1","1","1","1","1","1","0","1","1","0","0","0","1","0","1","1","0","0","0","1","5","1","1","1","1","5","1","1","4","1","1","628519267599384576","董","235","","","","","","","","","","","","","","","","","","","true","4","4","ability","603","negative","蠢笨","","","","","","","","","","","","","","","","",""
"null","","null","html-keyboard-response","132","229674","0.0-6.0-0.0-8.0-0.12","4","4","4","4","4","4","4","4","4","4","5","5","5","5","5","5","5","5","5","5","1","1","1","1","1","1","1","1","1","1","0","1","1","0","0","0","1","0","1","1","0","0","0","1","5","1","1","1","1","5","1","1","4","1","1","628519267599384576","董","235","","","","","","","","","","","","","","","","","","","","","","","","","","","","","","","","","","","","","","","","","",""
"705","<p style=""color:rgb(150, 250, 100); font-size: 35px;"">别人的</p>","i","categorize-html","133","230382","0.0-6.0-0.0-8.0-1.12","4","4","4","4","4","4","4","4","4","4","5","5","5","5","5","5","5","5","5","5","1","1","1","1","1","1","1","1","1","1","0","1","1","0","0","0","1","0","1","1","0","0","0","1","5","1","1","1","1","5","1","1","4","1","1","628519267599384576","董","235","","","","","","","","","","","","","","","","","","","true","4","4","ability","705","other","别人的","","","","","","","","","","","","","","","","",""
"null","","null","html-keyboard-response","134","230633","0.0-6.0-0.0-8.0-0.13","4","4","4","4","4","4","4","4","4","4","5","5","5","5","5","5","5","5","5","5","1","1","1","1","1","1","1","1","1","1","0","1","1","0","0","0","1","0","1","1","0","0","0","1","5","1","1","1","1","5","1","1","4","1","1","628519267599384576","董","235","","","","","","","","","","","","","","","","","","","","","","","","","","","","","","","","","","","","","","","","","",""
"644","<p style=""color:white; font-size: 35px;"">无能</p>","e","categorize-html","135","231279","0.0-6.0-0.0-8.0-1.13","4","4","4","4","4","4","4","4","4","4","5","5","5","5","5","5","5","5","5","5","1","1","1","1","1","1","1","1","1","1","0","1","1","0","0","0","1","0","1","1","0","0","0","1","5","1","1","1","1","5","1","1","4","1","1","628519267599384576","董","235","","","","","","","","","","","","","","","","","","","true","4","4","ability","644","negative","无能","","","","","","","","","","","","","","","","",""
"null","","null","html-keyboard-response","136","231530","0.0-6.0-0.0-8.0-0.14","4","4","4","4","4","4","4","4","4","4","5","5","5","5","5","5","5","5","5","5","1","1","1","1","1","1","1","1","1","1","0","1","1","0","0","0","1","0","1","1","0","0","0","1","5","1","1","1","1","5","1","1","4","1","1","628519267599384576","董","235","","","","","","","","","","","","","","","","","","","","","","","","","","","","","","","","","","","","","","","","","",""
"666","<p style=""color:rgb(150, 250, 100); font-size: 35px;"">我</p>","e","categorize-html","137","232199","0.0-6.0-0.0-8.0-1.14","4","4","4","4","4","4","4","4","4","4","5","5","5","5","5","5","5","5","5","5","1","1","1","1","1","1","1","1","1","1","0","1","1","0","0","0","1","0","1","1","0","0","0","1","5","1","1","1","1","5","1","1","4","1","1","628519267599384576","董","235","","","","","","","","","","","","","","","","","","","true","4","4","ability","666","self","我","","","","","","","","","","","","","","","","",""
"null","","null","html-keyboard-response","138","232450","0.0-6.0-0.0-8.0-0.15","4","4","4","4","4","4","4","4","4","4","5","5","5","5","5","5","5","5","5","5","1","1","1","1","1","1","1","1","1","1","0","1","1","0","0","0","1","0","1","1","0","0","0","1","5","1","1","1","1","5","1","1","4","1","1","628519267599384576","董","235","","","","","","","","","","","","","","","","","","","","","","","","","","","","","","","","","","","","","","","","","",""
"675","<p style=""color:white; font-size: 35px;"">全才</p>","i","categorize-html","139","233127","0.0-6.0-0.0-8.0-1.15","4","4","4","4","4","4","4","4","4","4","5","5","5","5","5","5","5","5","5","5","1","1","1","1","1","1","1","1","1","1","0","1","1","0","0","0","1","0","1","1","0","0","0","1","5","1","1","1","1","5","1","1","4","1","1","628519267599384576","董","235","","","","","","","","","","","","","","","","","","","true","4","4","ability","675","positive","全才","","","","","","","","","","","","","","","","",""
"null","","null","html-keyboard-response","140","233378","0.0-6.0-0.0-8.0-0.16","4","4","4","4","4","4","4","4","4","4","5","5","5","5","5","5","5","5","5","5","1","1","1","1","1","1","1","1","1","1","0","1","1","0","0","0","1","0","1","1","0","0","0","1","5","1","1","1","1","5","1","1","4","1","1","628519267599384576","董","235","","","","","","","","","","","","","","","","","","","","","","","","","","","","","","","","","","","","","","","","","",""
"610","<p style=""color:rgb(150, 250, 100); font-size: 35px;"">他人</p>","i","categorize-html","141","233991","0.0-6.0-0.0-8.0-1.16","4","4","4","4","4","4","4","4","4","4","5","5","5","5","5","5","5","5","5","5","1","1","1","1","1","1","1","1","1","1","0","1","1","0","0","0","1","0","1","1","0","0","0","1","5","1","1","1","1","5","1","1","4","1","1","628519267599384576","董","235","","","","","","","","","","","","","","","","","","","true","4","4","ability","610","other","他人","","","","","","","","","","","","","","","","",""
"null","","null","html-keyboard-response","142","234243","0.0-6.0-0.0-8.0-0.17","4","4","4","4","4","4","4","4","4","4","5","5","5","5","5","5","5","5","5","5","1","1","1","1","1","1","1","1","1","1","0","1","1","0","0","0","1","0","1","1","0","0","0","1","5","1","1","1","1","5","1","1","4","1","1","628519267599384576","董","235","","","","","","","","","","","","","","","","","","","","","","","","","","","","","","","","","","","","","","","","","",""
"874","<p style=""color:white; font-size: 35px;"">拙笨</p>","e","categorize-html","143","235118","0.0-6.0-0.0-8.0-1.17","4","4","4","4","4","4","4","4","4","4","5","5","5","5","5","5","5","5","5","5","1","1","1","1","1","1","1","1","1","1","0","1","1","0","0","0","1","0","1","1","0","0","0","1","5","1","1","1","1","5","1","1","4","1","1","628519267599384576","董","235","","","","","","","","","","","","","","","","","","","true","4","4","ability","874","negative","拙笨","","","","","","","","","","","","","","","","",""
"null","","null","html-keyboard-response","144","235369","0.0-6.0-0.0-8.0-0.18","4","4","4","4","4","4","4","4","4","4","5","5","5","5","5","5","5","5","5","5","1","1","1","1","1","1","1","1","1","1","0","1","1","0","0","0","1","0","1","1","0","0","0","1","5","1","1","1","1","5","1","1","4","1","1","628519267599384576","董","235","","","","","","","","","","","","","","","","","","","","","","","","","","","","","","","","","","","","","","","","","",""
"643","<p style=""color:rgb(150, 250, 100); font-size: 35px;"">自己</p>","e","categorize-html","145","236014","0.0-6.0-0.0-8.0-1.18","4","4","4","4","4","4","4","4","4","4","5","5","5","5","5","5","5","5","5","5","1","1","1","1","1","1","1","1","1","1","0","1","1","0","0","0","1","0","1","1","0","0","0","1","5","1","1","1","1","5","1","1","4","1","1","628519267599384576","董","235","","","","","","","","","","","","","","","","","","","true","4","4","ability","643","self","自己","","","","","","","","","","","","","","","","",""
"null","","null","html-keyboard-response","146","236265","0.0-6.0-0.0-8.0-0.19","4","4","4","4","4","4","4","4","4","4","5","5","5","5","5","5","5","5","5","5","1","1","1","1","1","1","1","1","1","1","0","1","1","0","0","0","1","0","1","1","0","0","0","1","5","1","1","1","1","5","1","1","4","1","1","628519267599384576","董","235","","","","","","","","","","","","","","","","","","","","","","","","","","","","","","","","","","","","","","","","","",""
"754","<p style=""color:white; font-size: 35px;"">高效</p>","i","categorize-html","147","237021","0.0-6.0-0.0-8.0-1.19","4","4","4","4","4","4","4","4","4","4","5","5","5","5","5","5","5","5","5","5","1","1","1","1","1","1","1","1","1","1","0","1","1","0","0","0","1","0","1","1","0","0","0","1","5","1","1","1","1","5","1","1","4","1","1","628519267599384576","董","235","","","","","","","","","","","","","","","","","","","true","4","4","ability","754","positive","高效","","","","","","","","","","","","","","","","",""
"null","","null","html-keyboard-response","148","237272","0.0-6.0-0.0-8.0-0.20","4","4","4","4","4","4","4","4","4","4","5","5","5","5","5","5","5","5","5","5","1","1","1","1","1","1","1","1","1","1","0","1","1","0","0","0","1","0","1","1","0","0","0","1","5","1","1","1","1","5","1","1","4","1","1","628519267599384576","董","235","","","","","","","","","","","","","","","","","","","","","","","","","","","","","","","","","","","","","","","","","",""
"573","<p style=""color:rgb(150, 250, 100); font-size: 35px;"">本人的</p>","e","categorize-html","149","237846","0.0-6.0-0.0-8.0-1.20","4","4","4","4","4","4","4","4","4","4","5","5","5","5","5","5","5","5","5","5","1","1","1","1","1","1","1","1","1","1","0","1","1","0","0","0","1","0","1","1","0","0","0","1","5","1","1","1","1","5","1","1","4","1","1","628519267599384576","董","235","","","","","","","","","","","","","","","","","","","true","4","4","ability","573","self","本人的","","","","","","","","","","","","","","","","",""
"null","","null","html-keyboard-response","150","238098","0.0-6.0-0.0-8.0-0.21","4","4","4","4","4","4","4","4","4","4","5","5","5","5","5","5","5","5","5","5","1","1","1","1","1","1","1","1","1","1","0","1","1","0","0","0","1","0","1","1","0","0","0","1","5","1","1","1","1","5","1","1","4","1","1","628519267599384576","董","235","","","","","","","","","","","","","","","","","","","","","","","","","","","","","","","","","","","","","","","","","",""
"770","<p style=""color:white; font-size: 35px;"">天才</p>","i","categorize-html","151","238871","0.0-6.0-0.0-8.0-1.21","4","4","4","4","4","4","4","4","4","4","5","5","5","5","5","5","5","5","5","5","1","1","1","1","1","1","1","1","1","1","0","1","1","0","0","0","1","0","1","1","0","0","0","1","5","1","1","1","1","5","1","1","4","1","1","628519267599384576","董","235","","","","","","","","","","","","","","","","","","","true","4","4","ability","770","positive","天才","","","","","","","","","","","","","","","","",""
"null","","null","html-keyboard-response","152","239121","0.0-6.0-0.0-8.0-0.22","4","4","4","4","4","4","4","4","4","4","5","5","5","5","5","5","5","5","5","5","1","1","1","1","1","1","1","1","1","1","0","1","1","0","0","0","1","0","1","1","0","0","0","1","5","1","1","1","1","5","1","1","4","1","1","628519267599384576","董","235","","","","","","","","","","","","","","","","","","","","","","","","","","","","","","","","","","","","","","","","","",""
"803","<p style=""color:rgb(150, 250, 100); font-size: 35px;"">他的</p>","i","categorize-html","153","239926","0.0-6.0-0.0-8.0-1.22","4","4","4","4","4","4","4","4","4","4","5","5","5","5","5","5","5","5","5","5","1","1","1","1","1","1","1","1","1","1","0","1","1","0","0","0","1","0","1","1","0","0","0","1","5","1","1","1","1","5","1","1","4","1","1","628519267599384576","董","235","","","","","","","","","","","","","","","","","","","true","4","4","ability","803","other","他的","","","","","","","","","","","","","","","","",""
"null","","null","html-keyboard-response","154","240178","0.0-6.0-0.0-8.0-0.23","4","4","4","4","4","4","4","4","4","4","5","5","5","5","5","5","5","5","5","5","1","1","1","1","1","1","1","1","1","1","0","1","1","0","0","0","1","0","1","1","0","0","0","1","5","1","1","1","1","5","1","1","4","1","1","628519267599384576","董","235","","","","","","","","","","","","","","","","","","","","","","","","","","","","","","","","","","","","","","","","","",""
"746","<p style=""color:white; font-size: 35px;"">拙笨</p>","e","categorize-html","155","240925","0.0-6.0-0.0-8.0-1.23","4","4","4","4","4","4","4","4","4","4","5","5","5","5","5","5","5","5","5","5","1","1","1","1","1","1","1","1","1","1","0","1","1","0","0","0","1","0","1","1","0","0","0","1","5","1","1","1","1","5","1","1","4","1","1","628519267599384576","董","235","","","","","","","","","","","","","","","","","","","true","4","4","ability","746","negative","拙笨","","","","","","","","","","","","","","","","",""
"null","","null","html-keyboard-response","156","241176","0.0-6.0-0.0-8.0-0.24","4","4","4","4","4","4","4","4","4","4","5","5","5","5","5","5","5","5","5","5","1","1","1","1","1","1","1","1","1","1","0","1","1","0","0","0","1","0","1","1","0","0","0","1","5","1","1","1","1","5","1","1","4","1","1","628519267599384576","董","235","","","","","","","","","","","","","","","","","","","","","","","","","","","","","","","","","","","","","","","","","",""
"595","<p style=""color:rgb(150, 250, 100); font-size: 35px;"">自己的</p>","e","categorize-html","157","241773","0.0-6.0-0.0-8.0-1.24","4","4","4","4","4","4","4","4","4","4","5","5","5","5","5","5","5","5","5","5","1","1","1","1","1","1","1","1","1","1","0","1","1","0","0","0","1","0","1","1","0","0","0","1","5","1","1","1","1","5","1","1","4","1","1","628519267599384576","董","235","","","","","","","","","","","","","","","","","","","true","4","4","ability","595","self","自己的","","","","","","","","","","","","","","","","",""
"null","","null","html-keyboard-response","158","242024","0.0-6.0-0.0-8.0-0.25","4","4","4","4","4","4","4","4","4","4","5","5","5","5","5","5","5","5","5","5","1","1","1","1","1","1","1","1","1","1","0","1","1","0","0","0","1","0","1","1","0","0","0","1","5","1","1","1","1","5","1","1","4","1","1","628519267599384576","董","235","","","","","","","","","","","","","","","","","","","","","","","","","","","","","","","","","","","","","","","","","",""
"580","<p style=""color:white; font-size: 35px;"">低能</p>","e","categorize-html","159","242606","0.0-6.0-0.0-8.0-1.25","4","4","4","4","4","4","4","4","4","4","5","5","5","5","5","5","5","5","5","5","1","1","1","1","1","1","1","1","1","1","0","1","1","0","0","0","1","0","1","1","0","0","0","1","5","1","1","1","1","5","1","1","4","1","1","628519267599384576","董","235","","","","","","","","","","","","","","","","","","","true","4","4","ability","580","negative","低能","","","","","","","","","","","","","","","","",""
"null","","null","html-keyboard-response","160","242857","0.0-6.0-0.0-8.0-0.26","4","4","4","4","4","4","4","4","4","4","5","5","5","5","5","5","5","5","5","5","1","1","1","1","1","1","1","1","1","1","0","1","1","0","0","0","1","0","1","1","0","0","0","1","5","1","1","1","1","5","1","1","4","1","1","628519267599384576","董","235","","","","","","","","","","","","","","","","","","","","","","","","","","","","","","","","","","","","","","","","","",""
"708","<p style=""color:rgb(150, 250, 100); font-size: 35px;"">他</p>","i","categorize-html","161","243567","0.0-6.0-0.0-8.0-1.26","4","4","4","4","4","4","4","4","4","4","5","5","5","5","5","5","5","5","5","5","1","1","1","1","1","1","1","1","1","1","0","1","1","0","0","0","1","0","1","1","0","0","0","1","5","1","1","1","1","5","1","1","4","1","1","628519267599384576","董","235","","","","","","","","","","","","","","","","","","","true","4","4","ability","708","other","他","","","","","","","","","","","","","","","","",""
"null","","null","html-keyboard-response","162","243818","0.0-6.0-0.0-8.0-0.27","4","4","4","4","4","4","4","4","4","4","5","5","5","5","5","5","5","5","5","5","1","1","1","1","1","1","1","1","1","1","0","1","1","0","0","0","1","0","1","1","0","0","0","1","5","1","1","1","1","5","1","1","4","1","1","628519267599384576","董","235","","","","","","","","","","","","","","","","","","","","","","","","","","","","","","","","","","","","","","","","","",""
"667","<p style=""color:white; font-size: 35px;"">精干</p>","i","categorize-html","163","244487","0.0-6.0-0.0-8.0-1.27","4","4","4","4","4","4","4","4","4","4","5","5","5","5","5","5","5","5","5","5","1","1","1","1","1","1","1","1","1","1","0","1","1","0","0","0","1","0","1","1","0","0","0","1","5","1","1","1","1","5","1","1","4","1","1","628519267599384576","董","235","","","","","","","","","","","","","","","","","","","true","4","4","ability","667","positive","精干","","","","","","","","","","","","","","","","",""
"null","","null","html-keyboard-response","164","244738","0.0-6.0-0.0-8.0-0.28","4","4","4","4","4","4","4","4","4","4","5","5","5","5","5","5","5","5","5","5","1","1","1","1","1","1","1","1","1","1","0","1","1","0","0","0","1","0","1","1","0","0","0","1","5","1","1","1","1","5","1","1","4","1","1","628519267599384576","董","235","","","","","","","","","","","","","","","","","","","","","","","","","","","","","","","","","","","","","","","","","",""
"626","<p style=""color:rgb(150, 250, 100); font-size: 35px;"">他人的</p>","i","categorize-html","165","245367","0.0-6.0-0.0-8.0-1.28","4","4","4","4","4","4","4","4","4","4","5","5","5","5","5","5","5","5","5","5","1","1","1","1","1","1","1","1","1","1","0","1","1","0","0","0","1","0","1","1","0","0","0","1","5","1","1","1","1","5","1","1","4","1","1","628519267599384576","董","235","","","","","","","","","","","","","","","","","","","true","4","4","ability","626","other","他人的","","","","","","","","","","","","","","","","",""
"null","","null","html-keyboard-response","166","245618","0.0-6.0-0.0-8.0-0.29","4","4","4","4","4","4","4","4","4","4","5","5","5","5","5","5","5","5","5","5","1","1","1","1","1","1","1","1","1","1","0","1","1","0","0","0","1","0","1","1","0","0","0","1","5","1","1","1","1","5","1","1","4","1","1","628519267599384576","董","235","","","","","","","","","","","","","","","","","","","","","","","","","","","","","","","","","","","","","","","","","",""
"805","<p style=""color:white; font-size: 35px;"">愚钝</p>","e","categorize-html","167","246426","0.0-6.0-0.0-8.0-1.29","4","4","4","4","4","4","4","4","4","4","5","5","5","5","5","5","5","5","5","5","1","1","1","1","1","1","1","1","1","1","0","1","1","0","0","0","1","0","1","1","0","0","0","1","5","1","1","1","1","5","1","1","4","1","1","628519267599384576","董","235","","","","","","","","","","","","","","","","","","","true","4","4","ability","805","negative","愚钝","","","","","","","","","","","","","","","","",""
"null","","null","html-keyboard-response","168","246677","0.0-6.0-0.0-8.0-0.30","4","4","4","4","4","4","4","4","4","4","5","5","5","5","5","5","5","5","5","5","1","1","1","1","1","1","1","1","1","1","0","1","1","0","0","0","1","0","1","1","0","0","0","1","5","1","1","1","1","5","1","1","4","1","1","628519267599384576","董","235","","","","","","","","","","","","","","","","","","","","","","","","","","","","","","","","","","","","","","","","","",""
"671","<p style=""color:rgb(150, 250, 100); font-size: 35px;"">我的</p>","e","categorize-html","169","247350","0.0-6.0-0.0-8.0-1.30","4","4","4","4","4","4","4","4","4","4","5","5","5","5","5","5","5","5","5","5","1","1","1","1","1","1","1","1","1","1","0","1","1","0","0","0","1","0","1","1","0","0","0","1","5","1","1","1","1","5","1","1","4","1","1","628519267599384576","董","235","","","","","","","","","","","","","","","","","","","true","4","4","ability","671","self","我的","","","","","","","","","","","","","","","","",""
"null","","null","html-keyboard-response","170","247602","0.0-6.0-0.0-8.0-0.31","4","4","4","4","4","4","4","4","4","4","5","5","5","5","5","5","5","5","5","5","1","1","1","1","1","1","1","1","1","1","0","1","1","0","0","0","1","0","1","1","0","0","0","1","5","1","1","1","1","5","1","1","4","1","1","628519267599384576","董","235","","","","","","","","","","","","","","","","","","","","","","","","","","","","","","","","","","","","","","","","","",""
"698","<p style=""color:white; font-size: 35px;"">全能</p>","i","categorize-html","171","248302","0.0-6.0-0.0-8.0-1.31","4","4","4","4","4","4","4","4","4","4","5","5","5","5","5","5","5","5","5","5","1","1","1","1","1","1","1","1","1","1","0","1","1","0","0","0","1","0","1","1","0","0","0","1","5","1","1","1","1","5","1","1","4","1","1","628519267599384576","董","235","","","","","","","","","","","","","","","","","","","true","4","4","ability","698","positive","全能","","","","","","","","","","","","","","","","",""
"null","","null","html-keyboard-response","172","248553","0.0-6.0-0.0-8.0-0.32","4","4","4","4","4","4","4","4","4","4","5","5","5","5","5","5","5","5","5","5","1","1","1","1","1","1","1","1","1","1","0","1","1","0","0","0","1","0","1","1","0","0","0","1","5","1","1","1","1","5","1","1","4","1","1","628519267599384576","董","235","","","","","","","","","","","","","","","","","","","","","","","","","","","","","","","","","","","","","","","","","",""
"699","<p style=""color:rgb(150, 250, 100); font-size: 35px;"">自己的</p>","e","categorize-html","173","249255","0.0-6.0-0.0-8.0-1.32","4","4","4","4","4","4","4","4","4","4","5","5","5","5","5","5","5","5","5","5","1","1","1","1","1","1","1","1","1","1","0","1","1","0","0","0","1","0","1","1","0","0","0","1","5","1","1","1","1","5","1","1","4","1","1","628519267599384576","董","235","","","","","","","","","","","","","","","","","","","true","4","4","ability","699","self","自己的","","","","","","","","","","","","","","","","",""
"null","","null","html-keyboard-response","174","249506","0.0-6.0-0.0-8.0-0.33","4","4","4","4","4","4","4","4","4","4","5","5","5","5","5","5","5","5","5","5","1","1","1","1","1","1","1","1","1","1","0","1","1","0","0","0","1","0","1","1","0","0","0","1","5","1","1","1","1","5","1","1","4","1","1","628519267599384576","董","235","","","","","","","","","","","","","","","","","","","","","","","","","","","","","","","","","","","","","","","","","",""
"858","<p style=""color:white; font-size: 35px;"">能干</p>","i","categorize-html","175","250366","0.0-6.0-0.0-8.0-1.33","4","4","4","4","4","4","4","4","4","4","5","5","5","5","5","5","5","5","5","5","1","1","1","1","1","1","1","1","1","1","0","1","1","0","0","0","1","0","1","1","0","0","0","1","5","1","1","1","1","5","1","1","4","1","1","628519267599384576","董","235","","","","","","","","","","","","","","","","","","","true","4","4","ability","858","positive","能干","","","","","","","","","","","","","","","","",""
"null","","null","html-keyboard-response","176","250618","0.0-6.0-0.0-8.0-0.34","4","4","4","4","4","4","4","4","4","4","5","5","5","5","5","5","5","5","5","5","1","1","1","1","1","1","1","1","1","1","0","1","1","0","0","0","1","0","1","1","0","0","0","1","5","1","1","1","1","5","1","1","4","1","1","628519267599384576","董","235","","","","","","","","","","","","","","","","","","","","","","","","","","","","","","","","","","","","","","","","","",""
"674","<p style=""color:rgb(150, 250, 100); font-size: 35px;"">别人</p>","i","categorize-html","177","251295","0.0-6.0-0.0-8.0-1.34","4","4","4","4","4","4","4","4","4","4","5","5","5","5","5","5","5","5","5","5","1","1","1","1","1","1","1","1","1","1","0","1","1","0","0","0","1","0","1","1","0","0","0","1","5","1","1","1","1","5","1","1","4","1","1","628519267599384576","董","235","","","","","","","","","","","","","","","","","","","true","4","4","ability","674","other","别人","","","","","","","","","","","","","","","","",""
"null","","null","html-keyboard-response","178","251546","0.0-6.0-0.0-8.0-0.35","4","4","4","4","4","4","4","4","4","4","5","5","5","5","5","5","5","5","5","5","1","1","1","1","1","1","1","1","1","1","0","1","1","0","0","0","1","0","1","1","0","0","0","1","5","1","1","1","1","5","1","1","4","1","1","628519267599384576","董","235","","","","","","","","","","","","","","","","","","","","","","","","","","","","","","","","","","","","","","","","","",""
"683","<p style=""color:white; font-size: 35px;"">愚钝</p>","e","categorize-html","179","252231","0.0-6.0-0.0-8.0-1.35","4","4","4","4","4","4","4","4","4","4","5","5","5","5","5","5","5","5","5","5","1","1","1","1","1","1","1","1","1","1","0","1","1","0","0","0","1","0","1","1","0","0","0","1","5","1","1","1","1","5","1","1","4","1","1","628519267599384576","董","235","","","","","","","","","","","","","","","","","","","true","4","4","ability","683","negative","愚钝","","","","","","","","","","","","","","","","",""
"null","","null","html-keyboard-response","180","252483","0.0-6.0-0.0-8.0-0.36","4","4","4","4","4","4","4","4","4","4","5","5","5","5","5","5","5","5","5","5","1","1","1","1","1","1","1","1","1","1","0","1","1","0","0","0","1","0","1","1","0","0","0","1","5","1","1","1","1","5","1","1","4","1","1","628519267599384576","董","235","","","","","","","","","","","","","","","","","","","","","","","","","","","","","","","","","","","","","","","","","",""
"658","<p style=""color:rgb(150, 250, 100); font-size: 35px;"">他人的</p>","i","categorize-html","181","253142","0.0-6.0-0.0-8.0-1.36","4","4","4","4","4","4","4","4","4","4","5","5","5","5","5","5","5","5","5","5","1","1","1","1","1","1","1","1","1","1","0","1","1","0","0","0","1","0","1","1","0","0","0","1","5","1","1","1","1","5","1","1","4","1","1","628519267599384576","董","235","","","","","","","","","","","","","","","","","","","true","4","4","ability","658","other","他人的","","","","","","","","","","","","","","","","",""
"null","","null","html-keyboard-response","182","253392","0.0-6.0-0.0-8.0-0.37","4","4","4","4","4","4","4","4","4","4","5","5","5","5","5","5","5","5","5","5","1","1","1","1","1","1","1","1","1","1","0","1","1","0","0","0","1","0","1","1","0","0","0","1","5","1","1","1","1","5","1","1","4","1","1","628519267599384576","董","235","","","","","","","","","","","","","","","","","","","","","","","","","","","","","","","","","","","","","","","","","",""
"636","<p style=""color:white; font-size: 35px;"">天才</p>","i","categorize-html","183","254030","0.0-6.0-0.0-8.0-1.37","4","4","4","4","4","4","4","4","4","4","5","5","5","5","5","5","5","5","5","5","1","1","1","1","1","1","1","1","1","1","0","1","1","0","0","0","1","0","1","1","0","0","0","1","5","1","1","1","1","5","1","1","4","1","1","628519267599384576","董","235","","","","","","","","","","","","","","","","","","","true","4","4","ability","636","positive","天才","","","","","","","","","","","","","","","","",""
"null","","null","html-keyboard-response","184","254282","0.0-6.0-0.0-8.0-0.38","4","4","4","4","4","4","4","4","4","4","5","5","5","5","5","5","5","5","5","5","1","1","1","1","1","1","1","1","1","1","0","1","1","0","0","0","1","0","1","1","0","0","0","1","5","1","1","1","1","5","1","1","4","1","1","628519267599384576","董","235","","","","","","","","","","","","","","","","","","","","","","","","","","","","","","","","","","","","","","","","","",""
"642","<p style=""color:rgb(150, 250, 100); font-size: 35px;"">我</p>","e","categorize-html","185","254927","0.0-6.0-0.0-8.0-1.38","4","4","4","4","4","4","4","4","4","4","5","5","5","5","5","5","5","5","5","5","1","1","1","1","1","1","1","1","1","1","0","1","1","0","0","0","1","0","1","1","0","0","0","1","5","1","1","1","1","5","1","1","4","1","1","628519267599384576","董","235","","","","","","","","","","","","","","","","","","","true","4","4","ability","642","self","我","","","","","","","","","","","","","","","","",""
"null","","null","html-keyboard-response","186","255179","0.0-6.0-0.0-8.0-0.39","4","4","4","4","4","4","4","4","4","4","5","5","5","5","5","5","5","5","5","5","1","1","1","1","1","1","1","1","1","1","0","1","1","0","0","0","1","0","1","1","0","0","0","1","5","1","1","1","1","5","1","1","4","1","1","628519267599384576","董","235","","","","","","","","","","","","","","","","","","","","","","","","","","","","","","","","","","","","","","","","","",""
"641","<p style=""color:white; font-size: 35px;"">无能</p>","e","categorize-html","187","255823","0.0-6.0-0.0-8.0-1.39","4","4","4","4","4","4","4","4","4","4","5","5","5","5","5","5","5","5","5","5","1","1","1","1","1","1","1","1","1","1","0","1","1","0","0","0","1","0","1","1","0","0","0","1","5","1","1","1","1","5","1","1","4","1","1","628519267599384576","董","235","","","","","","","","","","","","","","","","","","","true","4","4","ability","641","negative","无能","","","","","","","","","","","","","","","","",""
"null","","null","html-keyboard-response","188","256073","0.0-6.0-0.0-8.0-0.40","4","4","4","4","4","4","4","4","4","4","5","5","5","5","5","5","5","5","5","5","1","1","1","1","1","1","1","1","1","1","0","1","1","0","0","0","1","0","1","1","0","0","0","1","5","1","1","1","1","5","1","1","4","1","1","628519267599384576","董","235","","","","","","","","","","","","","","","","","","","","","","","","","","","","","","","","","","","","","","","","","",""
"723","<p style=""color:rgb(150, 250, 100); font-size: 35px;"">他的</p>","i","categorize-html","189","256798","0.0-6.0-0.0-8.0-1.40","4","4","4","4","4","4","4","4","4","4","5","5","5","5","5","5","5","5","5","5","1","1","1","1","1","1","1","1","1","1","0","1","1","0","0","0","1","0","1","1","0","0","0","1","5","1","1","1","1","5","1","1","4","1","1","628519267599384576","董","235","","","","","","","","","","","","","","","","","","","true","4","4","ability","723","other","他的","","","","","","","","","","","","","","","","",""
"null","","null","html-keyboard-response","190","257049","0.0-6.0-0.0-8.0-0.41","4","4","4","4","4","4","4","4","4","4","5","5","5","5","5","5","5","5","5","5","1","1","1","1","1","1","1","1","1","1","0","1","1","0","0","0","1","0","1","1","0","0","0","1","5","1","1","1","1","5","1","1","4","1","1","628519267599384576","董","235","","","","","","","","","","","","","","","","","","","","","","","","","","","","","","","","","","","","","","","","","",""
"667","<p style=""color:white; font-size: 35px;"">蠢笨</p>","e","categorize-html","191","257718","0.0-6.0-0.0-8.0-1.41","4","4","4","4","4","4","4","4","4","4","5","5","5","5","5","5","5","5","5","5","1","1","1","1","1","1","1","1","1","1","0","1","1","0","0","0","1","0","1","1","0","0","0","1","5","1","1","1","1","5","1","1","4","1","1","628519267599384576","董","235","","","","","","","","","","","","","","","","","","","true","4","4","ability","667","negative","蠢笨","","","","","","","","","","","","","","","","",""
"null","","null","html-keyboard-response","192","257970","0.0-6.0-0.0-8.0-0.42","4","4","4","4","4","4","4","4","4","4","5","5","5","5","5","5","5","5","5","5","1","1","1","1","1","1","1","1","1","1","0","1","1","0","0","0","1","0","1","1","0","0","0","1","5","1","1","1","1","5","1","1","4","1","1","628519267599384576","董","235","","","","","","","","","","","","","","","","","","","","","","","","","","","","","","","","","","","","","","","","","",""
