"rt","stimulus","response","trial_type","trial_index","time_elapsed","internal_node_id","ses_1","ses_2","ses_3","ses_4","ses_5","ses_6","ses_7","ses_8","ses_9","ses_10","coreself_1","coreself_2","coreself_3","coreself_4","coreself_5","coreself_6","coreself_7","coreself_8","coreself_9","coreself_10","SGPS_1","SGPS_2","SGPS_3","SGPS_4","SGPS_5","SGPS_6","SGPS_7","SGPS_8","SGPS_9","NPI1","NPI2","NPI3","NPI4","NPI5","NPI6","NPI7","NPI8","NPI9","NPI10","NPI11","NPI12","NPI13","NPI14","NPI15","hsns_1","hsns_2","hsns_3","hsns_4","hsns_5","trap1","hsns_6","hsns_7","hsns_8","hsns_9","hsns_10","subj_idx","friend_name","ParticipantID","value","success","user_agent","responses","item_order","radio_event_ids","radio_event_times","key_event_times","mouse_event_times","straightlining","zigzagging","honeypot","timeout","failed_images","failed_audio","failed_video","version_attrib","version_target","correct","IAT","screen_id","task_id","RT","condition","word","varname","summary","version_attrib2","version_target2","time_stamp","view_history","response_type","key_press","avg_frame_time","center_x","center_y","correct_response","identity","Image","question_order","correct_answer","trap1_item"
"5403","
   <p><div style = ""color: white;font-size:25px;"">您好，欢迎参加本次实验。</div> </p>
   <p><div style = ""color: white;font-size:25px;"">为充分保障您的权利，请确保您已经知晓并同意《参与实验同意书》以及《数据公开知情同意书》。</div></p>
   <p><div style = ""color: white;font-size:25px;"">如果您未见过上述内容，请咨询实验员。</div></p>
   <p><div style = ""color: white;font-size:25px;"">如果您选择继续实验，则表示您已经清楚两份知情同意书的内容并同意。</div></p>
   <p><div style = ""color: pink;font-size:30px;"">请确保您记得day0的实验编号，您将在本次实验输入该编号，若您忘记，请咨询实验员后作答。</div></p>
   <p><div style = ""color: lightblue;font-size:25px;"">请您尽可能认真地作答，我们将依据您在各问卷和按键任务中的作答质量发放报酬。</div></p>
   <p> <div style = ""color: green;font-size:25px;""><按空格键至下页></div> </p>
   "," ","html-keyboard-response","0","5405","0.0-0.0","4","4","4","4","3","4","4","4","4","4","5","5","5","5","5","5","5","5","5","5","1","1","1","1","1","1","1","1","1","0","0","0","1","0","0","0","0","1","1","1","0","0","0","0","5","1","1","1","2","3","1","2","1","5","1","598911150104510464","熊","576","","","","","","","","","","","","","","","","","","","","","","","","","","","","","","","","","","","","","","","","","",""
"","","","call-function","1","5405","0.0-1.0-0.0","4","4","4","4","3","4","4","4","4","4","5","5","5","5","5","5","5","5","5","5","1","1","1","1","1","1","1","1","1","0","0","0","1","0","0","0","0","1","1","1","0","0","0","0","5","1","1","1","2","3","1","2","1","5","1","598911150104510464","熊","576","","","","","","","","","","","","","","","","","","","","","","","","","","","","","","","","","","","","","","","","","",""
"15983","","{""friend_name"":""熊"",""ParticipantID"":""576""}","survey-html-form","2","21389","0.0-1.0-1.0","4","4","4","4","3","4","4","4","4","4","5","5","5","5","5","5","5","5","5","5","1","1","1","1","1","1","1","1","1","0","0","0","1","0","0","0","0","1","1","1","0","0","0","0","5","1","1","1","2","3","1","2","1","5","1","598911150104510464","熊","576","","","","","","","","","","","","","","","","","","","","","","","","","","","","","","","","","","","","","","","","","",""
"","","","fullscreen","3","22403","0.0-2.0","4","4","4","4","3","4","4","4","4","4","5","5","5","5","5","5","5","5","5","5","1","1","1","1","1","1","1","1","1","0","0","0","1","0","0","0","0","1","1","1","0","0","0","0","5","1","1","1","2","3","1","2","1","5","1","598911150104510464","熊","576","","true","{}","","","","","","","","","","","","","","","","","","","","","","","","","","","","","","","","","","","","","","",""
"22121.19999885559","","{""Q01"":""4"",""Q02"":""4"",""Q03"":""4"",""Q04"":""4"",""Q05"":""3"",""Q06"":""4"",""Q07"":""4"",""Q08"":""4"",""Q09"":""4"",""Q10"":""4""}","survey-template","4","44527","0.0-3.0","4","4","4","4","3","4","4","4","4","4","5","5","5","5","5","5","5","5","5","5","1","1","1","1","1","1","1","1","1","0","0","0","1","0","0","0","0","1","1","1","0","0","0","0","5","1","1","1","2","3","1","2","1","5","1","598911150104510464","熊","576","","","","{""Q01"":""4"",""Q02"":""4"",""Q03"":""4"",""Q04"":""4"",""Q05"":""3"",""Q06"":""4"",""Q07"":""4"",""Q08"":""4"",""Q09"":""4"",""Q10"":""4""}","[0,1,2,3,4,5,6,7,8,9]","[""Q01"",""Q02"",""Q03"",""Q04"",""Q05"",""Q06"",""Q07"",""Q09"",""Q10"",""Q08""]","[2016.1000003814697,3057.6000003814697,4240.199998855591,5312.199998855591,8319.79999923706,9666.10000038147,11088.19999885559,15040.19999885559,15679.60000038147,20624]","[]","[2016.1000003814697,3057.6000003814697,4240.199998855591,5312.199998855591,8319.79999923706,9666.10000038147,11088.19999885559,15040.19999885559,15679.60000038147,20624,22120.39999961853]","0.5","0.3333333333333333","0","","","","","","","","","","","","","","","","","","","","","","","","","","","","","",""
"17067.40000152588","","{""Q01"":""5"",""Q02"":""5"",""Q03"":""5"",""Q04"":""5"",""Q05"":""5"",""Q06"":""5"",""Q07"":""5"",""Q08"":""5"",""Q09"":""5"",""Q10"":""5""}","survey-template","5","61598","0.0-4.0","4","4","4","4","3","4","4","4","4","4","5","5","5","5","5","5","5","5","5","5","1","1","1","1","1","1","1","1","1","0","0","0","1","0","0","0","0","1","1","1","0","0","0","0","5","1","1","1","2","3","1","2","1","5","1","598911150104510464","熊","576","","","","{""Q01"":""5"",""Q02"":""5"",""Q03"":""5"",""Q04"":""5"",""Q05"":""5"",""Q06"":""5"",""Q07"":""5"",""Q08"":""5"",""Q09"":""5"",""Q10"":""5""}","[0,1,2,3,4,5,6,7,8,9]","[""Q01"",""Q03"",""Q02"",""Q04"",""Q05"",""Q06"",""Q07"",""Q08"",""Q09"",""Q10""]","[1530.6000003814697,3171,3754.6000003814697,4795,5762.900001525879,7146.5,8226.60000038147,8818.70000076294,10026.60000038147,10915]","[]","[1530.6000003814697,2674.800001144409,3171,3754.6000003814697,4795,5762.900001525879,7146.5,8226.60000038147,8818.70000076294,10026.60000038147,10915,17066.70000076294]","0.6","0.7777777777777778","0","","","","","","","","","","","","","","","","","","","","","","","","","","","","","",""
"","","","preload","6","61874","0.0-5.0","4","4","4","4","3","4","4","4","4","4","5","5","5","5","5","5","5","5","5","5","1","1","1","1","1","1","1","1","1","0","0","0","1","0","0","0","0","1","1","1","0","0","0","0","5","1","1","1","2","3","1","2","1","5","1","598911150104510464","熊","576","","true","","","","","","","","","","","false","[]","[]","[]","","","","","","","","","","","","","","","","","","","","","","","","","",""
"11730","
    <h3>词语分类任务</h3>
    <p>在接下来的任务中，你需要对一系列词语进行分类。</p>
    <p>请先熟悉这些词语，这有利于你完成接下来的任务。</p>
    <table align=""center"" border=1 cellpadding=3 cellspacing=0>
    <tr> <th>类别</th> <th>词语</th> </tr>
    <tr> <td>&emsp;积极&emsp;</td> <td>&emsp;能干、全能、全才、高效、精干、天才&emsp;</td> </tr>
    <tr> <td>&emsp;消极&emsp;</td> <td>&emsp;无能、低能、废物、拙笨、愚钝、蠢笨&emsp;</td> </tr>
    <tr> <td>&emsp;自我&emsp;</td> <td>&emsp;我、我的、自己、自己的、本人、本人的&emsp;</td> </tr>
    <tr> <td>&emsp;他人&emsp;</td> <td>&emsp;他、他的、别人、别人的、他人、他人的&emsp;</td> </tr>
    </table><br/>","0","html-button-response","7","73605","0.0-6.0-0.0-0.0","4","4","4","4","3","4","4","4","4","4","5","5","5","5","5","5","5","5","5","5","1","1","1","1","1","1","1","1","1","0","0","0","1","0","0","0","0","1","1","1","0","0","0","0","5","1","1","1","2","3","1","2","1","5","1","598911150104510464","熊","576","","","","","","","","","","","","","","","","","1","1","","","","","","","","","","","","","","","","","","","","","","","",""
"1382","
    <div class=""tag-bottom"">
    <p> —— 任务1：对“自我”词和“他人”词分类 ——<p/>
    不同词语会出现在屏幕中央，类别标签将始终显示在屏幕上方<p/>   
    <span style=""color:#FFD866""><b>请根据上方标签的提示，尽可能正确并且快速地做出按键反应</b></span><p/>
    当按键错误时屏幕中会出现<span style=""color:red""> X </span>，需要按另一个键纠正才能继续<br/><p/>
    请把双手食指分别放在键盘的“E”键和“I”键上<p/>
    按<空格键>开始
    </p></div>"," ","html-keyboard-response","8","74989","0.0-6.0-0.0-1.0","4","4","4","4","3","4","4","4","4","4","5","5","5","5","5","5","5","5","5","5","1","1","1","1","1","1","1","1","1","0","0","0","1","0","0","0","0","1","1","1","0","0","0","0","5","1","1","1","2","3","1","2","1","5","1","598911150104510464","熊","576","","","","","","","","","","","","","","","","","","","","","","","","","","","","","","","","","","","","","","","","","",""
"null","","null","html-keyboard-response","9","75241","0.0-6.0-0.0-2.0-0.0","4","4","4","4","3","4","4","4","4","4","5","5","5","5","5","5","5","5","5","5","1","1","1","1","1","1","1","1","1","0","0","0","1","0","0","0","0","1","1","1","0","0","0","0","5","1","1","1","2","3","1","2","1","5","1","598911150104510464","熊","576","","","","","","","","","","","","","","","","","","","","","","","","","","","","","","","","","","","","","","","","","",""
"468","<p style=""color:rgb(150, 250, 100); font-size: 35px;"">自己</p>","e","categorize-html","10","75709","0.0-6.0-0.0-2.0-1.0","4","4","4","4","3","4","4","4","4","4","5","5","5","5","5","5","5","5","5","5","1","1","1","1","1","1","1","1","1","0","0","0","1","0","0","0","0","1","1","1","0","0","0","0","5","1","1","1","2","3","1","2","1","5","1","598911150104510464","熊","576","","","","","","","","","","","","","","","","","","","true","1","1","ability","468","self","自己","","","","","","","","","","","","","","","","",""
"null","","null","html-keyboard-response","11","75960","0.0-6.0-0.0-2.0-0.1","4","4","4","4","3","4","4","4","4","4","5","5","5","5","5","5","5","5","5","5","1","1","1","1","1","1","1","1","1","0","0","0","1","0","0","0","0","1","1","1","0","0","0","0","5","1","1","1","2","3","1","2","1","5","1","598911150104510464","熊","576","","","","","","","","","","","","","","","","","","","","","","","","","","","","","","","","","","","","","","","","","",""
"428","<p style=""color:rgb(150, 250, 100); font-size: 35px;"">自己的</p>","e","categorize-html","12","76389","0.0-6.0-0.0-2.0-1.1","4","4","4","4","3","4","4","4","4","4","5","5","5","5","5","5","5","5","5","5","1","1","1","1","1","1","1","1","1","0","0","0","1","0","0","0","0","1","1","1","0","0","0","0","5","1","1","1","2","3","1","2","1","5","1","598911150104510464","熊","576","","","","","","","","","","","","","","","","","","","true","1","1","ability","428","self","自己的","","","","","","","","","","","","","","","","",""
"null","","null","html-keyboard-response","13","76641","0.0-6.0-0.0-2.0-0.2","4","4","4","4","3","4","4","4","4","4","5","5","5","5","5","5","5","5","5","5","1","1","1","1","1","1","1","1","1","0","0","0","1","0","0","0","0","1","1","1","0","0","0","0","5","1","1","1","2","3","1","2","1","5","1","598911150104510464","熊","576","","","","","","","","","","","","","","","","","","","","","","","","","","","","","","","","","","","","","","","","","",""
"396","<p style=""color:rgb(150, 250, 100); font-size: 35px;"">他人的</p>","i","categorize-html","14","77038","0.0-6.0-0.0-2.0-1.2","4","4","4","4","3","4","4","4","4","4","5","5","5","5","5","5","5","5","5","5","1","1","1","1","1","1","1","1","1","0","0","0","1","0","0","0","0","1","1","1","0","0","0","0","5","1","1","1","2","3","1","2","1","5","1","598911150104510464","熊","576","","","","","","","","","","","","","","","","","","","true","1","1","ability","396","other","他人的","","","","","","","","","","","","","","","","",""
"null","","null","html-keyboard-response","15","77288","0.0-6.0-0.0-2.0-0.3","4","4","4","4","3","4","4","4","4","4","5","5","5","5","5","5","5","5","5","5","1","1","1","1","1","1","1","1","1","0","0","0","1","0","0","0","0","1","1","1","0","0","0","0","5","1","1","1","2","3","1","2","1","5","1","598911150104510464","熊","576","","","","","","","","","","","","","","","","","","","","","","","","","","","","","","","","","","","","","","","","","",""
"460","<p style=""color:rgb(150, 250, 100); font-size: 35px;"">我的</p>","e","categorize-html","16","77750","0.0-6.0-0.0-2.0-1.3","4","4","4","4","3","4","4","4","4","4","5","5","5","5","5","5","5","5","5","5","1","1","1","1","1","1","1","1","1","0","0","0","1","0","0","0","0","1","1","1","0","0","0","0","5","1","1","1","2","3","1","2","1","5","1","598911150104510464","熊","576","","","","","","","","","","","","","","","","","","","true","1","1","ability","460","self","我的","","","","","","","","","","","","","","","","",""
"null","","null","html-keyboard-response","17","78002","0.0-6.0-0.0-2.0-0.4","4","4","4","4","3","4","4","4","4","4","5","5","5","5","5","5","5","5","5","5","1","1","1","1","1","1","1","1","1","0","0","0","1","0","0","0","0","1","1","1","0","0","0","0","5","1","1","1","2","3","1","2","1","5","1","598911150104510464","熊","576","","","","","","","","","","","","","","","","","","","","","","","","","","","","","","","","","","","","","","","","","",""
"427","<p style=""color:rgb(150, 250, 100); font-size: 35px;"">我</p>","e","categorize-html","18","78430","0.0-6.0-0.0-2.0-1.4","4","4","4","4","3","4","4","4","4","4","5","5","5","5","5","5","5","5","5","5","1","1","1","1","1","1","1","1","1","0","0","0","1","0","0","0","0","1","1","1","0","0","0","0","5","1","1","1","2","3","1","2","1","5","1","598911150104510464","熊","576","","","","","","","","","","","","","","","","","","","true","1","1","ability","427","self","我","","","","","","","","","","","","","","","","",""
"null","","null","html-keyboard-response","19","78681","0.0-6.0-0.0-2.0-0.5","4","4","4","4","3","4","4","4","4","4","5","5","5","5","5","5","5","5","5","5","1","1","1","1","1","1","1","1","1","0","0","0","1","0","0","0","0","1","1","1","0","0","0","0","5","1","1","1","2","3","1","2","1","5","1","598911150104510464","熊","576","","","","","","","","","","","","","","","","","","","","","","","","","","","","","","","","","","","","","","","","","",""
"516","<p style=""color:rgb(150, 250, 100); font-size: 35px;"">本人</p>","e","categorize-html","20","79198","0.0-6.0-0.0-2.0-1.5","4","4","4","4","3","4","4","4","4","4","5","5","5","5","5","5","5","5","5","5","1","1","1","1","1","1","1","1","1","0","0","0","1","0","0","0","0","1","1","1","0","0","0","0","5","1","1","1","2","3","1","2","1","5","1","598911150104510464","熊","576","","","","","","","","","","","","","","","","","","","true","1","1","ability","516","self","本人","","","","","","","","","","","","","","","","",""
"null","","null","html-keyboard-response","21","79450","0.0-6.0-0.0-2.0-0.6","4","4","4","4","3","4","4","4","4","4","5","5","5","5","5","5","5","5","5","5","1","1","1","1","1","1","1","1","1","0","0","0","1","0","0","0","0","1","1","1","0","0","0","0","5","1","1","1","2","3","1","2","1","5","1","598911150104510464","熊","576","","","","","","","","","","","","","","","","","","","","","","","","","","","","","","","","","","","","","","","","","",""
"531","<p style=""color:rgb(150, 250, 100); font-size: 35px;"">他</p>","i","categorize-html","22","79981","0.0-6.0-0.0-2.0-1.6","4","4","4","4","3","4","4","4","4","4","5","5","5","5","5","5","5","5","5","5","1","1","1","1","1","1","1","1","1","0","0","0","1","0","0","0","0","1","1","1","0","0","0","0","5","1","1","1","2","3","1","2","1","5","1","598911150104510464","熊","576","","","","","","","","","","","","","","","","","","","true","1","1","ability","531","other","他","","","","","","","","","","","","","","","","",""
"null","","null","html-keyboard-response","23","80233","0.0-6.0-0.0-2.0-0.7","4","4","4","4","3","4","4","4","4","4","5","5","5","5","5","5","5","5","5","5","1","1","1","1","1","1","1","1","1","0","0","0","1","0","0","0","0","1","1","1","0","0","0","0","5","1","1","1","2","3","1","2","1","5","1","598911150104510464","熊","576","","","","","","","","","","","","","","","","","","","","","","","","","","","","","","","","","","","","","","","","","",""
"420","<p style=""color:rgb(150, 250, 100); font-size: 35px;"">他人</p>","i","categorize-html","24","80653","0.0-6.0-0.0-2.0-1.7","4","4","4","4","3","4","4","4","4","4","5","5","5","5","5","5","5","5","5","5","1","1","1","1","1","1","1","1","1","0","0","0","1","0","0","0","0","1","1","1","0","0","0","0","5","1","1","1","2","3","1","2","1","5","1","598911150104510464","熊","576","","","","","","","","","","","","","","","","","","","true","1","1","ability","420","other","他人","","","","","","","","","","","","","","","","",""
"null","","null","html-keyboard-response","25","80905","0.0-6.0-0.0-2.0-0.8","4","4","4","4","3","4","4","4","4","4","5","5","5","5","5","5","5","5","5","5","1","1","1","1","1","1","1","1","1","0","0","0","1","0","0","0","0","1","1","1","0","0","0","0","5","1","1","1","2","3","1","2","1","5","1","598911150104510464","熊","576","","","","","","","","","","","","","","","","","","","","","","","","","","","","","","","","","","","","","","","","","",""
"444","<p style=""color:rgb(150, 250, 100); font-size: 35px;"">别人</p>","i","categorize-html","26","81350","0.0-6.0-0.0-2.0-1.8","4","4","4","4","3","4","4","4","4","4","5","5","5","5","5","5","5","5","5","5","1","1","1","1","1","1","1","1","1","0","0","0","1","0","0","0","0","1","1","1","0","0","0","0","5","1","1","1","2","3","1","2","1","5","1","598911150104510464","熊","576","","","","","","","","","","","","","","","","","","","true","1","1","ability","444","other","别人","","","","","","","","","","","","","","","","",""
"null","","null","html-keyboard-response","27","81601","0.0-6.0-0.0-2.0-0.9","4","4","4","4","3","4","4","4","4","4","5","5","5","5","5","5","5","5","5","5","1","1","1","1","1","1","1","1","1","0","0","0","1","0","0","0","0","1","1","1","0","0","0","0","5","1","1","1","2","3","1","2","1","5","1","598911150104510464","熊","576","","","","","","","","","","","","","","","","","","","","","","","","","","","","","","","","","","","","","","","","","",""
"525","<p style=""color:rgb(150, 250, 100); font-size: 35px;"">他的</p>","i","categorize-html","28","82127","0.0-6.0-0.0-2.0-1.9","4","4","4","4","3","4","4","4","4","4","5","5","5","5","5","5","5","5","5","5","1","1","1","1","1","1","1","1","1","0","0","0","1","0","0","0","0","1","1","1","0","0","0","0","5","1","1","1","2","3","1","2","1","5","1","598911150104510464","熊","576","","","","","","","","","","","","","","","","","","","true","1","1","ability","525","other","他的","","","","","","","","","","","","","","","","",""
"null","","null","html-keyboard-response","29","82378","0.0-6.0-0.0-2.0-0.10","4","4","4","4","3","4","4","4","4","4","5","5","5","5","5","5","5","5","5","5","1","1","1","1","1","1","1","1","1","0","0","0","1","0","0","0","0","1","1","1","0","0","0","0","5","1","1","1","2","3","1","2","1","5","1","598911150104510464","熊","576","","","","","","","","","","","","","","","","","","","","","","","","","","","","","","","","","","","","","","","","","",""
"452","<p style=""color:rgb(150, 250, 100); font-size: 35px;"">别人的</p>","i","categorize-html","30","82831","0.0-6.0-0.0-2.0-1.10","4","4","4","4","3","4","4","4","4","4","5","5","5","5","5","5","5","5","5","5","1","1","1","1","1","1","1","1","1","0","0","0","1","0","0","0","0","1","1","1","0","0","0","0","5","1","1","1","2","3","1","2","1","5","1","598911150104510464","熊","576","","","","","","","","","","","","","","","","","","","true","1","1","ability","452","other","别人的","","","","","","","","","","","","","","","","",""
"null","","null","html-keyboard-response","31","83082","0.0-6.0-0.0-2.0-0.11","4","4","4","4","3","4","4","4","4","4","5","5","5","5","5","5","5","5","5","5","1","1","1","1","1","1","1","1","1","0","0","0","1","0","0","0","0","1","1","1","0","0","0","0","5","1","1","1","2","3","1","2","1","5","1","598911150104510464","熊","576","","","","","","","","","","","","","","","","","","","","","","","","","","","","","","","","","","","","","","","","","",""
"500","<p style=""color:rgb(150, 250, 100); font-size: 35px;"">本人的</p>","e","categorize-html","32","83583","0.0-6.0-0.0-2.0-1.11","4","4","4","4","3","4","4","4","4","4","5","5","5","5","5","5","5","5","5","5","1","1","1","1","1","1","1","1","1","0","0","0","1","0","0","0","0","1","1","1","0","0","0","0","5","1","1","1","2","3","1","2","1","5","1","598911150104510464","熊","576","","","","","","","","","","","","","","","","","","","true","1","1","ability","500","self","本人的","","","","","","","","","","","","","","","","",""
"805","
    <div class=""tag-bottom""><p>
    —— 任务2：对“积极”词和“消极”词分类 ——<p/>   
    <span style=""color:#78DCE8""><b>注意上方，类别标签和需要分类的词语都已经改变</b></span><p/>
    <span style=""color:#FFD866""><b>请根据上方标签的提示，尽可能正确并且快速地做出按键反应</b></span><p/>
    当按键错误时屏幕中会出现<span style=""color:red""> X </span>，需要按另一个键纠正才能继续<br/><p/>
    请把双手食指分别放在键盘的“E”键和“I”键上<p/>
    按<空格键>开始
    </p></div>"," ","html-keyboard-response","33","84389","0.0-6.0-0.0-3.0","4","4","4","4","3","4","4","4","4","4","5","5","5","5","5","5","5","5","5","5","1","1","1","1","1","1","1","1","1","0","0","0","1","0","0","0","0","1","1","1","0","0","0","0","5","1","1","1","2","3","1","2","1","5","1","598911150104510464","熊","576","","","","","","","","","","","","","","","","","","","","","","","","","","","","","","","","","","","","","","","","","",""
"null","","null","html-keyboard-response","34","84641","0.0-6.0-0.0-4.0-0.0","4","4","4","4","3","4","4","4","4","4","5","5","5","5","5","5","5","5","5","5","1","1","1","1","1","1","1","1","1","0","0","0","1","0","0","0","0","1","1","1","0","0","0","0","5","1","1","1","2","3","1","2","1","5","1","598911150104510464","熊","576","","","","","","","","","","","","","","","","","","","","","","","","","","","","","","","","","","","","","","","","","",""
"540","<p style=""color:white; font-size: 35px;"">拙笨</p>","i","categorize-html","35","85181","0.0-6.0-0.0-4.0-1.0","4","4","4","4","3","4","4","4","4","4","5","5","5","5","5","5","5","5","5","5","1","1","1","1","1","1","1","1","1","0","0","0","1","0","0","0","0","1","1","1","0","0","0","0","5","1","1","1","2","3","1","2","1","5","1","598911150104510464","熊","576","","","","","","","","","","","","","","","","","","","true","2","2","ability","540","negative","拙笨","","","","","","","","","","","","","","","","",""
"null","","null","html-keyboard-response","36","85433","0.0-6.0-0.0-4.0-0.1","4","4","4","4","3","4","4","4","4","4","5","5","5","5","5","5","5","5","5","5","1","1","1","1","1","1","1","1","1","0","0","0","1","0","0","0","0","1","1","1","0","0","0","0","5","1","1","1","2","3","1","2","1","5","1","598911150104510464","熊","576","","","","","","","","","","","","","","","","","","","","","","","","","","","","","","","","","","","","","","","","","",""
"612","<p style=""color:white; font-size: 35px;"">精干</p>","e","categorize-html","37","86045","0.0-6.0-0.0-4.0-1.1","4","4","4","4","3","4","4","4","4","4","5","5","5","5","5","5","5","5","5","5","1","1","1","1","1","1","1","1","1","0","0","0","1","0","0","0","0","1","1","1","0","0","0","0","5","1","1","1","2","3","1","2","1","5","1","598911150104510464","熊","576","","","","","","","","","","","","","","","","","","","true","2","2","ability","612","positive","精干","","","","","","","","","","","","","","","","",""
"null","","null","html-keyboard-response","38","86297","0.0-6.0-0.0-4.0-0.2","4","4","4","4","3","4","4","4","4","4","5","5","5","5","5","5","5","5","5","5","1","1","1","1","1","1","1","1","1","0","0","0","1","0","0","0","0","1","1","1","0","0","0","0","5","1","1","1","2","3","1","2","1","5","1","598911150104510464","熊","576","","","","","","","","","","","","","","","","","","","","","","","","","","","","","","","","","","","","","","","","","",""
"500","<p style=""color:white; font-size: 35px;"">全能</p>","e","categorize-html","39","86797","0.0-6.0-0.0-4.0-1.2","4","4","4","4","3","4","4","4","4","4","5","5","5","5","5","5","5","5","5","5","1","1","1","1","1","1","1","1","1","0","0","0","1","0","0","0","0","1","1","1","0","0","0","0","5","1","1","1","2","3","1","2","1","5","1","598911150104510464","熊","576","","","","","","","","","","","","","","","","","","","true","2","2","ability","500","positive","全能","","","","","","","","","","","","","","","","",""
"null","","null","html-keyboard-response","40","87048","0.0-6.0-0.0-4.0-0.3","4","4","4","4","3","4","4","4","4","4","5","5","5","5","5","5","5","5","5","5","1","1","1","1","1","1","1","1","1","0","0","0","1","0","0","0","0","1","1","1","0","0","0","0","5","1","1","1","2","3","1","2","1","5","1","598911150104510464","熊","576","","","","","","","","","","","","","","","","","","","","","","","","","","","","","","","","","","","","","","","","","",""
"757","<p style=""color:white; font-size: 35px;"">愚钝</p>","i","categorize-html","41","87805","0.0-6.0-0.0-4.0-1.3","4","4","4","4","3","4","4","4","4","4","5","5","5","5","5","5","5","5","5","5","1","1","1","1","1","1","1","1","1","0","0","0","1","0","0","0","0","1","1","1","0","0","0","0","5","1","1","1","2","3","1","2","1","5","1","598911150104510464","熊","576","","","","","","","","","","","","","","","","","","","true","2","2","ability","757","negative","愚钝","","","","","","","","","","","","","","","","",""
"null","","null","html-keyboard-response","42","88058","0.0-6.0-0.0-4.0-0.4","4","4","4","4","3","4","4","4","4","4","5","5","5","5","5","5","5","5","5","5","1","1","1","1","1","1","1","1","1","0","0","0","1","0","0","0","0","1","1","1","0","0","0","0","5","1","1","1","2","3","1","2","1","5","1","598911150104510464","熊","576","","","","","","","","","","","","","","","","","","","","","","","","","","","","","","","","","","","","","","","","","",""
"596","<p style=""color:white; font-size: 35px;"">能干</p>","e","categorize-html","43","88654","0.0-6.0-0.0-4.0-1.4","4","4","4","4","3","4","4","4","4","4","5","5","5","5","5","5","5","5","5","5","1","1","1","1","1","1","1","1","1","0","0","0","1","0","0","0","0","1","1","1","0","0","0","0","5","1","1","1","2","3","1","2","1","5","1","598911150104510464","熊","576","","","","","","","","","","","","","","","","","","","true","2","2","ability","596","positive","能干","","","","","","","","","","","","","","","","",""
"null","","null","html-keyboard-response","44","88905","0.0-6.0-0.0-4.0-0.5","4","4","4","4","3","4","4","4","4","4","5","5","5","5","5","5","5","5","5","5","1","1","1","1","1","1","1","1","1","0","0","0","1","0","0","0","0","1","1","1","0","0","0","0","5","1","1","1","2","3","1","2","1","5","1","598911150104510464","熊","576","","","","","","","","","","","","","","","","","","","","","","","","","","","","","","","","","","","","","","","","","",""
"476","<p style=""color:white; font-size: 35px;"">无能</p>","i","categorize-html","45","89382","0.0-6.0-0.0-4.0-1.5","4","4","4","4","3","4","4","4","4","4","5","5","5","5","5","5","5","5","5","5","1","1","1","1","1","1","1","1","1","0","0","0","1","0","0","0","0","1","1","1","0","0","0","0","5","1","1","1","2","3","1","2","1","5","1","598911150104510464","熊","576","","","","","","","","","","","","","","","","","","","true","2","2","ability","476","negative","无能","","","","","","","","","","","","","","","","",""
"null","","null","html-keyboard-response","46","89633","0.0-6.0-0.0-4.0-0.6","4","4","4","4","3","4","4","4","4","4","5","5","5","5","5","5","5","5","5","5","1","1","1","1","1","1","1","1","1","0","0","0","1","0","0","0","0","1","1","1","0","0","0","0","5","1","1","1","2","3","1","2","1","5","1","598911150104510464","熊","576","","","","","","","","","","","","","","","","","","","","","","","","","","","","","","","","","","","","","","","","","",""
"492","<p style=""color:white; font-size: 35px;"">蠢笨</p>","i","categorize-html","47","90125","0.0-6.0-0.0-4.0-1.6","4","4","4","4","3","4","4","4","4","4","5","5","5","5","5","5","5","5","5","5","1","1","1","1","1","1","1","1","1","0","0","0","1","0","0","0","0","1","1","1","0","0","0","0","5","1","1","1","2","3","1","2","1","5","1","598911150104510464","熊","576","","","","","","","","","","","","","","","","","","","true","2","2","ability","492","negative","蠢笨","","","","","","","","","","","","","","","","",""
"null","","null","html-keyboard-response","48","90377","0.0-6.0-0.0-4.0-0.7","4","4","4","4","3","4","4","4","4","4","5","5","5","5","5","5","5","5","5","5","1","1","1","1","1","1","1","1","1","0","0","0","1","0","0","0","0","1","1","1","0","0","0","0","5","1","1","1","2","3","1","2","1","5","1","598911150104510464","熊","576","","","","","","","","","","","","","","","","","","","","","","","","","","","","","","","","","","","","","","","","","",""
"428","<p style=""color:white; font-size: 35px;"">低能</p>","i","categorize-html","49","90805","0.0-6.0-0.0-4.0-1.7","4","4","4","4","3","4","4","4","4","4","5","5","5","5","5","5","5","5","5","5","1","1","1","1","1","1","1","1","1","0","0","0","1","0","0","0","0","1","1","1","0","0","0","0","5","1","1","1","2","3","1","2","1","5","1","598911150104510464","熊","576","","","","","","","","","","","","","","","","","","","true","2","2","ability","428","negative","低能","","","","","","","","","","","","","","","","",""
"null","","null","html-keyboard-response","50","91056","0.0-6.0-0.0-4.0-0.8","4","4","4","4","3","4","4","4","4","4","5","5","5","5","5","5","5","5","5","5","1","1","1","1","1","1","1","1","1","0","0","0","1","0","0","0","0","1","1","1","0","0","0","0","5","1","1","1","2","3","1","2","1","5","1","598911150104510464","熊","576","","","","","","","","","","","","","","","","","","","","","","","","","","","","","","","","","","","","","","","","","",""
"509","<p style=""color:white; font-size: 35px;"">全才</p>","e","categorize-html","51","91565","0.0-6.0-0.0-4.0-1.8","4","4","4","4","3","4","4","4","4","4","5","5","5","5","5","5","5","5","5","5","1","1","1","1","1","1","1","1","1","0","0","0","1","0","0","0","0","1","1","1","0","0","0","0","5","1","1","1","2","3","1","2","1","5","1","598911150104510464","熊","576","","","","","","","","","","","","","","","","","","","true","2","2","ability","509","positive","全才","","","","","","","","","","","","","","","","",""
"null","","null","html-keyboard-response","52","91817","0.0-6.0-0.0-4.0-0.9","4","4","4","4","3","4","4","4","4","4","5","5","5","5","5","5","5","5","5","5","1","1","1","1","1","1","1","1","1","0","0","0","1","0","0","0","0","1","1","1","0","0","0","0","5","1","1","1","2","3","1","2","1","5","1","598911150104510464","熊","576","","","","","","","","","","","","","","","","","","","","","","","","","","","","","","","","","","","","","","","","","",""
"380","<p style=""color:white; font-size: 35px;"">天才</p>","e","categorize-html","53","92198","0.0-6.0-0.0-4.0-1.9","4","4","4","4","3","4","4","4","4","4","5","5","5","5","5","5","5","5","5","5","1","1","1","1","1","1","1","1","1","0","0","0","1","0","0","0","0","1","1","1","0","0","0","0","5","1","1","1","2","3","1","2","1","5","1","598911150104510464","熊","576","","","","","","","","","","","","","","","","","","","true","2","2","ability","380","positive","天才","","","","","","","","","","","","","","","","",""
"null","","null","html-keyboard-response","54","92450","0.0-6.0-0.0-4.0-0.10","4","4","4","4","3","4","4","4","4","4","5","5","5","5","5","5","5","5","5","5","1","1","1","1","1","1","1","1","1","0","0","0","1","0","0","0","0","1","1","1","0","0","0","0","5","1","1","1","2","3","1","2","1","5","1","598911150104510464","熊","576","","","","","","","","","","","","","","","","","","","","","","","","","","","","","","","","","","","","","","","","","",""
"387","<p style=""color:white; font-size: 35px;"">高效</p>","i","categorize-html","55","93037","0.0-6.0-0.0-4.0-1.10","4","4","4","4","3","4","4","4","4","4","5","5","5","5","5","5","5","5","5","5","1","1","1","1","1","1","1","1","1","0","0","0","1","0","0","0","0","1","1","1","0","0","0","0","5","1","1","1","2","3","1","2","1","5","1","598911150104510464","熊","576","","","","","","","","","","","","","","","","","","","false","2","2","ability","387","positive","高效","","","","","","","","","","","","","","","","",""
"null","","null","html-keyboard-response","56","93289","0.0-6.0-0.0-4.0-0.11","4","4","4","4","3","4","4","4","4","4","5","5","5","5","5","5","5","5","5","5","1","1","1","1","1","1","1","1","1","0","0","0","1","0","0","0","0","1","1","1","0","0","0","0","5","1","1","1","2","3","1","2","1","5","1","598911150104510464","熊","576","","","","","","","","","","","","","","","","","","","","","","","","","","","","","","","","","","","","","","","","","",""
"540","<p style=""color:white; font-size: 35px;"">废物</p>","i","categorize-html","57","93830","0.0-6.0-0.0-4.0-1.11","4","4","4","4","3","4","4","4","4","4","5","5","5","5","5","5","5","5","5","5","1","1","1","1","1","1","1","1","1","0","0","0","1","0","0","0","0","1","1","1","0","0","0","0","5","1","1","1","2","3","1","2","1","5","1","598911150104510464","熊","576","","","","","","","","","","","","","","","","","","","true","2","2","ability","540","negative","废物","","","","","","","","","","","","","","","","",""
"54305","
    <div class=""tag-bottom""><p>
    —— 任务3：对“自我/积极”词和“他人/消极”词分类 ——<p/>
    <span style=""color:#78DCE8""><b>注意上方，之前的四类词语将混合在一起交替呈现</b></span><p/>
    <span style=""color:#FFD866""><b>请根据上方标签的提示，尽可能正确并且快速地做出按键反应</b></span><p/>
    当按键错误时屏幕中会出现<span style=""color:red""> X </span>，需要按另一个键纠正才能继续<br/><p/>
    请把双手食指分别放在键盘的“E”键和“I”键上<p/>
    按<空格键>开始
    </p></div>"," ","html-keyboard-response","58","148135","0.0-6.0-0.0-5.0","4","4","4","4","3","4","4","4","4","4","5","5","5","5","5","5","5","5","5","5","1","1","1","1","1","1","1","1","1","0","0","0","1","0","0","0","0","1","1","1","0","0","0","0","5","1","1","1","2","3","1","2","1","5","1","598911150104510464","熊","576","","","","","","","","","","","","","","","","","","","","","","","","","","","","","","","","","","","","","","","","","",""
"null","","null","html-keyboard-response","59","148387","0.0-6.0-0.0-6.0-0.0","4","4","4","4","3","4","4","4","4","4","5","5","5","5","5","5","5","5","5","5","1","1","1","1","1","1","1","1","1","0","0","0","1","0","0","0","0","1","1","1","0","0","0","0","5","1","1","1","2","3","1","2","1","5","1","598911150104510464","熊","576","","","","","","","","","","","","","","","","","","","","","","","","","","","","","","","","","","","","","","","","","",""
"626","<p style=""color:rgb(150, 250, 100); font-size: 35px;"">他</p>","e","categorize-html","60","149285","0.0-6.0-0.0-6.0-1.0","4","4","4","4","3","4","4","4","4","4","5","5","5","5","5","5","5","5","5","5","1","1","1","1","1","1","1","1","1","0","0","0","1","0","0","0","0","1","1","1","0","0","0","0","5","1","1","1","2","3","1","2","1","5","1","598911150104510464","熊","576","","","","","","","","","","","","","","","","","","","false","3","3","ability","1088.8","other","他","","","","","","","","","","","","","","","","",""
"null","","null","html-keyboard-response","61","149537","0.0-6.0-0.0-6.0-0.1","4","4","4","4","3","4","4","4","4","4","5","5","5","5","5","5","5","5","5","5","1","1","1","1","1","1","1","1","1","0","0","0","1","0","0","0","0","1","1","1","0","0","0","0","5","1","1","1","2","3","1","2","1","5","1","598911150104510464","熊","576","","","","","","","","","","","","","","","","","","","","","","","","","","","","","","","","","","","","","","","","","",""
"556","<p style=""color:white; font-size: 35px;"">能干</p>","e","categorize-html","62","150094","0.0-6.0-0.0-6.0-1.1","4","4","4","4","3","4","4","4","4","4","5","5","5","5","5","5","5","5","5","5","1","1","1","1","1","1","1","1","1","0","0","0","1","0","0","0","0","1","1","1","0","0","0","0","5","1","1","1","2","3","1","2","1","5","1","598911150104510464","熊","576","","","","","","","","","","","","","","","","","","","true","3","3","ability","556","positive","能干","","","","","","","","","","","","","","","","",""
"null","","null","html-keyboard-response","63","150345","0.0-6.0-0.0-6.0-0.2","4","4","4","4","3","4","4","4","4","4","5","5","5","5","5","5","5","5","5","5","1","1","1","1","1","1","1","1","1","0","0","0","1","0","0","0","0","1","1","1","0","0","0","0","5","1","1","1","2","3","1","2","1","5","1","598911150104510464","熊","576","","","","","","","","","","","","","","","","","","","","","","","","","","","","","","","","","","","","","","","","","",""
"565","<p style=""color:rgb(150, 250, 100); font-size: 35px;"">自己</p>","e","categorize-html","64","150911","0.0-6.0-0.0-6.0-1.2","4","4","4","4","3","4","4","4","4","4","5","5","5","5","5","5","5","5","5","5","1","1","1","1","1","1","1","1","1","0","0","0","1","0","0","0","0","1","1","1","0","0","0","0","5","1","1","1","2","3","1","2","1","5","1","598911150104510464","熊","576","","","","","","","","","","","","","","","","","","","true","3","3","ability","565","self","自己","","","","","","","","","","","","","","","","",""
"null","","null","html-keyboard-response","65","151162","0.0-6.0-0.0-6.0-0.3","4","4","4","4","3","4","4","4","4","4","5","5","5","5","5","5","5","5","5","5","1","1","1","1","1","1","1","1","1","0","0","0","1","0","0","0","0","1","1","1","0","0","0","0","5","1","1","1","2","3","1","2","1","5","1","598911150104510464","熊","576","","","","","","","","","","","","","","","","","","","","","","","","","","","","","","","","","","","","","","","","","",""
"499","<p style=""color:white; font-size: 35px;"">愚钝</p>","i","categorize-html","66","151662","0.0-6.0-0.0-6.0-1.3","4","4","4","4","3","4","4","4","4","4","5","5","5","5","5","5","5","5","5","5","1","1","1","1","1","1","1","1","1","0","0","0","1","0","0","0","0","1","1","1","0","0","0","0","5","1","1","1","2","3","1","2","1","5","1","598911150104510464","熊","576","","","","","","","","","","","","","","","","","","","true","3","3","ability","499","negative","愚钝","","","","","","","","","","","","","","","","",""
"null","","null","html-keyboard-response","67","151914","0.0-6.0-0.0-6.0-0.4","4","4","4","4","3","4","4","4","4","4","5","5","5","5","5","5","5","5","5","5","1","1","1","1","1","1","1","1","1","0","0","0","1","0","0","0","0","1","1","1","0","0","0","0","5","1","1","1","2","3","1","2","1","5","1","598911150104510464","熊","576","","","","","","","","","","","","","","","","","","","","","","","","","","","","","","","","","","","","","","","","","",""
"421","<p style=""color:rgb(150, 250, 100); font-size: 35px;"">别人</p>","i","categorize-html","68","152335","0.0-6.0-0.0-6.0-1.4","4","4","4","4","3","4","4","4","4","4","5","5","5","5","5","5","5","5","5","5","1","1","1","1","1","1","1","1","1","0","0","0","1","0","0","0","0","1","1","1","0","0","0","0","5","1","1","1","2","3","1","2","1","5","1","598911150104510464","熊","576","","","","","","","","","","","","","","","","","","","true","3","3","ability","421","other","别人","","","","","","","","","","","","","","","","",""
"null","","null","html-keyboard-response","69","152587","0.0-6.0-0.0-6.0-0.5","4","4","4","4","3","4","4","4","4","4","5","5","5","5","5","5","5","5","5","5","1","1","1","1","1","1","1","1","1","0","0","0","1","0","0","0","0","1","1","1","0","0","0","0","5","1","1","1","2","3","1","2","1","5","1","598911150104510464","熊","576","","","","","","","","","","","","","","","","","","","","","","","","","","","","","","","","","","","","","","","","","",""
"434","<p style=""color:white; font-size: 35px;"">废物</p>","i","categorize-html","70","153022","0.0-6.0-0.0-6.0-1.5","4","4","4","4","3","4","4","4","4","4","5","5","5","5","5","5","5","5","5","5","1","1","1","1","1","1","1","1","1","0","0","0","1","0","0","0","0","1","1","1","0","0","0","0","5","1","1","1","2","3","1","2","1","5","1","598911150104510464","熊","576","","","","","","","","","","","","","","","","","","","true","3","3","ability","434","negative","废物","","","","","","","","","","","","","","","","",""
"null","","null","html-keyboard-response","71","153272","0.0-6.0-0.0-6.0-0.6","4","4","4","4","3","4","4","4","4","4","5","5","5","5","5","5","5","5","5","5","1","1","1","1","1","1","1","1","1","0","0","0","1","0","0","0","0","1","1","1","0","0","0","0","5","1","1","1","2","3","1","2","1","5","1","598911150104510464","熊","576","","","","","","","","","","","","","","","","","","","","","","","","","","","","","","","","","","","","","","","","","",""
"397","<p style=""color:rgb(150, 250, 100); font-size: 35px;"">本人</p>","e","categorize-html","72","153670","0.0-6.0-0.0-6.0-1.6","4","4","4","4","3","4","4","4","4","4","5","5","5","5","5","5","5","5","5","5","1","1","1","1","1","1","1","1","1","0","0","0","1","0","0","0","0","1","1","1","0","0","0","0","5","1","1","1","2","3","1","2","1","5","1","598911150104510464","熊","576","","","","","","","","","","","","","","","","","","","true","3","3","ability","397","self","本人","","","","","","","","","","","","","","","","",""
"null","","null","html-keyboard-response","73","153922","0.0-6.0-0.0-6.0-0.7","4","4","4","4","3","4","4","4","4","4","5","5","5","5","5","5","5","5","5","5","1","1","1","1","1","1","1","1","1","0","0","0","1","0","0","0","0","1","1","1","0","0","0","0","5","1","1","1","2","3","1","2","1","5","1","598911150104510464","熊","576","","","","","","","","","","","","","","","","","","","","","","","","","","","","","","","","","","","","","","","","","",""
"363","<p style=""color:white; font-size: 35px;"">全才</p>","e","categorize-html","74","154286","0.0-6.0-0.0-6.0-1.7","4","4","4","4","3","4","4","4","4","4","5","5","5","5","5","5","5","5","5","5","1","1","1","1","1","1","1","1","1","0","0","0","1","0","0","0","0","1","1","1","0","0","0","0","5","1","1","1","2","3","1","2","1","5","1","598911150104510464","熊","576","","","","","","","","","","","","","","","","","","","true","3","3","ability","363","positive","全才","","","","","","","","","","","","","","","","",""
"null","","null","html-keyboard-response","75","154537","0.0-6.0-0.0-6.0-0.8","4","4","4","4","3","4","4","4","4","4","5","5","5","5","5","5","5","5","5","5","1","1","1","1","1","1","1","1","1","0","0","0","1","0","0","0","0","1","1","1","0","0","0","0","5","1","1","1","2","3","1","2","1","5","1","598911150104510464","熊","576","","","","","","","","","","","","","","","","","","","","","","","","","","","","","","","","","","","","","","","","","",""
"436","<p style=""color:rgb(150, 250, 100); font-size: 35px;"">他人</p>","i","categorize-html","76","154974","0.0-6.0-0.0-6.0-1.8","4","4","4","4","3","4","4","4","4","4","5","5","5","5","5","5","5","5","5","5","1","1","1","1","1","1","1","1","1","0","0","0","1","0","0","0","0","1","1","1","0","0","0","0","5","1","1","1","2","3","1","2","1","5","1","598911150104510464","熊","576","","","","","","","","","","","","","","","","","","","true","3","3","ability","436","other","他人","","","","","","","","","","","","","","","","",""
"null","","null","html-keyboard-response","77","155226","0.0-6.0-0.0-6.0-0.9","4","4","4","4","3","4","4","4","4","4","5","5","5","5","5","5","5","5","5","5","1","1","1","1","1","1","1","1","1","0","0","0","1","0","0","0","0","1","1","1","0","0","0","0","5","1","1","1","2","3","1","2","1","5","1","598911150104510464","熊","576","","","","","","","","","","","","","","","","","","","","","","","","","","","","","","","","","","","","","","","","","",""
"395","<p style=""color:white; font-size: 35px;"">全能</p>","i","categorize-html","78","155783","0.0-6.0-0.0-6.0-1.9","4","4","4","4","3","4","4","4","4","4","5","5","5","5","5","5","5","5","5","5","1","1","1","1","1","1","1","1","1","0","0","0","1","0","0","0","0","1","1","1","0","0","0","0","5","1","1","1","2","3","1","2","1","5","1","598911150104510464","熊","576","","","","","","","","","","","","","","","","","","","false","3","3","ability","1088.8","positive","全能","","","","","","","","","","","","","","","","",""
"null","","null","html-keyboard-response","79","156034","0.0-6.0-0.0-6.0-0.10","4","4","4","4","3","4","4","4","4","4","5","5","5","5","5","5","5","5","5","5","1","1","1","1","1","1","1","1","1","0","0","0","1","0","0","0","0","1","1","1","0","0","0","0","5","1","1","1","2","3","1","2","1","5","1","598911150104510464","熊","576","","","","","","","","","","","","","","","","","","","","","","","","","","","","","","","","","","","","","","","","","",""
"491","<p style=""color:rgb(150, 250, 100); font-size: 35px;"">我的</p>","i","categorize-html","80","156757","0.0-6.0-0.0-6.0-1.10","4","4","4","4","3","4","4","4","4","4","5","5","5","5","5","5","5","5","5","5","1","1","1","1","1","1","1","1","1","0","0","0","1","0","0","0","0","1","1","1","0","0","0","0","5","1","1","1","2","3","1","2","1","5","1","598911150104510464","熊","576","","","","","","","","","","","","","","","","","","","false","3","3","ability","1088.8","self","我的","","","","","","","","","","","","","","","","",""
"null","","null","html-keyboard-response","81","157009","0.0-6.0-0.0-6.0-0.11","4","4","4","4","3","4","4","4","4","4","5","5","5","5","5","5","5","5","5","5","1","1","1","1","1","1","1","1","1","0","0","0","1","0","0","0","0","1","1","1","0","0","0","0","5","1","1","1","2","3","1","2","1","5","1","598911150104510464","熊","576","","","","","","","","","","","","","","","","","","","","","","","","","","","","","","","","","","","","","","","","","",""
"500","<p style=""color:white; font-size: 35px;"">蠢笨</p>","i","categorize-html","82","157510","0.0-6.0-0.0-6.0-1.11","4","4","4","4","3","4","4","4","4","4","5","5","5","5","5","5","5","5","5","5","1","1","1","1","1","1","1","1","1","0","0","0","1","0","0","0","0","1","1","1","0","0","0","0","5","1","1","1","2","3","1","2","1","5","1","598911150104510464","熊","576","","","","","","","","","","","","","","","","","","","true","3","3","ability","500","negative","蠢笨","","","","","","","","","","","","","","","","",""
"null","","null","html-keyboard-response","83","157761","0.0-6.0-0.0-6.0-0.12","4","4","4","4","3","4","4","4","4","4","5","5","5","5","5","5","5","5","5","5","1","1","1","1","1","1","1","1","1","0","0","0","1","0","0","0","0","1","1","1","0","0","0","0","5","1","1","1","2","3","1","2","1","5","1","598911150104510464","熊","576","","","","","","","","","","","","","","","","","","","","","","","","","","","","","","","","","","","","","","","","","",""
"476","<p style=""color:rgb(150, 250, 100); font-size: 35px;"">我</p>","e","categorize-html","84","158238","0.0-6.0-0.0-6.0-1.12","4","4","4","4","3","4","4","4","4","4","5","5","5","5","5","5","5","5","5","5","1","1","1","1","1","1","1","1","1","0","0","0","1","0","0","0","0","1","1","1","0","0","0","0","5","1","1","1","2","3","1","2","1","5","1","598911150104510464","熊","576","","","","","","","","","","","","","","","","","","","true","3","3","ability","476","self","我","","","","","","","","","","","","","","","","",""
"null","","null","html-keyboard-response","85","158489","0.0-6.0-0.0-6.0-0.13","4","4","4","4","3","4","4","4","4","4","5","5","5","5","5","5","5","5","5","5","1","1","1","1","1","1","1","1","1","0","0","0","1","0","0","0","0","1","1","1","0","0","0","0","5","1","1","1","2","3","1","2","1","5","1","598911150104510464","熊","576","","","","","","","","","","","","","","","","","","","","","","","","","","","","","","","","","","","","","","","","","",""
"548","<p style=""color:white; font-size: 35px;"">拙笨</p>","e","categorize-html","86","159237","0.0-6.0-0.0-6.0-1.13","4","4","4","4","3","4","4","4","4","4","5","5","5","5","5","5","5","5","5","5","1","1","1","1","1","1","1","1","1","0","0","0","1","0","0","0","0","1","1","1","0","0","0","0","5","1","1","1","2","3","1","2","1","5","1","598911150104510464","熊","576","","","","","","","","","","","","","","","","","","","false","3","3","ability","1088.8","negative","拙笨","","","","","","","","","","","","","","","","",""
"null","","null","html-keyboard-response","87","159488","0.0-6.0-0.0-6.0-0.14","4","4","4","4","3","4","4","4","4","4","5","5","5","5","5","5","5","5","5","5","1","1","1","1","1","1","1","1","1","0","0","0","1","0","0","0","0","1","1","1","0","0","0","0","5","1","1","1","2","3","1","2","1","5","1","598911150104510464","熊","576","","","","","","","","","","","","","","","","","","","","","","","","","","","","","","","","","","","","","","","","","",""
"653","<p style=""color:rgb(150, 250, 100); font-size: 35px;"">他的</p>","i","categorize-html","88","160142","0.0-6.0-0.0-6.0-1.14","4","4","4","4","3","4","4","4","4","4","5","5","5","5","5","5","5","5","5","5","1","1","1","1","1","1","1","1","1","0","0","0","1","0","0","0","0","1","1","1","0","0","0","0","5","1","1","1","2","3","1","2","1","5","1","598911150104510464","熊","576","","","","","","","","","","","","","","","","","","","true","3","3","ability","653","other","他的","","","","","","","","","","","","","","","","",""
"null","","null","html-keyboard-response","89","160393","0.0-6.0-0.0-6.0-0.15","4","4","4","4","3","4","4","4","4","4","5","5","5","5","5","5","5","5","5","5","1","1","1","1","1","1","1","1","1","0","0","0","1","0","0","0","0","1","1","1","0","0","0","0","5","1","1","1","2","3","1","2","1","5","1","598911150104510464","熊","576","","","","","","","","","","","","","","","","","","","","","","","","","","","","","","","","","","","","","","","","","",""
"500","<p style=""color:white; font-size: 35px;"">天才</p>","e","categorize-html","90","160893","0.0-6.0-0.0-6.0-1.15","4","4","4","4","3","4","4","4","4","4","5","5","5","5","5","5","5","5","5","5","1","1","1","1","1","1","1","1","1","0","0","0","1","0","0","0","0","1","1","1","0","0","0","0","5","1","1","1","2","3","1","2","1","5","1","598911150104510464","熊","576","","","","","","","","","","","","","","","","","","","true","3","3","ability","500","positive","天才","","","","","","","","","","","","","","","","",""
"null","","null","html-keyboard-response","91","161144","0.0-6.0-0.0-6.0-0.16","4","4","4","4","3","4","4","4","4","4","5","5","5","5","5","5","5","5","5","5","1","1","1","1","1","1","1","1","1","0","0","0","1","0","0","0","0","1","1","1","0","0","0","0","5","1","1","1","2","3","1","2","1","5","1","598911150104510464","熊","576","","","","","","","","","","","","","","","","","","","","","","","","","","","","","","","","","","","","","","","","","",""
"445","<p style=""color:rgb(150, 250, 100); font-size: 35px;"">本人的</p>","e","categorize-html","92","161589","0.0-6.0-0.0-6.0-1.16","4","4","4","4","3","4","4","4","4","4","5","5","5","5","5","5","5","5","5","5","1","1","1","1","1","1","1","1","1","0","0","0","1","0","0","0","0","1","1","1","0","0","0","0","5","1","1","1","2","3","1","2","1","5","1","598911150104510464","熊","576","","","","","","","","","","","","","","","","","","","true","3","3","ability","445","self","本人的","","","","","","","","","","","","","","","","",""
"null","","null","html-keyboard-response","93","161841","0.0-6.0-0.0-6.0-0.17","4","4","4","4","3","4","4","4","4","4","5","5","5","5","5","5","5","5","5","5","1","1","1","1","1","1","1","1","1","0","0","0","1","0","0","0","0","1","1","1","0","0","0","0","5","1","1","1","2","3","1","2","1","5","1","598911150104510464","熊","576","","","","","","","","","","","","","","","","","","","","","","","","","","","","","","","","","","","","","","","","","",""
"476","<p style=""color:white; font-size: 35px;"">精干</p>","e","categorize-html","94","162318","0.0-6.0-0.0-6.0-1.17","4","4","4","4","3","4","4","4","4","4","5","5","5","5","5","5","5","5","5","5","1","1","1","1","1","1","1","1","1","0","0","0","1","0","0","0","0","1","1","1","0","0","0","0","5","1","1","1","2","3","1","2","1","5","1","598911150104510464","熊","576","","","","","","","","","","","","","","","","","","","true","3","3","ability","476","positive","精干","","","","","","","","","","","","","","","","",""
"null","","null","html-keyboard-response","95","162568","0.0-6.0-0.0-6.0-0.18","4","4","4","4","3","4","4","4","4","4","5","5","5","5","5","5","5","5","5","5","1","1","1","1","1","1","1","1","1","0","0","0","1","0","0","0","0","1","1","1","0","0","0","0","5","1","1","1","2","3","1","2","1","5","1","598911150104510464","熊","576","","","","","","","","","","","","","","","","","","","","","","","","","","","","","","","","","","","","","","","","","",""
"413","<p style=""color:rgb(150, 250, 100); font-size: 35px;"">他人的</p>","i","categorize-html","96","162981","0.0-6.0-0.0-6.0-1.18","4","4","4","4","3","4","4","4","4","4","5","5","5","5","5","5","5","5","5","5","1","1","1","1","1","1","1","1","1","0","0","0","1","0","0","0","0","1","1","1","0","0","0","0","5","1","1","1","2","3","1","2","1","5","1","598911150104510464","熊","576","","","","","","","","","","","","","","","","","","","true","3","3","ability","413","other","他人的","","","","","","","","","","","","","","","","",""
"null","","null","html-keyboard-response","97","163233","0.0-6.0-0.0-6.0-0.19","4","4","4","4","3","4","4","4","4","4","5","5","5","5","5","5","5","5","5","5","1","1","1","1","1","1","1","1","1","0","0","0","1","0","0","0","0","1","1","1","0","0","0","0","5","1","1","1","2","3","1","2","1","5","1","598911150104510464","熊","576","","","","","","","","","","","","","","","","","","","","","","","","","","","","","","","","","","","","","","","","","",""
"396","<p style=""color:white; font-size: 35px;"">无能</p>","i","categorize-html","98","163630","0.0-6.0-0.0-6.0-1.19","4","4","4","4","3","4","4","4","4","4","5","5","5","5","5","5","5","5","5","5","1","1","1","1","1","1","1","1","1","0","0","0","1","0","0","0","0","1","1","1","0","0","0","0","5","1","1","1","2","3","1","2","1","5","1","598911150104510464","熊","576","","","","","","","","","","","","","","","","","","","true","3","3","ability","396","negative","无能","","","","","","","","","","","","","","","","",""
"null","","null","html-keyboard-response","99","163880","0.0-6.0-0.0-6.0-0.20","4","4","4","4","3","4","4","4","4","4","5","5","5","5","5","5","5","5","5","5","1","1","1","1","1","1","1","1","1","0","0","0","1","0","0","0","0","1","1","1","0","0","0","0","5","1","1","1","2","3","1","2","1","5","1","598911150104510464","熊","576","","","","","","","","","","","","","","","","","","","","","","","","","","","","","","","","","","","","","","","","","",""
"549","<p style=""color:rgb(150, 250, 100); font-size: 35px;"">自己的</p>","e","categorize-html","100","164430","0.0-6.0-0.0-6.0-1.20","4","4","4","4","3","4","4","4","4","4","5","5","5","5","5","5","5","5","5","5","1","1","1","1","1","1","1","1","1","0","0","0","1","0","0","0","0","1","1","1","0","0","0","0","5","1","1","1","2","3","1","2","1","5","1","598911150104510464","熊","576","","","","","","","","","","","","","","","","","","","true","3","3","ability","549","self","自己的","","","","","","","","","","","","","","","","",""
"null","","null","html-keyboard-response","101","164683","0.0-6.0-0.0-6.0-0.21","4","4","4","4","3","4","4","4","4","4","5","5","5","5","5","5","5","5","5","5","1","1","1","1","1","1","1","1","1","0","0","0","1","0","0","0","0","1","1","1","0","0","0","0","5","1","1","1","2","3","1","2","1","5","1","598911150104510464","熊","576","","","","","","","","","","","","","","","","","","","","","","","","","","","","","","","","","","","","","","","","","",""
"618","<p style=""color:white; font-size: 35px;"">低能</p>","i","categorize-html","102","165302","0.0-6.0-0.0-6.0-1.21","4","4","4","4","3","4","4","4","4","4","5","5","5","5","5","5","5","5","5","5","1","1","1","1","1","1","1","1","1","0","0","0","1","0","0","0","0","1","1","1","0","0","0","0","5","1","1","1","2","3","1","2","1","5","1","598911150104510464","熊","576","","","","","","","","","","","","","","","","","","","true","3","3","ability","618","negative","低能","","","","","","","","","","","","","","","","",""
"null","","null","html-keyboard-response","103","165553","0.0-6.0-0.0-6.0-0.22","4","4","4","4","3","4","4","4","4","4","5","5","5","5","5","5","5","5","5","5","1","1","1","1","1","1","1","1","1","0","0","0","1","0","0","0","0","1","1","1","0","0","0","0","5","1","1","1","2","3","1","2","1","5","1","598911150104510464","熊","576","","","","","","","","","","","","","","","","","","","","","","","","","","","","","","","","","","","","","","","","","",""
"636","<p style=""color:rgb(150, 250, 100); font-size: 35px;"">别人的</p>","i","categorize-html","104","166189","0.0-6.0-0.0-6.0-1.22","4","4","4","4","3","4","4","4","4","4","5","5","5","5","5","5","5","5","5","5","1","1","1","1","1","1","1","1","1","0","0","0","1","0","0","0","0","1","1","1","0","0","0","0","5","1","1","1","2","3","1","2","1","5","1","598911150104510464","熊","576","","","","","","","","","","","","","","","","","","","true","3","3","ability","636","other","别人的","","","","","","","","","","","","","","","","",""
"null","","null","html-keyboard-response","105","166441","0.0-6.0-0.0-6.0-0.23","4","4","4","4","3","4","4","4","4","4","5","5","5","5","5","5","5","5","5","5","1","1","1","1","1","1","1","1","1","0","0","0","1","0","0","0","0","1","1","1","0","0","0","0","5","1","1","1","2","3","1","2","1","5","1","598911150104510464","熊","576","","","","","","","","","","","","","","","","","","","","","","","","","","","","","","","","","","","","","","","","","",""
"443","<p style=""color:white; font-size: 35px;"">高效</p>","e","categorize-html","106","166886","0.0-6.0-0.0-6.0-1.23","4","4","4","4","3","4","4","4","4","4","5","5","5","5","5","5","5","5","5","5","1","1","1","1","1","1","1","1","1","0","0","0","1","0","0","0","0","1","1","1","0","0","0","0","5","1","1","1","2","3","1","2","1","5","1","598911150104510464","熊","576","","","","","","","","","","","","","","","","","","","true","3","3","ability","443","positive","高效","","","","","","","","","","","","","","","","",""
"807","
    <div class=""tag-bottom""><p>
    —— 任务4：对“自我/积极”词和“他人/消极”词分类 ——<p/>
    <span style=""color:#78DCE8""><b>与刚才的任务完全相同，请再次对这四类词语分类</b></span><p/>
    <span style=""color:#FFD866""><b>请根据上方标签的提示，尽可能正确并且快速地做出按键反应</b></span><p/>
    当按键错误时屏幕中会出现<span style=""color:red""> X </span>，需要按另一个键纠正才能继续<br/><p/>
    请把双手食指分别放在键盘的“E”键和“I”键上<p/>
    按<空格键>开始
    </p></div>"," ","html-keyboard-response","107","167693","0.0-6.0-0.0-7.0","4","4","4","4","3","4","4","4","4","4","5","5","5","5","5","5","5","5","5","5","1","1","1","1","1","1","1","1","1","0","0","0","1","0","0","0","0","1","1","1","0","0","0","0","5","1","1","1","2","3","1","2","1","5","1","598911150104510464","熊","576","","","","","","","","","","","","","","","","","","","","","","","","","","","","","","","","","","","","","","","","","",""
"null","","null","html-keyboard-response","108","167946","0.0-6.0-0.0-8.0-0.0","4","4","4","4","3","4","4","4","4","4","5","5","5","5","5","5","5","5","5","5","1","1","1","1","1","1","1","1","1","0","0","0","1","0","0","0","0","1","1","1","0","0","0","0","5","1","1","1","2","3","1","2","1","5","1","598911150104510464","熊","576","","","","","","","","","","","","","","","","","","","","","","","","","","","","","","","","","","","","","","","","","",""
"547","<p style=""color:rgb(150, 250, 100); font-size: 35px;"">我</p>","e","categorize-html","109","168493","0.0-6.0-0.0-8.0-1.0","4","4","4","4","3","4","4","4","4","4","5","5","5","5","5","5","5","5","5","5","1","1","1","1","1","1","1","1","1","0","0","0","1","0","0","0","0","1","1","1","0","0","0","0","5","1","1","1","2","3","1","2","1","5","1","598911150104510464","熊","576","","","","","","","","","","","","","","","","","","","true","4","4","ability","547","self","我","","","","","","","","","","","","","","","","",""
"null","","null","html-keyboard-response","110","168745","0.0-6.0-0.0-8.0-0.1","4","4","4","4","3","4","4","4","4","4","5","5","5","5","5","5","5","5","5","5","1","1","1","1","1","1","1","1","1","0","0","0","1","0","0","0","0","1","1","1","0","0","0","0","5","1","1","1","2","3","1","2","1","5","1","598911150104510464","熊","576","","","","","","","","","","","","","","","","","","","","","","","","","","","","","","","","","","","","","","","","","",""
"637","<p style=""color:white; font-size: 35px;"">愚钝</p>","i","categorize-html","111","169382","0.0-6.0-0.0-8.0-1.1","4","4","4","4","3","4","4","4","4","4","5","5","5","5","5","5","5","5","5","5","1","1","1","1","1","1","1","1","1","0","0","0","1","0","0","0","0","1","1","1","0","0","0","0","5","1","1","1","2","3","1","2","1","5","1","598911150104510464","熊","576","","","","","","","","","","","","","","","","","","","true","4","4","ability","637","negative","愚钝","","","","","","","","","","","","","","","","",""
"null","","null","html-keyboard-response","112","169634","0.0-6.0-0.0-8.0-0.2","4","4","4","4","3","4","4","4","4","4","5","5","5","5","5","5","5","5","5","5","1","1","1","1","1","1","1","1","1","0","0","0","1","0","0","0","0","1","1","1","0","0","0","0","5","1","1","1","2","3","1","2","1","5","1","598911150104510464","熊","576","","","","","","","","","","","","","","","","","","","","","","","","","","","","","","","","","","","","","","","","","",""
"443","<p style=""color:rgb(150, 250, 100); font-size: 35px;"">别人的</p>","i","categorize-html","113","170078","0.0-6.0-0.0-8.0-1.2","4","4","4","4","3","4","4","4","4","4","5","5","5","5","5","5","5","5","5","5","1","1","1","1","1","1","1","1","1","0","0","0","1","0","0","0","0","1","1","1","0","0","0","0","5","1","1","1","2","3","1","2","1","5","1","598911150104510464","熊","576","","","","","","","","","","","","","","","","","","","true","4","4","ability","443","other","别人的","","","","","","","","","","","","","","","","",""
"null","","null","html-keyboard-response","114","170329","0.0-6.0-0.0-8.0-0.3","4","4","4","4","3","4","4","4","4","4","5","5","5","5","5","5","5","5","5","5","1","1","1","1","1","1","1","1","1","0","0","0","1","0","0","0","0","1","1","1","0","0","0","0","5","1","1","1","2","3","1","2","1","5","1","598911150104510464","熊","576","","","","","","","","","","","","","","","","","","","","","","","","","","","","","","","","","","","","","","","","","",""
"468","<p style=""color:white; font-size: 35px;"">高效</p>","e","categorize-html","115","170798","0.0-6.0-0.0-8.0-1.3","4","4","4","4","3","4","4","4","4","4","5","5","5","5","5","5","5","5","5","5","1","1","1","1","1","1","1","1","1","0","0","0","1","0","0","0","0","1","1","1","0","0","0","0","5","1","1","1","2","3","1","2","1","5","1","598911150104510464","熊","576","","","","","","","","","","","","","","","","","","","true","4","4","ability","468","positive","高效","","","","","","","","","","","","","","","","",""
"null","","null","html-keyboard-response","116","171049","0.0-6.0-0.0-8.0-0.4","4","4","4","4","3","4","4","4","4","4","5","5","5","5","5","5","5","5","5","5","1","1","1","1","1","1","1","1","1","0","0","0","1","0","0","0","0","1","1","1","0","0","0","0","5","1","1","1","2","3","1","2","1","5","1","598911150104510464","熊","576","","","","","","","","","","","","","","","","","","","","","","","","","","","","","","","","","","","","","","","","","",""
"724","<p style=""color:rgb(150, 250, 100); font-size: 35px;"">别人</p>","i","categorize-html","117","171773","0.0-6.0-0.0-8.0-1.4","4","4","4","4","3","4","4","4","4","4","5","5","5","5","5","5","5","5","5","5","1","1","1","1","1","1","1","1","1","0","0","0","1","0","0","0","0","1","1","1","0","0","0","0","5","1","1","1","2","3","1","2","1","5","1","598911150104510464","熊","576","","","","","","","","","","","","","","","","","","","true","4","4","ability","724","other","别人","","","","","","","","","","","","","","","","",""
"null","","null","html-keyboard-response","118","172025","0.0-6.0-0.0-8.0-0.5","4","4","4","4","3","4","4","4","4","4","5","5","5","5","5","5","5","5","5","5","1","1","1","1","1","1","1","1","1","0","0","0","1","0","0","0","0","1","1","1","0","0","0","0","5","1","1","1","2","3","1","2","1","5","1","598911150104510464","熊","576","","","","","","","","","","","","","","","","","","","","","","","","","","","","","","","","","","","","","","","","","",""
"708","<p style=""color:white; font-size: 35px;"">高效</p>","e","categorize-html","119","172733","0.0-6.0-0.0-8.0-1.5","4","4","4","4","3","4","4","4","4","4","5","5","5","5","5","5","5","5","5","5","1","1","1","1","1","1","1","1","1","0","0","0","1","0","0","0","0","1","1","1","0","0","0","0","5","1","1","1","2","3","1","2","1","5","1","598911150104510464","熊","576","","","","","","","","","","","","","","","","","","","true","4","4","ability","708","positive","高效","","","","","","","","","","","","","","","","",""
"null","","null","html-keyboard-response","120","172985","0.0-6.0-0.0-8.0-0.6","4","4","4","4","3","4","4","4","4","4","5","5","5","5","5","5","5","5","5","5","1","1","1","1","1","1","1","1","1","0","0","0","1","0","0","0","0","1","1","1","0","0","0","0","5","1","1","1","2","3","1","2","1","5","1","598911150104510464","熊","576","","","","","","","","","","","","","","","","","","","","","","","","","","","","","","","","","","","","","","","","","",""
"597","<p style=""color:rgb(150, 250, 100); font-size: 35px;"">我的</p>","e","categorize-html","121","173582","0.0-6.0-0.0-8.0-1.6","4","4","4","4","3","4","4","4","4","4","5","5","5","5","5","5","5","5","5","5","1","1","1","1","1","1","1","1","1","0","0","0","1","0","0","0","0","1","1","1","0","0","0","0","5","1","1","1","2","3","1","2","1","5","1","598911150104510464","熊","576","","","","","","","","","","","","","","","","","","","true","4","4","ability","597","self","我的","","","","","","","","","","","","","","","","",""
"null","","null","html-keyboard-response","122","173832","0.0-6.0-0.0-8.0-0.7","4","4","4","4","3","4","4","4","4","4","5","5","5","5","5","5","5","5","5","5","1","1","1","1","1","1","1","1","1","0","0","0","1","0","0","0","0","1","1","1","0","0","0","0","5","1","1","1","2","3","1","2","1","5","1","598911150104510464","熊","576","","","","","","","","","","","","","","","","","","","","","","","","","","","","","","","","","","","","","","","","","",""
"989","<p style=""color:white; font-size: 35px;"">拙笨</p>","i","categorize-html","123","174821","0.0-6.0-0.0-8.0-1.7","4","4","4","4","3","4","4","4","4","4","5","5","5","5","5","5","5","5","5","5","1","1","1","1","1","1","1","1","1","0","0","0","1","0","0","0","0","1","1","1","0","0","0","0","5","1","1","1","2","3","1","2","1","5","1","598911150104510464","熊","576","","","","","","","","","","","","","","","","","","","true","4","4","ability","989","negative","拙笨","","","","","","","","","","","","","","","","",""
"null","","null","html-keyboard-response","124","175073","0.0-6.0-0.0-8.0-0.8","4","4","4","4","3","4","4","4","4","4","5","5","5","5","5","5","5","5","5","5","1","1","1","1","1","1","1","1","1","0","0","0","1","0","0","0","0","1","1","1","0","0","0","0","5","1","1","1","2","3","1","2","1","5","1","598911150104510464","熊","576","","","","","","","","","","","","","","","","","","","","","","","","","","","","","","","","","","","","","","","","","",""
"1229","<p style=""color:rgb(150, 250, 100); font-size: 35px;"">我</p>","e","categorize-html","125","176303","0.0-6.0-0.0-8.0-1.8","4","4","4","4","3","4","4","4","4","4","5","5","5","5","5","5","5","5","5","5","1","1","1","1","1","1","1","1","1","0","0","0","1","0","0","0","0","1","1","1","0","0","0","0","5","1","1","1","2","3","1","2","1","5","1","598911150104510464","熊","576","","","","","","","","","","","","","","","","","","","true","4","4","ability","1229","self","我","","","","","","","","","","","","","","","","",""
"null","","null","html-keyboard-response","126","176555","0.0-6.0-0.0-8.0-0.9","4","4","4","4","3","4","4","4","4","4","5","5","5","5","5","5","5","5","5","5","1","1","1","1","1","1","1","1","1","0","0","0","1","0","0","0","0","1","1","1","0","0","0","0","5","1","1","1","2","3","1","2","1","5","1","598911150104510464","熊","576","","","","","","","","","","","","","","","","","","","","","","","","","","","","","","","","","","","","","","","","","",""
"1594","<p style=""color:white; font-size: 35px;"">精干</p>","e","categorize-html","127","178150","0.0-6.0-0.0-8.0-1.9","4","4","4","4","3","4","4","4","4","4","5","5","5","5","5","5","5","5","5","5","1","1","1","1","1","1","1","1","1","0","0","0","1","0","0","0","0","1","1","1","0","0","0","0","5","1","1","1","2","3","1","2","1","5","1","598911150104510464","熊","576","","","","","","","","","","","","","","","","","","","true","4","4","ability","1594","positive","精干","","","","","","","","","","","","","","","","",""
"null","","null","html-keyboard-response","128","178401","0.0-6.0-0.0-8.0-0.10","4","4","4","4","3","4","4","4","4","4","5","5","5","5","5","5","5","5","5","5","1","1","1","1","1","1","1","1","1","0","0","0","1","0","0","0","0","1","1","1","0","0","0","0","5","1","1","1","2","3","1","2","1","5","1","598911150104510464","熊","576","","","","","","","","","","","","","","","","","","","","","","","","","","","","","","","","","","","","","","","","","",""
"612","<p style=""color:rgb(150, 250, 100); font-size: 35px;"">他的</p>","i","categorize-html","129","179014","0.0-6.0-0.0-8.0-1.10","4","4","4","4","3","4","4","4","4","4","5","5","5","5","5","5","5","5","5","5","1","1","1","1","1","1","1","1","1","0","0","0","1","0","0","0","0","1","1","1","0","0","0","0","5","1","1","1","2","3","1","2","1","5","1","598911150104510464","熊","576","","","","","","","","","","","","","","","","","","","true","4","4","ability","612","other","他的","","","","","","","","","","","","","","","","",""
"null","","null","html-keyboard-response","130","179265","0.0-6.0-0.0-8.0-0.11","4","4","4","4","3","4","4","4","4","4","5","5","5","5","5","5","5","5","5","5","1","1","1","1","1","1","1","1","1","0","0","0","1","0","0","0","0","1","1","1","0","0","0","0","5","1","1","1","2","3","1","2","1","5","1","598911150104510464","熊","576","","","","","","","","","","","","","","","","","","","","","","","","","","","","","","","","","","","","","","","","","",""
"1420","<p style=""color:white; font-size: 35px;"">蠢笨</p>","i","categorize-html","131","180685","0.0-6.0-0.0-8.0-1.11","4","4","4","4","3","4","4","4","4","4","5","5","5","5","5","5","5","5","5","5","1","1","1","1","1","1","1","1","1","0","0","0","1","0","0","0","0","1","1","1","0","0","0","0","5","1","1","1","2","3","1","2","1","5","1","598911150104510464","熊","576","","","","","","","","","","","","","","","","","","","true","4","4","ability","1420","negative","蠢笨","","","","","","","","","","","","","","","","",""
"null","","null","html-keyboard-response","132","180936","0.0-6.0-0.0-8.0-0.12","4","4","4","4","3","4","4","4","4","4","5","5","5","5","5","5","5","5","5","5","1","1","1","1","1","1","1","1","1","0","0","0","1","0","0","0","0","1","1","1","0","0","0","0","5","1","1","1","2","3","1","2","1","5","1","598911150104510464","熊","576","","","","","","","","","","","","","","","","","","","","","","","","","","","","","","","","","","","","","","","","","",""
"844","<p style=""color:rgb(150, 250, 100); font-size: 35px;"">自己的</p>","e","categorize-html","133","181781","0.0-6.0-0.0-8.0-1.12","4","4","4","4","3","4","4","4","4","4","5","5","5","5","5","5","5","5","5","5","1","1","1","1","1","1","1","1","1","0","0","0","1","0","0","0","0","1","1","1","0","0","0","0","5","1","1","1","2","3","1","2","1","5","1","598911150104510464","熊","576","","","","","","","","","","","","","","","","","","","true","4","4","ability","844","self","自己的","","","","","","","","","","","","","","","","",""
"null","","null","html-keyboard-response","134","182033","0.0-6.0-0.0-8.0-0.13","4","4","4","4","3","4","4","4","4","4","5","5","5","5","5","5","5","5","5","5","1","1","1","1","1","1","1","1","1","0","0","0","1","0","0","0","0","1","1","1","0","0","0","0","5","1","1","1","2","3","1","2","1","5","1","598911150104510464","熊","576","","","","","","","","","","","","","","","","","","","","","","","","","","","","","","","","","","","","","","","","","",""
"604","<p style=""color:white; font-size: 35px;"">全能</p>","e","categorize-html","135","182637","0.0-6.0-0.0-8.0-1.13","4","4","4","4","3","4","4","4","4","4","5","5","5","5","5","5","5","5","5","5","1","1","1","1","1","1","1","1","1","0","0","0","1","0","0","0","0","1","1","1","0","0","0","0","5","1","1","1","2","3","1","2","1","5","1","598911150104510464","熊","576","","","","","","","","","","","","","","","","","","","true","4","4","ability","604","positive","全能","","","","","","","","","","","","","","","","",""
"null","","null","html-keyboard-response","136","182890","0.0-6.0-0.0-8.0-0.14","4","4","4","4","3","4","4","4","4","4","5","5","5","5","5","5","5","5","5","5","1","1","1","1","1","1","1","1","1","0","0","0","1","0","0","0","0","1","1","1","0","0","0","0","5","1","1","1","2","3","1","2","1","5","1","598911150104510464","熊","576","","","","","","","","","","","","","","","","","","","","","","","","","","","","","","","","","","","","","","","","","",""
"588","<p style=""color:rgb(150, 250, 100); font-size: 35px;"">别人</p>","i","categorize-html","137","183478","0.0-6.0-0.0-8.0-1.14","4","4","4","4","3","4","4","4","4","4","5","5","5","5","5","5","5","5","5","5","1","1","1","1","1","1","1","1","1","0","0","0","1","0","0","0","0","1","1","1","0","0","0","0","5","1","1","1","2","3","1","2","1","5","1","598911150104510464","熊","576","","","","","","","","","","","","","","","","","","","true","4","4","ability","588","other","别人","","","","","","","","","","","","","","","","",""
"null","","null","html-keyboard-response","138","183729","0.0-6.0-0.0-8.0-0.15","4","4","4","4","3","4","4","4","4","4","5","5","5","5","5","5","5","5","5","5","1","1","1","1","1","1","1","1","1","0","0","0","1","0","0","0","0","1","1","1","0","0","0","0","5","1","1","1","2","3","1","2","1","5","1","598911150104510464","熊","576","","","","","","","","","","","","","","","","","","","","","","","","","","","","","","","","","","","","","","","","","",""
"604","<p style=""color:white; font-size: 35px;"">废物</p>","i","categorize-html","139","184333","0.0-6.0-0.0-8.0-1.15","4","4","4","4","3","4","4","4","4","4","5","5","5","5","5","5","5","5","5","5","1","1","1","1","1","1","1","1","1","0","0","0","1","0","0","0","0","1","1","1","0","0","0","0","5","1","1","1","2","3","1","2","1","5","1","598911150104510464","熊","576","","","","","","","","","","","","","","","","","","","true","4","4","ability","604","negative","废物","","","","","","","","","","","","","","","","",""
"null","","null","html-keyboard-response","140","184585","0.0-6.0-0.0-8.0-0.16","4","4","4","4","3","4","4","4","4","4","5","5","5","5","5","5","5","5","5","5","1","1","1","1","1","1","1","1","1","0","0","0","1","0","0","0","0","1","1","1","0","0","0","0","5","1","1","1","2","3","1","2","1","5","1","598911150104510464","熊","576","","","","","","","","","","","","","","","","","","","","","","","","","","","","","","","","","","","","","","","","","",""
"556","<p style=""color:rgb(150, 250, 100); font-size: 35px;"">本人的</p>","e","categorize-html","141","185141","0.0-6.0-0.0-8.0-1.16","4","4","4","4","3","4","4","4","4","4","5","5","5","5","5","5","5","5","5","5","1","1","1","1","1","1","1","1","1","0","0","0","1","0","0","0","0","1","1","1","0","0","0","0","5","1","1","1","2","3","1","2","1","5","1","598911150104510464","熊","576","","","","","","","","","","","","","","","","","","","true","4","4","ability","556","self","本人的","","","","","","","","","","","","","","","","",""
"null","","null","html-keyboard-response","142","185393","0.0-6.0-0.0-8.0-0.17","4","4","4","4","3","4","4","4","4","4","5","5","5","5","5","5","5","5","5","5","1","1","1","1","1","1","1","1","1","0","0","0","1","0","0","0","0","1","1","1","0","0","0","0","5","1","1","1","2","3","1","2","1","5","1","598911150104510464","熊","576","","","","","","","","","","","","","","","","","","","","","","","","","","","","","","","","","","","","","","","","","",""
"620","<p style=""color:white; font-size: 35px;"">无能</p>","i","categorize-html","143","186013","0.0-6.0-0.0-8.0-1.17","4","4","4","4","3","4","4","4","4","4","5","5","5","5","5","5","5","5","5","5","1","1","1","1","1","1","1","1","1","0","0","0","1","0","0","0","0","1","1","1","0","0","0","0","5","1","1","1","2","3","1","2","1","5","1","598911150104510464","熊","576","","","","","","","","","","","","","","","","","","","true","4","4","ability","620","negative","无能","","","","","","","","","","","","","","","","",""
"null","","null","html-keyboard-response","144","186264","0.0-6.0-0.0-8.0-0.18","4","4","4","4","3","4","4","4","4","4","5","5","5","5","5","5","5","5","5","5","1","1","1","1","1","1","1","1","1","0","0","0","1","0","0","0","0","1","1","1","0","0","0","0","5","1","1","1","2","3","1","2","1","5","1","598911150104510464","熊","576","","","","","","","","","","","","","","","","","","","","","","","","","","","","","","","","","","","","","","","","","",""
"549","<p style=""color:rgb(150, 250, 100); font-size: 35px;"">他人的</p>","i","categorize-html","145","186814","0.0-6.0-0.0-8.0-1.18","4","4","4","4","3","4","4","4","4","4","5","5","5","5","5","5","5","5","5","5","1","1","1","1","1","1","1","1","1","0","0","0","1","0","0","0","0","1","1","1","0","0","0","0","5","1","1","1","2","3","1","2","1","5","1","598911150104510464","熊","576","","","","","","","","","","","","","","","","","","","true","4","4","ability","549","other","他人的","","","","","","","","","","","","","","","","",""
"null","","null","html-keyboard-response","146","187065","0.0-6.0-0.0-8.0-0.19","4","4","4","4","3","4","4","4","4","4","5","5","5","5","5","5","5","5","5","5","1","1","1","1","1","1","1","1","1","0","0","0","1","0","0","0","0","1","1","1","0","0","0","0","5","1","1","1","2","3","1","2","1","5","1","598911150104510464","熊","576","","","","","","","","","","","","","","","","","","","","","","","","","","","","","","","","","","","","","","","","","",""
"1283","<p style=""color:white; font-size: 35px;"">精干</p>","e","categorize-html","147","188350","0.0-6.0-0.0-8.0-1.19","4","4","4","4","3","4","4","4","4","4","5","5","5","5","5","5","5","5","5","5","1","1","1","1","1","1","1","1","1","0","0","0","1","0","0","0","0","1","1","1","0","0","0","0","5","1","1","1","2","3","1","2","1","5","1","598911150104510464","熊","576","","","","","","","","","","","","","","","","","","","true","4","4","ability","1283","positive","精干","","","","","","","","","","","","","","","","",""
"null","","null","html-keyboard-response","148","188600","0.0-6.0-0.0-8.0-0.20","4","4","4","4","3","4","4","4","4","4","5","5","5","5","5","5","5","5","5","5","1","1","1","1","1","1","1","1","1","0","0","0","1","0","0","0","0","1","1","1","0","0","0","0","5","1","1","1","2","3","1","2","1","5","1","598911150104510464","熊","576","","","","","","","","","","","","","","","","","","","","","","","","","","","","","","","","","","","","","","","","","",""
"951","<p style=""color:rgb(150, 250, 100); font-size: 35px;"">他</p>","i","categorize-html","149","189552","0.0-6.0-0.0-8.0-1.20","4","4","4","4","3","4","4","4","4","4","5","5","5","5","5","5","5","5","5","5","1","1","1","1","1","1","1","1","1","0","0","0","1","0","0","0","0","1","1","1","0","0","0","0","5","1","1","1","2","3","1","2","1","5","1","598911150104510464","熊","576","","","","","","","","","","","","","","","","","","","true","4","4","ability","951","other","他","","","","","","","","","","","","","","","","",""
"null","","null","html-keyboard-response","150","189803","0.0-6.0-0.0-8.0-0.21","4","4","4","4","3","4","4","4","4","4","5","5","5","5","5","5","5","5","5","5","1","1","1","1","1","1","1","1","1","0","0","0","1","0","0","0","0","1","1","1","0","0","0","0","5","1","1","1","2","3","1","2","1","5","1","598911150104510464","熊","576","","","","","","","","","","","","","","","","","","","","","","","","","","","","","","","","","","","","","","","","","",""
"962","<p style=""color:white; font-size: 35px;"">愚钝</p>","e","categorize-html","151","191165","0.0-6.0-0.0-8.0-1.21","4","4","4","4","3","4","4","4","4","4","5","5","5","5","5","5","5","5","5","5","1","1","1","1","1","1","1","1","1","0","0","0","1","0","0","0","0","1","1","1","0","0","0","0","5","1","1","1","2","3","1","2","1","5","1","598911150104510464","熊","576","","","","","","","","","","","","","","","","","","","false","4","4","ability","1419.0851063829787","negative","愚钝","","","","","","","","","","","","","","","","",""
"null","","null","html-keyboard-response","152","191417","0.0-6.0-0.0-8.0-0.22","4","4","4","4","3","4","4","4","4","4","5","5","5","5","5","5","5","5","5","5","1","1","1","1","1","1","1","1","1","0","0","0","1","0","0","0","0","1","1","1","0","0","0","0","5","1","1","1","2","3","1","2","1","5","1","598911150104510464","熊","576","","","","","","","","","","","","","","","","","","","","","","","","","","","","","","","","","","","","","","","","","",""
"956","<p style=""color:rgb(150, 250, 100); font-size: 35px;"">自己</p>","e","categorize-html","153","192373","0.0-6.0-0.0-8.0-1.22","4","4","4","4","3","4","4","4","4","4","5","5","5","5","5","5","5","5","5","5","1","1","1","1","1","1","1","1","1","0","0","0","1","0","0","0","0","1","1","1","0","0","0","0","5","1","1","1","2","3","1","2","1","5","1","598911150104510464","熊","576","","","","","","","","","","","","","","","","","","","true","4","4","ability","956","self","自己","","","","","","","","","","","","","","","","",""
"null","","null","html-keyboard-response","154","192624","0.0-6.0-0.0-8.0-0.23","4","4","4","4","3","4","4","4","4","4","5","5","5","5","5","5","5","5","5","5","1","1","1","1","1","1","1","1","1","0","0","0","1","0","0","0","0","1","1","1","0","0","0","0","5","1","1","1","2","3","1","2","1","5","1","598911150104510464","熊","576","","","","","","","","","","","","","","","","","","","","","","","","","","","","","","","","","","","","","","","","","",""
"565","<p style=""color:white; font-size: 35px;"">全能</p>","e","categorize-html","155","193190","0.0-6.0-0.0-8.0-1.23","4","4","4","4","3","4","4","4","4","4","5","5","5","5","5","5","5","5","5","5","1","1","1","1","1","1","1","1","1","0","0","0","1","0","0","0","0","1","1","1","0","0","0","0","5","1","1","1","2","3","1","2","1","5","1","598911150104510464","熊","576","","","","","","","","","","","","","","","","","","","true","4","4","ability","565","positive","全能","","","","","","","","","","","","","","","","",""
"null","","null","html-keyboard-response","156","193441","0.0-6.0-0.0-8.0-0.24","4","4","4","4","3","4","4","4","4","4","5","5","5","5","5","5","5","5","5","5","1","1","1","1","1","1","1","1","1","0","0","0","1","0","0","0","0","1","1","1","0","0","0","0","5","1","1","1","2","3","1","2","1","5","1","598911150104510464","熊","576","","","","","","","","","","","","","","","","","","","","","","","","","","","","","","","","","","","","","","","","","",""
"884","<p style=""color:rgb(150, 250, 100); font-size: 35px;"">自己的</p>","e","categorize-html","157","194326","0.0-6.0-0.0-8.0-1.24","4","4","4","4","3","4","4","4","4","4","5","5","5","5","5","5","5","5","5","5","1","1","1","1","1","1","1","1","1","0","0","0","1","0","0","0","0","1","1","1","0","0","0","0","5","1","1","1","2","3","1","2","1","5","1","598911150104510464","熊","576","","","","","","","","","","","","","","","","","","","true","4","4","ability","884","self","自己的","","","","","","","","","","","","","","","","",""
"null","","null","html-keyboard-response","158","194577","0.0-6.0-0.0-8.0-0.25","4","4","4","4","3","4","4","4","4","4","5","5","5","5","5","5","5","5","5","5","1","1","1","1","1","1","1","1","1","0","0","0","1","0","0","0","0","1","1","1","0","0","0","0","5","1","1","1","2","3","1","2","1","5","1","598911150104510464","熊","576","","","","","","","","","","","","","","","","","","","","","","","","","","","","","","","","","","","","","","","","","",""
"996","<p style=""color:white; font-size: 35px;"">能干</p>","e","categorize-html","159","195574","0.0-6.0-0.0-8.0-1.25","4","4","4","4","3","4","4","4","4","4","5","5","5","5","5","5","5","5","5","5","1","1","1","1","1","1","1","1","1","0","0","0","1","0","0","0","0","1","1","1","0","0","0","0","5","1","1","1","2","3","1","2","1","5","1","598911150104510464","熊","576","","","","","","","","","","","","","","","","","","","true","4","4","ability","996","positive","能干","","","","","","","","","","","","","","","","",""
"null","","null","html-keyboard-response","160","195825","0.0-6.0-0.0-8.0-0.26","4","4","4","4","3","4","4","4","4","4","5","5","5","5","5","5","5","5","5","5","1","1","1","1","1","1","1","1","1","0","0","0","1","0","0","0","0","1","1","1","0","0","0","0","5","1","1","1","2","3","1","2","1","5","1","598911150104510464","熊","576","","","","","","","","","","","","","","","","","","","","","","","","","","","","","","","","","","","","","","","","","",""
"900","<p style=""color:rgb(150, 250, 100); font-size: 35px;"">他人的</p>","i","categorize-html","161","196726","0.0-6.0-0.0-8.0-1.26","4","4","4","4","3","4","4","4","4","4","5","5","5","5","5","5","5","5","5","5","1","1","1","1","1","1","1","1","1","0","0","0","1","0","0","0","0","1","1","1","0","0","0","0","5","1","1","1","2","3","1","2","1","5","1","598911150104510464","熊","576","","","","","","","","","","","","","","","","","","","true","4","4","ability","900","other","他人的","","","","","","","","","","","","","","","","",""
"null","","null","html-keyboard-response","162","196978","0.0-6.0-0.0-8.0-0.27","4","4","4","4","3","4","4","4","4","4","5","5","5","5","5","5","5","5","5","5","1","1","1","1","1","1","1","1","1","0","0","0","1","0","0","0","0","1","1","1","0","0","0","0","5","1","1","1","2","3","1","2","1","5","1","598911150104510464","熊","576","","","","","","","","","","","","","","","","","","","","","","","","","","","","","","","","","","","","","","","","","",""
"563","<p style=""color:white; font-size: 35px;"">拙笨</p>","i","categorize-html","163","197542","0.0-6.0-0.0-8.0-1.27","4","4","4","4","3","4","4","4","4","4","5","5","5","5","5","5","5","5","5","5","1","1","1","1","1","1","1","1","1","0","0","0","1","0","0","0","0","1","1","1","0","0","0","0","5","1","1","1","2","3","1","2","1","5","1","598911150104510464","熊","576","","","","","","","","","","","","","","","","","","","true","4","4","ability","563","negative","拙笨","","","","","","","","","","","","","","","","",""
"null","","null","html-keyboard-response","164","197793","0.0-6.0-0.0-8.0-0.28","4","4","4","4","3","4","4","4","4","4","5","5","5","5","5","5","5","5","5","5","1","1","1","1","1","1","1","1","1","0","0","0","1","0","0","0","0","1","1","1","0","0","0","0","5","1","1","1","2","3","1","2","1","5","1","598911150104510464","熊","576","","","","","","","","","","","","","","","","","","","","","","","","","","","","","","","","","","","","","","","","","",""
"548","<p style=""color:rgb(150, 250, 100); font-size: 35px;"">本人</p>","e","categorize-html","165","198341","0.0-6.0-0.0-8.0-1.28","4","4","4","4","3","4","4","4","4","4","5","5","5","5","5","5","5","5","5","5","1","1","1","1","1","1","1","1","1","0","0","0","1","0","0","0","0","1","1","1","0","0","0","0","5","1","1","1","2","3","1","2","1","5","1","598911150104510464","熊","576","","","","","","","","","","","","","","","","","","","true","4","4","ability","548","self","本人","","","","","","","","","","","","","","","","",""
"null","","null","html-keyboard-response","166","198593","0.0-6.0-0.0-8.0-0.29","4","4","4","4","3","4","4","4","4","4","5","5","5","5","5","5","5","5","5","5","1","1","1","1","1","1","1","1","1","0","0","0","1","0","0","0","0","1","1","1","0","0","0","0","5","1","1","1","2","3","1","2","1","5","1","598911150104510464","熊","576","","","","","","","","","","","","","","","","","","","","","","","","","","","","","","","","","","","","","","","","","",""
"932","<p style=""color:white; font-size: 35px;"">低能</p>","i","categorize-html","167","199525","0.0-6.0-0.0-8.0-1.29","4","4","4","4","3","4","4","4","4","4","5","5","5","5","5","5","5","5","5","5","1","1","1","1","1","1","1","1","1","0","0","0","1","0","0","0","0","1","1","1","0","0","0","0","5","1","1","1","2","3","1","2","1","5","1","598911150104510464","熊","576","","","","","","","","","","","","","","","","","","","true","4","4","ability","932","negative","低能","","","","","","","","","","","","","","","","",""
"null","","null","html-keyboard-response","168","199777","0.0-6.0-0.0-8.0-0.30","4","4","4","4","3","4","4","4","4","4","5","5","5","5","5","5","5","5","5","5","1","1","1","1","1","1","1","1","1","0","0","0","1","0","0","0","0","1","1","1","0","0","0","0","5","1","1","1","2","3","1","2","1","5","1","598911150104510464","熊","576","","","","","","","","","","","","","","","","","","","","","","","","","","","","","","","","","","","","","","","","","",""
"500","<p style=""color:rgb(150, 250, 100); font-size: 35px;"">他人</p>","i","categorize-html","169","200278","0.0-6.0-0.0-8.0-1.30","4","4","4","4","3","4","4","4","4","4","5","5","5","5","5","5","5","5","5","5","1","1","1","1","1","1","1","1","1","0","0","0","1","0","0","0","0","1","1","1","0","0","0","0","5","1","1","1","2","3","1","2","1","5","1","598911150104510464","熊","576","","","","","","","","","","","","","","","","","","","true","4","4","ability","500","other","他人","","","","","","","","","","","","","","","","",""
"null","","null","html-keyboard-response","170","200529","0.0-6.0-0.0-8.0-0.31","4","4","4","4","3","4","4","4","4","4","5","5","5","5","5","5","5","5","5","5","1","1","1","1","1","1","1","1","1","0","0","0","1","0","0","0","0","1","1","1","0","0","0","0","5","1","1","1","2","3","1","2","1","5","1","598911150104510464","熊","576","","","","","","","","","","","","","","","","","","","","","","","","","","","","","","","","","","","","","","","","","",""
"492","<p style=""color:white; font-size: 35px;"">全才</p>","e","categorize-html","171","201022","0.0-6.0-0.0-8.0-1.31","4","4","4","4","3","4","4","4","4","4","5","5","5","5","5","5","5","5","5","5","1","1","1","1","1","1","1","1","1","0","0","0","1","0","0","0","0","1","1","1","0","0","0","0","5","1","1","1","2","3","1","2","1","5","1","598911150104510464","熊","576","","","","","","","","","","","","","","","","","","","true","4","4","ability","492","positive","全才","","","","","","","","","","","","","","","","",""
"null","","null","html-keyboard-response","172","201273","0.0-6.0-0.0-8.0-0.32","4","4","4","4","3","4","4","4","4","4","5","5","5","5","5","5","5","5","5","5","1","1","1","1","1","1","1","1","1","0","0","0","1","0","0","0","0","1","1","1","0","0","0","0","5","1","1","1","2","3","1","2","1","5","1","598911150104510464","熊","576","","","","","","","","","","","","","","","","","","","","","","","","","","","","","","","","","","","","","","","","","",""
"1051","<p style=""color:rgb(150, 250, 100); font-size: 35px;"">他</p>","i","categorize-html","173","202326","0.0-6.0-0.0-8.0-1.32","4","4","4","4","3","4","4","4","4","4","5","5","5","5","5","5","5","5","5","5","1","1","1","1","1","1","1","1","1","0","0","0","1","0","0","0","0","1","1","1","0","0","0","0","5","1","1","1","2","3","1","2","1","5","1","598911150104510464","熊","576","","","","","","","","","","","","","","","","","","","true","4","4","ability","1051","other","他","","","","","","","","","","","","","","","","",""
"null","","null","html-keyboard-response","174","202577","0.0-6.0-0.0-8.0-0.33","4","4","4","4","3","4","4","4","4","4","5","5","5","5","5","5","5","5","5","5","1","1","1","1","1","1","1","1","1","0","0","0","1","0","0","0","0","1","1","1","0","0","0","0","5","1","1","1","2","3","1","2","1","5","1","598911150104510464","熊","576","","","","","","","","","","","","","","","","","","","","","","","","","","","","","","","","","","","","","","","","","",""
"1180","<p style=""color:white; font-size: 35px;"">天才</p>","e","categorize-html","175","203757","0.0-6.0-0.0-8.0-1.33","4","4","4","4","3","4","4","4","4","4","5","5","5","5","5","5","5","5","5","5","1","1","1","1","1","1","1","1","1","0","0","0","1","0","0","0","0","1","1","1","0","0","0","0","5","1","1","1","2","3","1","2","1","5","1","598911150104510464","熊","576","","","","","","","","","","","","","","","","","","","true","4","4","ability","1180","positive","天才","","","","","","","","","","","","","","","","",""
"null","","null","html-keyboard-response","176","204008","0.0-6.0-0.0-8.0-0.34","4","4","4","4","3","4","4","4","4","4","5","5","5","5","5","5","5","5","5","5","1","1","1","1","1","1","1","1","1","0","0","0","1","0","0","0","0","1","1","1","0","0","0","0","5","1","1","1","2","3","1","2","1","5","1","598911150104510464","熊","576","","","","","","","","","","","","","","","","","","","","","","","","","","","","","","","","","","","","","","","","","",""
"918","<p style=""color:rgb(150, 250, 100); font-size: 35px;"">我的</p>","e","categorize-html","177","204928","0.0-6.0-0.0-8.0-1.34","4","4","4","4","3","4","4","4","4","4","5","5","5","5","5","5","5","5","5","5","1","1","1","1","1","1","1","1","1","0","0","0","1","0","0","0","0","1","1","1","0","0","0","0","5","1","1","1","2","3","1","2","1","5","1","598911150104510464","熊","576","","","","","","","","","","","","","","","","","","","true","4","4","ability","918","self","我的","","","","","","","","","","","","","","","","",""
"null","","null","html-keyboard-response","178","205179","0.0-6.0-0.0-8.0-0.35","4","4","4","4","3","4","4","4","4","4","5","5","5","5","5","5","5","5","5","5","1","1","1","1","1","1","1","1","1","0","0","0","1","0","0","0","0","1","1","1","0","0","0","0","5","1","1","1","2","3","1","2","1","5","1","598911150104510464","熊","576","","","","","","","","","","","","","","","","","","","","","","","","","","","","","","","","","","","","","","","","","",""
"578","<p style=""color:white; font-size: 35px;"">无能</p>","i","categorize-html","179","205757","0.0-6.0-0.0-8.0-1.35","4","4","4","4","3","4","4","4","4","4","5","5","5","5","5","5","5","5","5","5","1","1","1","1","1","1","1","1","1","0","0","0","1","0","0","0","0","1","1","1","0","0","0","0","5","1","1","1","2","3","1","2","1","5","1","598911150104510464","熊","576","","","","","","","","","","","","","","","","","","","true","4","4","ability","578","negative","无能","","","","","","","","","","","","","","","","",""
"null","","null","html-keyboard-response","180","206008","0.0-6.0-0.0-8.0-0.36","4","4","4","4","3","4","4","4","4","4","5","5","5","5","5","5","5","5","5","5","1","1","1","1","1","1","1","1","1","0","0","0","1","0","0","0","0","1","1","1","0","0","0","0","5","1","1","1","2","3","1","2","1","5","1","598911150104510464","熊","576","","","","","","","","","","","","","","","","","","","","","","","","","","","","","","","","","","","","","","","","","",""
"692","<p style=""color:rgb(150, 250, 100); font-size: 35px;"">别人的</p>","i","categorize-html","181","206701","0.0-6.0-0.0-8.0-1.36","4","4","4","4","3","4","4","4","4","4","5","5","5","5","5","5","5","5","5","5","1","1","1","1","1","1","1","1","1","0","0","0","1","0","0","0","0","1","1","1","0","0","0","0","5","1","1","1","2","3","1","2","1","5","1","598911150104510464","熊","576","","","","","","","","","","","","","","","","","","","true","4","4","ability","692","other","别人的","","","","","","","","","","","","","","","","",""
"null","","null","html-keyboard-response","182","206952","0.0-6.0-0.0-8.0-0.37","4","4","4","4","3","4","4","4","4","4","5","5","5","5","5","5","5","5","5","5","1","1","1","1","1","1","1","1","1","0","0","0","1","0","0","0","0","1","1","1","0","0","0","0","5","1","1","1","2","3","1","2","1","5","1","598911150104510464","熊","576","","","","","","","","","","","","","","","","","","","","","","","","","","","","","","","","","","","","","","","","","",""
"1349","<p style=""color:white; font-size: 35px;"">天才</p>","e","categorize-html","183","208301","0.0-6.0-0.0-8.0-1.37","4","4","4","4","3","4","4","4","4","4","5","5","5","5","5","5","5","5","5","5","1","1","1","1","1","1","1","1","1","0","0","0","1","0","0","0","0","1","1","1","0","0","0","0","5","1","1","1","2","3","1","2","1","5","1","598911150104510464","熊","576","","","","","","","","","","","","","","","","","","","true","4","4","ability","1349","positive","天才","","","","","","","","","","","","","","","","",""
"null","","null","html-keyboard-response","184","208553","0.0-6.0-0.0-8.0-0.38","4","4","4","4","3","4","4","4","4","4","5","5","5","5","5","5","5","5","5","5","1","1","1","1","1","1","1","1","1","0","0","0","1","0","0","0","0","1","1","1","0","0","0","0","5","1","1","1","2","3","1","2","1","5","1","598911150104510464","熊","576","","","","","","","","","","","","","","","","","","","","","","","","","","","","","","","","","","","","","","","","","",""
"804","<p style=""color:rgb(150, 250, 100); font-size: 35px;"">自己</p>","e","categorize-html","185","209357","0.0-6.0-0.0-8.0-1.38","4","4","4","4","3","4","4","4","4","4","5","5","5","5","5","5","5","5","5","5","1","1","1","1","1","1","1","1","1","0","0","0","1","0","0","0","0","1","1","1","0","0","0","0","5","1","1","1","2","3","1","2","1","5","1","598911150104510464","熊","576","","","","","","","","","","","","","","","","","","","true","4","4","ability","804","self","自己","","","","","","","","","","","","","","","","",""
"null","","null","html-keyboard-response","186","209608","0.0-6.0-0.0-8.0-0.39","4","4","4","4","3","4","4","4","4","4","5","5","5","5","5","5","5","5","5","5","1","1","1","1","1","1","1","1","1","0","0","0","1","0","0","0","0","1","1","1","0","0","0","0","5","1","1","1","2","3","1","2","1","5","1","598911150104510464","熊","576","","","","","","","","","","","","","","","","","","","","","","","","","","","","","","","","","","","","","","","","","",""
"1261","<p style=""color:white; font-size: 35px;"">低能</p>","i","categorize-html","187","210869","0.0-6.0-0.0-8.0-1.39","4","4","4","4","3","4","4","4","4","4","5","5","5","5","5","5","5","5","5","5","1","1","1","1","1","1","1","1","1","0","0","0","1","0","0","0","0","1","1","1","0","0","0","0","5","1","1","1","2","3","1","2","1","5","1","598911150104510464","熊","576","","","","","","","","","","","","","","","","","","","true","4","4","ability","1261","negative","低能","","","","","","","","","","","","","","","","",""
"null","","null","html-keyboard-response","188","211120","0.0-6.0-0.0-8.0-0.40","4","4","4","4","3","4","4","4","4","4","5","5","5","5","5","5","5","5","5","5","1","1","1","1","1","1","1","1","1","0","0","0","1","0","0","0","0","1","1","1","0","0","0","0","5","1","1","1","2","3","1","2","1","5","1","598911150104510464","熊","576","","","","","","","","","","","","","","","","","","","","","","","","","","","","","","","","","","","","","","","","","",""
"693","<p style=""color:rgb(150, 250, 100); font-size: 35px;"">本人</p>","e","categorize-html","189","211813","0.0-6.0-0.0-8.0-1.40","4","4","4","4","3","4","4","4","4","4","5","5","5","5","5","5","5","5","5","5","1","1","1","1","1","1","1","1","1","0","0","0","1","0","0","0","0","1","1","1","0","0","0","0","5","1","1","1","2","3","1","2","1","5","1","598911150104510464","熊","576","","","","","","","","","","","","","","","","","","","true","4","4","ability","693","self","本人","","","","","","","","","","","","","","","","",""
"null","","null","html-keyboard-response","190","212064","0.0-6.0-0.0-8.0-0.41","4","4","4","4","3","4","4","4","4","4","5","5","5","5","5","5","5","5","5","5","1","1","1","1","1","1","1","1","1","0","0","0","1","0","0","0","0","1","1","1","0","0","0","0","5","1","1","1","2","3","1","2","1","5","1","598911150104510464","熊","576","","","","","","","","","","","","","","","","","","","","","","","","","","","","","","","","","","","","","","","","","",""
"844","<p style=""color:white; font-size: 35px;"">能干</p>","e","categorize-html","191","212910","0.0-6.0-0.0-8.0-1.41","4","4","4","4","3","4","4","4","4","4","5","5","5","5","5","5","5","5","5","5","1","1","1","1","1","1","1","1","1","0","0","0","1","0","0","0","0","1","1","1","0","0","0","0","5","1","1","1","2","3","1","2","1","5","1","598911150104510464","熊","576","","","","","","","","","","","","","","","","","","","true","4","4","ability","844","positive","能干","","","","","","","","","","","","","","","","",""
"null","","null","html-keyboard-response","192","213161","0.0-6.0-0.0-8.0-0.42","4","4","4","4","3","4","4","4","4","4","5","5","5","5","5","5","5","5","5","5","1","1","1","1","1","1","1","1","1","0","0","0","1","0","0","0","0","1","1","1","0","0","0","0","5","1","1","1","2","3","1","2","1","5","1","598911150104510464","熊","576","","","","","","","","","","","","","","","","","","","","","","","","","","","","","","","","","","","","","","","","","",""
"1196","<p style=""color:rgb(150, 250, 100); font-size: 35px;"">他人</p>","i","categorize-html","193","214357","0.0-6.0-0.0-8.0-1.42","4","4","4","4","3","4","4","4","4","4","5","5","5","5","5","5","5","5","5","5","1","1","1","1","1","1","1","1","1","0","0","0","1","0","0","0","0","1","1","1","0","0","0","0","5","1","1","1","2","3","1","2","1","5","1","598911150104510464","熊","576","","","","","","","","","","","","","","","","","","","true","4","4","ability","1196","other","他人","","","","","","","","","","","","","","","","",""
