"rt","stimulus","response","trial_type","trial_index","time_elapsed","internal_node_id","ses_1","ses_2","ses_3","ses_4","ses_5","ses_6","ses_7","ses_8","ses_9","ses_10","coreself_1","coreself_2","coreself_3","coreself_4","coreself_5","coreself_6","coreself_7","coreself_8","coreself_9","coreself_10","SGPS_1","SGPS_2","SGPS_3","SGPS_4","SGPS_5","SGPS_6","SGPS_7","SGPS_8","SGPS_9","NPI1","NPI2","NPI3","NPI4","NPI5","NPI6","NPI7","NPI8","NPI9","NPI10","NPI11","NPI12","NPI13","NPI14","NPI15","hsns_1","hsns_2","hsns_3","hsns_4","hsns_5","trap1","hsns_6","hsns_7","hsns_8","hsns_9","hsns_10","subj_idx","friend_name","ParticipantID","value","success","user_agent","responses","item_order","radio_event_ids","radio_event_times","key_event_times","mouse_event_times","straightlining","zigzagging","honeypot","timeout","failed_images","failed_audio","failed_video","view_history","response_type","key_press","avg_frame_time","center_x","center_y","correct_response","correct","identity","Image","word","condition","task_id","screen_id","time_stamp","version_attrib","version_target","IAT","RT","varname","summary","version_attrib2","version_target2","question_order","correct_answer","trap1_item"
"2309271","
   <p><div style = ""color: white;font-size:25px;"">您好，欢迎参加本次实验。</div> </p>
   <p><div style = ""color: white;font-size:25px;"">为充分保障您的权利，请确保您已经知晓并同意《参与实验同意书》以及《数据公开知情同意书》。</div></p>
   <p><div style = ""color: white;font-size:25px;"">如果您未见过上述内容，请咨询实验员。</div></p>
   <p><div style = ""color: white;font-size:25px;"">如果您选择继续实验，则表示您已经清楚两份知情同意书的内容并同意。</div></p>
   <p><div style = ""color: pink;font-size:30px;"">请确保您记得day0的实验编号，您将在本次实验输入该编号，若您忘记，请咨询实验员后作答。</div></p>
   <p><div style = ""color: lightblue;font-size:25px;"">请您尽可能认真地作答，我们将依据您在各问卷和按键任务中的作答质量发放报酬。</div></p>
   <p> <div style = ""color: green;font-size:25px;""><按空格键至下页></div> </p>
   "," ","html-keyboard-response","0","2309271","0.0-0.0","3","4","4","3","3","3","4","2","3","4","4","4","4","4","4","4","5","4","4","4","1","1","2","2","3","2","1","1","1","0","0","0","0","0","0","0","1","0","1","1","0","0","0","0","3","1","2","3","2","3","4","4","3","4","2","631517716984889344","杨","257","","","","","","","","","","","","","","","","","","","","","","","","","","","","","","","","","","","","","","","","","",""
"","","","call-function","1","2309272","0.0-1.0-0.0","3","4","4","3","3","3","4","2","3","4","4","4","4","4","4","4","5","4","4","4","1","1","2","2","3","2","1","1","1","0","0","0","0","0","0","0","1","0","1","1","0","0","0","0","3","1","2","3","2","3","4","4","3","4","2","631517716984889344","杨","257","","","","","","","","","","","","","","","","","","","","","","","","","","","","","","","","","","","","","","","","","",""
"23623","","{""friend_name"":""杨"",""ParticipantID"":""257""}","survey-html-form","2","2332896","0.0-1.0-1.0","3","4","4","3","3","3","4","2","3","4","4","4","4","4","4","4","5","4","4","4","1","1","2","2","3","2","1","1","1","0","0","0","0","0","0","0","1","0","1","1","0","0","0","0","3","1","2","3","2","3","4","4","3","4","2","631517716984889344","杨","257","","","","","","","","","","","","","","","","","","","","","","","","","","","","","","","","","","","","","","","","","",""
"","","","fullscreen","3","2339506","0.0-2.0","3","4","4","3","3","3","4","2","3","4","4","4","4","4","4","4","5","4","4","4","1","1","2","2","3","2","1","1","1","0","0","0","0","0","0","0","1","0","1","1","0","0","0","0","3","1","2","3","2","3","4","4","3","4","2","631517716984889344","杨","257","","true","{}","","","","","","","","","","","","","","","","","","","","","","","","","","","","","","","","","","","","","","",""
"23911.89999985695","","{""Q01"":""3"",""Q02"":""4"",""Q03"":""4"",""Q04"":""3"",""Q05"":""3"",""Q06"":""3"",""Q07"":""4"",""Q08"":""2"",""Q09"":""3"",""Q10"":""4""}","survey-template","4","2363419","0.0-3.0","3","4","4","3","3","3","4","2","3","4","4","4","4","4","4","4","5","4","4","4","1","1","2","2","3","2","1","1","1","0","0","0","0","0","0","0","1","0","1","1","0","0","0","0","3","1","2","3","2","3","4","4","3","4","2","631517716984889344","杨","257","","","","{""Q01"":""3"",""Q02"":""4"",""Q03"":""4"",""Q04"":""3"",""Q05"":""3"",""Q06"":""3"",""Q07"":""4"",""Q08"":""2"",""Q09"":""3"",""Q10"":""4""}","[0,1,2,3,4,5,6,7,8,9]","[""Q01"",""Q02"",""Q03"",""Q04"",""Q05"",""Q06"",""Q07"",""Q09"",""Q08"",""Q08"",""Q10""]","[8688,9649,13568,15772.099999904633,17252.099999904633,18021.200000047684,19085.89999985695,20950.599999904633,21444,21847.799999952316,23319.599999904633]","[]","[8688,9649,13568,15772.099999904633,17252.099999904633,18021.200000047684,19085.89999985695,19931.099999904633,20950.599999904633,21444,21847.799999952316,22561.799999952316,22762.89999985695,23319.599999904633,23911.200000047684]","0.4","0.8888888888888888","0","","","","","","","","","","","","","","","","","","","","","","","","","","","","","",""
"13883.5","","{""Q01"":""4"",""Q02"":""4"",""Q03"":""4"",""Q04"":""4"",""Q05"":""4"",""Q06"":""4"",""Q07"":""5"",""Q08"":""4"",""Q09"":""4"",""Q10"":""4""}","survey-template","5","2377308","0.0-4.0","3","4","4","3","3","3","4","2","3","4","4","4","4","4","4","4","5","4","4","4","1","1","2","2","3","2","1","1","1","0","0","0","0","0","0","0","1","0","1","1","0","0","0","0","3","1","2","3","2","3","4","4","3","4","2","631517716984889344","杨","257","","","","{""Q01"":""4"",""Q02"":""4"",""Q03"":""4"",""Q04"":""4"",""Q05"":""4"",""Q06"":""4"",""Q07"":""5"",""Q08"":""4"",""Q09"":""4"",""Q10"":""4""}","[0,1,2,3,4,5,6,7,8,9]","[""Q01"",""Q03"",""Q02"",""Q02"",""Q04"",""Q05"",""Q06"",""Q07"",""Q08"",""Q09"",""Q10""]","[2592.699999809265,4378.399999856949,4875.5,5091.099999904633,6223,7342.699999809265,8145.799999952316,10047.099999904633,11052.599999904633,11804.699999809265,13099.399999856949]","[]","[2592.699999809265,3567.699999809265,4378.399999856949,4875.5,5091.099999904633,6223,7342.699999809265,8145.799999952316,10047.099999904633,11052.599999904633,11804.699999809265,13099.399999856949,13882.799999952316]","0.5","0.1111111111111111","0","","","","","","","","","","","","","","","","","","","","","","","","","","","","","",""
"","","","preload","6","2377609","0.0-5.0","3","4","4","3","3","3","4","2","3","4","4","4","4","4","4","4","5","4","4","4","1","1","2","2","3","2","1","1","1","0","0","0","0","0","0","0","1","0","1","1","0","0","0","0","3","1","2","3","2","3","4","4","3","4","2","631517716984889344","杨","257","","true","","","","","","","","","","","false","[]","[]","[]","","","","","","","","","","","","","","","","","","","","","","","","","",""
"37961","","","instructions","7","2415570","0.0-6.0","3","4","4","3","3","3","4","2","3","4","4","4","4","4","4","4","5","4","4","4","1","1","2","2","3","2","1","1","1","0","0","0","0","0","0","0","1","0","1","1","0","0","0","0","3","1","2","3","2","3","4","4","3","4","2","631517716984889344","杨","257","","","","","","","","","","","","","","","","","[{""page_index"":0,""viewing_time"":37960}]","","","","","","","","","","","","","","","","","","","","","","","","",""
"35929","","","instructions","8","2451500","0.0-7.0-1.0-0.0","3","4","4","3","3","3","4","2","3","4","4","4","4","4","4","4","5","4","4","4","1","1","2","2","3","2","1","1","1","0","0","0","0","0","0","0","1","0","1","1","0","0","0","0","3","1","2","3","2","3","4","4","3","4","2","631517716984889344","杨","257","","","","","","","","","","","","","","","","","[{""page_index"":0,""viewing_time"":21388},{""page_index"":1,""viewing_time"":11878},{""page_index"":2,""viewing_time"":2662}]","","","","","","","","","","","","","","","","","","","","","","","","",""
"891","","j","psychophysics","9","2453394","0.0-7.0-1.0-1.0-0.0-0.0","3","4","4","3","3","3","4","2","3","4","4","4","4","4","4","4","5","4","4","4","1","1","2","2","3","2","1","1","1","0","0","0","0","0","0","0","1","0","1","1","0","0","0","0","3","1","2","3","2","3","4","4","3","4","2","631517716984889344","杨","257","","","","match","","","","","","","","","","","","","","key","j","6.096763754045006","768","428","j","true","match","img/triangle.png","三角","三角","ALT1_2","prac_ALT1_2","","","","","","","","","","","",""
"null","<span style='color:GreenYellow; font-size: 70px;'>正确! </span>","null","html-keyboard-response","10","2453895","0.0-7.0-1.0-1.0-0.0-1.0","3","4","4","3","3","3","4","2","3","4","4","4","4","4","4","4","5","4","4","4","1","1","2","2","3","2","1","1","1","0","0","0","0","0","0","0","1","0","1","1","0","0","0","0","3","1","2","3","2","3","4","4","3","4","2","631517716984889344","杨","257","","","","","","","","","","","","","","","","","","","","","","","","","","","","","","feedback_test","","","","","","","","","","","",""
"790","","j","psychophysics","11","2455686","0.0-7.0-1.0-1.0-0.0-0.1","3","4","4","3","3","3","4","2","3","4","4","4","4","4","4","4","5","4","4","4","1","1","2","2","3","2","1","1","1","0","0","0","0","0","0","0","1","0","1","1","0","0","0","0","3","1","2","3","2","3","4","4","3","4","2","631517716984889344","杨","257","","","","match","","","","","","","","","","","","","","key","j","6.0602040816332865","768","428","j","true","match","img/ellipse.png","椭圆","椭圆","ALT1_2","prac_ALT1_2","","","","","","","","","","","",""
"null","<span style='color:GreenYellow; font-size: 70px;'>正确! </span>","null","html-keyboard-response","12","2456186","0.0-7.0-1.0-1.0-0.0-1.1","3","4","4","3","3","3","4","2","3","4","4","4","4","4","4","4","5","4","4","4","1","1","2","2","3","2","1","1","1","0","0","0","0","0","0","0","1","0","1","1","0","0","0","0","3","1","2","3","2","3","4","4","3","4","2","631517716984889344","杨","257","","","","","","","","","","","","","","","","","","","","","","","","","","","","","","feedback_test","","","","","","","","","","","",""
"926","","j","psychophysics","13","2458114","0.0-7.0-1.0-1.0-0.0-0.2","3","4","4","3","3","3","4","2","3","4","4","4","4","4","4","4","5","4","4","4","1","1","2","2","3","2","1","1","1","0","0","0","0","0","0","0","1","0","1","1","0","0","0","0","3","1","2","3","2","3","4","4","3","4","2","631517716984889344","杨","257","","","","match","","","","","","","","","","","","","","key","j","6.060252365930893","768","428","f","false","nonmatch","img/triangle.png","六边","三角","ALT1_2","prac_ALT1_2","","","","","","","","","","","",""
"null","<span style='color:red; font-size: 70px;'>错误! </span>","null","html-keyboard-response","14","2458614","0.0-7.0-1.0-1.0-0.0-1.2","3","4","4","3","3","3","4","2","3","4","4","4","4","4","4","4","5","4","4","4","1","1","2","2","3","2","1","1","1","0","0","0","0","0","0","0","1","0","1","1","0","0","0","0","3","1","2","3","2","3","4","4","3","4","2","631517716984889344","杨","257","","","","","","","","","","","","","","","","","","","","","","","","","","","","","","feedback_test","","","","","","","","","","","",""
"980","","f","psychophysics","15","2460595","0.0-7.0-1.0-1.0-0.0-0.3","3","4","4","3","3","3","4","2","3","4","4","4","4","4","4","4","5","4","4","4","1","1","2","2","3","2","1","1","1","0","0","0","0","0","0","0","1","0","1","1","0","0","0","0","3","1","2","3","2","3","4","4","3","4","2","631517716984889344","杨","257","","","","nonmatch","","","","","","","","","","","","","","key","f","6.05599999999914","768","428","f","true","nonmatch","img/hexagon.png","三角","六边","ALT1_2","prac_ALT1_2","","","","","","","","","","","",""
"null","<span style='color:GreenYellow; font-size: 70px;'>正确! </span>","null","html-keyboard-response","16","2461096","0.0-7.0-1.0-1.0-0.0-1.3","3","4","4","3","3","3","4","2","3","4","4","4","4","4","4","4","5","4","4","4","1","1","2","2","3","2","1","1","1","0","0","0","0","0","0","0","1","0","1","1","0","0","0","0","3","1","2","3","2","3","4","4","3","4","2","631517716984889344","杨","257","","","","","","","","","","","","","","","","","","","","","","","","","","","","","","feedback_test","","","","","","","","","","","",""
"871","","f","psychophysics","17","2462969","0.0-7.0-1.0-1.0-0.0-0.4","3","4","4","3","3","3","4","2","3","4","4","4","4","4","4","4","5","4","4","4","1","1","2","2","3","2","1","1","1","0","0","0","0","0","0","0","1","0","1","1","0","0","0","0","3","1","2","3","2","3","4","4","3","4","2","631517716984889344","杨","257","","","","nonmatch","","","","","","","","","","","","","","key","f","6.060714285714891","768","428","f","true","nonmatch","img/ellipse.png","六边","椭圆","ALT1_2","prac_ALT1_2","","","","","","","","","","","",""
"null","<span style='color:GreenYellow; font-size: 70px;'>正确! </span>","null","html-keyboard-response","18","2463469","0.0-7.0-1.0-1.0-0.0-1.4","3","4","4","3","3","3","4","2","3","4","4","4","4","4","4","4","5","4","4","4","1","1","2","2","3","2","1","1","1","0","0","0","0","0","0","0","1","0","1","1","0","0","0","0","3","1","2","3","2","3","4","4","3","4","2","631517716984889344","杨","257","","","","","","","","","","","","","","","","","","","","","","","","","","","","","","feedback_test","","","","","","","","","","","",""
"1069","","j","psychophysics","19","2465539","0.0-7.0-1.0-1.0-0.0-0.5","3","4","4","3","3","3","4","2","3","4","4","4","4","4","4","4","5","4","4","4","1","1","2","2","3","2","1","1","1","0","0","0","0","0","0","0","1","0","1","1","0","0","0","0","3","1","2","3","2","3","4","4","3","4","2","631517716984889344","杨","257","","","","match","","","","","","","","","","","","","","key","j","6.060588235294391","768","428","f","false","nonmatch","img/hexagon.png","方形","六边","ALT1_2","prac_ALT1_2","","","","","","","","","","","",""
"null","<span style='color:red; font-size: 70px;'>错误! </span>","null","html-keyboard-response","20","2466040","0.0-7.0-1.0-1.0-0.0-1.5","3","4","4","3","3","3","4","2","3","4","4","4","4","4","4","4","5","4","4","4","1","1","2","2","3","2","1","1","1","0","0","0","0","0","0","0","1","0","1","1","0","0","0","0","3","1","2","3","2","3","4","4","3","4","2","631517716984889344","杨","257","","","","","","","","","","","","","","","","","","","","","","","","","","","","","","feedback_test","","","","","","","","","","","",""
"670","","j","psychophysics","21","2467711","0.0-7.0-1.0-1.0-0.0-0.6","3","4","4","3","3","3","4","2","3","4","4","4","4","4","4","4","5","4","4","4","1","1","2","2","3","2","1","1","1","0","0","0","0","0","0","0","1","0","1","1","0","0","0","0","3","1","2","3","2","3","4","4","3","4","2","631517716984889344","杨","257","","","","match","","","","","","","","","","","","","","key","j","6.060583941606179","768","428","j","true","match","img/square.png","方形","方形","ALT1_2","prac_ALT1_2","","","","","","","","","","","",""
"null","<span style='color:GreenYellow; font-size: 70px;'>正确! </span>","null","html-keyboard-response","22","2468212","0.0-7.0-1.0-1.0-0.0-1.6","3","4","4","3","3","3","4","2","3","4","4","4","4","4","4","4","5","4","4","4","1","1","2","2","3","2","1","1","1","0","0","0","0","0","0","0","1","0","1","1","0","0","0","0","3","1","2","3","2","3","4","4","3","4","2","631517716984889344","杨","257","","","","","","","","","","","","","","","","","","","","","","","","","","","","","","feedback_test","","","","","","","","","","","",""
"861","","f","psychophysics","23","2470074","0.0-7.0-1.0-1.0-0.0-0.7","3","4","4","3","3","3","4","2","3","4","4","4","4","4","4","4","5","4","4","4","1","1","2","2","3","2","1","1","1","0","0","0","0","0","0","0","1","0","1","1","0","0","0","0","3","1","2","3","2","3","4","4","3","4","2","631517716984889344","杨","257","","","","nonmatch","","","","","","","","","","","","","","key","f","6.060457516339869","768","428","f","true","nonmatch","img/triangle.png","椭圆","三角","ALT1_2","prac_ALT1_2","","","","","","","","","","","",""
"null","<span style='color:GreenYellow; font-size: 70px;'>正确! </span>","null","html-keyboard-response","24","2470575","0.0-7.0-1.0-1.0-0.0-1.7","3","4","4","3","3","3","4","2","3","4","4","4","4","4","4","4","5","4","4","4","1","1","2","2","3","2","1","1","1","0","0","0","0","0","0","0","1","0","1","1","0","0","0","0","3","1","2","3","2","3","4","4","3","4","2","631517716984889344","杨","257","","","","","","","","","","","","","","","","","","","","","","","","","","","","","","feedback_test","","","","","","","","","","","",""
"813","","f","psychophysics","25","2472391","0.0-7.0-1.0-1.0-0.0-0.8","3","4","4","3","3","3","4","2","3","4","4","4","4","4","4","4","5","4","4","4","1","1","2","2","3","2","1","1","1","0","0","0","0","0","0","0","1","0","1","1","0","0","0","0","3","1","2","3","2","3","4","4","3","4","2","631517716984889344","杨","257","","","","nonmatch","","","","","","","","","","","","","","key","f","6.060869565216457","768","428","f","true","nonmatch","img/triangle.png","方形","三角","ALT1_2","prac_ALT1_2","","","","","","","","","","","",""
"null","<span style='color:GreenYellow; font-size: 70px;'>正确! </span>","null","html-keyboard-response","26","2472892","0.0-7.0-1.0-1.0-0.0-1.8","3","4","4","3","3","3","4","2","3","4","4","4","4","4","4","4","5","4","4","4","1","1","2","2","3","2","1","1","1","0","0","0","0","0","0","0","1","0","1","1","0","0","0","0","3","1","2","3","2","3","4","4","3","4","2","631517716984889344","杨","257","","","","","","","","","","","","","","","","","","","","","","","","","","","","","","feedback_test","","","","","","","","","","","",""
"649","","j","psychophysics","27","2474543","0.0-7.0-1.0-1.0-0.0-0.9","3","4","4","3","3","3","4","2","3","4","4","4","4","4","4","4","5","4","4","4","1","1","2","2","3","2","1","1","1","0","0","0","0","0","0","0","1","0","1","1","0","0","0","0","3","1","2","3","2","3","4","4","3","4","2","631517716984889344","杨","257","","","","match","","","","","","","","","","","","","","key","j","6.060661764705882","768","428","j","true","match","img/triangle.png","三角","三角","ALT1_2","prac_ALT1_2","","","","","","","","","","","",""
"null","<span style='color:GreenYellow; font-size: 70px;'>正确! </span>","null","html-keyboard-response","28","2475043","0.0-7.0-1.0-1.0-0.0-1.9","3","4","4","3","3","3","4","2","3","4","4","4","4","4","4","4","5","4","4","4","1","1","2","2","3","2","1","1","1","0","0","0","0","0","0","0","1","0","1","1","0","0","0","0","3","1","2","3","2","3","4","4","3","4","2","631517716984889344","杨","257","","","","","","","","","","","","","","","","","","","","","","","","","","","","","","feedback_test","","","","","","","","","","","",""
"790","","f","psychophysics","29","2476835","0.0-7.0-1.0-1.0-0.0-0.10","3","4","4","3","3","3","4","2","3","4","4","4","4","4","4","4","5","4","4","4","1","1","2","2","3","2","1","1","1","0","0","0","0","0","0","0","1","0","1","1","0","0","0","0","3","1","2","3","2","3","4","4","3","4","2","631517716984889344","杨","257","","","","nonmatch","","","","","","","","","","","","","","key","f","6.060338983051794","768","428","f","true","nonmatch","img/square.png","六边","方形","ALT1_2","prac_ALT1_2","","","","","","","","","","","",""
"null","<span style='color:GreenYellow; font-size: 70px;'>正确! </span>","null","html-keyboard-response","30","2477336","0.0-7.0-1.0-1.0-0.0-1.10","3","4","4","3","3","3","4","2","3","4","4","4","4","4","4","4","5","4","4","4","1","1","2","2","3","2","1","1","1","0","0","0","0","0","0","0","1","0","1","1","0","0","0","0","3","1","2","3","2","3","4","4","3","4","2","631517716984889344","杨","257","","","","","","","","","","","","","","","","","","","","","","","","","","","","","","feedback_test","","","","","","","","","","","",""
"865","","f","psychophysics","31","2479202","0.0-7.0-1.0-1.0-0.0-0.11","3","4","4","3","3","3","4","2","3","4","4","4","4","4","4","4","5","4","4","4","1","1","2","2","3","2","1","1","1","0","0","0","0","0","0","0","1","0","1","1","0","0","0","0","3","1","2","3","2","3","4","4","3","4","2","631517716984889344","杨","257","","","","nonmatch","","","","","","","","","","","","","","key","f","6.05718954248366","768","428","f","true","nonmatch","img/ellipse.png","方形","椭圆","ALT1_2","prac_ALT1_2","","","","","","","","","","","",""
"null","<span style='color:GreenYellow; font-size: 70px;'>正确! </span>","null","html-keyboard-response","32","2479703","0.0-7.0-1.0-1.0-0.0-1.11","3","4","4","3","3","3","4","2","3","4","4","4","4","4","4","4","5","4","4","4","1","1","2","2","3","2","1","1","1","0","0","0","0","0","0","0","1","0","1","1","0","0","0","0","3","1","2","3","2","3","4","4","3","4","2","631517716984889344","杨","257","","","","","","","","","","","","","","","","","","","","","","","","","","","","","","feedback_test","","","","","","","","","","","",""
"607","","j","psychophysics","33","2481311","0.0-7.0-1.0-1.0-0.0-0.12","3","4","4","3","3","3","4","2","3","4","4","4","4","4","4","4","5","4","4","4","1","1","2","2","3","2","1","1","1","0","0","0","0","0","0","0","1","0","1","1","0","0","0","0","3","1","2","3","2","3","4","4","3","4","2","631517716984889344","杨","257","","","","match","","","","","","","","","","","","","","key","j","6.059848484847779","768","428","j","true","match","img/square.png","方形","方形","ALT1_2","prac_ALT1_2","","","","","","","","","","","",""
"null","<span style='color:GreenYellow; font-size: 70px;'>正确! </span>","null","html-keyboard-response","34","2481811","0.0-7.0-1.0-1.0-0.0-1.12","3","4","4","3","3","3","4","2","3","4","4","4","4","4","4","4","5","4","4","4","1","1","2","2","3","2","1","1","1","0","0","0","0","0","0","0","1","0","1","1","0","0","0","0","3","1","2","3","2","3","4","4","3","4","2","631517716984889344","杨","257","","","","","","","","","","","","","","","","","","","","","","","","","","","","","","feedback_test","","","","","","","","","","","",""
"626","","j","psychophysics","35","2483439","0.0-7.0-1.0-1.0-0.0-0.13","3","4","4","3","3","3","4","2","3","4","4","4","4","4","4","4","5","4","4","4","1","1","2","2","3","2","1","1","1","0","0","0","0","0","0","0","1","0","1","1","0","0","0","0","3","1","2","3","2","3","4","4","3","4","2","631517716984889344","杨","257","","","","match","","","","","","","","","","","","","","key","j","6.060299625468514","768","428","j","true","match","img/ellipse.png","椭圆","椭圆","ALT1_2","prac_ALT1_2","","","","","","","","","","","",""
"null","<span style='color:GreenYellow; font-size: 70px;'>正确! </span>","null","html-keyboard-response","36","2483940","0.0-7.0-1.0-1.0-0.0-1.13","3","4","4","3","3","3","4","2","3","4","4","4","4","4","4","4","5","4","4","4","1","1","2","2","3","2","1","1","1","0","0","0","0","0","0","0","1","0","1","1","0","0","0","0","3","1","2","3","2","3","4","4","3","4","2","631517716984889344","杨","257","","","","","","","","","","","","","","","","","","","","","","","","","","","","","","feedback_test","","","","","","","","","","","",""
"706","","f","psychophysics","37","2485647","0.0-7.0-1.0-1.0-0.0-0.14","3","4","4","3","3","3","4","2","3","4","4","4","4","4","4","4","5","4","4","4","1","1","2","2","3","2","1","1","1","0","0","0","0","0","0","0","1","0","1","1","0","0","0","0","3","1","2","3","2","3","4","4","3","4","2","631517716984889344","杨","257","","","","nonmatch","","","","","","","","","","","","","","key","f","6.060142348754117","768","428","f","true","nonmatch","img/square.png","椭圆","方形","ALT1_2","prac_ALT1_2","","","","","","","","","","","",""
"null","<span style='color:GreenYellow; font-size: 70px;'>正确! </span>","null","html-keyboard-response","38","2486147","0.0-7.0-1.0-1.0-0.0-1.14","3","4","4","3","3","3","4","2","3","4","4","4","4","4","4","4","5","4","4","4","1","1","2","2","3","2","1","1","1","0","0","0","0","0","0","0","1","0","1","1","0","0","0","0","3","1","2","3","2","3","4","4","3","4","2","631517716984889344","杨","257","","","","","","","","","","","","","","","","","","","","","","","","","","","","","","feedback_test","","","","","","","","","","","",""
"949","","j","psychophysics","39","2488098","0.0-7.0-1.0-1.0-0.0-0.15","3","4","4","3","3","3","4","2","3","4","4","4","4","4","4","4","5","4","4","4","1","1","2","2","3","2","1","1","1","0","0","0","0","0","0","0","1","0","1","1","0","0","0","0","3","1","2","3","2","3","4","4","3","4","2","631517716984889344","杨","257","","","","match","","","","","","","","","","","","","","key","j","6.056874999999127","768","428","j","true","match","img/hexagon.png","六边","六边","ALT1_2","prac_ALT1_2","","","","","","","","","","","",""
"null","<span style='color:GreenYellow; font-size: 70px;'>正确! </span>","null","html-keyboard-response","40","2488599","0.0-7.0-1.0-1.0-0.0-1.15","3","4","4","3","3","3","4","2","3","4","4","4","4","4","4","4","5","4","4","4","1","1","2","2","3","2","1","1","1","0","0","0","0","0","0","0","1","0","1","1","0","0","0","0","3","1","2","3","2","3","4","4","3","4","2","631517716984889344","杨","257","","","","","","","","","","","","","","","","","","","","","","","","","","","","","","feedback_test","","","","","","","","","","","",""
"663","","j","psychophysics","41","2490265","0.0-7.0-1.0-1.0-0.0-0.16","3","4","4","3","3","3","4","2","3","4","4","4","4","4","4","4","5","4","4","4","1","1","2","2","3","2","1","1","1","0","0","0","0","0","0","0","1","0","1","1","0","0","0","0","3","1","2","3","2","3","4","4","3","4","2","631517716984889344","杨","257","","","","match","","","","","","","","","","","","","","key","j","6.060218978102189","768","428","f","false","nonmatch","img/square.png","三角","方形","ALT1_2","prac_ALT1_2","","","","","","","","","","","",""
"null","<span style='color:red; font-size: 70px;'>错误! </span>","null","html-keyboard-response","42","2490765","0.0-7.0-1.0-1.0-0.0-1.16","3","4","4","3","3","3","4","2","3","4","4","4","4","4","4","4","5","4","4","4","1","1","2","2","3","2","1","1","1","0","0","0","0","0","0","0","1","0","1","1","0","0","0","0","3","1","2","3","2","3","4","4","3","4","2","631517716984889344","杨","257","","","","","","","","","","","","","","","","","","","","","","","","","","","","","","feedback_test","","","","","","","","","","","",""
"1016","","f","psychophysics","43","2492783","0.0-7.0-1.0-1.0-0.0-0.17","3","4","4","3","3","3","4","2","3","4","4","4","4","4","4","4","5","4","4","4","1","1","2","2","3","2","1","1","1","0","0","0","0","0","0","0","1","0","1","1","0","0","0","0","3","1","2","3","2","3","4","4","3","4","2","631517716984889344","杨","257","","","","nonmatch","","","","","","","","","","","","","","key","f","6.057401812688822","768","428","f","true","nonmatch","img/ellipse.png","三角","椭圆","ALT1_2","prac_ALT1_2","","","","","","","","","","","",""
"null","<span style='color:GreenYellow; font-size: 70px;'>正确! </span>","null","html-keyboard-response","44","2493284","0.0-7.0-1.0-1.0-0.0-1.17","3","4","4","3","3","3","4","2","3","4","4","4","4","4","4","4","5","4","4","4","1","1","2","2","3","2","1","1","1","0","0","0","0","0","0","0","1","0","1","1","0","0","0","0","3","1","2","3","2","3","4","4","3","4","2","631517716984889344","杨","257","","","","","","","","","","","","","","","","","","","","","","","","","","","","","","feedback_test","","","","","","","","","","","",""
"856","","f","psychophysics","45","2495143","0.0-7.0-1.0-1.0-0.0-0.18","3","4","4","3","3","3","4","2","3","4","4","4","4","4","4","4","5","4","4","4","1","1","2","2","3","2","1","1","1","0","0","0","0","0","0","0","1","0","1","1","0","0","0","0","3","1","2","3","2","3","4","4","3","4","2","631517716984889344","杨","257","","","","nonmatch","","","","","","","","","","","","","","key","f","6.060327868853681","768","428","f","true","nonmatch","img/hexagon.png","椭圆","六边","ALT1_2","prac_ALT1_2","","","","","","","","","","","",""
"null","<span style='color:GreenYellow; font-size: 70px;'>正确! </span>","null","html-keyboard-response","46","2495644","0.0-7.0-1.0-1.0-0.0-1.18","3","4","4","3","3","3","4","2","3","4","4","4","4","4","4","4","5","4","4","4","1","1","2","2","3","2","1","1","1","0","0","0","0","0","0","0","1","0","1","1","0","0","0","0","3","1","2","3","2","3","4","4","3","4","2","631517716984889344","杨","257","","","","","","","","","","","","","","","","","","","","","","","","","","","","","","feedback_test","","","","","","","","","","","",""
"826","","j","psychophysics","47","2497471","0.0-7.0-1.0-1.0-0.0-0.19","3","4","4","3","3","3","4","2","3","4","4","4","4","4","4","4","5","4","4","4","1","1","2","2","3","2","1","1","1","0","0","0","0","0","0","0","1","0","1","1","0","0","0","0","3","1","2","3","2","3","4","4","3","4","2","631517716984889344","杨","257","","","","match","","","","","","","","","","","","","","key","j","6.060797342193619","768","428","j","true","match","img/ellipse.png","椭圆","椭圆","ALT1_2","prac_ALT1_2","","","","","","","","","","","",""
"null","<span style='color:GreenYellow; font-size: 70px;'>正确! </span>","null","html-keyboard-response","48","2497972","0.0-7.0-1.0-1.0-0.0-1.19","3","4","4","3","3","3","4","2","3","4","4","4","4","4","4","4","5","4","4","4","1","1","2","2","3","2","1","1","1","0","0","0","0","0","0","0","1","0","1","1","0","0","0","0","3","1","2","3","2","3","4","4","3","4","2","631517716984889344","杨","257","","","","","","","","","","","","","","","","","","","","","","","","","","","","","","feedback_test","","","","","","","","","","","",""
"934","","j","psychophysics","49","2499907","0.0-7.0-1.0-1.0-0.0-0.20","3","4","4","3","3","3","4","2","3","4","4","4","4","4","4","4","5","4","4","4","1","1","2","2","3","2","1","1","1","0","0","0","0","0","0","0","1","0","1","1","0","0","0","0","3","1","2","3","2","3","4","4","3","4","2","631517716984889344","杨","257","","","","match","","","","","","","","","","","","","","key","j","6.054088050313587","768","428","j","true","match","img/hexagon.png","六边","六边","ALT1_2","prac_ALT1_2","","","","","","","","","","","",""
"null","<span style='color:GreenYellow; font-size: 70px;'>正确! </span>","null","html-keyboard-response","50","2500408","0.0-7.0-1.0-1.0-0.0-1.20","3","4","4","3","3","3","4","2","3","4","4","4","4","4","4","4","5","4","4","4","1","1","2","2","3","2","1","1","1","0","0","0","0","0","0","0","1","0","1","1","0","0","0","0","3","1","2","3","2","3","4","4","3","4","2","631517716984889344","杨","257","","","","","","","","","","","","","","","","","","","","","","","","","","","","","","feedback_test","","","","","","","","","","","",""
"689","","j","psychophysics","51","2502098","0.0-7.0-1.0-1.0-0.0-0.21","3","4","4","3","3","3","4","2","3","4","4","4","4","4","4","4","5","4","4","4","1","1","2","2","3","2","1","1","1","0","0","0","0","0","0","0","1","0","1","1","0","0","0","0","3","1","2","3","2","3","4","4","3","4","2","631517716984889344","杨","257","","","","match","","","","","","","","","","","","","","key","j","6.056678700360002","768","428","j","true","match","img/triangle.png","三角","三角","ALT1_2","prac_ALT1_2","","","","","","","","","","","",""
"null","<span style='color:GreenYellow; font-size: 70px;'>正确! </span>","null","html-keyboard-response","52","2502599","0.0-7.0-1.0-1.0-0.0-1.21","3","4","4","3","3","3","4","2","3","4","4","4","4","4","4","4","5","4","4","4","1","1","2","2","3","2","1","1","1","0","0","0","0","0","0","0","1","0","1","1","0","0","0","0","3","1","2","3","2","3","4","4","3","4","2","631517716984889344","杨","257","","","","","","","","","","","","","","","","","","","","","","","","","","","","","","feedback_test","","","","","","","","","","","",""
"767","","j","psychophysics","53","2504367","0.0-7.0-1.0-1.0-0.0-0.22","3","4","4","3","3","3","4","2","3","4","4","4","4","4","4","4","5","4","4","4","1","1","2","2","3","2","1","1","1","0","0","0","0","0","0","0","1","0","1","1","0","0","0","0","3","1","2","3","2","3","4","4","3","4","2","631517716984889344","杨","257","","","","match","","","","","","","","","","","","","","key","j","6.060481099656678","768","428","j","true","match","img/hexagon.png","六边","六边","ALT1_2","prac_ALT1_2","","","","","","","","","","","",""
"null","<span style='color:GreenYellow; font-size: 70px;'>正确! </span>","null","html-keyboard-response","54","2504868","0.0-7.0-1.0-1.0-0.0-1.22","3","4","4","3","3","3","4","2","3","4","4","4","4","4","4","4","5","4","4","4","1","1","2","2","3","2","1","1","1","0","0","0","0","0","0","0","1","0","1","1","0","0","0","0","3","1","2","3","2","3","4","4","3","4","2","631517716984889344","杨","257","","","","","","","","","","","","","","","","","","","","","","","","","","","","","","feedback_test","","","","","","","","","","","",""
"773","","j","psychophysics","55","2506642","0.0-7.0-1.0-1.0-0.0-0.23","3","4","4","3","3","3","4","2","3","4","4","4","4","4","4","4","5","4","4","4","1","1","2","2","3","2","1","1","1","0","0","0","0","0","0","0","1","0","1","1","0","0","0","0","3","1","2","3","2","3","4","4","3","4","2","631517716984889344","杨","257","","","","match","","","","","","","","","","","","","","key","j","6.060273972601464","768","428","j","true","match","img/square.png","方形","方形","ALT1_2","prac_ALT1_2","","","","","","","","","","","",""
"null","<span style='color:GreenYellow; font-size: 70px;'>正确! </span>","null","html-keyboard-response","56","2507143","0.0-7.0-1.0-1.0-0.0-1.23","3","4","4","3","3","3","4","2","3","4","4","4","4","4","4","4","5","4","4","4","1","1","2","2","3","2","1","1","1","0","0","0","0","0","0","0","1","0","1","1","0","0","0","0","3","1","2","3","2","3","4","4","3","4","2","631517716984889344","杨","257","","","","","","","","","","","","","","","","","","","","","","","","","","","","","","feedback_test","","","","","","","","","","","",""
"585","","j","psychophysics","57","2508729","0.0-7.0-1.0-1.0-0.0-0.24","3","4","4","3","3","3","4","2","3","4","4","4","4","4","4","4","5","4","4","4","1","1","2","2","3","2","1","1","1","0","0","0","0","0","0","0","1","0","1","1","0","0","0","0","3","1","2","3","2","3","4","4","3","4","2","631517716984889344","杨","257","","","","match","","","","","","","","","","","","","","key","j","6.060769230770306","768","428","j","true","match","img/ellipse.png","椭圆","椭圆","ALT1_2","prac_ALT1_2","","","","","","","","","","","",""
"null","<span style='color:GreenYellow; font-size: 70px;'>正确! </span>","null","html-keyboard-response","58","2509230","0.0-7.0-1.0-1.0-0.0-1.24","3","4","4","3","3","3","4","2","3","4","4","4","4","4","4","4","5","4","4","4","1","1","2","2","3","2","1","1","1","0","0","0","0","0","0","0","1","0","1","1","0","0","0","0","3","1","2","3","2","3","4","4","3","4","2","631517716984889344","杨","257","","","","","","","","","","","","","","","","","","","","","","","","","","","","","","feedback_test","","","","","","","","","","","",""
"780","","j","psychophysics","59","2511011","0.0-7.0-1.0-1.0-0.0-0.25","3","4","4","3","3","3","4","2","3","4","4","4","4","4","4","4","5","4","4","4","1","1","2","2","3","2","1","1","1","0","0","0","0","0","0","0","1","0","1","1","0","0","0","0","3","1","2","3","2","3","4","4","3","4","2","631517716984889344","杨","257","","","","match","","","","","","","","","","","","","","key","j","6.060750853241685","768","428","j","true","match","img/ellipse.png","椭圆","椭圆","ALT1_2","prac_ALT1_2","","","","","","","","","","","",""
"null","<span style='color:GreenYellow; font-size: 70px;'>正确! </span>","null","html-keyboard-response","60","2511511","0.0-7.0-1.0-1.0-0.0-1.25","3","4","4","3","3","3","4","2","3","4","4","4","4","4","4","4","5","4","4","4","1","1","2","2","3","2","1","1","1","0","0","0","0","0","0","0","1","0","1","1","0","0","0","0","3","1","2","3","2","3","4","4","3","4","2","631517716984889344","杨","257","","","","","","","","","","","","","","","","","","","","","","","","","","","","","","feedback_test","","","","","","","","","","","",""
"713","","f","psychophysics","61","2513225","0.0-7.0-1.0-1.0-0.0-0.26","3","4","4","3","3","3","4","2","3","4","4","4","4","4","4","4","5","4","4","4","1","1","2","2","3","2","1","1","1","0","0","0","0","0","0","0","1","0","1","1","0","0","0","0","3","1","2","3","2","3","4","4","3","4","2","631517716984889344","杨","257","","","","nonmatch","","","","","","","","","","","","","","key","f","6.054092526691054","768","428","f","true","nonmatch","img/square.png","六边","方形","ALT1_2","prac_ALT1_2","","","","","","","","","","","",""
"null","<span style='color:GreenYellow; font-size: 70px;'>正确! </span>","null","html-keyboard-response","62","2513726","0.0-7.0-1.0-1.0-0.0-1.26","3","4","4","3","3","3","4","2","3","4","4","4","4","4","4","4","5","4","4","4","1","1","2","2","3","2","1","1","1","0","0","0","0","0","0","0","1","0","1","1","0","0","0","0","3","1","2","3","2","3","4","4","3","4","2","631517716984889344","杨","257","","","","","","","","","","","","","","","","","","","","","","","","","","","","","","feedback_test","","","","","","","","","","","",""
"1104","","j","psychophysics","63","2515830","0.0-7.0-1.0-1.0-0.0-0.27","3","4","4","3","3","3","4","2","3","4","4","4","4","4","4","4","5","4","4","4","1","1","2","2","3","2","1","1","1","0","0","0","0","0","0","0","1","0","1","1","0","0","0","0","3","1","2","3","2","3","4","4","3","4","2","631517716984889344","杨","257","","","","match","","","","","","","","","","","","","","key","j","6.0606936416184976","768","428","f","false","nonmatch","img/hexagon.png","椭圆","六边","ALT1_2","prac_ALT1_2","","","","","","","","","","","",""
"null","<span style='color:red; font-size: 70px;'>错误! </span>","null","html-keyboard-response","64","2516331","0.0-7.0-1.0-1.0-0.0-1.27","3","4","4","3","3","3","4","2","3","4","4","4","4","4","4","4","5","4","4","4","1","1","2","2","3","2","1","1","1","0","0","0","0","0","0","0","1","0","1","1","0","0","0","0","3","1","2","3","2","3","4","4","3","4","2","631517716984889344","杨","257","","","","","","","","","","","","","","","","","","","","","","","","","","","","","","feedback_test","","","","","","","","","","","",""
"578","","j","psychophysics","65","2517910","0.0-7.0-1.0-1.0-0.0-0.28","3","4","4","3","3","3","4","2","3","4","4","4","4","4","4","4","5","4","4","4","1","1","2","2","3","2","1","1","1","0","0","0","0","0","0","0","1","0","1","1","0","0","0","0","3","1","2","3","2","3","4","4","3","4","2","631517716984889344","杨","257","","","","match","","","","","","","","","","","","","","key","j","6.060617760616682","768","428","j","true","match","img/square.png","方形","方形","ALT1_2","prac_ALT1_2","","","","","","","","","","","",""
"null","<span style='color:GreenYellow; font-size: 70px;'>正确! </span>","null","html-keyboard-response","66","2518411","0.0-7.0-1.0-1.0-0.0-1.28","3","4","4","3","3","3","4","2","3","4","4","4","4","4","4","4","5","4","4","4","1","1","2","2","3","2","1","1","1","0","0","0","0","0","0","0","1","0","1","1","0","0","0","0","3","1","2","3","2","3","4","4","3","4","2","631517716984889344","杨","257","","","","","","","","","","","","","","","","","","","","","","","","","","","","","","feedback_test","","","","","","","","","","","",""
"543","","f","psychophysics","67","2519955","0.0-7.0-1.0-1.0-0.0-0.29","3","4","4","3","3","3","4","2","3","4","4","4","4","4","4","4","5","4","4","4","1","1","2","2","3","2","1","1","1","0","0","0","0","0","0","0","1","0","1","1","0","0","0","0","3","1","2","3","2","3","4","4","3","4","2","631517716984889344","杨","257","","","","nonmatch","","","","","","","","","","","","","","key","f","6.060236220471707","768","428","f","true","nonmatch","img/triangle.png","六边","三角","ALT1_2","prac_ALT1_2","","","","","","","","","","","",""
"null","<span style='color:GreenYellow; font-size: 70px;'>正确! </span>","null","html-keyboard-response","68","2520457","0.0-7.0-1.0-1.0-0.0-1.29","3","4","4","3","3","3","4","2","3","4","4","4","4","4","4","4","5","4","4","4","1","1","2","2","3","2","1","1","1","0","0","0","0","0","0","0","1","0","1","1","0","0","0","0","3","1","2","3","2","3","4","4","3","4","2","631517716984889344","杨","257","","","","","","","","","","","","","","","","","","","","","","","","","","","","","","feedback_test","","","","","","","","","","","",""
"929","","f","psychophysics","69","2522387","0.0-7.0-1.0-1.0-0.0-0.30","3","4","4","3","3","3","4","2","3","4","4","4","4","4","4","4","5","4","4","4","1","1","2","2","3","2","1","1","1","0","0","0","0","0","0","0","1","0","1","1","0","0","0","0","3","1","2","3","2","3","4","4","3","4","2","631517716984889344","杨","257","","","","nonmatch","","","","","","","","","","","","","","key","f","6.057413249211944","768","428","f","true","nonmatch","img/ellipse.png","方形","椭圆","ALT1_2","prac_ALT1_2","","","","","","","","","","","",""
"null","<span style='color:GreenYellow; font-size: 70px;'>正确! </span>","null","html-keyboard-response","70","2522887","0.0-7.0-1.0-1.0-0.0-1.30","3","4","4","3","3","3","4","2","3","4","4","4","4","4","4","4","5","4","4","4","1","1","2","2","3","2","1","1","1","0","0","0","0","0","0","0","1","0","1","1","0","0","0","0","3","1","2","3","2","3","4","4","3","4","2","631517716984889344","杨","257","","","","","","","","","","","","","","","","","","","","","","","","","","","","","","feedback_test","","","","","","","","","","","",""
"710","","f","psychophysics","71","2524598","0.0-7.0-1.0-1.0-0.0-0.31","3","4","4","3","3","3","4","2","3","4","4","4","4","4","4","4","5","4","4","4","1","1","2","2","3","2","1","1","1","0","0","0","0","0","0","0","1","0","1","1","0","0","0","0","3","1","2","3","2","3","4","4","3","4","2","631517716984889344","杨","257","","","","nonmatch","","","","","","","","","","","","","","key","f","6.053736654802945","768","428","f","true","nonmatch","img/triangle.png","椭圆","三角","ALT1_2","prac_ALT1_2","","","","","","","","","","","",""
"null","<span style='color:GreenYellow; font-size: 70px;'>正确! </span>","null","html-keyboard-response","72","2525099","0.0-7.0-1.0-1.0-0.0-1.31","3","4","4","3","3","3","4","2","3","4","4","4","4","4","4","4","5","4","4","4","1","1","2","2","3","2","1","1","1","0","0","0","0","0","0","0","1","0","1","1","0","0","0","0","3","1","2","3","2","3","4","4","3","4","2","631517716984889344","杨","257","","","","","","","","","","","","","","","","","","","","","","","","","","","","","","feedback_test","","","","","","","","","","","",""
"843","","f","psychophysics","73","2526943","0.0-7.0-1.0-1.0-0.0-0.32","3","4","4","3","3","3","4","2","3","4","4","4","4","4","4","4","5","4","4","4","1","1","2","2","3","2","1","1","1","0","0","0","0","0","0","0","1","0","1","1","0","0","0","0","3","1","2","3","2","3","4","4","3","4","2","631517716984889344","杨","257","","","","nonmatch","","","","","","","","","","","","","","key","f","6.054125412540947","768","428","f","true","nonmatch","img/square.png","三角","方形","ALT1_2","prac_ALT1_2","","","","","","","","","","","",""
"null","<span style='color:GreenYellow; font-size: 70px;'>正确! </span>","null","html-keyboard-response","74","2527444","0.0-7.0-1.0-1.0-0.0-1.32","3","4","4","3","3","3","4","2","3","4","4","4","4","4","4","4","5","4","4","4","1","1","2","2","3","2","1","1","1","0","0","0","0","0","0","0","1","0","1","1","0","0","0","0","3","1","2","3","2","3","4","4","3","4","2","631517716984889344","杨","257","","","","","","","","","","","","","","","","","","","","","","","","","","","","","","feedback_test","","","","","","","","","","","",""
"725","","j","psychophysics","75","2529170","0.0-7.0-1.0-1.0-0.0-0.33","3","4","4","3","3","3","4","2","3","4","4","4","4","4","4","4","5","4","4","4","1","1","2","2","3","2","1","1","1","0","0","0","0","0","0","0","1","0","1","1","0","0","0","0","3","1","2","3","2","3","4","4","3","4","2","631517716984889344","杨","257","","","","match","","","","","","","","","","","","","","key","j","6.060563380282346","768","428","j","true","match","img/hexagon.png","六边","六边","ALT1_2","prac_ALT1_2","","","","","","","","","","","",""
"null","<span style='color:GreenYellow; font-size: 70px;'>正确! </span>","null","html-keyboard-response","76","2529671","0.0-7.0-1.0-1.0-0.0-1.33","3","4","4","3","3","3","4","2","3","4","4","4","4","4","4","4","5","4","4","4","1","1","2","2","3","2","1","1","1","0","0","0","0","0","0","0","1","0","1","1","0","0","0","0","3","1","2","3","2","3","4","4","3","4","2","631517716984889344","杨","257","","","","","","","","","","","","","","","","","","","","","","","","","","","","","","feedback_test","","","","","","","","","","","",""
"714","","j","psychophysics","77","2531386","0.0-7.0-1.0-1.0-0.0-0.34","3","4","4","3","3","3","4","2","3","4","4","4","4","4","4","4","5","4","4","4","1","1","2","2","3","2","1","1","1","0","0","0","0","0","0","0","1","0","1","1","0","0","0","0","3","1","2","3","2","3","4","4","3","4","2","631517716984889344","杨","257","","","","match","","","","","","","","","","","","","","key","j","6.0606382978726705","768","428","j","true","match","img/ellipse.png","椭圆","椭圆","ALT1_2","prac_ALT1_2","","","","","","","","","","","",""
"null","<span style='color:GreenYellow; font-size: 70px;'>正确! </span>","null","html-keyboard-response","78","2531887","0.0-7.0-1.0-1.0-0.0-1.34","3","4","4","3","3","3","4","2","3","4","4","4","4","4","4","4","5","4","4","4","1","1","2","2","3","2","1","1","1","0","0","0","0","0","0","0","1","0","1","1","0","0","0","0","3","1","2","3","2","3","4","4","3","4","2","631517716984889344","杨","257","","","","","","","","","","","","","","","","","","","","","","","","","","","","","","feedback_test","","","","","","","","","","","",""
"748","","j","psychophysics","79","2533636","0.0-7.0-1.0-1.0-0.0-0.35","3","4","4","3","3","3","4","2","3","4","4","4","4","4","4","4","5","4","4","4","1","1","2","2","3","2","1","1","1","0","0","0","0","0","0","0","1","0","1","1","0","0","0","0","3","1","2","3","2","3","4","4","3","4","2","631517716984889344","杨","257","","","","match","","","","","","","","","","","","","","key","j","6.05331010453059","768","428","j","true","match","img/square.png","方形","方形","ALT1_2","prac_ALT1_2","","","","","","","","","","","",""
"null","<span style='color:GreenYellow; font-size: 70px;'>正确! </span>","null","html-keyboard-response","80","2534137","0.0-7.0-1.0-1.0-0.0-1.35","3","4","4","3","3","3","4","2","3","4","4","4","4","4","4","4","5","4","4","4","1","1","2","2","3","2","1","1","1","0","0","0","0","0","0","0","1","0","1","1","0","0","0","0","3","1","2","3","2","3","4","4","3","4","2","631517716984889344","杨","257","","","","","","","","","","","","","","","","","","","","","","","","","","","","","","feedback_test","","","","","","","","","","","",""
"943","","f","psychophysics","81","2536080","0.0-7.0-1.0-1.0-0.0-0.36","3","4","4","3","3","3","4","2","3","4","4","4","4","4","4","4","5","4","4","4","1","1","2","2","3","2","1","1","1","0","0","0","0","0","0","0","1","0","1","1","0","0","0","0","3","1","2","3","2","3","4","4","3","4","2","631517716984889344","杨","257","","","","nonmatch","","","","","","","","","","","","","","key","f","6.060501567398995","768","428","f","true","nonmatch","img/hexagon.png","方形","六边","ALT1_2","prac_ALT1_2","","","","","","","","","","","",""
"null","<span style='color:GreenYellow; font-size: 70px;'>正确! </span>","null","html-keyboard-response","82","2536581","0.0-7.0-1.0-1.0-0.0-1.36","3","4","4","3","3","3","4","2","3","4","4","4","4","4","4","4","5","4","4","4","1","1","2","2","3","2","1","1","1","0","0","0","0","0","0","0","1","0","1","1","0","0","0","0","3","1","2","3","2","3","4","4","3","4","2","631517716984889344","杨","257","","","","","","","","","","","","","","","","","","","","","","","","","","","","","","feedback_test","","","","","","","","","","","",""
"602","","f","psychophysics","83","2538185","0.0-7.0-1.0-1.0-0.0-0.37","3","4","4","3","3","3","4","2","3","4","4","4","4","4","4","4","5","4","4","4","1","1","2","2","3","2","1","1","1","0","0","0","0","0","0","0","1","0","1","1","0","0","0","0","3","1","2","3","2","3","4","4","3","4","2","631517716984889344","杨","257","","","","nonmatch","","","","","","","","","","","","","","key","f","6.060984848485202","768","428","f","true","nonmatch","img/square.png","椭圆","方形","ALT1_2","prac_ALT1_2","","","","","","","","","","","",""
"null","<span style='color:GreenYellow; font-size: 70px;'>正确! </span>","null","html-keyboard-response","84","2538686","0.0-7.0-1.0-1.0-0.0-1.37","3","4","4","3","3","3","4","2","3","4","4","4","4","4","4","4","5","4","4","4","1","1","2","2","3","2","1","1","1","0","0","0","0","0","0","0","1","0","1","1","0","0","0","0","3","1","2","3","2","3","4","4","3","4","2","631517716984889344","杨","257","","","","","","","","","","","","","","","","","","","","","","","","","","","","","","feedback_test","","","","","","","","","","","",""
"812","","j","psychophysics","85","2540499","0.0-7.0-1.0-1.0-0.0-0.38","3","4","4","3","3","3","4","2","3","4","4","4","4","4","4","4","5","4","4","4","1","1","2","2","3","2","1","1","1","0","0","0","0","0","0","0","1","0","1","1","0","0","0","0","3","1","2","3","2","3","4","4","3","4","2","631517716984889344","杨","257","","","","match","","","","","","","","","","","","","","key","j","6.060738255032307","768","428","j","true","match","img/hexagon.png","六边","六边","ALT1_2","prac_ALT1_2","","","","","","","","","","","",""
"null","<span style='color:GreenYellow; font-size: 70px;'>正确! </span>","null","html-keyboard-response","86","2541000","0.0-7.0-1.0-1.0-0.0-1.38","3","4","4","3","3","3","4","2","3","4","4","4","4","4","4","4","5","4","4","4","1","1","2","2","3","2","1","1","1","0","0","0","0","0","0","0","1","0","1","1","0","0","0","0","3","1","2","3","2","3","4","4","3","4","2","631517716984889344","杨","257","","","","","","","","","","","","","","","","","","","","","","","","","","","","","","feedback_test","","","","","","","","","","","",""
"592","","j","psychophysics","87","2542595","0.0-7.0-1.0-1.0-0.0-0.39","3","4","4","3","3","3","4","2","3","4","4","4","4","4","4","4","5","4","4","4","1","1","2","2","3","2","1","1","1","0","0","0","0","0","0","0","1","0","1","1","0","0","0","0","3","1","2","3","2","3","4","4","3","4","2","631517716984889344","杨","257","","","","match","","","","","","","","","","","","","","key","j","6.060305343512517","768","428","j","true","match","img/triangle.png","三角","三角","ALT1_2","prac_ALT1_2","","","","","","","","","","","",""
"null","<span style='color:GreenYellow; font-size: 70px;'>正确! </span>","null","html-keyboard-response","88","2543096","0.0-7.0-1.0-1.0-0.0-1.39","3","4","4","3","3","3","4","2","3","4","4","4","4","4","4","4","5","4","4","4","1","1","2","2","3","2","1","1","1","0","0","0","0","0","0","0","1","0","1","1","0","0","0","0","3","1","2","3","2","3","4","4","3","4","2","631517716984889344","杨","257","","","","","","","","","","","","","","","","","","","","","","","","","","","","","","feedback_test","","","","","","","","","","","",""
"741","","f","psychophysics","89","2544838","0.0-7.0-1.0-1.0-0.0-0.40","3","4","4","3","3","3","4","2","3","4","4","4","4","4","4","4","5","4","4","4","1","1","2","2","3","2","1","1","1","0","0","0","0","0","0","0","1","0","1","1","0","0","0","0","3","1","2","3","2","3","4","4","3","4","2","631517716984889344","杨","257","","","","nonmatch","","","","","","","","","","","","","","key","f","6.060489510490488","768","428","f","true","nonmatch","img/triangle.png","方形","三角","ALT1_2","prac_ALT1_2","","","","","","","","","","","",""
"null","<span style='color:GreenYellow; font-size: 70px;'>正确! </span>","null","html-keyboard-response","90","2545339","0.0-7.0-1.0-1.0-0.0-1.40","3","4","4","3","3","3","4","2","3","4","4","4","4","4","4","4","5","4","4","4","1","1","2","2","3","2","1","1","1","0","0","0","0","0","0","0","1","0","1","1","0","0","0","0","3","1","2","3","2","3","4","4","3","4","2","631517716984889344","杨","257","","","","","","","","","","","","","","","","","","","","","","","","","","","","","","feedback_test","","","","","","","","","","","",""
"774","","j","psychophysics","91","2547114","0.0-7.0-1.0-1.0-0.0-0.41","3","4","4","3","3","3","4","2","3","4","4","4","4","4","4","4","5","4","4","4","1","1","2","2","3","2","1","1","1","0","0","0","0","0","0","0","1","0","1","1","0","0","0","0","3","1","2","3","2","3","4","4","3","4","2","631517716984889344","杨","257","","","","match","","","","","","","","","","","","","","key","j","6.060616438356802","768","428","j","true","match","img/triangle.png","三角","三角","ALT1_2","prac_ALT1_2","","","","","","","","","","","",""
"null","<span style='color:GreenYellow; font-size: 70px;'>正确! </span>","null","html-keyboard-response","92","2547615","0.0-7.0-1.0-1.0-0.0-1.41","3","4","4","3","3","3","4","2","3","4","4","4","4","4","4","4","5","4","4","4","1","1","2","2","3","2","1","1","1","0","0","0","0","0","0","0","1","0","1","1","0","0","0","0","3","1","2","3","2","3","4","4","3","4","2","631517716984889344","杨","257","","","","","","","","","","","","","","","","","","","","","","","","","","","","","","feedback_test","","","","","","","","","","","",""
"830","","f","psychophysics","93","2549446","0.0-7.0-1.0-1.0-0.0-0.42","3","4","4","3","3","3","4","2","3","4","4","4","4","4","4","4","5","4","4","4","1","1","2","2","3","2","1","1","1","0","0","0","0","0","0","0","1","0","1","1","0","0","0","0","3","1","2","3","2","3","4","4","3","4","2","631517716984889344","杨","257","","","","nonmatch","","","","","","","","","","","","","","key","f","6.060797342192072","768","428","f","true","nonmatch","img/ellipse.png","三角","椭圆","ALT1_2","prac_ALT1_2","","","","","","","","","","","",""
"null","<span style='color:GreenYellow; font-size: 70px;'>正确! </span>","null","html-keyboard-response","94","2549947","0.0-7.0-1.0-1.0-0.0-1.42","3","4","4","3","3","3","4","2","3","4","4","4","4","4","4","4","5","4","4","4","1","1","2","2","3","2","1","1","1","0","0","0","0","0","0","0","1","0","1","1","0","0","0","0","3","1","2","3","2","3","4","4","3","4","2","631517716984889344","杨","257","","","","","","","","","","","","","","","","","","","","","","","","","","","","","","feedback_test","","","","","","","","","","","",""
"879","","f","psychophysics","95","2551827","0.0-7.0-1.0-1.0-0.0-0.43","3","4","4","3","3","3","4","2","3","4","4","4","4","4","4","4","5","4","4","4","1","1","2","2","3","2","1","1","1","0","0","0","0","0","0","0","1","0","1","1","0","0","0","0","3","1","2","3","2","3","4","4","3","4","2","631517716984889344","杨","257","","","","nonmatch","","","","","","","","","","","","","","key","f","6.060194174757583","768","428","f","true","nonmatch","img/hexagon.png","三角","六边","ALT1_2","prac_ALT1_2","","","","","","","","","","","",""
"null","<span style='color:GreenYellow; font-size: 70px;'>正确! </span>","null","html-keyboard-response","96","2552328","0.0-7.0-1.0-1.0-0.0-1.43","3","4","4","3","3","3","4","2","3","4","4","4","4","4","4","4","5","4","4","4","1","1","2","2","3","2","1","1","1","0","0","0","0","0","0","0","1","0","1","1","0","0","0","0","3","1","2","3","2","3","4","4","3","4","2","631517716984889344","杨","257","","","","","","","","","","","","","","","","","","","","","","","","","","","","","","feedback_test","","","","","","","","","","","",""
"718","","j","psychophysics","97","2554047","0.0-7.0-1.0-1.0-0.0-0.44","3","4","4","3","3","3","4","2","3","4","4","4","4","4","4","4","5","4","4","4","1","1","2","2","3","2","1","1","1","0","0","0","0","0","0","0","1","0","1","1","0","0","0","0","3","1","2","3","2","3","4","4","3","4","2","631517716984889344","杨","257","","","","match","","","","","","","","","","","","","","key","j","6.060424028267235","768","428","j","true","match","img/hexagon.png","六边","六边","ALT1_2","prac_ALT1_2","","","","","","","","","","","",""
"null","<span style='color:GreenYellow; font-size: 70px;'>正确! </span>","null","html-keyboard-response","98","2554548","0.0-7.0-1.0-1.0-0.0-1.44","3","4","4","3","3","3","4","2","3","4","4","4","4","4","4","4","5","4","4","4","1","1","2","2","3","2","1","1","1","0","0","0","0","0","0","0","1","0","1","1","0","0","0","0","3","1","2","3","2","3","4","4","3","4","2","631517716984889344","杨","257","","","","","","","","","","","","","","","","","","","","","","","","","","","","","","feedback_test","","","","","","","","","","","",""
"692","","j","psychophysics","99","2556240","0.0-7.0-1.0-1.0-0.0-0.45","3","4","4","3","3","3","4","2","3","4","4","4","4","4","4","4","5","4","4","4","1","1","2","2","3","2","1","1","1","0","0","0","0","0","0","0","1","0","1","1","0","0","0","0","3","1","2","3","2","3","4","4","3","4","2","631517716984889344","杨","257","","","","match","","","","","","","","","","","","","","key","j","6.053597122303498","768","428","j","true","match","img/square.png","方形","方形","ALT1_2","prac_ALT1_2","","","","","","","","","","","",""
"null","<span style='color:GreenYellow; font-size: 70px;'>正确! </span>","null","html-keyboard-response","100","2556742","0.0-7.0-1.0-1.0-0.0-1.45","3","4","4","3","3","3","4","2","3","4","4","4","4","4","4","4","5","4","4","4","1","1","2","2","3","2","1","1","1","0","0","0","0","0","0","0","1","0","1","1","0","0","0","0","3","1","2","3","2","3","4","4","3","4","2","631517716984889344","杨","257","","","","","","","","","","","","","","","","","","","","","","","","","","","","","","feedback_test","","","","","","","","","","","",""
"711","","f","psychophysics","101","2558454","0.0-7.0-1.0-1.0-0.0-0.46","3","4","4","3","3","3","4","2","3","4","4","4","4","4","4","4","5","4","4","4","1","1","2","2","3","2","1","1","1","0","0","0","0","0","0","0","1","0","1","1","0","0","0","0","3","1","2","3","2","3","4","4","3","4","2","631517716984889344","杨","257","","","","nonmatch","","","","","","","","","","","","","","key","f","6.060854092527022","768","428","f","true","nonmatch","img/ellipse.png","六边","椭圆","ALT1_2","prac_ALT1_2","","","","","","","","","","","",""
"null","<span style='color:GreenYellow; font-size: 70px;'>正确! </span>","null","html-keyboard-response","102","2558956","0.0-7.0-1.0-1.0-0.0-1.46","3","4","4","3","3","3","4","2","3","4","4","4","4","4","4","4","5","4","4","4","1","1","2","2","3","2","1","1","1","0","0","0","0","0","0","0","1","0","1","1","0","0","0","0","3","1","2","3","2","3","4","4","3","4","2","631517716984889344","杨","257","","","","","","","","","","","","","","","","","","","","","","","","","","","","","","feedback_test","","","","","","","","","","","",""
"713","","j","psychophysics","103","2560671","0.0-7.0-1.0-1.0-0.0-0.47","3","4","4","3","3","3","4","2","3","4","4","4","4","4","4","4","5","4","4","4","1","1","2","2","3","2","1","1","1","0","0","0","0","0","0","0","1","0","1","1","0","0","0","0","3","1","2","3","2","3","4","4","3","4","2","631517716984889344","杨","257","","","","match","","","","","","","","","","","","","","key","j","6.059929078013854","768","428","j","true","match","img/triangle.png","三角","三角","ALT1_2","prac_ALT1_2","","","","","","","","","","","",""
"null","<span style='color:GreenYellow; font-size: 70px;'>正确! </span>","null","html-keyboard-response","104","2561172","0.0-7.0-1.0-1.0-0.0-1.47","3","4","4","3","3","3","4","2","3","4","4","4","4","4","4","4","5","4","4","4","1","1","2","2","3","2","1","1","1","0","0","0","0","0","0","0","1","0","1","1","0","0","0","0","3","1","2","3","2","3","4","4","3","4","2","631517716984889344","杨","257","","","","","","","","","","","","","","","","","","","","","","","","","","","","","","feedback_test","","","","","","","","","","","",""
"5053","<style>.context{color:white; font-size: 35px; line-height:40px}</style>                          <div><p class='context'>您正确回答了92% 的试次。</p><p class='context'>您的平均反应时为768毫秒。</p><p class='context'>恭喜您完成练习。按空格键进入正式实验。</p><p class='footer' style='font-size: 35px; line-height:40px;'>请在进入正式实验实验之前将您的<span style='color: lightgreen;'>食指</span>放在电脑键盘的相应键位上进行按键。</p>"," ","html-keyboard-response","105","2566227","0.0-7.0-1.0-2.0","3","4","4","3","3","3","4","2","3","4","4","4","4","4","4","4","5","4","4","4","1","1","2","2","3","2","1","1","1","0","0","0","0","0","0","0","1","0","1","1","0","0","0","0","3","1","2","3","2","3","4","4","3","4","2","631517716984889344","杨","257","","","","","","","","","","","","","","","","","","","","","","","","","","","","","","","","","","","","","","","","","",""
"1338","
  <p style='color: white; font-size: 22px'>请您将手指放在按键上，准备进入正式的匹配任务。</p>
  <p> <div style = ""color: green""><按空格键进入下一阶段的匹配任务></div></p>
  "," ","html-keyboard-response","106","2567567","0.0-7.0-1.0-3.0","3","4","4","3","3","3","4","2","3","4","4","4","4","4","4","4","5","4","4","4","1","1","2","2","3","2","1","1","1","0","0","0","0","0","0","0","1","0","1","1","0","0","0","0","3","1","2","3","2","3","4","4","3","4","2","631517716984889344","杨","257","","","","","","","","","","","","","","","","","","","","","","","","","","","","","","","","","","","","","","","","","",""
"649","","j","psychophysics","107","2569219","0.0-7.0-1.0-4.0-0.0-0.0","3","4","4","3","3","3","4","2","3","4","4","4","4","4","4","4","5","4","4","4","1","1","2","2","3","2","1","1","1","0","0","0","0","0","0","0","1","0","1","1","0","0","0","0","3","1","2","3","2","3","4","4","3","4","2","631517716984889344","杨","257","","","","match","","","","","","","","","","","","","","key","j","6.060516605165708","768","428","j","true","match","img/ellipse.png","椭圆","椭圆","ALT1","formal_ALT1_2","","","","","","","","","","","",""
"null","<span style='color:GreenYellow; font-size: 70px;'>正确! </span>","null","html-keyboard-response","108","2569720","0.0-7.0-1.0-4.0-0.0-1.0","3","4","4","3","3","3","4","2","3","4","4","4","4","4","4","4","5","4","4","4","1","1","2","2","3","2","1","1","1","0","0","0","0","0","0","0","1","0","1","1","0","0","0","0","3","1","2","3","2","3","4","4","3","4","2","631517716984889344","杨","257","","","","","","","","","","","","","","","","","","","","","","","","","","","","","","feedback_test","","","","","","","","","","","",""
"821","","f","psychophysics","109","2571542","0.0-7.0-1.0-4.0-0.0-0.1","3","4","4","3","3","3","4","2","3","4","4","4","4","4","4","4","5","4","4","4","1","1","2","2","3","2","1","1","1","0","0","0","0","0","0","0","1","0","1","1","0","0","0","0","3","1","2","3","2","3","4","4","3","4","2","631517716984889344","杨","257","","","","nonmatch","","","","","","","","","","","","","","key","f","6.060869565218014","768","428","f","true","nonmatch","img/square.png","六边","方形","ALT1","formal_ALT1_2","","","","","","","","","","","",""
"null","<span style='color:GreenYellow; font-size: 70px;'>正确! </span>","null","html-keyboard-response","110","2572043","0.0-7.0-1.0-4.0-0.0-1.1","3","4","4","3","3","3","4","2","3","4","4","4","4","4","4","4","5","4","4","4","1","1","2","2","3","2","1","1","1","0","0","0","0","0","0","0","1","0","1","1","0","0","0","0","3","1","2","3","2","3","4","4","3","4","2","631517716984889344","杨","257","","","","","","","","","","","","","","","","","","","","","","","","","","","","","","feedback_test","","","","","","","","","","","",""
"676","","f","psychophysics","111","2573721","0.0-7.0-1.0-4.0-0.0-0.2","3","4","4","3","3","3","4","2","3","4","4","4","4","4","4","4","5","4","4","4","1","1","2","2","3","2","1","1","1","0","0","0","0","0","0","0","1","0","1","1","0","0","0","0","3","1","2","3","2","3","4","4","3","4","2","631517716984889344","杨","257","","","","nonmatch","","","","","","","","","","","","","","key","f","6.060507246375799","768","428","f","true","nonmatch","img/ellipse.png","三角","椭圆","ALT1","formal_ALT1_2","","","","","","","","","","","",""
"null","<span style='color:GreenYellow; font-size: 70px;'>正确! </span>","null","html-keyboard-response","112","2574222","0.0-7.0-1.0-4.0-0.0-1.2","3","4","4","3","3","3","4","2","3","4","4","4","4","4","4","4","5","4","4","4","1","1","2","2","3","2","1","1","1","0","0","0","0","0","0","0","1","0","1","1","0","0","0","0","3","1","2","3","2","3","4","4","3","4","2","631517716984889344","杨","257","","","","","","","","","","","","","","","","","","","","","","","","","","","","","","feedback_test","","","","","","","","","","","",""
"635","","j","psychophysics","113","2575859","0.0-7.0-1.0-4.0-0.0-0.3","3","4","4","3","3","3","4","2","3","4","4","4","4","4","4","4","5","4","4","4","1","1","2","2","3","2","1","1","1","0","0","0","0","0","0","0","1","0","1","1","0","0","0","0","3","1","2","3","2","3","4","4","3","4","2","631517716984889344","杨","257","","","","match","","","","","","","","","","","","","","key","j","6.060594795538341","768","428","j","true","match","img/triangle.png","三角","三角","ALT1","formal_ALT1_2","","","","","","","","","","","",""
"null","<span style='color:GreenYellow; font-size: 70px;'>正确! </span>","null","html-keyboard-response","114","2576360","0.0-7.0-1.0-4.0-0.0-1.3","3","4","4","3","3","3","4","2","3","4","4","4","4","4","4","4","5","4","4","4","1","1","2","2","3","2","1","1","1","0","0","0","0","0","0","0","1","0","1","1","0","0","0","0","3","1","2","3","2","3","4","4","3","4","2","631517716984889344","杨","257","","","","","","","","","","","","","","","","","","","","","","","","","","","","","","feedback_test","","","","","","","","","","","",""
"814","","j","psychophysics","115","2578175","0.0-7.0-1.0-4.0-0.0-0.4","3","4","4","3","3","3","4","2","3","4","4","4","4","4","4","4","5","4","4","4","1","1","2","2","3","2","1","1","1","0","0","0","0","0","0","0","1","0","1","1","0","0","0","0","3","1","2","3","2","3","4","4","3","4","2","631517716984889344","杨","257","","","","match","","","","","","","","","","","","","","key","j","6.056040268457001","768","428","j","true","match","img/square.png","方形","方形","ALT1","formal_ALT1_2","","","","","","","","","","","",""
"null","<span style='color:GreenYellow; font-size: 70px;'>正确! </span>","null","html-keyboard-response","116","2578675","0.0-7.0-1.0-4.0-0.0-1.4","3","4","4","3","3","3","4","2","3","4","4","4","4","4","4","4","5","4","4","4","1","1","2","2","3","2","1","1","1","0","0","0","0","0","0","0","1","0","1","1","0","0","0","0","3","1","2","3","2","3","4","4","3","4","2","631517716984889344","杨","257","","","","","","","","","","","","","","","","","","","","","","","","","","","","","","feedback_test","","","","","","","","","","","",""
"605","","f","psychophysics","117","2580281","0.0-7.0-1.0-4.0-0.0-0.5","3","4","4","3","3","3","4","2","3","4","4","4","4","4","4","4","5","4","4","4","1","1","2","2","3","2","1","1","1","0","0","0","0","0","0","0","1","0","1","1","0","0","0","0","3","1","2","3","2","3","4","4","3","4","2","631517716984889344","杨","257","","","","nonmatch","","","","","","","","","","","","","","key","f","6.060456273763904","768","428","f","true","nonmatch","img/triangle.png","方形","三角","ALT1","formal_ALT1_2","","","","","","","","","","","",""
"null","<span style='color:GreenYellow; font-size: 70px;'>正确! </span>","null","html-keyboard-response","118","2580783","0.0-7.0-1.0-4.0-0.0-1.5","3","4","4","3","3","3","4","2","3","4","4","4","4","4","4","4","5","4","4","4","1","1","2","2","3","2","1","1","1","0","0","0","0","0","0","0","1","0","1","1","0","0","0","0","3","1","2","3","2","3","4","4","3","4","2","631517716984889344","杨","257","","","","","","","","","","","","","","","","","","","","","","","","","","","","","","feedback_test","","","","","","","","","","","",""
"604","","j","psychophysics","119","2582388","0.0-7.0-1.0-4.0-0.0-0.6","3","4","4","3","3","3","4","2","3","4","4","4","4","4","4","4","5","4","4","4","1","1","2","2","3","2","1","1","1","0","0","0","0","0","0","0","1","0","1","1","0","0","0","0","3","1","2","3","2","3","4","4","3","4","2","631517716984889344","杨","257","","","","match","","","","","","","","","","","","","","key","j","6.0606060606060606","768","428","j","true","match","img/ellipse.png","椭圆","椭圆","ALT1","formal_ALT1_2","","","","","","","","","","","",""
"null","<span style='color:GreenYellow; font-size: 70px;'>正确! </span>","null","html-keyboard-response","120","2582889","0.0-7.0-1.0-4.0-0.0-1.6","3","4","4","3","3","3","4","2","3","4","4","4","4","4","4","4","5","4","4","4","1","1","2","2","3","2","1","1","1","0","0","0","0","0","0","0","1","0","1","1","0","0","0","0","3","1","2","3","2","3","4","4","3","4","2","631517716984889344","杨","257","","","","","","","","","","","","","","","","","","","","","","","","","","","","","","feedback_test","","","","","","","","","","","",""
"663","","f","psychophysics","121","2584554","0.0-7.0-1.0-4.0-0.0-0.7","3","4","4","3","3","3","4","2","3","4","4","4","4","4","4","4","5","4","4","4","1","1","2","2","3","2","1","1","1","0","0","0","0","0","0","0","1","0","1","1","0","0","0","0","3","1","2","3","2","3","4","4","3","4","2","631517716984889344","杨","257","","","","nonmatch","","","","","","","","","","","","","","key","f","6.06043956043956","768","428","f","true","nonmatch","img/hexagon.png","三角","六边","ALT1","formal_ALT1_2","","","","","","","","","","","",""
"null","<span style='color:GreenYellow; font-size: 70px;'>正确! </span>","null","html-keyboard-response","122","2585055","0.0-7.0-1.0-4.0-0.0-1.7","3","4","4","3","3","3","4","2","3","4","4","4","4","4","4","4","5","4","4","4","1","1","2","2","3","2","1","1","1","0","0","0","0","0","0","0","1","0","1","1","0","0","0","0","3","1","2","3","2","3","4","4","3","4","2","631517716984889344","杨","257","","","","","","","","","","","","","","","","","","","","","","","","","","","","","","feedback_test","","","","","","","","","","","",""
"790","","j","psychophysics","123","2586847","0.0-7.0-1.0-4.0-0.0-0.8","3","4","4","3","3","3","4","2","3","4","4","4","4","4","4","4","5","4","4","4","1","1","2","2","3","2","1","1","1","0","0","0","0","0","0","0","1","0","1","1","0","0","0","0","3","1","2","3","2","3","4","4","3","4","2","631517716984889344","杨","257","","","","match","","","","","","","","","","","","","","key","j","6.060338983051794","768","428","f","false","nonmatch","img/hexagon.png","椭圆","六边","ALT1","formal_ALT1_2","","","","","","","","","","","",""
"null","<span style='color:red; font-size: 70px;'>错误! </span>","null","html-keyboard-response","124","2587348","0.0-7.0-1.0-4.0-0.0-1.8","3","4","4","3","3","3","4","2","3","4","4","4","4","4","4","4","5","4","4","4","1","1","2","2","3","2","1","1","1","0","0","0","0","0","0","0","1","0","1","1","0","0","0","0","3","1","2","3","2","3","4","4","3","4","2","631517716984889344","杨","257","","","","","","","","","","","","","","","","","","","","","","","","","","","","","","feedback_test","","","","","","","","","","","",""
"617","","j","psychophysics","125","2588966","0.0-7.0-1.0-4.0-0.0-0.9","3","4","4","3","3","3","4","2","3","4","4","4","4","4","4","4","5","4","4","4","1","1","2","2","3","2","1","1","1","0","0","0","0","0","0","0","1","0","1","1","0","0","0","0","3","1","2","3","2","3","4","4","3","4","2","631517716984889344","杨","257","","","","match","","","","","","","","","","","","","","key","j","6.056226415093988","768","428","j","true","match","img/square.png","方形","方形","ALT1","formal_ALT1_2","","","","","","","","","","","",""
"null","<span style='color:GreenYellow; font-size: 70px;'>正确! </span>","null","html-keyboard-response","126","2589467","0.0-7.0-1.0-4.0-0.0-1.9","3","4","4","3","3","3","4","2","3","4","4","4","4","4","4","4","5","4","4","4","1","1","2","2","3","2","1","1","1","0","0","0","0","0","0","0","1","0","1","1","0","0","0","0","3","1","2","3","2","3","4","4","3","4","2","631517716984889344","杨","257","","","","","","","","","","","","","","","","","","","","","","","","","","","","","","feedback_test","","","","","","","","","","","",""
"572","","f","psychophysics","127","2591040","0.0-7.0-1.0-4.0-0.0-0.10","3","4","4","3","3","3","4","2","3","4","4","4","4","4","4","4","5","4","4","4","1","1","2","2","3","2","1","1","1","0","0","0","0","0","0","0","1","0","1","1","0","0","0","0","3","1","2","3","2","3","4","4","3","4","2","631517716984889344","杨","257","","","","nonmatch","","","","","","","","","","","","","","key","f","6.06061776061848","768","428","f","true","nonmatch","img/triangle.png","六边","三角","ALT1","formal_ALT1_2","","","","","","","","","","","",""
"null","<span style='color:GreenYellow; font-size: 70px;'>正确! </span>","null","html-keyboard-response","128","2591542","0.0-7.0-1.0-4.0-0.0-1.10","3","4","4","3","3","3","4","2","3","4","4","4","4","4","4","4","5","4","4","4","1","1","2","2","3","2","1","1","1","0","0","0","0","0","0","0","1","0","1","1","0","0","0","0","3","1","2","3","2","3","4","4","3","4","2","631517716984889344","杨","257","","","","","","","","","","","","","","","","","","","","","","","","","","","","","","feedback_test","","","","","","","","","","","",""
"697","","j","psychophysics","129","2593241","0.0-7.0-1.0-4.0-0.0-0.11","3","4","4","3","3","3","4","2","3","4","4","4","4","4","4","4","5","4","4","4","1","1","2","2","3","2","1","1","1","0","0","0","0","0","0","0","1","0","1","1","0","0","0","0","3","1","2","3","2","3","4","4","3","4","2","631517716984889344","杨","257","","","","match","","","","","","","","","","","","","","key","j","6.060931899641577","768","428","j","true","match","img/ellipse.png","椭圆","椭圆","ALT1","formal_ALT1_2","","","","","","","","","","","",""
"null","<span style='color:GreenYellow; font-size: 70px;'>正确! </span>","null","html-keyboard-response","130","2593743","0.0-7.0-1.0-4.0-0.0-1.11","3","4","4","3","3","3","4","2","3","4","4","4","4","4","4","4","5","4","4","4","1","1","2","2","3","2","1","1","1","0","0","0","0","0","0","0","1","0","1","1","0","0","0","0","3","1","2","3","2","3","4","4","3","4","2","631517716984889344","杨","257","","","","","","","","","","","","","","","","","","","","","","","","","","","","","","feedback_test","","","","","","","","","","","",""
"702","","j","psychophysics","131","2595446","0.0-7.0-1.0-4.0-0.0-0.12","3","4","4","3","3","3","4","2","3","4","4","4","4","4","4","4","5","4","4","4","1","1","2","2","3","2","1","1","1","0","0","0","0","0","0","0","1","0","1","1","0","0","0","0","3","1","2","3","2","3","4","4","3","4","2","631517716984889344","杨","257","","","","match","","","","","","","","","","","","","","key","j","6.060357142858473","768","428","j","true","match","img/hexagon.png","六边","六边","ALT1","formal_ALT1_2","","","","","","","","","","","",""
"null","<span style='color:GreenYellow; font-size: 70px;'>正确! </span>","null","html-keyboard-response","132","2595947","0.0-7.0-1.0-4.0-0.0-1.12","3","4","4","3","3","3","4","2","3","4","4","4","4","4","4","4","5","4","4","4","1","1","2","2","3","2","1","1","1","0","0","0","0","0","0","0","1","0","1","1","0","0","0","0","3","1","2","3","2","3","4","4","3","4","2","631517716984889344","杨","257","","","","","","","","","","","","","","","","","","","","","","","","","","","","","","feedback_test","","","","","","","","","","","",""
"658","","f","psychophysics","133","2597606","0.0-7.0-1.0-4.0-0.0-0.13","3","4","4","3","3","3","4","2","3","4","4","4","4","4","4","4","5","4","4","4","1","1","2","2","3","2","1","1","1","0","0","0","0","0","0","0","1","0","1","1","0","0","0","0","3","1","2","3","2","3","4","4","3","4","2","631517716984889344","杨","257","","","","nonmatch","","","","","","","","","","","","","","key","f","6.060805860804496","768","428","f","true","nonmatch","img/triangle.png","椭圆","三角","ALT1","formal_ALT1_2","","","","","","","","","","","",""
"null","<span style='color:GreenYellow; font-size: 70px;'>正确! </span>","null","html-keyboard-response","134","2598107","0.0-7.0-1.0-4.0-0.0-1.13","3","4","4","3","3","3","4","2","3","4","4","4","4","4","4","4","5","4","4","4","1","1","2","2","3","2","1","1","1","0","0","0","0","0","0","0","1","0","1","1","0","0","0","0","3","1","2","3","2","3","4","4","3","4","2","631517716984889344","杨","257","","","","","","","","","","","","","","","","","","","","","","","","","","","","","","feedback_test","","","","","","","","","","","",""
"738","","j","psychophysics","135","2599846","0.0-7.0-1.0-4.0-0.0-0.14","3","4","4","3","3","3","4","2","3","4","4","4","4","4","4","4","5","4","4","4","1","1","2","2","3","2","1","1","1","0","0","0","0","0","0","0","1","0","1","1","0","0","0","0","3","1","2","3","2","3","4","4","3","4","2","631517716984889344","杨","257","","","","match","","","","","","","","","","","","","","key","j","6.060489510490488","768","428","j","true","match","img/hexagon.png","六边","六边","ALT1","formal_ALT1_2","","","","","","","","","","","",""
"null","<span style='color:GreenYellow; font-size: 70px;'>正确! </span>","null","html-keyboard-response","136","2600347","0.0-7.0-1.0-4.0-0.0-1.14","3","4","4","3","3","3","4","2","3","4","4","4","4","4","4","4","5","4","4","4","1","1","2","2","3","2","1","1","1","0","0","0","0","0","0","0","1","0","1","1","0","0","0","0","3","1","2","3","2","3","4","4","3","4","2","631517716984889344","杨","257","","","","","","","","","","","","","","","","","","","","","","","","","","","","","","feedback_test","","","","","","","","","","","",""
"696","","j","psychophysics","137","2602044","0.0-7.0-1.0-4.0-0.0-0.15","3","4","4","3","3","3","4","2","3","4","4","4","4","4","4","4","5","4","4","4","1","1","2","2","3","2","1","1","1","0","0","0","0","0","0","0","1","0","1","1","0","0","0","0","3","1","2","3","2","3","4","4","3","4","2","631517716984889344","杨","257","","","","match","","","","","","","","","","","","","","key","j","6.053597122301824","768","428","j","true","match","img/hexagon.png","六边","六边","ALT1","formal_ALT1_2","","","","","","","","","","","",""
"null","<span style='color:GreenYellow; font-size: 70px;'>正确! </span>","null","html-keyboard-response","138","2602545","0.0-7.0-1.0-4.0-0.0-1.15","3","4","4","3","3","3","4","2","3","4","4","4","4","4","4","4","5","4","4","4","1","1","2","2","3","2","1","1","1","0","0","0","0","0","0","0","1","0","1","1","0","0","0","0","3","1","2","3","2","3","4","4","3","4","2","631517716984889344","杨","257","","","","","","","","","","","","","","","","","","","","","","","","","","","","","","feedback_test","","","","","","","","","","","",""
"1065","","j","psychophysics","139","2604611","0.0-7.0-1.0-4.0-0.0-0.16","3","4","4","3","3","3","4","2","3","4","4","4","4","4","4","4","5","4","4","4","1","1","2","2","3","2","1","1","1","0","0","0","0","0","0","0","1","0","1","1","0","0","0","0","3","1","2","3","2","3","4","4","3","4","2","631517716984889344","杨","257","","","","match","","","","","","","","","","","","","","key","j","6.060588235293022","768","428","j","true","match","img/square.png","方形","方形","ALT1","formal_ALT1_2","","","","","","","","","","","",""
"null","<span style='color:GreenYellow; font-size: 70px;'>正确! </span>","null","html-keyboard-response","140","2605112","0.0-7.0-1.0-4.0-0.0-1.16","3","4","4","3","3","3","4","2","3","4","4","4","4","4","4","4","5","4","4","4","1","1","2","2","3","2","1","1","1","0","0","0","0","0","0","0","1","0","1","1","0","0","0","0","3","1","2","3","2","3","4","4","3","4","2","631517716984889344","杨","257","","","","","","","","","","","","","","","","","","","","","","","","","","","","","","feedback_test","","","","","","","","","","","",""
"596","","j","psychophysics","141","2606710","0.0-7.0-1.0-4.0-0.0-0.17","3","4","4","3","3","3","4","2","3","4","4","4","4","4","4","4","5","4","4","4","1","1","2","2","3","2","1","1","1","0","0","0","0","0","0","0","1","0","1","1","0","0","0","0","3","1","2","3","2","3","4","4","3","4","2","631517716984889344","杨","257","","","","match","","","","","","","","","","","","","","key","j","6.0606870229004075","768","428","j","true","match","img/triangle.png","三角","三角","ALT1","formal_ALT1_2","","","","","","","","","","","",""
"null","<span style='color:GreenYellow; font-size: 70px;'>正确! </span>","null","html-keyboard-response","142","2607211","0.0-7.0-1.0-4.0-0.0-1.17","3","4","4","3","3","3","4","2","3","4","4","4","4","4","4","4","5","4","4","4","1","1","2","2","3","2","1","1","1","0","0","0","0","0","0","0","1","0","1","1","0","0","0","0","3","1","2","3","2","3","4","4","3","4","2","631517716984889344","杨","257","","","","","","","","","","","","","","","","","","","","","","","","","","","","","","feedback_test","","","","","","","","","","","",""
"671","","j","psychophysics","143","2608883","0.0-7.0-1.0-4.0-0.0-0.18","3","4","4","3","3","3","4","2","3","4","4","4","4","4","4","4","5","4","4","4","1","1","2","2","3","2","1","1","1","0","0","0","0","0","0","0","1","0","1","1","0","0","0","0","3","1","2","3","2","3","4","4","3","4","2","631517716984889344","杨","257","","","","match","","","","","","","","","","","","","","key","j","6.061090909091925","768","428","j","true","match","img/triangle.png","三角","三角","ALT1","formal_ALT1_2","","","","","","","","","","","",""
"null","<span style='color:GreenYellow; font-size: 70px;'>正确! </span>","null","html-keyboard-response","144","2609384","0.0-7.0-1.0-4.0-0.0-1.18","3","4","4","3","3","3","4","2","3","4","4","4","4","4","4","4","5","4","4","4","1","1","2","2","3","2","1","1","1","0","0","0","0","0","0","0","1","0","1","1","0","0","0","0","3","1","2","3","2","3","4","4","3","4","2","631517716984889344","杨","257","","","","","","","","","","","","","","","","","","","","","","","","","","","","","","feedback_test","","","","","","","","","","","",""
"687","","f","psychophysics","145","2611071","0.0-7.0-1.0-4.0-0.0-0.19","3","4","4","3","3","3","4","2","3","4","4","4","4","4","4","4","5","4","4","4","1","1","2","2","3","2","1","1","1","0","0","0","0","0","0","0","1","0","1","1","0","0","0","0","3","1","2","3","2","3","4","4","3","4","2","631517716984889344","杨","257","","","","nonmatch","","","","","","","","","","","","","","key","f","6.057039711190663","768","428","f","true","nonmatch","img/square.png","椭圆","方形","ALT1","formal_ALT1_2","","","","","","","","","","","",""
"null","<span style='color:GreenYellow; font-size: 70px;'>正确! </span>","null","html-keyboard-response","146","2611572","0.0-7.0-1.0-4.0-0.0-1.19","3","4","4","3","3","3","4","2","3","4","4","4","4","4","4","4","5","4","4","4","1","1","2","2","3","2","1","1","1","0","0","0","0","0","0","0","1","0","1","1","0","0","0","0","3","1","2","3","2","3","4","4","3","4","2","631517716984889344","杨","257","","","","","","","","","","","","","","","","","","","","","","","","","","","","","","feedback_test","","","","","","","","","","","",""
"1004","","f","psychophysics","147","2613577","0.0-7.0-1.0-4.0-0.0-0.20","3","4","4","3","3","3","4","2","3","4","4","4","4","4","4","4","5","4","4","4","1","1","2","2","3","2","1","1","1","0","0","0","0","0","0","0","1","0","1","1","0","0","0","0","3","1","2","3","2","3","4","4","3","4","2","631517716984889344","杨","257","","","","nonmatch","","","","","","","","","","","","","","key","f","6.056231003039514","768","428","f","true","nonmatch","img/square.png","三角","方形","ALT1","formal_ALT1_2","","","","","","","","","","","",""
"null","<span style='color:GreenYellow; font-size: 70px;'>正确! </span>","null","html-keyboard-response","148","2614078","0.0-7.0-1.0-4.0-0.0-1.20","3","4","4","3","3","3","4","2","3","4","4","4","4","4","4","4","5","4","4","4","1","1","2","2","3","2","1","1","1","0","0","0","0","0","0","0","1","0","1","1","0","0","0","0","3","1","2","3","2","3","4","4","3","4","2","631517716984889344","杨","257","","","","","","","","","","","","","","","","","","","","","","","","","","","","","","feedback_test","","","","","","","","","","","",""
"815","","f","psychophysics","149","2615894","0.0-7.0-1.0-4.0-0.0-0.21","3","4","4","3","3","3","4","2","3","4","4","4","4","4","4","4","5","4","4","4","1","1","2","2","3","2","1","1","1","0","0","0","0","0","0","0","1","0","1","1","0","0","0","0","3","1","2","3","2","3","4","4","3","4","2","631517716984889344","杨","257","","","","nonmatch","","","","","","","","","","","","","","key","f","6.060535117057167","768","428","f","true","nonmatch","img/ellipse.png","六边","椭圆","ALT1","formal_ALT1_2","","","","","","","","","","","",""
"null","<span style='color:GreenYellow; font-size: 70px;'>正确! </span>","null","html-keyboard-response","150","2616395","0.0-7.0-1.0-4.0-0.0-1.21","3","4","4","3","3","3","4","2","3","4","4","4","4","4","4","4","5","4","4","4","1","1","2","2","3","2","1","1","1","0","0","0","0","0","0","0","1","0","1","1","0","0","0","0","3","1","2","3","2","3","4","4","3","4","2","631517716984889344","杨","257","","","","","","","","","","","","","","","","","","","","","","","","","","","","","","feedback_test","","","","","","","","","","","",""
"1199","","f","psychophysics","151","2618595","0.0-7.0-1.0-4.0-0.0-0.22","3","4","4","3","3","3","4","2","3","4","4","4","4","4","4","4","5","4","4","4","1","1","2","2","3","2","1","1","1","0","0","0","0","0","0","0","1","0","1","1","0","0","0","0","3","1","2","3","2","3","4","4","3","4","2","631517716984889344","杨","257","","","","nonmatch","","","","","","","","","","","","","","key","f","6.06049723757009","768","428","f","true","nonmatch","img/ellipse.png","方形","椭圆","ALT1","formal_ALT1_2","","","","","","","","","","","",""
"null","<span style='color:GreenYellow; font-size: 70px;'>正确! </span>","null","html-keyboard-response","152","2619096","0.0-7.0-1.0-4.0-0.0-1.22","3","4","4","3","3","3","4","2","3","4","4","4","4","4","4","4","5","4","4","4","1","1","2","2","3","2","1","1","1","0","0","0","0","0","0","0","1","0","1","1","0","0","0","0","3","1","2","3","2","3","4","4","3","4","2","631517716984889344","杨","257","","","","","","","","","","","","","","","","","","","","","","","","","","","","","","feedback_test","","","","","","","","","","","",""
"862","","f","psychophysics","153","2620959","0.0-7.0-1.0-4.0-0.0-0.23","3","4","4","3","3","3","4","2","3","4","4","4","4","4","4","4","5","4","4","4","1","1","2","2","3","2","1","1","1","0","0","0","0","0","0","0","1","0","1","1","0","0","0","0","3","1","2","3","2","3","4","4","3","4","2","631517716984889344","杨","257","","","","nonmatch","","","","","","","","","","","","","","key","f","6.060784313724273","768","428","f","true","nonmatch","img/hexagon.png","方形","六边","ALT1","formal_ALT1_2","","","","","","","","","","","",""
"null","<span style='color:GreenYellow; font-size: 70px;'>正确! </span>","null","html-keyboard-response","154","2621460","0.0-7.0-1.0-4.0-0.0-1.23","3","4","4","3","3","3","4","2","3","4","4","4","4","4","4","4","5","4","4","4","1","1","2","2","3","2","1","1","1","0","0","0","0","0","0","0","1","0","1","1","0","0","0","0","3","1","2","3","2","3","4","4","3","4","2","631517716984889344","杨","257","","","","","","","","","","","","","","","","","","","","","","","","","","","","","","feedback_test","","","","","","","","","","","",""
"602","","j","psychophysics","155","2623063","0.0-7.0-1.0-4.0-0.0-0.24","3","4","4","3","3","3","4","2","3","4","4","4","4","4","4","4","5","4","4","4","1","1","2","2","3","2","1","1","1","0","0","0","0","0","0","0","1","0","1","1","0","0","0","0","3","1","2","3","2","3","4","4","3","4","2","631517716984889344","杨","257","","","","match","","","","","","","","","","","","","","key","j","6.060456273763904","768","428","j","true","match","img/hexagon.png","六边","六边","ALT1","formal_ALT1_2","","","","","","","","","","","",""
"null","<span style='color:GreenYellow; font-size: 70px;'>正确! </span>","null","html-keyboard-response","156","2623564","0.0-7.0-1.0-4.0-0.0-1.24","3","4","4","3","3","3","4","2","3","4","4","4","4","4","4","4","5","4","4","4","1","1","2","2","3","2","1","1","1","0","0","0","0","0","0","0","1","0","1","1","0","0","0","0","3","1","2","3","2","3","4","4","3","4","2","631517716984889344","杨","257","","","","","","","","","","","","","","","","","","","","","","","","","","","","","","feedback_test","","","","","","","","","","","",""
"680","","j","psychophysics","157","2625245","0.0-7.0-1.0-4.0-0.0-0.25","3","4","4","3","3","3","4","2","3","4","4","4","4","4","4","4","5","4","4","4","1","1","2","2","3","2","1","1","1","0","0","0","0","0","0","0","1","0","1","1","0","0","0","0","3","1","2","3","2","3","4","4","3","4","2","631517716984889344","杨","257","","","","match","","","","","","","","","","","","","","key","j","6.060869565218404","768","428","j","true","match","img/hexagon.png","六边","六边","ALT1","formal_ALT1_2","","","","","","","","","","","",""
"null","<span style='color:GreenYellow; font-size: 70px;'>正确! </span>","null","html-keyboard-response","158","2625746","0.0-7.0-1.0-4.0-0.0-1.25","3","4","4","3","3","3","4","2","3","4","4","4","4","4","4","4","5","4","4","4","1","1","2","2","3","2","1","1","1","0","0","0","0","0","0","0","1","0","1","1","0","0","0","0","3","1","2","3","2","3","4","4","3","4","2","631517716984889344","杨","257","","","","","","","","","","","","","","","","","","","","","","","","","","","","","","feedback_test","","","","","","","","","","","",""
"750","","j","psychophysics","159","2627497","0.0-7.0-1.0-4.0-0.0-0.26","3","4","4","3","3","3","4","2","3","4","4","4","4","4","4","4","5","4","4","4","1","1","2","2","3","2","1","1","1","0","0","0","0","0","0","0","1","0","1","1","0","0","0","0","3","1","2","3","2","3","4","4","3","4","2","631517716984889344","杨","257","","","","match","","","","","","","","","","","","","","key","j","6.0604166666663435","768","428","j","true","match","img/ellipse.png","椭圆","椭圆","ALT1","formal_ALT1_2","","","","","","","","","","","",""
"null","<span style='color:GreenYellow; font-size: 70px;'>正确! </span>","null","html-keyboard-response","160","2627998","0.0-7.0-1.0-4.0-0.0-1.26","3","4","4","3","3","3","4","2","3","4","4","4","4","4","4","4","5","4","4","4","1","1","2","2","3","2","1","1","1","0","0","0","0","0","0","0","1","0","1","1","0","0","0","0","3","1","2","3","2","3","4","4","3","4","2","631517716984889344","杨","257","","","","","","","","","","","","","","","","","","","","","","","","","","","","","","feedback_test","","","","","","","","","","","",""
"573","","f","psychophysics","161","2629572","0.0-7.0-1.0-4.0-0.0-0.27","3","4","4","3","3","3","4","2","3","4","4","4","4","4","4","4","5","4","4","4","1","1","2","2","3","2","1","1","1","0","0","0","0","0","0","0","1","0","1","1","0","0","0","0","3","1","2","3","2","3","4","4","3","4","2","631517716984889344","杨","257","","","","nonmatch","","","","","","","","","","","","","","key","f","6.060852713177212","768","428","f","true","nonmatch","img/hexagon.png","椭圆","六边","ALT1","formal_ALT1_2","","","","","","","","","","","",""
"null","<span style='color:GreenYellow; font-size: 70px;'>正确! </span>","null","html-keyboard-response","162","2630072","0.0-7.0-1.0-4.0-0.0-1.27","3","4","4","3","3","3","4","2","3","4","4","4","4","4","4","4","5","4","4","4","1","1","2","2","3","2","1","1","1","0","0","0","0","0","0","0","1","0","1","1","0","0","0","0","3","1","2","3","2","3","4","4","3","4","2","631517716984889344","杨","257","","","","","","","","","","","","","","","","","","","","","","","","","","","","","","feedback_test","","","","","","","","","","","",""
"657","","f","psychophysics","163","2631731","0.0-7.0-1.0-4.0-0.0-0.28","3","4","4","3","3","3","4","2","3","4","4","4","4","4","4","4","5","4","4","4","1","1","2","2","3","2","1","1","1","0","0","0","0","0","0","0","1","0","1","1","0","0","0","0","3","1","2","3","2","3","4","4","3","4","2","631517716984889344","杨","257","","","","nonmatch","","","","","","","","","","","","","","key","f","6.060805860806202","768","428","f","true","nonmatch","img/triangle.png","六边","三角","ALT1","formal_ALT1_2","","","","","","","","","","","",""
"null","<span style='color:GreenYellow; font-size: 70px;'>正确! </span>","null","html-keyboard-response","164","2632232","0.0-7.0-1.0-4.0-0.0-1.28","3","4","4","3","3","3","4","2","3","4","4","4","4","4","4","4","5","4","4","4","1","1","2","2","3","2","1","1","1","0","0","0","0","0","0","0","1","0","1","1","0","0","0","0","3","1","2","3","2","3","4","4","3","4","2","631517716984889344","杨","257","","","","","","","","","","","","","","","","","","","","","","","","","","","","","","feedback_test","","","","","","","","","","","",""
"834","","j","psychophysics","165","2634067","0.0-7.0-1.0-4.0-0.0-0.29","3","4","4","3","3","3","4","2","3","4","4","4","4","4","4","4","5","4","4","4","1","1","2","2","3","2","1","1","1","0","0","0","0","0","0","0","1","0","1","1","0","0","0","0","3","1","2","3","2","3","4","4","3","4","2","631517716984889344","杨","257","","","","match","","","","","","","","","","","","","","key","j","6.060264900661326","768","428","f","false","nonmatch","img/hexagon.png","方形","六边","ALT1","formal_ALT1_2","","","","","","","","","","","",""
"null","<span style='color:red; font-size: 70px;'>错误! </span>","null","html-keyboard-response","166","2634568","0.0-7.0-1.0-4.0-0.0-1.29","3","4","4","3","3","3","4","2","3","4","4","4","4","4","4","4","5","4","4","4","1","1","2","2","3","2","1","1","1","0","0","0","0","0","0","0","1","0","1","1","0","0","0","0","3","1","2","3","2","3","4","4","3","4","2","631517716984889344","杨","257","","","","","","","","","","","","","","","","","","","","","","","","","","","","","","feedback_test","","","","","","","","","","","",""
"549","","j","psychophysics","167","2636118","0.0-7.0-1.0-4.0-0.0-0.30","3","4","4","3","3","3","4","2","3","4","4","4","4","4","4","4","5","4","4","4","1","1","2","2","3","2","1","1","1","0","0","0","0","0","0","0","1","0","1","1","0","0","0","0","3","1","2","3","2","3","4","4","3","4","2","631517716984889344","杨","257","","","","match","","","","","","","","","","","","","","key","j","6.060236220471707","768","428","j","true","match","img/ellipse.png","椭圆","椭圆","ALT1","formal_ALT1_2","","","","","","","","","","","",""
"null","<span style='color:GreenYellow; font-size: 70px;'>正确! </span>","null","html-keyboard-response","168","2636620","0.0-7.0-1.0-4.0-0.0-1.30","3","4","4","3","3","3","4","2","3","4","4","4","4","4","4","4","5","4","4","4","1","1","2","2","3","2","1","1","1","0","0","0","0","0","0","0","1","0","1","1","0","0","0","0","3","1","2","3","2","3","4","4","3","4","2","631517716984889344","杨","257","","","","","","","","","","","","","","","","","","","","","","","","","","","","","","feedback_test","","","","","","","","","","","",""
"542","","f","psychophysics","169","2638163","0.0-7.0-1.0-4.0-0.0-0.31","3","4","4","3","3","3","4","2","3","4","4","4","4","4","4","4","5","4","4","4","1","1","2","2","3","2","1","1","1","0","0","0","0","0","0","0","1","0","1","1","0","0","0","0","3","1","2","3","2","3","4","4","3","4","2","631517716984889344","杨","257","","","","nonmatch","","","","","","","","","","","","","","key","f","6.056521739129699","768","428","f","true","nonmatch","img/triangle.png","方形","三角","ALT1","formal_ALT1_2","","","","","","","","","","","",""
"null","<span style='color:GreenYellow; font-size: 70px;'>正确! </span>","null","html-keyboard-response","170","2638664","0.0-7.0-1.0-4.0-0.0-1.31","3","4","4","3","3","3","4","2","3","4","4","4","4","4","4","4","5","4","4","4","1","1","2","2","3","2","1","1","1","0","0","0","0","0","0","0","1","0","1","1","0","0","0","0","3","1","2","3","2","3","4","4","3","4","2","631517716984889344","杨","257","","","","","","","","","","","","","","","","","","","","","","","","","","","","","","feedback_test","","","","","","","","","","","",""
"612","","j","psychophysics","171","2640276","0.0-7.0-1.0-4.0-0.0-0.32","3","4","4","3","3","3","4","2","3","4","4","4","4","4","4","4","5","4","4","4","1","1","2","2","3","2","1","1","1","0","0","0","0","0","0","0","1","0","1","1","0","0","0","0","3","1","2","3","2","3","4","4","3","4","2","631517716984889344","杨","257","","","","match","","","","","","","","","","","","","","key","j","6.060754716981483","768","428","j","true","match","img/triangle.png","三角","三角","ALT1","formal_ALT1_2","","","","","","","","","","","",""
"null","<span style='color:GreenYellow; font-size: 70px;'>正确! </span>","null","html-keyboard-response","172","2640777","0.0-7.0-1.0-4.0-0.0-1.32","3","4","4","3","3","3","4","2","3","4","4","4","4","4","4","4","5","4","4","4","1","1","2","2","3","2","1","1","1","0","0","0","0","0","0","0","1","0","1","1","0","0","0","0","3","1","2","3","2","3","4","4","3","4","2","631517716984889344","杨","257","","","","","","","","","","","","","","","","","","","","","","","","","","","","","","feedback_test","","","","","","","","","","","",""
"682","","j","psychophysics","173","2642461","0.0-7.0-1.0-4.0-0.0-0.33","3","4","4","3","3","3","4","2","3","4","4","4","4","4","4","4","5","4","4","4","1","1","2","2","3","2","1","1","1","0","0","0","0","0","0","0","1","0","1","1","0","0","0","0","3","1","2","3","2","3","4","4","3","4","2","631517716984889344","杨","257","","","","match","","","","","","","","","","","","","","key","j","6.0606498194939125","768","428","j","true","match","img/square.png","方形","方形","ALT1","formal_ALT1_2","","","","","","","","","","","",""
"null","<span style='color:GreenYellow; font-size: 70px;'>正确! </span>","null","html-keyboard-response","174","2642962","0.0-7.0-1.0-4.0-0.0-1.33","3","4","4","3","3","3","4","2","3","4","4","4","4","4","4","4","5","4","4","4","1","1","2","2","3","2","1","1","1","0","0","0","0","0","0","0","1","0","1","1","0","0","0","0","3","1","2","3","2","3","4","4","3","4","2","631517716984889344","杨","257","","","","","","","","","","","","","","","","","","","","","","","","","","","","","","feedback_test","","","","","","","","","","","",""
"652","","f","psychophysics","175","2644615","0.0-7.0-1.0-4.0-0.0-0.34","3","4","4","3","3","3","4","2","3","4","4","4","4","4","4","4","5","4","4","4","1","1","2","2","3","2","1","1","1","0","0","0","0","0","0","0","1","0","1","1","0","0","0","0","3","1","2","3","2","3","4","4","3","4","2","631517716984889344","杨","257","","","","nonmatch","","","","","","","","","","","","","","key","f","6.060516605165708","768","428","f","true","nonmatch","img/triangle.png","椭圆","三角","ALT1","formal_ALT1_2","","","","","","","","","","","",""
"null","<span style='color:GreenYellow; font-size: 70px;'>正确! </span>","null","html-keyboard-response","176","2645116","0.0-7.0-1.0-4.0-0.0-1.34","3","4","4","3","3","3","4","2","3","4","4","4","4","4","4","4","5","4","4","4","1","1","2","2","3","2","1","1","1","0","0","0","0","0","0","0","1","0","1","1","0","0","0","0","3","1","2","3","2","3","4","4","3","4","2","631517716984889344","杨","257","","","","","","","","","","","","","","","","","","","","","","","","","","","","","","feedback_test","","","","","","","","","","","",""
"862","","f","psychophysics","177","2646979","0.0-7.0-1.0-4.0-0.0-0.35","3","4","4","3","3","3","4","2","3","4","4","4","4","4","4","4","5","4","4","4","1","1","2","2","3","2","1","1","1","0","0","0","0","0","0","0","1","0","1","1","0","0","0","0","3","1","2","3","2","3","4","4","3","4","2","631517716984889344","杨","257","","","","nonmatch","","","","","","","","","","","","","","key","f","6.060912052117871","768","428","f","true","nonmatch","img/ellipse.png","六边","椭圆","ALT1","formal_ALT1_2","","","","","","","","","","","",""
"null","<span style='color:GreenYellow; font-size: 70px;'>正确! </span>","null","html-keyboard-response","178","2647481","0.0-7.0-1.0-4.0-0.0-1.35","3","4","4","3","3","3","4","2","3","4","4","4","4","4","4","4","5","4","4","4","1","1","2","2","3","2","1","1","1","0","0","0","0","0","0","0","1","0","1","1","0","0","0","0","3","1","2","3","2","3","4","4","3","4","2","631517716984889344","杨","257","","","","","","","","","","","","","","","","","","","","","","","","","","","","","","feedback_test","","","","","","","","","","","",""
"757","","j","psychophysics","179","2649239","0.0-7.0-1.0-4.0-0.0-0.36","3","4","4","3","3","3","4","2","3","4","4","4","4","4","4","4","5","4","4","4","1","1","2","2","3","2","1","1","1","0","0","0","0","0","0","0","1","0","1","1","0","0","0","0","3","1","2","3","2","3","4","4","3","4","2","631517716984889344","杨","257","","","","match","","","","","","","","","","","","","","key","j","6.057638888889212","768","428","j","true","match","img/square.png","方形","方形","ALT1","formal_ALT1_2","","","","","","","","","","","",""
"null","<span style='color:GreenYellow; font-size: 70px;'>正确! </span>","null","html-keyboard-response","180","2649740","0.0-7.0-1.0-4.0-0.0-1.36","3","4","4","3","3","3","4","2","3","4","4","4","4","4","4","4","5","4","4","4","1","1","2","2","3","2","1","1","1","0","0","0","0","0","0","0","1","0","1","1","0","0","0","0","3","1","2","3","2","3","4","4","3","4","2","631517716984889344","杨","257","","","","","","","","","","","","","","","","","","","","","","","","","","","","","","feedback_test","","","","","","","","","","","",""
"846","","f","psychophysics","181","2651587","0.0-7.0-1.0-4.0-0.0-0.37","3","4","4","3","3","3","4","2","3","4","4","4","4","4","4","4","5","4","4","4","1","1","2","2","3","2","1","1","1","0","0","0","0","0","0","0","1","0","1","1","0","0","0","0","3","1","2","3","2","3","4","4","3","4","2","631517716984889344","杨","257","","","","nonmatch","","","","","","","","","","","","","","key","f","6.060526315789168","768","428","f","true","nonmatch","img/square.png","六边","方形","ALT1","formal_ALT1_2","","","","","","","","","","","",""
