"rt","stimulus","response","trial_type","trial_index","time_elapsed","internal_node_id","swb_1","swb_2","swb_3","swb_4","swb_5","LOT_1","LOT_2","LOT_3","LOT_4","LOT_5","LOT_6","IPC_1","IPC_2","IPC_3","IPC_4","IPC_5","IPC_6","IPC_7","IPC_8","MorIden_1","MorIden_2","MorIden_3","MorIden_4","MorIden_5","MorIden_6","MorIden_7","MorIden_8","MorIden_9","MorIden_10","moralSeImag_1","moralSeImag_2","moralSeImag_3","moralSeImag_4","moralSeImag_5","moralSeImag_6","moralSeImag_7","moralSeImag_8","moralSeImag_9","sde_1","sde_2","sde_3","sde_4","sde_5","sde_6","sde_7","sde_8","sde_9","sde_10","trap2","sde_11","sde_12","sde_13","sde_14","sde_15","sde_16","sde_17","sde_18","sde_19","sde_20","IM_1","IM_2","IM_3","IM_4","IM_5","IM_6","IM_7","IM_8","IM_9","IM_10","IM_11","IM_12","IM_13","IM_14","IM_15","IM_16","IM_17","IM_18","IM_19","IM_20","subj_idx","friend_name","ParticipantID","Sex","Word","Word2","value","success","timeout","failed_images","failed_audio","failed_video","user_agent","responses","item_order","radio_event_ids","radio_event_times","key_event_times","mouse_event_times","straightlining","zigzagging","honeypot","view_history","response_type","key_press","avg_frame_time","center_x","center_y","correct_response","correct","identity","Image","word","condition","task_id","screen_id","time_stamp","person","valence","domain","math","status","duration","question_order","trap2_item"
"2458","
   <p><div style='color:white; font-size: 25px'>您好，欢迎参加本次实验。</div></p>
   <p><div style='color:white; font-size: 25px'>为充分保障您的权利，请确保您已经知晓并同意《参与实验同意书》以及《数据公开知情同意书》。</div></p>
   <p><div style='color:white; font-size: 25px'>如果您未见过上述内容，请咨询实验员。</div></p>
   <p style='color:white; font-size: 25px'>如果您选择继续实验，则表示您已经清楚两份知情同意书的内容并同意。</p>
   <p><div style = ""color: pink;font-size:30px;"">请确保您记得day0的实验编号，您将在本次实验输入该编号，若您忘记，请咨询实验员后作答。</div></p>
   <p><div style = ""color:lightblue;font-size:25px;"">请您尽可能认真地作答，我们将依据您在各问卷和按键任务中的作答质量发放报酬。</div></p>
   <p> <div style = ""color: green""><按空格键至下页></div> </p>
   "," ","html-keyboard-response","0","2467","0.0-0.0","6","7","6","6","5","5","2","4","4","4","5","1","0","1","2","0","1","2","1","5","5","5","5","5","4","5","5","5","4","8","8","7","8","6","6","7","5","8","6","3","5","6","6","3","6","1","6","3","1","2","2","7","3","6","6","6","3","3","6","2","5","3","3","2","7","3","6","5","7","7","6","5","3","2","5","3","7","2","5","776852011219161090","刘","395","Male","[""坏我"",""坏他"",""好他"",""好我""]","[""弱我"",""弱他"",""强他"",""强我""]","","","","","","","","","","","","","","","","","","","","","","","","","","","","","","","","","","","","","","",""
"","","","call-function","1","2471","0.0-1.0-0.0","6","7","6","6","5","5","2","4","4","4","5","1","0","1","2","0","1","2","1","5","5","5","5","5","4","5","5","5","4","8","8","7","8","6","6","7","5","8","6","3","5","6","6","3","6","1","6","3","1","2","2","7","3","6","6","6","3","3","6","2","5","3","3","2","7","3","6","5","7","7","6","5","3","2","5","3","7","2","5","776852011219161090","刘","395","Male","[""坏我"",""坏他"",""好他"",""好我""]","[""弱我"",""弱他"",""强他"",""强我""]","","","","","","","","","","","","","","","","","","","","","","","","","","","","","","","","","","","","","","",""
"20955","","[{""name"":""Sex"",""value"":""0""},{""name"":""friend_name"",""value"":""刘""},{""name"":""ParticipantID"",""value"":""395""}]","survey-html-form","2","23428","0.0-1.0-1.0","6","7","6","6","5","5","2","4","4","4","5","1","0","1","2","0","1","2","1","5","5","5","5","5","4","5","5","5","4","8","8","7","8","6","6","7","5","8","6","3","5","6","6","3","6","1","6","3","1","2","2","7","3","6","6","6","3","3","6","2","5","3","3","2","7","3","6","5","7","7","6","5","3","2","5","3","7","2","5","776852011219161090","刘","395","Male","[""坏我"",""坏他"",""好他"",""好我""]","[""弱我"",""弱他"",""强他"",""强我""]","","","","","","","","","","","","","","","","","","","","","","","","","","","","","","","","","","","","","","",""
"","","","preload","3","24581","0.0-2.0","6","7","6","6","5","5","2","4","4","4","5","1","0","1","2","0","1","2","1","5","5","5","5","5","4","5","5","5","4","8","8","7","8","6","6","7","5","8","6","3","5","6","6","3","6","1","6","3","1","2","2","7","3","6","6","6","3","3","6","2","5","3","3","2","7","3","6","5","7","7","6","5","3","2","5","3","7","2","5","776852011219161090","刘","395","Male","[""坏我"",""坏他"",""好他"",""好我""]","[""弱我"",""弱他"",""强他"",""强我""]","","true","false","[]","[]","[]","","","","","","","","","","","","","","","","","","","","","","","","","","","","","","","","",""
"","","","fullscreen","4","26006","0.0-3.0","6","7","6","6","5","5","2","4","4","4","5","1","0","1","2","0","1","2","1","5","5","5","5","5","4","5","5","5","4","8","8","7","8","6","6","7","5","8","6","3","5","6","6","3","6","1","6","3","1","2","2","7","3","6","6","6","3","3","6","2","5","3","3","2","7","3","6","5","7","7","6","5","3","2","5","3","7","2","5","776852011219161090","刘","395","Male","[""坏我"",""坏他"",""好他"",""好我""]","[""弱我"",""弱他"",""强他"",""强我""]","","true","","","","","{}","","","","","","","","","","","","","","","","","","","","","","","","","","","","","","","",""
"14859.900000035763","","{""Q01"":""6"",""Q02"":""7"",""Q03"":""6"",""Q04"":""6"",""Q05"":""5""}","survey-template","5","40872","0.0-4.0","6","7","6","6","5","5","2","4","4","4","5","1","0","1","2","0","1","2","1","5","5","5","5","5","4","5","5","5","4","8","8","7","8","6","6","7","5","8","6","3","5","6","6","3","6","1","6","3","1","2","2","7","3","6","6","6","3","3","6","2","5","3","3","2","7","3","6","5","7","7","6","5","3","2","5","3","7","2","5","776852011219161090","刘","395","Male","[""坏我"",""坏他"",""好他"",""好我""]","[""弱我"",""弱他"",""强他"",""强我""]","","","","","","","","{""Q01"":""6"",""Q02"":""7"",""Q03"":""6"",""Q04"":""6"",""Q05"":""5""}","[0,1,2,3,4]","[""Q01"",""Q02"",""Q03"",""Q04"",""Q05""]","[5249.5,7091,8162.900000035763,9345.400000035763,11518.699999988079]","[]","[5249.5,6593.800000011921,7091,8162.900000035763,9065.5,9345.400000035763,11518.699999988079,12065.800000011921,13410.5,14857.699999988079]","0.6","0.75","0","","","","","","","","","","","","","","","","","","","","","","",""
"18943.100000023842","","{""Q01"":""5"",""Q02"":""2"",""Q03"":""4"",""Q04"":""4"",""Q05"":""4"",""Q06"":""5""}","survey-template","6","59822","0.0-5.0","6","7","6","6","5","5","2","4","4","4","5","1","0","1","2","0","1","2","1","5","5","5","5","5","4","5","5","5","4","8","8","7","8","6","6","7","5","8","6","3","5","6","6","3","6","1","6","3","1","2","2","7","3","6","6","6","3","3","6","2","5","3","3","2","7","3","6","5","7","7","6","5","3","2","5","3","7","2","5","776852011219161090","刘","395","Male","[""坏我"",""坏他"",""好他"",""好我""]","[""弱我"",""弱他"",""强他"",""强我""]","","","","","","","","{""Q01"":""5"",""Q02"":""2"",""Q03"":""4"",""Q04"":""4"",""Q05"":""4"",""Q06"":""5""}","[0,1,2,3,4,5]","[""Q01"",""Q02"",""Q03"",""Q04"",""Q05"",""Q06""]","[2014.199999988079,4270.199999988079,6854.600000023842,8062,9646.199999988079,18278.19999998808]","[]","[2014.199999988079,4270.199999988079,5999.199999988079,6854.600000023842,8062,9646.199999988079,16957.80000001192,17517.80000001192,18278.19999998808,18942.100000023842]","0.3333333333333333","0.2","0","","","","","","","","","","","","","","","","","","","","","","",""
"19852.099999964237","","{""Q01"":""1"",""Q02"":""0"",""Q03"":""1"",""Q04"":""2"",""Q05"":""0"",""Q06"":""1"",""Q07"":""2"",""Q08"":""1""}","survey-template","7","79680","0.0-6.0","6","7","6","6","5","5","2","4","4","4","5","1","0","1","2","0","1","2","1","5","5","5","5","5","4","5","5","5","4","8","8","7","8","6","6","7","5","8","6","3","5","6","6","3","6","1","6","3","1","2","2","7","3","6","6","6","3","3","6","2","5","3","3","2","7","3","6","5","7","7","6","5","3","2","5","3","7","2","5","776852011219161090","刘","395","Male","[""坏我"",""坏他"",""好他"",""好我""]","[""弱我"",""弱他"",""强他"",""强我""]","","","","","","","","{""Q01"":""1"",""Q02"":""0"",""Q03"":""1"",""Q04"":""2"",""Q05"":""0"",""Q06"":""1"",""Q07"":""2"",""Q08"":""1""}","[0,1,2,3,4,5,6,7]","[""Q01"",""Q02"",""Q03"",""Q02"",""Q02"",""Q04"",""Q05"",""Q06"",""Q07"",""Q08""]","[3825.7999999523163,4689.199999988079,6473.5,8057.799999952316,9594.399999976158,11641.199999988079,13513.299999952316,14785.699999988079,18161.19999998808,19097.19999998808]","[]","[1969.3999999761581,2329.099999964237,3393.5,3825.7999999523163,4378.199999988079,4689.199999988079,6473.5,7688.099999964237,8057.799999952316,9594.399999976158,11641.199999988079,13098.299999952316,13513.299999952316,14785.699999988079,16658.099999964237,18161.19999998808,19097.19999998808,19849.599999964237]","0.5","0.8571428571428571","0","","","","","","","","","","","","","","","","","","","","","","",""
"10617","","","instructions","8","90301","0.0-7.0","6","7","6","6","5","5","2","4","4","4","5","1","0","1","2","0","1","2","1","5","5","5","5","5","4","5","5","5","4","8","8","7","8","6","6","7","5","8","6","3","5","6","6","3","6","1","6","3","1","2","2","7","3","6","6","6","3","3","6","2","5","3","3","2","7","3","6","5","7","7","6","5","3","2","5","3","7","2","5","776852011219161090","刘","395","Male","[""坏我"",""坏他"",""好他"",""好我""]","[""弱我"",""弱他"",""强他"",""强我""]","","","","","","","","","","","","","","","","","[{""page_index"":0,""viewing_time"":10616}]","","","","","","","","","","","","","","","","","","","","","",""
"50926","","","instructions","9","141228","0.0-8.0-0.0-0.0","6","7","6","6","5","5","2","4","4","4","5","1","0","1","2","0","1","2","1","5","5","5","5","5","4","5","5","5","4","8","8","7","8","6","6","7","5","8","6","3","5","6","6","3","6","1","6","3","1","2","2","7","3","6","6","6","3","3","6","2","5","3","3","2","7","3","6","5","7","7","6","5","3","2","5","3","7","2","5","776852011219161090","刘","395","Male","[""坏我"",""坏他"",""好他"",""好我""]","[""弱我"",""弱他"",""强他"",""强我""]","","","","","","","","","","","","","","","","","[{""page_index"":0,""viewing_time"":3320},{""page_index"":1,""viewing_time"":45565},{""page_index"":2,""viewing_time"":1184},{""page_index"":3,""viewing_time"":856}]","","","","","","","","","","","","","","","","","","","","","",""
"835","","f","psychophysics","10","143069","0.0-8.0-0.0-1.0-0.0-0.0","6","7","6","6","5","5","2","4","4","4","5","1","0","1","2","0","1","2","1","5","5","5","5","5","4","5","5","5","4","8","8","7","8","6","6","7","5","8","6","3","5","6","6","3","6","1","6","3","1","2","2","7","3","6","6","6","3","3","6","2","5","3","3","2","7","3","6","5","7","7","6","5","3","2","5","3","7","2","5","776852011219161090","刘","395","Male","[""坏我"",""坏他"",""好他"",""好我""]","[""弱我"",""弱他"",""强他"",""强我""]","","","","","","","","nonmatch","","","","","","","","","","key","f","16.675027777777697","758.3333534223067","422.22223340729164","f","true","nonmatch","img/pentagon.png","好我","坏我","prac_ALT2_moral","practice_moral","","","","","","","","",""
"null","<span style='color:GreenYellow; font-size: 70px;'>正确! </span>","null","html-keyboard-response","11","143573","0.0-8.0-0.0-1.0-0.0-1.0","6","7","6","6","5","5","2","4","4","4","5","1","0","1","2","0","1","2","1","5","5","5","5","5","4","5","5","5","4","8","8","7","8","6","6","7","5","8","6","3","5","6","6","3","6","1","6","3","1","2","2","7","3","6","6","6","3","3","6","2","5","3","3","2","7","3","6","5","7","7","6","5","3","2","5","3","7","2","5","776852011219161090","刘","395","Male","[""坏我"",""坏他"",""好他"",""好我""]","[""弱我"",""弱他"",""强他"",""强我""]","","","","","","","","","","","","","","","","","","","","","","","","","","","","","","feedback_test","","","","","","","","",""
"722","","j","psychophysics","12","145296","0.0-8.0-0.0-1.0-0.0-0.1","6","7","6","6","5","5","2","4","4","4","5","1","0","1","2","0","1","2","1","5","5","5","5","5","4","5","5","5","4","8","8","7","8","6","6","7","5","8","6","3","5","6","6","3","6","1","6","3","1","2","2","7","3","6","6","6","3","3","6","2","5","3","3","2","7","3","6","5","7","7","6","5","3","2","5","3","7","2","5","776852011219161090","刘","395","Male","[""坏我"",""坏他"",""好他"",""好我""]","[""弱我"",""弱他"",""强他"",""强我""]","","","","","","","","match","","","","","","","","","","key","j","16.674215686274692","758.3333534223067","422.22223340729164","j","true","match","img/diamond.png","好他","好他","prac_ALT2_moral","practice_moral","","","","","","","","",""
"null","<span style='color:GreenYellow; font-size: 70px;'>正确! </span>","null","html-keyboard-response","13","145798","0.0-8.0-0.0-1.0-0.0-1.1","6","7","6","6","5","5","2","4","4","4","5","1","0","1","2","0","1","2","1","5","5","5","5","5","4","5","5","5","4","8","8","7","8","6","6","7","5","8","6","3","5","6","6","3","6","1","6","3","1","2","2","7","3","6","6","6","3","3","6","2","5","3","3","2","7","3","6","5","7","7","6","5","3","2","5","3","7","2","5","776852011219161090","刘","395","Male","[""坏我"",""坏他"",""好他"",""好我""]","[""弱我"",""弱他"",""强他"",""强我""]","","","","","","","","","","","","","","","","","","","","","","","","","","","","","","feedback_test","","","","","","","","",""
"804","","j","psychophysics","14","147606","0.0-8.0-0.0-1.0-0.0-0.2","6","7","6","6","5","5","2","4","4","4","5","1","0","1","2","0","1","2","1","5","5","5","5","5","4","5","5","5","4","8","8","7","8","6","6","7","5","8","6","3","5","6","6","3","6","1","6","3","1","2","2","7","3","6","6","6","3","3","6","2","5","3","3","2","7","3","6","5","7","7","6","5","3","2","5","3","7","2","5","776852011219161090","刘","395","Male","[""坏我"",""坏他"",""好他"",""好我""]","[""弱我"",""弱他"",""强他"",""强我""]","","","","","","","","match","","","","","","","","","","key","j","16.675158878504657","758.3333534223067","422.22223340729164","j","true","match","img/pentagon.png","坏我","坏我","prac_ALT2_moral","practice_moral","","","","","","","","",""
"null","<span style='color:GreenYellow; font-size: 70px;'>正确! </span>","null","html-keyboard-response","15","148112","0.0-8.0-0.0-1.0-0.0-1.2","6","7","6","6","5","5","2","4","4","4","5","1","0","1","2","0","1","2","1","5","5","5","5","5","4","5","5","5","4","8","8","7","8","6","6","7","5","8","6","3","5","6","6","3","6","1","6","3","1","2","2","7","3","6","6","6","3","3","6","2","5","3","3","2","7","3","6","5","7","7","6","5","3","2","5","3","7","2","5","776852011219161090","刘","395","Male","[""坏我"",""坏他"",""好他"",""好我""]","[""弱我"",""弱他"",""强他"",""强我""]","","","","","","","","","","","","","","","","","","","","","","","","","","","","","","feedback_test","","","","","","","","",""
"657","","f","psychophysics","16","149773","0.0-8.0-0.0-1.0-0.0-0.3","6","7","6","6","5","5","2","4","4","4","5","1","0","1","2","0","1","2","1","5","5","5","5","5","4","5","5","5","4","8","8","7","8","6","6","7","5","8","6","3","5","6","6","3","6","1","6","3","1","2","2","7","3","6","6","6","3","3","6","2","5","3","3","2","7","3","6","5","7","7","6","5","3","2","5","3","7","2","5","776852011219161090","刘","395","Male","[""坏我"",""坏他"",""好他"",""好我""]","[""弱我"",""弱他"",""强他"",""强我""]","","","","","","","","nonmatch","","","","","","","","","","key","f","16.67442857142869","758.3333534223067","422.22223340729164","f","true","nonmatch","img/square.png","好我","坏他","prac_ALT2_moral","practice_moral","","","","","","","","",""
"null","<span style='color:GreenYellow; font-size: 70px;'>正确! </span>","null","html-keyboard-response","17","150278","0.0-8.0-0.0-1.0-0.0-1.3","6","7","6","6","5","5","2","4","4","4","5","1","0","1","2","0","1","2","1","5","5","5","5","5","4","5","5","5","4","8","8","7","8","6","6","7","5","8","6","3","5","6","6","3","6","1","6","3","1","2","2","7","3","6","6","6","3","3","6","2","5","3","3","2","7","3","6","5","7","7","6","5","3","2","5","3","7","2","5","776852011219161090","刘","395","Male","[""坏我"",""坏他"",""好他"",""好我""]","[""弱我"",""弱他"",""强他"",""强我""]","","","","","","","","","","","","","","","","","","","","","","","","","","","","","","feedback_test","","","","","","","","",""
"724","","f","psychophysics","18","152006","0.0-8.0-0.0-1.0-0.0-0.4","6","7","6","6","5","5","2","4","4","4","5","1","0","1","2","0","1","2","1","5","5","5","5","5","4","5","5","5","4","8","8","7","8","6","6","7","5","8","6","3","5","6","6","3","6","1","6","3","1","2","2","7","3","6","6","6","3","3","6","2","5","3","3","2","7","3","6","5","7","7","6","5","3","2","5","3","7","2","5","776852011219161090","刘","395","Male","[""坏我"",""坏他"",""好他"",""好我""]","[""弱我"",""弱他"",""强他"",""强我""]","","","","","","","","nonmatch","","","","","","","","","","key","f","16.674588235294305","758.3333534223067","422.22223340729164","f","true","nonmatch","img/ellipse.png","坏我","好我","prac_ALT2_moral","practice_moral","","","","","","","","",""
"null","<span style='color:GreenYellow; font-size: 70px;'>正确! </span>","null","html-keyboard-response","19","152508","0.0-8.0-0.0-1.0-0.0-1.4","6","7","6","6","5","5","2","4","4","4","5","1","0","1","2","0","1","2","1","5","5","5","5","5","4","5","5","5","4","8","8","7","8","6","6","7","5","8","6","3","5","6","6","3","6","1","6","3","1","2","2","7","3","6","6","6","3","3","6","2","5","3","3","2","7","3","6","5","7","7","6","5","3","2","5","3","7","2","5","776852011219161090","刘","395","Male","[""坏我"",""坏他"",""好他"",""好我""]","[""弱我"",""弱他"",""强他"",""强我""]","","","","","","","","","","","","","","","","","","","","","","","","","","","","","","feedback_test","","","","","","","","",""
"711","","j","psychophysics","20","154223","0.0-8.0-0.0-1.0-0.0-0.5","6","7","6","6","5","5","2","4","4","4","5","1","0","1","2","0","1","2","1","5","5","5","5","5","4","5","5","5","4","8","8","7","8","6","6","7","5","8","6","3","5","6","6","3","6","1","6","3","1","2","2","7","3","6","6","6","3","3","6","2","5","3","3","2","7","3","6","5","7","7","6","5","3","2","5","3","7","2","5","776852011219161090","刘","395","Male","[""坏我"",""坏他"",""好他"",""好我""]","[""弱我"",""弱他"",""强他"",""强我""]","","","","","","","","match","","","","","","","","","","key","j","16.66799009900994","758.3333534223067","422.22223340729164","j","true","match","img/diamond.png","好他","好他","prac_ALT2_moral","practice_moral","","","","","","","","",""
"null","<span style='color:GreenYellow; font-size: 70px;'>正确! </span>","null","html-keyboard-response","21","154725","0.0-8.0-0.0-1.0-0.0-1.5","6","7","6","6","5","5","2","4","4","4","5","1","0","1","2","0","1","2","1","5","5","5","5","5","4","5","5","5","4","8","8","7","8","6","6","7","5","8","6","3","5","6","6","3","6","1","6","3","1","2","2","7","3","6","6","6","3","3","6","2","5","3","3","2","7","3","6","5","7","7","6","5","3","2","5","3","7","2","5","776852011219161090","刘","395","Male","[""坏我"",""坏他"",""好他"",""好我""]","[""弱我"",""弱他"",""强他"",""强我""]","","","","","","","","","","","","","","","","","","","","","","","","","","","","","","feedback_test","","","","","","","","",""
"696","","f","psychophysics","22","156426","0.0-8.0-0.0-1.0-0.0-0.6","6","7","6","6","5","5","2","4","4","4","5","1","0","1","2","0","1","2","1","5","5","5","5","5","4","5","5","5","4","8","8","7","8","6","6","7","5","8","6","3","5","6","6","3","6","1","6","3","1","2","2","7","3","6","6","6","3","3","6","2","5","3","3","2","7","3","6","5","7","7","6","5","3","2","5","3","7","2","5","776852011219161090","刘","395","Male","[""坏我"",""坏他"",""好他"",""好我""]","[""弱我"",""弱他"",""强他"",""强我""]","","","","","","","","nonmatch","","","","","","","","","","key","f","16.67501980198016","758.3333534223067","422.22223340729164","f","true","nonmatch","img/diamond.png","坏我","好他","prac_ALT2_moral","practice_moral","","","","","","","","",""
"null","<span style='color:GreenYellow; font-size: 70px;'>正确! </span>","null","html-keyboard-response","23","156930","0.0-8.0-0.0-1.0-0.0-1.6","6","7","6","6","5","5","2","4","4","4","5","1","0","1","2","0","1","2","1","5","5","5","5","5","4","5","5","5","4","8","8","7","8","6","6","7","5","8","6","3","5","6","6","3","6","1","6","3","1","2","2","7","3","6","6","6","3","3","6","2","5","3","3","2","7","3","6","5","7","7","6","5","3","2","5","3","7","2","5","776852011219161090","刘","395","Male","[""坏我"",""坏他"",""好他"",""好我""]","[""弱我"",""弱他"",""强他"",""强我""]","","","","","","","","","","","","","","","","","","","","","","","","","","","","","","feedback_test","","","","","","","","",""
"640","","j","psychophysics","24","158574","0.0-8.0-0.0-1.0-0.0-0.7","6","7","6","6","5","5","2","4","4","4","5","1","0","1","2","0","1","2","1","5","5","5","5","5","4","5","5","5","4","8","8","7","8","6","6","7","5","8","6","3","5","6","6","3","6","1","6","3","1","2","2","7","3","6","6","6","3","3","6","2","5","3","3","2","7","3","6","5","7","7","6","5","3","2","5","3","7","2","5","776852011219161090","刘","395","Male","[""坏我"",""坏他"",""好他"",""好我""]","[""弱我"",""弱他"",""强他"",""强我""]","","","","","","","","match","","","","","","","","","","key","j","16.674577319587716","758.3333534223067","422.22223340729164","j","true","match","img/ellipse.png","好我","好我","prac_ALT2_moral","practice_moral","","","","","","","","",""
"null","<span style='color:GreenYellow; font-size: 70px;'>正确! </span>","null","html-keyboard-response","25","159076","0.0-8.0-0.0-1.0-0.0-1.7","6","7","6","6","5","5","2","4","4","4","5","1","0","1","2","0","1","2","1","5","5","5","5","5","4","5","5","5","4","8","8","7","8","6","6","7","5","8","6","3","5","6","6","3","6","1","6","3","1","2","2","7","3","6","6","6","3","3","6","2","5","3","3","2","7","3","6","5","7","7","6","5","3","2","5","3","7","2","5","776852011219161090","刘","395","Male","[""坏我"",""坏他"",""好他"",""好我""]","[""弱我"",""弱他"",""强他"",""强我""]","","","","","","","","","","","","","","","","","","","","","","","","","","","","","","feedback_test","","","","","","","","",""
"722","","f","psychophysics","26","160802","0.0-8.0-0.0-1.0-0.0-0.8","6","7","6","6","5","5","2","4","4","4","5","1","0","1","2","0","1","2","1","5","5","5","5","5","4","5","5","5","4","8","8","7","8","6","6","7","5","8","6","3","5","6","6","3","6","1","6","3","1","2","2","7","3","6","6","6","3","3","6","2","5","3","3","2","7","3","6","5","7","7","6","5","3","2","5","3","7","2","5","776852011219161090","刘","395","Male","[""坏我"",""坏他"",""好他"",""好我""]","[""弱我"",""弱他"",""强他"",""强我""]","","","","","","","","nonmatch","","","","","","","","","","key","f","16.67384466019406","758.3333534223067","422.22223340729164","f","true","nonmatch","img/diamond.png","好我","好他","prac_ALT2_moral","practice_moral","","","","","","","","",""
"null","<span style='color:GreenYellow; font-size: 70px;'>正确! </span>","null","html-keyboard-response","27","161303","0.0-8.0-0.0-1.0-0.0-1.8","6","7","6","6","5","5","2","4","4","4","5","1","0","1","2","0","1","2","1","5","5","5","5","5","4","5","5","5","4","8","8","7","8","6","6","7","5","8","6","3","5","6","6","3","6","1","6","3","1","2","2","7","3","6","6","6","3","3","6","2","5","3","3","2","7","3","6","5","7","7","6","5","3","2","5","3","7","2","5","776852011219161090","刘","395","Male","[""坏我"",""坏他"",""好他"",""好我""]","[""弱我"",""弱他"",""强他"",""强我""]","","","","","","","","","","","","","","","","","","","","","","","","","","","","","","feedback_test","","","","","","","","",""
"699","","f","psychophysics","28","163005","0.0-8.0-0.0-1.0-0.0-0.9","6","7","6","6","5","5","2","4","4","4","5","1","0","1","2","0","1","2","1","5","5","5","5","5","4","5","5","5","4","8","8","7","8","6","6","7","5","8","6","3","5","6","6","3","6","1","6","3","1","2","2","7","3","6","6","6","3","3","6","2","5","3","3","2","7","3","6","5","7","7","6","5","3","2","5","3","7","2","5","776852011219161090","刘","395","Male","[""坏我"",""坏他"",""好他"",""好我""]","[""弱我"",""弱他"",""强他"",""强我""]","","","","","","","","nonmatch","","","","","","","","","","key","f","16.673871287128872","758.3333534223067","422.22223340729164","j","false","match","img/diamond.png","好他","好他","prac_ALT2_moral","practice_moral","","","","","","","","",""
"null","<span style='color:red; font-size: 70px;'>错误! </span>","null","html-keyboard-response","29","163508","0.0-8.0-0.0-1.0-0.0-1.9","6","7","6","6","5","5","2","4","4","4","5","1","0","1","2","0","1","2","1","5","5","5","5","5","4","5","5","5","4","8","8","7","8","6","6","7","5","8","6","3","5","6","6","3","6","1","6","3","1","2","2","7","3","6","6","6","3","3","6","2","5","3","3","2","7","3","6","5","7","7","6","5","3","2","5","3","7","2","5","776852011219161090","刘","395","Male","[""坏我"",""坏他"",""好他"",""好我""]","[""弱我"",""弱他"",""强他"",""强我""]","","","","","","","","","","","","","","","","","","","","","","","","","","","","","","feedback_test","","","","","","","","",""
"863","","j","psychophysics","30","165374","0.0-8.0-0.0-1.0-0.0-0.10","6","7","6","6","5","5","2","4","4","4","5","1","0","1","2","0","1","2","1","5","5","5","5","5","4","5","5","5","4","8","8","7","8","6","6","7","5","8","6","3","5","6","6","3","6","1","6","3","1","2","2","7","3","6","6","6","3","3","6","2","5","3","3","2","7","3","6","5","7","7","6","5","3","2","5","3","7","2","5","776852011219161090","刘","395","Male","[""坏我"",""坏他"",""好他"",""好我""]","[""弱我"",""弱他"",""强他"",""强我""]","","","","","","","","match","","","","","","","","","","key","j","16.67718018018006","758.3333534223067","422.22223340729164","j","true","match","img/square.png","坏他","坏他","prac_ALT2_moral","practice_moral","","","","","","","","",""
"null","<span style='color:GreenYellow; font-size: 70px;'>正确! </span>","null","html-keyboard-response","31","165876","0.0-8.0-0.0-1.0-0.0-1.10","6","7","6","6","5","5","2","4","4","4","5","1","0","1","2","0","1","2","1","5","5","5","5","5","4","5","5","5","4","8","8","7","8","6","6","7","5","8","6","3","5","6","6","3","6","1","6","3","1","2","2","7","3","6","6","6","3","3","6","2","5","3","3","2","7","3","6","5","7","7","6","5","3","2","5","3","7","2","5","776852011219161090","刘","395","Male","[""坏我"",""坏他"",""好他"",""好我""]","[""弱我"",""弱他"",""强他"",""强我""]","","","","","","","","","","","","","","","","","","","","","","","","","","","","","","feedback_test","","","","","","","","",""
"727","","f","psychophysics","32","167608","0.0-8.0-0.0-1.0-0.0-0.11","6","7","6","6","5","5","2","4","4","4","5","1","0","1","2","0","1","2","1","5","5","5","5","5","4","5","5","5","4","8","8","7","8","6","6","7","5","8","6","3","5","6","6","3","6","1","6","3","1","2","2","7","3","6","6","6","3","3","6","2","5","3","3","2","7","3","6","5","7","7","6","5","3","2","5","3","7","2","5","776852011219161090","刘","395","Male","[""坏我"",""坏他"",""好他"",""好我""]","[""弱我"",""弱他"",""强他"",""强我""]","","","","","","","","nonmatch","","","","","","","","","","key","f","16.67384466019434","758.3333534223067","422.22223340729164","f","true","nonmatch","img/ellipse.png","坏他","好我","prac_ALT2_moral","practice_moral","","","","","","","","",""
"null","<span style='color:GreenYellow; font-size: 70px;'>正确! </span>","null","html-keyboard-response","33","168110","0.0-8.0-0.0-1.0-0.0-1.11","6","7","6","6","5","5","2","4","4","4","5","1","0","1","2","0","1","2","1","5","5","5","5","5","4","5","5","5","4","8","8","7","8","6","6","7","5","8","6","3","5","6","6","3","6","1","6","3","1","2","2","7","3","6","6","6","3","3","6","2","5","3","3","2","7","3","6","5","7","7","6","5","3","2","5","3","7","2","5","776852011219161090","刘","395","Male","[""坏我"",""坏他"",""好他"",""好我""]","[""弱我"",""弱他"",""强他"",""强我""]","","","","","","","","","","","","","","","","","","","","","","","","","","","","","","feedback_test","","","","","","","","",""
"784","","f","psychophysics","34","169897","0.0-8.0-0.0-1.0-0.0-0.12","6","7","6","6","5","5","2","4","4","4","5","1","0","1","2","0","1","2","1","5","5","5","5","5","4","5","5","5","4","8","8","7","8","6","6","7","5","8","6","3","5","6","6","3","6","1","6","3","1","2","2","7","3","6","6","6","3","3","6","2","5","3","3","2","7","3","6","5","7","7","6","5","3","2","5","3","7","2","5","776852011219161090","刘","395","Male","[""坏我"",""坏他"",""好他"",""好我""]","[""弱我"",""弱他"",""强他"",""强我""]","","","","","","","","nonmatch","","","","","","","","","","key","f","16.674830188679305","758.3333534223067","422.22223340729164","f","true","nonmatch","img/pentagon.png","坏他","坏我","prac_ALT2_moral","practice_moral","","","","","","","","",""
"null","<span style='color:GreenYellow; font-size: 70px;'>正确! </span>","null","html-keyboard-response","35","170399","0.0-8.0-0.0-1.0-0.0-1.12","6","7","6","6","5","5","2","4","4","4","5","1","0","1","2","0","1","2","1","5","5","5","5","5","4","5","5","5","4","8","8","7","8","6","6","7","5","8","6","3","5","6","6","3","6","1","6","3","1","2","2","7","3","6","6","6","3","3","6","2","5","3","3","2","7","3","6","5","7","7","6","5","3","2","5","3","7","2","5","776852011219161090","刘","395","Male","[""坏我"",""坏他"",""好他"",""好我""]","[""弱我"",""弱他"",""强他"",""强我""]","","","","","","","","","","","","","","","","","","","","","","","","","","","","","","feedback_test","","","","","","","","",""
"774","","f","psychophysics","36","172178","0.0-8.0-0.0-1.0-0.0-0.13","6","7","6","6","5","5","2","4","4","4","5","1","0","1","2","0","1","2","1","5","5","5","5","5","4","5","5","5","4","8","8","7","8","6","6","7","5","8","6","3","5","6","6","3","6","1","6","3","1","2","2","7","3","6","6","6","3","3","6","2","5","3","3","2","7","3","6","5","7","7","6","5","3","2","5","3","7","2","5","776852011219161090","刘","395","Male","[""坏我"",""坏他"",""好他"",""好我""]","[""弱我"",""弱他"",""强他"",""强我""]","","","","","","","","nonmatch","","","","","","","","","","key","f","16.664590476190263","758.3333534223067","422.22223340729164","f","true","nonmatch","img/square.png","坏我","坏他","prac_ALT2_moral","practice_moral","","","","","","","","",""
"null","<span style='color:GreenYellow; font-size: 70px;'>正确! </span>","null","html-keyboard-response","37","172681","0.0-8.0-0.0-1.0-0.0-1.13","6","7","6","6","5","5","2","4","4","4","5","1","0","1","2","0","1","2","1","5","5","5","5","5","4","5","5","5","4","8","8","7","8","6","6","7","5","8","6","3","5","6","6","3","6","1","6","3","1","2","2","7","3","6","6","6","3","3","6","2","5","3","3","2","7","3","6","5","7","7","6","5","3","2","5","3","7","2","5","776852011219161090","刘","395","Male","[""坏我"",""坏他"",""好他"",""好我""]","[""弱我"",""弱他"",""强他"",""强我""]","","","","","","","","","","","","","","","","","","","","","","","","","","","","","","feedback_test","","","","","","","","",""
"797","","f","psychophysics","38","174481","0.0-8.0-0.0-1.0-0.0-0.14","6","7","6","6","5","5","2","4","4","4","5","1","0","1","2","0","1","2","1","5","5","5","5","5","4","5","5","5","4","8","8","7","8","6","6","7","5","8","6","3","5","6","6","3","6","1","6","3","1","2","2","7","3","6","6","6","3","3","6","2","5","3","3","2","7","3","6","5","7","7","6","5","3","2","5","3","7","2","5","776852011219161090","刘","395","Male","[""坏我"",""坏他"",""好他"",""好我""]","[""弱我"",""弱他"",""强他"",""强我""]","","","","","","","","nonmatch","","","","","","","","","","key","f","16.67471962616829","758.3333534223067","422.22223340729164","f","true","nonmatch","img/diamond.png","坏他","好他","prac_ALT2_moral","practice_moral","","","","","","","","",""
"null","<span style='color:GreenYellow; font-size: 70px;'>正确! </span>","null","html-keyboard-response","39","174984","0.0-8.0-0.0-1.0-0.0-1.14","6","7","6","6","5","5","2","4","4","4","5","1","0","1","2","0","1","2","1","5","5","5","5","5","4","5","5","5","4","8","8","7","8","6","6","7","5","8","6","3","5","6","6","3","6","1","6","3","1","2","2","7","3","6","6","6","3","3","6","2","5","3","3","2","7","3","6","5","7","7","6","5","3","2","5","3","7","2","5","776852011219161090","刘","395","Male","[""坏我"",""坏他"",""好他"",""好我""]","[""弱我"",""弱他"",""强他"",""强我""]","","","","","","","","","","","","","","","","","","","","","","","","","","","","","","feedback_test","","","","","","","","",""
"692","","j","psychophysics","40","176683","0.0-8.0-0.0-1.0-0.0-0.15","6","7","6","6","5","5","2","4","4","4","5","1","0","1","2","0","1","2","1","5","5","5","5","5","4","5","5","5","4","8","8","7","8","6","6","7","5","8","6","3","5","6","6","3","6","1","6","3","1","2","2","7","3","6","6","6","3","3","6","2","5","3","3","2","7","3","6","5","7","7","6","5","3","2","5","3","7","2","5","776852011219161090","刘","395","Male","[""坏我"",""坏他"",""好他"",""好我""]","[""弱我"",""弱他"",""强他"",""强我""]","","","","","","","","match","","","","","","","","","","key","j","16.674564356435873","758.3333534223067","422.22223340729164","j","true","match","img/ellipse.png","好我","好我","prac_ALT2_moral","practice_moral","","","","","","","","",""
"null","<span style='color:GreenYellow; font-size: 70px;'>正确! </span>","null","html-keyboard-response","41","177184","0.0-8.0-0.0-1.0-0.0-1.15","6","7","6","6","5","5","2","4","4","4","5","1","0","1","2","0","1","2","1","5","5","5","5","5","4","5","5","5","4","8","8","7","8","6","6","7","5","8","6","3","5","6","6","3","6","1","6","3","1","2","2","7","3","6","6","6","3","3","6","2","5","3","3","2","7","3","6","5","7","7","6","5","3","2","5","3","7","2","5","776852011219161090","刘","395","Male","[""坏我"",""坏他"",""好他"",""好我""]","[""弱我"",""弱他"",""强他"",""强我""]","","","","","","","","","","","","","","","","","","","","","","","","","","","","","","feedback_test","","","","","","","","",""
"762","","j","psychophysics","42","178950","0.0-8.0-0.0-1.0-0.0-0.16","6","7","6","6","5","5","2","4","4","4","5","1","0","1","2","0","1","2","1","5","5","5","5","5","4","5","5","5","4","8","8","7","8","6","6","7","5","8","6","3","5","6","6","3","6","1","6","3","1","2","2","7","3","6","6","6","3","3","6","2","5","3","3","2","7","3","6","5","7","7","6","5","3","2","5","3","7","2","5","776852011219161090","刘","395","Male","[""坏我"",""坏他"",""好他"",""好我""]","[""弱我"",""弱他"",""强他"",""强我""]","","","","","","","","match","","","","","","","","","","key","j","16.6747142857143","758.3333534223067","422.22223340729164","j","true","match","img/ellipse.png","好我","好我","prac_ALT2_moral","practice_moral","","","","","","","","",""
"null","<span style='color:GreenYellow; font-size: 70px;'>正确! </span>","null","html-keyboard-response","43","179454","0.0-8.0-0.0-1.0-0.0-1.16","6","7","6","6","5","5","2","4","4","4","5","1","0","1","2","0","1","2","1","5","5","5","5","5","4","5","5","5","4","8","8","7","8","6","6","7","5","8","6","3","5","6","6","3","6","1","6","3","1","2","2","7","3","6","6","6","3","3","6","2","5","3","3","2","7","3","6","5","7","7","6","5","3","2","5","3","7","2","5","776852011219161090","刘","395","Male","[""坏我"",""坏他"",""好他"",""好我""]","[""弱我"",""弱他"",""强他"",""强我""]","","","","","","","","","","","","","","","","","","","","","","","","","","","","","","feedback_test","","","","","","","","",""
"693","","f","psychophysics","44","181152","0.0-8.0-0.0-1.0-0.0-0.17","6","7","6","6","5","5","2","4","4","4","5","1","0","1","2","0","1","2","1","5","5","5","5","5","4","5","5","5","4","8","8","7","8","6","6","7","5","8","6","3","5","6","6","3","6","1","6","3","1","2","2","7","3","6","6","6","3","3","6","2","5","3","3","2","7","3","6","5","7","7","6","5","3","2","5","3","7","2","5","776852011219161090","刘","395","Male","[""坏我"",""坏他"",""好他"",""好我""]","[""弱我"",""弱他"",""强他"",""强我""]","","","","","","","","nonmatch","","","","","","","","","","key","f","16.663940000000004","758.3333534223067","422.22223340729164","f","true","nonmatch","img/ellipse.png","好他","好我","prac_ALT2_moral","practice_moral","","","","","","","","",""
"null","<span style='color:GreenYellow; font-size: 70px;'>正确! </span>","null","html-keyboard-response","45","181655","0.0-8.0-0.0-1.0-0.0-1.17","6","7","6","6","5","5","2","4","4","4","5","1","0","1","2","0","1","2","1","5","5","5","5","5","4","5","5","5","4","8","8","7","8","6","6","7","5","8","6","3","5","6","6","3","6","1","6","3","1","2","2","7","3","6","6","6","3","3","6","2","5","3","3","2","7","3","6","5","7","7","6","5","3","2","5","3","7","2","5","776852011219161090","刘","395","Male","[""坏我"",""坏他"",""好他"",""好我""]","[""弱我"",""弱他"",""强他"",""强我""]","","","","","","","","","","","","","","","","","","","","","","","","","","","","","","feedback_test","","","","","","","","",""
"886","","j","psychophysics","46","183547","0.0-8.0-0.0-1.0-0.0-0.18","6","7","6","6","5","5","2","4","4","4","5","1","0","1","2","0","1","2","1","5","5","5","5","5","4","5","5","5","4","8","8","7","8","6","6","7","5","8","6","3","5","6","6","3","6","1","6","3","1","2","2","7","3","6","6","6","3","3","6","2","5","3","3","2","7","3","6","5","7","7","6","5","3","2","5","3","7","2","5","776852011219161090","刘","395","Male","[""坏我"",""坏他"",""好他"",""好我""]","[""弱我"",""弱他"",""强他"",""强我""]","","","","","","","","match","","","","","","","","","","key","j","16.665026785714353","758.3333534223067","422.22223340729164","j","true","match","img/pentagon.png","坏我","坏我","prac_ALT2_moral","practice_moral","","","","","","","","",""
"null","<span style='color:GreenYellow; font-size: 70px;'>正确! </span>","null","html-keyboard-response","47","184050","0.0-8.0-0.0-1.0-0.0-1.18","6","7","6","6","5","5","2","4","4","4","5","1","0","1","2","0","1","2","1","5","5","5","5","5","4","5","5","5","4","8","8","7","8","6","6","7","5","8","6","3","5","6","6","3","6","1","6","3","1","2","2","7","3","6","6","6","3","3","6","2","5","3","3","2","7","3","6","5","7","7","6","5","3","2","5","3","7","2","5","776852011219161090","刘","395","Male","[""坏我"",""坏他"",""好他"",""好我""]","[""弱我"",""弱他"",""强他"",""强我""]","","","","","","","","","","","","","","","","","","","","","","","","","","","","","","feedback_test","","","","","","","","",""
"695","","f","psychophysics","48","185749","0.0-8.0-0.0-1.0-0.0-0.19","6","7","6","6","5","5","2","4","4","4","5","1","0","1","2","0","1","2","1","5","5","5","5","5","4","5","5","5","4","8","8","7","8","6","6","7","5","8","6","3","5","6","6","3","6","1","6","3","1","2","2","7","3","6","6","6","3","3","6","2","5","3","3","2","7","3","6","5","7","7","6","5","3","2","5","3","7","2","5","776852011219161090","刘","395","Male","[""坏我"",""坏他"",""好他"",""好我""]","[""弱我"",""弱他"",""强他"",""强我""]","","","","","","","","nonmatch","","","","","","","","","","key","f","16.678257425742437","758.3333534223067","422.22223340729164","j","false","match","img/square.png","坏他","坏他","prac_ALT2_moral","practice_moral","","","","","","","","",""
"null","<span style='color:red; font-size: 70px;'>错误! </span>","null","html-keyboard-response","49","186252","0.0-8.0-0.0-1.0-0.0-1.19","6","7","6","6","5","5","2","4","4","4","5","1","0","1","2","0","1","2","1","5","5","5","5","5","4","5","5","5","4","8","8","7","8","6","6","7","5","8","6","3","5","6","6","3","6","1","6","3","1","2","2","7","3","6","6","6","3","3","6","2","5","3","3","2","7","3","6","5","7","7","6","5","3","2","5","3","7","2","5","776852011219161090","刘","395","Male","[""坏我"",""坏他"",""好他"",""好我""]","[""弱我"",""弱他"",""强他"",""强我""]","","","","","","","","","","","","","","","","","","","","","","","","","","","","","","feedback_test","","","","","","","","",""
"767","","j","psychophysics","50","188023","0.0-8.0-0.0-1.0-0.0-0.20","6","7","6","6","5","5","2","4","4","4","5","1","0","1","2","0","1","2","1","5","5","5","5","5","4","5","5","5","4","8","8","7","8","6","6","7","5","8","6","3","5","6","6","3","6","1","6","3","1","2","2","7","3","6","6","6","3","3","6","2","5","3","3","2","7","3","6","5","7","7","6","5","3","2","5","3","7","2","5","776852011219161090","刘","395","Male","[""坏我"",""坏他"",""好他"",""好我""]","[""弱我"",""弱他"",""强他"",""强我""]","","","","","","","","match","","","","","","","","","","key","j","16.675304761904822","758.3333534223067","422.22223340729164","f","false","nonmatch","img/pentagon.png","好他","坏我","prac_ALT2_moral","practice_moral","","","","","","","","",""
"null","<span style='color:red; font-size: 70px;'>错误! </span>","null","html-keyboard-response","51","188530","0.0-8.0-0.0-1.0-0.0-1.20","6","7","6","6","5","5","2","4","4","4","5","1","0","1","2","0","1","2","1","5","5","5","5","5","4","5","5","5","4","8","8","7","8","6","6","7","5","8","6","3","5","6","6","3","6","1","6","3","1","2","2","7","3","6","6","6","3","3","6","2","5","3","3","2","7","3","6","5","7","7","6","5","3","2","5","3","7","2","5","776852011219161090","刘","395","Male","[""坏我"",""坏他"",""好他"",""好我""]","[""弱我"",""弱他"",""强他"",""强我""]","","","","","","","","","","","","","","","","","","","","","","","","","","","","","","feedback_test","","","","","","","","",""
"755","","j","psychophysics","52","190290","0.0-8.0-0.0-1.0-0.0-0.21","6","7","6","6","5","5","2","4","4","4","5","1","0","1","2","0","1","2","1","5","5","5","5","5","4","5","5","5","4","8","8","7","8","6","6","7","5","8","6","3","5","6","6","3","6","1","6","3","1","2","2","7","3","6","6","6","3","3","6","2","5","3","3","2","7","3","6","5","7","7","6","5","3","2","5","3","7","2","5","776852011219161090","刘","395","Male","[""坏我"",""坏他"",""好他"",""好我""]","[""弱我"",""弱他"",""强他"",""强我""]","","","","","","","","match","","","","","","","","","","key","j","16.674432692307725","758.3333534223067","422.22223340729164","j","true","match","img/square.png","坏他","坏他","prac_ALT2_moral","practice_moral","","","","","","","","",""
"null","<span style='color:GreenYellow; font-size: 70px;'>正确! </span>","null","html-keyboard-response","53","190792","0.0-8.0-0.0-1.0-0.0-1.21","6","7","6","6","5","5","2","4","4","4","5","1","0","1","2","0","1","2","1","5","5","5","5","5","4","5","5","5","4","8","8","7","8","6","6","7","5","8","6","3","5","6","6","3","6","1","6","3","1","2","2","7","3","6","6","6","3","3","6","2","5","3","3","2","7","3","6","5","7","7","6","5","3","2","5","3","7","2","5","776852011219161090","刘","395","Male","[""坏我"",""坏他"",""好他"",""好我""]","[""弱我"",""弱他"",""强他"",""强我""]","","","","","","","","","","","","","","","","","","","","","","","","","","","","","","feedback_test","","","","","","","","",""
"725","","j","psychophysics","54","192524","0.0-8.0-0.0-1.0-0.0-0.22","6","7","6","6","5","5","2","4","4","4","5","1","0","1","2","0","1","2","1","5","5","5","5","5","4","5","5","5","4","8","8","7","8","6","6","7","5","8","6","3","5","6","6","3","6","1","6","3","1","2","2","7","3","6","6","6","3","3","6","2","5","3","3","2","7","3","6","5","7","7","6","5","3","2","5","3","7","2","5","776852011219161090","刘","395","Male","[""坏我"",""坏他"",""好他"",""好我""]","[""弱我"",""弱他"",""强他"",""强我""]","","","","","","","","match","","","","","","","","","","key","j","16.66637254901962","758.3333534223067","422.22223340729164","j","true","match","img/pentagon.png","坏我","坏我","prac_ALT2_moral","practice_moral","","","","","","","","",""
"null","<span style='color:GreenYellow; font-size: 70px;'>正确! </span>","null","html-keyboard-response","55","193026","0.0-8.0-0.0-1.0-0.0-1.22","6","7","6","6","5","5","2","4","4","4","5","1","0","1","2","0","1","2","1","5","5","5","5","5","4","5","5","5","4","8","8","7","8","6","6","7","5","8","6","3","5","6","6","3","6","1","6","3","1","2","2","7","3","6","6","6","3","3","6","2","5","3","3","2","7","3","6","5","7","7","6","5","3","2","5","3","7","2","5","776852011219161090","刘","395","Male","[""坏我"",""坏他"",""好他"",""好我""]","[""弱我"",""弱他"",""强他"",""强我""]","","","","","","","","","","","","","","","","","","","","","","","","","","","","","","feedback_test","","","","","","","","",""
"780","","j","psychophysics","56","194809","0.0-8.0-0.0-1.0-0.0-0.23","6","7","6","6","5","5","2","4","4","4","5","1","0","1","2","0","1","2","1","5","5","5","5","5","4","5","5","5","4","8","8","7","8","6","6","7","5","8","6","3","5","6","6","3","6","1","6","3","1","2","2","7","3","6","6","6","3","3","6","2","5","3","3","2","7","3","6","5","7","7","6","5","3","2","5","3","7","2","5","776852011219161090","刘","395","Male","[""坏我"",""坏他"",""好他"",""好我""]","[""弱我"",""弱他"",""强他"",""强我""]","","","","","","","","match","","","","","","","","","","key","j","16.664771428571214","758.3333534223067","422.22223340729164","f","false","nonmatch","img/square.png","好他","坏他","prac_ALT2_moral","practice_moral","","","","","","","","",""
"null","<span style='color:red; font-size: 70px;'>错误! </span>","null","html-keyboard-response","57","195312","0.0-8.0-0.0-1.0-0.0-1.23","6","7","6","6","5","5","2","4","4","4","5","1","0","1","2","0","1","2","1","5","5","5","5","5","4","5","5","5","4","8","8","7","8","6","6","7","5","8","6","3","5","6","6","3","6","1","6","3","1","2","2","7","3","6","6","6","3","3","6","2","5","3","3","2","7","3","6","5","7","7","6","5","3","2","5","3","7","2","5","776852011219161090","刘","395","Male","[""坏我"",""坏他"",""好他"",""好我""]","[""弱我"",""弱他"",""强他"",""强我""]","","","","","","","","","","","","","","","","","","","","","","","","","","","","","","feedback_test","","","","","","","","",""
"605","","j","psychophysics","58","196925","0.0-8.0-0.0-1.0-0.0-0.24","6","7","6","6","5","5","2","4","4","4","5","1","0","1","2","0","1","2","1","5","5","5","5","5","4","5","5","5","4","8","8","7","8","6","6","7","5","8","6","3","5","6","6","3","6","1","6","3","1","2","2","7","3","6","6","6","3","3","6","2","5","3","3","2","7","3","6","5","7","7","6","5","3","2","5","3","7","2","5","776852011219161090","刘","395","Male","[""坏我"",""坏他"",""好他"",""好我""]","[""弱我"",""弱他"",""强他"",""强我""]","","","","","","","","match","","","","","","","","","","key","j","16.67390526315767","758.3333534223067","422.22223340729164","j","true","match","img/ellipse.png","好我","好我","prac_ALT2_moral","practice_moral","","","","","","","","",""
"null","<span style='color:GreenYellow; font-size: 70px;'>正确! </span>","null","html-keyboard-response","59","197428","0.0-8.0-0.0-1.0-0.0-1.24","6","7","6","6","5","5","2","4","4","4","5","1","0","1","2","0","1","2","1","5","5","5","5","5","4","5","5","5","4","8","8","7","8","6","6","7","5","8","6","3","5","6","6","3","6","1","6","3","1","2","2","7","3","6","6","6","3","3","6","2","5","3","3","2","7","3","6","5","7","7","6","5","3","2","5","3","7","2","5","776852011219161090","刘","395","Male","[""坏我"",""坏他"",""好他"",""好我""]","[""弱我"",""弱他"",""强他"",""强我""]","","","","","","","","","","","","","","","","","","","","","","","","","","","","","","feedback_test","","","","","","","","",""
"697","","f","psychophysics","60","199134","0.0-8.0-0.0-1.0-0.0-0.25","6","7","6","6","5","5","2","4","4","4","5","1","0","1","2","0","1","2","1","5","5","5","5","5","4","5","5","5","4","8","8","7","8","6","6","7","5","8","6","3","5","6","6","3","6","1","6","3","1","2","2","7","3","6","6","6","3","3","6","2","5","3","3","2","7","3","6","5","7","7","6","5","3","2","5","3","7","2","5","776852011219161090","刘","395","Male","[""坏我"",""坏他"",""好他"",""好我""]","[""弱我"",""弱他"",""强他"",""强我""]","","","","","","","","nonmatch","","","","","","","","","","key","f","16.67474509803915","758.3333534223067","422.22223340729164","j","false","match","img/diamond.png","好他","好他","prac_ALT2_moral","practice_moral","","","","","","","","",""
"null","<span style='color:red; font-size: 70px;'>错误! </span>","null","html-keyboard-response","61","199636","0.0-8.0-0.0-1.0-0.0-1.25","6","7","6","6","5","5","2","4","4","4","5","1","0","1","2","0","1","2","1","5","5","5","5","5","4","5","5","5","4","8","8","7","8","6","6","7","5","8","6","3","5","6","6","3","6","1","6","3","1","2","2","7","3","6","6","6","3","3","6","2","5","3","3","2","7","3","6","5","7","7","6","5","3","2","5","3","7","2","5","776852011219161090","刘","395","Male","[""坏我"",""坏他"",""好他"",""好我""]","[""弱我"",""弱他"",""强他"",""强我""]","","","","","","","","","","","","","","","","","","","","","","","","","","","","","","feedback_test","","","","","","","","",""
"913","","f","psychophysics","62","201553","0.0-8.0-0.0-1.0-0.0-0.26","6","7","6","6","5","5","2","4","4","4","5","1","0","1","2","0","1","2","1","5","5","5","5","5","4","5","5","5","4","8","8","7","8","6","6","7","5","8","6","3","5","6","6","3","6","1","6","3","1","2","2","7","3","6","6","6","3","3","6","2","5","3","3","2","7","3","6","5","7","7","6","5","3","2","5","3","7","2","5","776852011219161090","刘","395","Male","[""坏我"",""坏他"",""好他"",""好我""]","[""弱我"",""弱他"",""强他"",""强我""]","","","","","","","","nonmatch","","","","","","","","","","key","f","16.67438596491232","758.3333534223067","422.22223340729164","f","true","nonmatch","img/pentagon.png","坏他","坏我","prac_ALT2_moral","practice_moral","","","","","","","","",""
"null","<span style='color:GreenYellow; font-size: 70px;'>正确! </span>","null","html-keyboard-response","63","202066","0.0-8.0-0.0-1.0-0.0-1.26","6","7","6","6","5","5","2","4","4","4","5","1","0","1","2","0","1","2","1","5","5","5","5","5","4","5","5","5","4","8","8","7","8","6","6","7","5","8","6","3","5","6","6","3","6","1","6","3","1","2","2","7","3","6","6","6","3","3","6","2","5","3","3","2","7","3","6","5","7","7","6","5","3","2","5","3","7","2","5","776852011219161090","刘","395","Male","[""坏我"",""坏他"",""好他"",""好我""]","[""弱我"",""弱他"",""强他"",""强我""]","","","","","","","","","","","","","","","","","","","","","","","","","","","","","","feedback_test","","","","","","","","",""
"908","","j","psychophysics","64","203977","0.0-8.0-0.0-1.0-0.0-0.27","6","7","6","6","5","5","2","4","4","4","5","1","0","1","2","0","1","2","1","5","5","5","5","5","4","5","5","5","4","8","8","7","8","6","6","7","5","8","6","3","5","6","6","3","6","1","6","3","1","2","2","7","3","6","6","6","3","3","6","2","5","3","3","2","7","3","6","5","7","7","6","5","3","2","5","3","7","2","5","776852011219161090","刘","395","Male","[""坏我"",""坏他"",""好他"",""好我""]","[""弱我"",""弱他"",""强他"",""强我""]","","","","","","","","match","","","","","","","","","","key","j","16.67452212389372","758.3333534223067","422.22223340729164","j","true","match","img/pentagon.png","坏我","坏我","prac_ALT2_moral","practice_moral","","","","","","","","",""
"null","<span style='color:GreenYellow; font-size: 70px;'>正确! </span>","null","html-keyboard-response","65","204479","0.0-8.0-0.0-1.0-0.0-1.27","6","7","6","6","5","5","2","4","4","4","5","1","0","1","2","0","1","2","1","5","5","5","5","5","4","5","5","5","4","8","8","7","8","6","6","7","5","8","6","3","5","6","6","3","6","1","6","3","1","2","2","7","3","6","6","6","3","3","6","2","5","3","3","2","7","3","6","5","7","7","6","5","3","2","5","3","7","2","5","776852011219161090","刘","395","Male","[""坏我"",""坏他"",""好他"",""好我""]","[""弱我"",""弱他"",""强他"",""强我""]","","","","","","","","","","","","","","","","","","","","","","","","","","","","","","feedback_test","","","","","","","","",""
"661","","j","psychophysics","66","206143","0.0-8.0-0.0-1.0-0.0-0.28","6","7","6","6","5","5","2","4","4","4","5","1","0","1","2","0","1","2","1","5","5","5","5","5","4","5","5","5","4","8","8","7","8","6","6","7","5","8","6","3","5","6","6","3","6","1","6","3","1","2","2","7","3","6","6","6","3","3","6","2","5","3","3","2","7","3","6","5","7","7","6","5","3","2","5","3","7","2","5","776852011219161090","刘","395","Male","[""坏我"",""坏他"",""好他"",""好我""]","[""弱我"",""弱他"",""强他"",""强我""]","","","","","","","","match","","","","","","","","","","key","j","16.676646464646588","758.3333534223067","422.22223340729164","j","true","match","img/pentagon.png","坏我","坏我","prac_ALT2_moral","practice_moral","","","","","","","","",""
"null","<span style='color:GreenYellow; font-size: 70px;'>正确! </span>","null","html-keyboard-response","67","206646","0.0-8.0-0.0-1.0-0.0-1.28","6","7","6","6","5","5","2","4","4","4","5","1","0","1","2","0","1","2","1","5","5","5","5","5","4","5","5","5","4","8","8","7","8","6","6","7","5","8","6","3","5","6","6","3","6","1","6","3","1","2","2","7","3","6","6","6","3","3","6","2","5","3","3","2","7","3","6","5","7","7","6","5","3","2","5","3","7","2","5","776852011219161090","刘","395","Male","[""坏我"",""坏他"",""好他"",""好我""]","[""弱我"",""弱他"",""强他"",""强我""]","","","","","","","","","","","","","","","","","","","","","","","","","","","","","","feedback_test","","","","","","","","",""
"1060","","f","psychophysics","68","208710","0.0-8.0-0.0-1.0-0.0-0.29","6","7","6","6","5","5","2","4","4","4","5","1","0","1","2","0","1","2","1","5","5","5","5","5","4","5","5","5","4","8","8","7","8","6","6","7","5","8","6","3","5","6","6","3","6","1","6","3","1","2","2","7","3","6","6","6","3","3","6","2","5","3","3","2","7","3","6","5","7","7","6","5","3","2","5","3","7","2","5","776852011219161090","刘","395","Male","[""坏我"",""坏他"",""好他"",""好我""]","[""弱我"",""弱他"",""强他"",""强我""]","","","","","","","","nonmatch","","","","","","","","","","key","f","16.675065040650374","758.3333534223067","422.22223340729164","f","true","nonmatch","img/pentagon.png","好他","坏我","prac_ALT2_moral","practice_moral","","","","","","","","",""
"null","<span style='color:GreenYellow; font-size: 70px;'>正确! </span>","null","html-keyboard-response","69","209213","0.0-8.0-0.0-1.0-0.0-1.29","6","7","6","6","5","5","2","4","4","4","5","1","0","1","2","0","1","2","1","5","5","5","5","5","4","5","5","5","4","8","8","7","8","6","6","7","5","8","6","3","5","6","6","3","6","1","6","3","1","2","2","7","3","6","6","6","3","3","6","2","5","3","3","2","7","3","6","5","7","7","6","5","3","2","5","3","7","2","5","776852011219161090","刘","395","Male","[""坏我"",""坏他"",""好他"",""好我""]","[""弱我"",""弱他"",""强他"",""强我""]","","","","","","","","","","","","","","","","","","","","","","","","","","","","","","feedback_test","","","","","","","","",""
"643","","j","psychophysics","70","210860","0.0-8.0-0.0-1.0-0.0-0.30","6","7","6","6","5","5","2","4","4","4","5","1","0","1","2","0","1","2","1","5","5","5","5","5","4","5","5","5","4","8","8","7","8","6","6","7","5","8","6","3","5","6","6","3","6","1","6","3","1","2","2","7","3","6","6","6","3","3","6","2","5","3","3","2","7","3","6","5","7","7","6","5","3","2","5","3","7","2","5","776852011219161090","刘","395","Male","[""坏我"",""坏他"",""好他"",""好我""]","[""弱我"",""弱他"",""强他"",""强我""]","","","","","","","","match","","","","","","","","","","key","j","16.679153061224497","758.3333534223067","422.22223340729164","j","true","match","img/diamond.png","好他","好他","prac_ALT2_moral","practice_moral","","","","","","","","",""
"null","<span style='color:GreenYellow; font-size: 70px;'>正确! </span>","null","html-keyboard-response","71","211363","0.0-8.0-0.0-1.0-0.0-1.30","6","7","6","6","5","5","2","4","4","4","5","1","0","1","2","0","1","2","1","5","5","5","5","5","4","5","5","5","4","8","8","7","8","6","6","7","5","8","6","3","5","6","6","3","6","1","6","3","1","2","2","7","3","6","6","6","3","3","6","2","5","3","3","2","7","3","6","5","7","7","6","5","3","2","5","3","7","2","5","776852011219161090","刘","395","Male","[""坏我"",""坏他"",""好他"",""好我""]","[""弱我"",""弱他"",""强他"",""强我""]","","","","","","","","","","","","","","","","","","","","","","","","","","","","","","feedback_test","","","","","","","","",""
"638","","j","psychophysics","72","213010","0.0-8.0-0.0-1.0-0.0-0.31","6","7","6","6","5","5","2","4","4","4","5","1","0","1","2","0","1","2","1","5","5","5","5","5","4","5","5","5","4","8","8","7","8","6","6","7","5","8","6","3","5","6","6","3","6","1","6","3","1","2","2","7","3","6","6","6","3","3","6","2","5","3","3","2","7","3","6","5","7","7","6","5","3","2","5","3","7","2","5","776852011219161090","刘","395","Male","[""坏我"",""坏他"",""好他"",""好我""]","[""弱我"",""弱他"",""强他"",""强我""]","","","","","","","","match","","","","","","","","","","key","j","16.675499999999932","758.3333534223067","422.22223340729164","j","true","match","img/ellipse.png","好我","好我","prac_ALT2_moral","practice_moral","","","","","","","","",""
"null","<span style='color:GreenYellow; font-size: 70px;'>正确! </span>","null","html-keyboard-response","73","213513","0.0-8.0-0.0-1.0-0.0-1.31","6","7","6","6","5","5","2","4","4","4","5","1","0","1","2","0","1","2","1","5","5","5","5","5","4","5","5","5","4","8","8","7","8","6","6","7","5","8","6","3","5","6","6","3","6","1","6","3","1","2","2","7","3","6","6","6","3","3","6","2","5","3","3","2","7","3","6","5","7","7","6","5","3","2","5","3","7","2","5","776852011219161090","刘","395","Male","[""坏我"",""坏他"",""好他"",""好我""]","[""弱我"",""弱他"",""强他"",""强我""]","","","","","","","","","","","","","","","","","","","","","","","","","","","","","","feedback_test","","","","","","","","",""
"628","","f","psychophysics","74","215144","0.0-8.0-0.0-1.0-0.0-0.32","6","7","6","6","5","5","2","4","4","4","5","1","0","1","2","0","1","2","1","5","5","5","5","5","4","5","5","5","4","8","8","7","8","6","6","7","5","8","6","3","5","6","6","3","6","1","6","3","1","2","2","7","3","6","6","6","3","3","6","2","5","3","3","2","7","3","6","5","7","7","6","5","3","2","5","3","7","2","5","776852011219161090","刘","395","Male","[""坏我"",""坏他"",""好他"",""好我""]","[""弱我"",""弱他"",""强他"",""强我""]","","","","","","","","nonmatch","","","","","","","","","","key","f","16.676505154639315","758.3333534223067","422.22223340729164","f","true","nonmatch","img/pentagon.png","好我","坏我","prac_ALT2_moral","practice_moral","","","","","","","","",""
"null","<span style='color:GreenYellow; font-size: 70px;'>正确! </span>","null","html-keyboard-response","75","215646","0.0-8.0-0.0-1.0-0.0-1.32","6","7","6","6","5","5","2","4","4","4","5","1","0","1","2","0","1","2","1","5","5","5","5","5","4","5","5","5","4","8","8","7","8","6","6","7","5","8","6","3","5","6","6","3","6","1","6","3","1","2","2","7","3","6","6","6","3","3","6","2","5","3","3","2","7","3","6","5","7","7","6","5","3","2","5","3","7","2","5","776852011219161090","刘","395","Male","[""坏我"",""坏他"",""好他"",""好我""]","[""弱我"",""弱他"",""强他"",""强我""]","","","","","","","","","","","","","","","","","","","","","","","","","","","","","","feedback_test","","","","","","","","",""
"600","","j","psychophysics","76","217250","0.0-8.0-0.0-1.0-0.0-0.33","6","7","6","6","5","5","2","4","4","4","5","1","0","1","2","0","1","2","1","5","5","5","5","5","4","5","5","5","4","8","8","7","8","6","6","7","5","8","6","3","5","6","6","3","6","1","6","3","1","2","2","7","3","6","6","6","3","3","6","2","5","3","3","2","7","3","6","5","7","7","6","5","3","2","5","3","7","2","5","776852011219161090","刘","395","Male","[""坏我"",""坏他"",""好他"",""好我""]","[""弱我"",""弱他"",""强他"",""强我""]","","","","","","","","match","","","","","","","","","","key","j","16.674599999999995","758.3333534223067","422.22223340729164","f","false","nonmatch","img/diamond.png","好我","好他","prac_ALT2_moral","practice_moral","","","","","","","","",""
"null","<span style='color:red; font-size: 70px;'>错误! </span>","null","html-keyboard-response","77","217753","0.0-8.0-0.0-1.0-0.0-1.33","6","7","6","6","5","5","2","4","4","4","5","1","0","1","2","0","1","2","1","5","5","5","5","5","4","5","5","5","4","8","8","7","8","6","6","7","5","8","6","3","5","6","6","3","6","1","6","3","1","2","2","7","3","6","6","6","3","3","6","2","5","3","3","2","7","3","6","5","7","7","6","5","3","2","5","3","7","2","5","776852011219161090","刘","395","Male","[""坏我"",""坏他"",""好他"",""好我""]","[""弱我"",""弱他"",""强他"",""强我""]","","","","","","","","","","","","","","","","","","","","","","","","","","","","","","feedback_test","","","","","","","","",""
"691","","j","psychophysics","78","219447","0.0-8.0-0.0-1.0-0.0-0.34","6","7","6","6","5","5","2","4","4","4","5","1","0","1","2","0","1","2","1","5","5","5","5","5","4","5","5","5","4","8","8","7","8","6","6","7","5","8","6","3","5","6","6","3","6","1","6","3","1","2","2","7","3","6","6","6","3","3","6","2","5","3","3","2","7","3","6","5","7","7","6","5","3","2","5","3","7","2","5","776852011219161090","刘","395","Male","[""坏我"",""坏他"",""好他"",""好我""]","[""弱我"",""弱他"",""强他"",""强我""]","","","","","","","","match","","","","","","","","","","key","j","16.674891089108808","758.3333534223067","422.22223340729164","f","false","nonmatch","img/diamond.png","坏他","好他","prac_ALT2_moral","practice_moral","","","","","","","","",""
"null","<span style='color:red; font-size: 70px;'>错误! </span>","null","html-keyboard-response","79","219951","0.0-8.0-0.0-1.0-0.0-1.34","6","7","6","6","5","5","2","4","4","4","5","1","0","1","2","0","1","2","1","5","5","5","5","5","4","5","5","5","4","8","8","7","8","6","6","7","5","8","6","3","5","6","6","3","6","1","6","3","1","2","2","7","3","6","6","6","3","3","6","2","5","3","3","2","7","3","6","5","7","7","6","5","3","2","5","3","7","2","5","776852011219161090","刘","395","Male","[""坏我"",""坏他"",""好他"",""好我""]","[""弱我"",""弱他"",""强他"",""强我""]","","","","","","","","","","","","","","","","","","","","","","","","","","","","","","feedback_test","","","","","","","","",""
"802","","f","psychophysics","80","221757","0.0-8.0-0.0-1.0-0.0-0.35","6","7","6","6","5","5","2","4","4","4","5","1","0","1","2","0","1","2","1","5","5","5","5","5","4","5","5","5","4","8","8","7","8","6","6","7","5","8","6","3","5","6","6","3","6","1","6","3","1","2","2","7","3","6","6","6","3","3","6","2","5","3","3","2","7","3","6","5","7","7","6","5","3","2","5","3","7","2","5","776852011219161090","刘","395","Male","[""坏我"",""坏他"",""好他"",""好我""]","[""弱我"",""弱他"",""强他"",""强我""]","","","","","","","","nonmatch","","","","","","","","","","key","f","16.674635514018842","758.3333534223067","422.22223340729164","f","true","nonmatch","img/ellipse.png","坏我","好我","prac_ALT2_moral","practice_moral","","","","","","","","",""
"null","<span style='color:GreenYellow; font-size: 70px;'>正确! </span>","null","html-keyboard-response","81","222260","0.0-8.0-0.0-1.0-0.0-1.35","6","7","6","6","5","5","2","4","4","4","5","1","0","1","2","0","1","2","1","5","5","5","5","5","4","5","5","5","4","8","8","7","8","6","6","7","5","8","6","3","5","6","6","3","6","1","6","3","1","2","2","7","3","6","6","6","3","3","6","2","5","3","3","2","7","3","6","5","7","7","6","5","3","2","5","3","7","2","5","776852011219161090","刘","395","Male","[""坏我"",""坏他"",""好他"",""好我""]","[""弱我"",""弱他"",""强他"",""强我""]","","","","","","","","","","","","","","","","","","","","","","","","","","","","","","feedback_test","","","","","","","","",""
"549","","j","psychophysics","82","223814","0.0-8.0-0.0-1.0-0.0-0.36","6","7","6","6","5","5","2","4","4","4","5","1","0","1","2","0","1","2","1","5","5","5","5","5","4","5","5","5","4","8","8","7","8","6","6","7","5","8","6","3","5","6","6","3","6","1","6","3","1","2","2","7","3","6","6","6","3","3","6","2","5","3","3","2","7","3","6","5","7","7","6","5","3","2","5","3","7","2","5","776852011219161090","刘","395","Male","[""坏我"",""坏他"",""好他"",""好我""]","[""弱我"",""弱他"",""强他"",""强我""]","","","","","","","","match","","","","","","","","","","key","j","16.675391304347812","758.3333534223067","422.22223340729164","j","true","match","img/ellipse.png","好我","好我","prac_ALT2_moral","practice_moral","","","","","","","","",""
"null","<span style='color:GreenYellow; font-size: 70px;'>正确! </span>","null","html-keyboard-response","83","224316","0.0-8.0-0.0-1.0-0.0-1.36","6","7","6","6","5","5","2","4","4","4","5","1","0","1","2","0","1","2","1","5","5","5","5","5","4","5","5","5","4","8","8","7","8","6","6","7","5","8","6","3","5","6","6","3","6","1","6","3","1","2","2","7","3","6","6","6","3","3","6","2","5","3","3","2","7","3","6","5","7","7","6","5","3","2","5","3","7","2","5","776852011219161090","刘","395","Male","[""坏我"",""坏他"",""好他"",""好我""]","[""弱我"",""弱他"",""强他"",""强我""]","","","","","","","","","","","","","","","","","","","","","","","","","","","","","","feedback_test","","","","","","","","",""
"699","","j","psychophysics","84","226018","0.0-8.0-0.0-1.0-0.0-0.37","6","7","6","6","5","5","2","4","4","4","5","1","0","1","2","0","1","2","1","5","5","5","5","5","4","5","5","5","4","8","8","7","8","6","6","7","5","8","6","3","5","6","6","3","6","1","6","3","1","2","2","7","3","6","6","6","3","3","6","2","5","3","3","2","7","3","6","5","7","7","6","5","3","2","5","3","7","2","5","776852011219161090","刘","395","Male","[""坏我"",""坏他"",""好他"",""好我""]","[""弱我"",""弱他"",""强他"",""强我""]","","","","","","","","match","","","","","","","","","","key","j","16.674712871287205","758.3333534223067","422.22223340729164","j","true","match","img/square.png","坏他","坏他","prac_ALT2_moral","practice_moral","","","","","","","","",""
"null","<span style='color:GreenYellow; font-size: 70px;'>正确! </span>","null","html-keyboard-response","85","226521","0.0-8.0-0.0-1.0-0.0-1.37","6","7","6","6","5","5","2","4","4","4","5","1","0","1","2","0","1","2","1","5","5","5","5","5","4","5","5","5","4","8","8","7","8","6","6","7","5","8","6","3","5","6","6","3","6","1","6","3","1","2","2","7","3","6","6","6","3","3","6","2","5","3","3","2","7","3","6","5","7","7","6","5","3","2","5","3","7","2","5","776852011219161090","刘","395","Male","[""坏我"",""坏他"",""好他"",""好我""]","[""弱我"",""弱他"",""强他"",""强我""]","","","","","","","","","","","","","","","","","","","","","","","","","","","","","","feedback_test","","","","","","","","",""
"527","","f","psychophysics","86","228050","0.0-8.0-0.0-1.0-0.0-0.38","6","7","6","6","5","5","2","4","4","4","5","1","0","1","2","0","1","2","1","5","5","5","5","5","4","5","5","5","4","8","8","7","8","6","6","7","5","8","6","3","5","6","6","3","6","1","6","3","1","2","2","7","3","6","6","6","3","3","6","2","5","3","3","2","7","3","6","5","7","7","6","5","3","2","5","3","7","2","5","776852011219161090","刘","395","Male","[""坏我"",""坏他"",""好他"",""好我""]","[""弱我"",""弱他"",""强他"",""强我""]","","","","","","","","nonmatch","","","","","","","","","","key","f","16.67471428571434","758.3333534223067","422.22223340729164","j","false","match","img/pentagon.png","坏我","坏我","prac_ALT2_moral","practice_moral","","","","","","","","",""
"null","<span style='color:red; font-size: 70px;'>错误! </span>","null","html-keyboard-response","87","228552","0.0-8.0-0.0-1.0-0.0-1.38","6","7","6","6","5","5","2","4","4","4","5","1","0","1","2","0","1","2","1","5","5","5","5","5","4","5","5","5","4","8","8","7","8","6","6","7","5","8","6","3","5","6","6","3","6","1","6","3","1","2","2","7","3","6","6","6","3","3","6","2","5","3","3","2","7","3","6","5","7","7","6","5","3","2","5","3","7","2","5","776852011219161090","刘","395","Male","[""坏我"",""坏他"",""好他"",""好我""]","[""弱我"",""弱他"",""强他"",""强我""]","","","","","","","","","","","","","","","","","","","","","","","","","","","","","","feedback_test","","","","","","","","",""
"625","","f","psychophysics","88","230187","0.0-8.0-0.0-1.0-0.0-0.39","6","7","6","6","5","5","2","4","4","4","5","1","0","1","2","0","1","2","1","5","5","5","5","5","4","5","5","5","4","8","8","7","8","6","6","7","5","8","6","3","5","6","6","3","6","1","6","3","1","2","2","7","3","6","6","6","3","3","6","2","5","3","3","2","7","3","6","5","7","7","6","5","3","2","5","3","7","2","5","776852011219161090","刘","395","Male","[""坏我"",""坏他"",""好他"",""好我""]","[""弱我"",""弱他"",""强他"",""强我""]","","","","","","","","nonmatch","","","","","","","","","","key","f","16.674649484535998","758.3333534223067","422.22223340729164","f","true","nonmatch","img/ellipse.png","坏他","好我","prac_ALT2_moral","practice_moral","","","","","","","","",""
"null","<span style='color:GreenYellow; font-size: 70px;'>正确! </span>","null","html-keyboard-response","89","230690","0.0-8.0-0.0-1.0-0.0-1.39","6","7","6","6","5","5","2","4","4","4","5","1","0","1","2","0","1","2","1","5","5","5","5","5","4","5","5","5","4","8","8","7","8","6","6","7","5","8","6","3","5","6","6","3","6","1","6","3","1","2","2","7","3","6","6","6","3","3","6","2","5","3","3","2","7","3","6","5","7","7","6","5","3","2","5","3","7","2","5","776852011219161090","刘","395","Male","[""坏我"",""坏他"",""好他"",""好我""]","[""弱我"",""弱他"",""强他"",""强我""]","","","","","","","","","","","","","","","","","","","","","","","","","","","","","","feedback_test","","","","","","","","",""
"642","","j","psychophysics","90","232336","0.0-8.0-0.0-1.0-0.0-0.40","6","7","6","6","5","5","2","4","4","4","5","1","0","1","2","0","1","2","1","5","5","5","5","5","4","5","5","5","4","8","8","7","8","6","6","7","5","8","6","3","5","6","6","3","6","1","6","3","1","2","2","7","3","6","6","6","3","3","6","2","5","3","3","2","7","3","6","5","7","7","6","5","3","2","5","3","7","2","5","776852011219161090","刘","395","Male","[""坏我"",""坏他"",""好他"",""好我""]","[""弱我"",""弱他"",""强他"",""强我""]","","","","","","","","match","","","","","","","","","","key","j","16.67680612244888","758.3333534223067","422.22223340729164","f","false","nonmatch","img/ellipse.png","好他","好我","prac_ALT2_moral","practice_moral","","","","","","","","",""
"null","<span style='color:red; font-size: 70px;'>错误! </span>","null","html-keyboard-response","91","232839","0.0-8.0-0.0-1.0-0.0-1.40","6","7","6","6","5","5","2","4","4","4","5","1","0","1","2","0","1","2","1","5","5","5","5","5","4","5","5","5","4","8","8","7","8","6","6","7","5","8","6","3","5","6","6","3","6","1","6","3","1","2","2","7","3","6","6","6","3","3","6","2","5","3","3","2","7","3","6","5","7","7","6","5","3","2","5","3","7","2","5","776852011219161090","刘","395","Male","[""坏我"",""坏他"",""好他"",""好我""]","[""弱我"",""弱他"",""强他"",""强我""]","","","","","","","","","","","","","","","","","","","","","","","","","","","","","","feedback_test","","","","","","","","",""
"777","","f","psychophysics","92","234620","0.0-8.0-0.0-1.0-0.0-0.41","6","7","6","6","5","5","2","4","4","4","5","1","0","1","2","0","1","2","1","5","5","5","5","5","4","5","5","5","4","8","8","7","8","6","6","7","5","8","6","3","5","6","6","3","6","1","6","3","1","2","2","7","3","6","6","6","3","3","6","2","5","3","3","2","7","3","6","5","7","7","6","5","3","2","5","3","7","2","5","776852011219161090","刘","395","Male","[""坏我"",""坏他"",""好他"",""好我""]","[""弱我"",""弱他"",""强他"",""强我""]","","","","","","","","nonmatch","","","","","","","","","","key","f","16.674613207547083","758.3333534223067","422.22223340729164","f","true","nonmatch","img/square.png","好他","坏他","prac_ALT2_moral","practice_moral","","","","","","","","",""
"null","<span style='color:GreenYellow; font-size: 70px;'>正确! </span>","null","html-keyboard-response","93","235123","0.0-8.0-0.0-1.0-0.0-1.41","6","7","6","6","5","5","2","4","4","4","5","1","0","1","2","0","1","2","1","5","5","5","5","5","4","5","5","5","4","8","8","7","8","6","6","7","5","8","6","3","5","6","6","3","6","1","6","3","1","2","2","7","3","6","6","6","3","3","6","2","5","3","3","2","7","3","6","5","7","7","6","5","3","2","5","3","7","2","5","776852011219161090","刘","395","Male","[""坏我"",""坏他"",""好他"",""好我""]","[""弱我"",""弱他"",""强他"",""强我""]","","","","","","","","","","","","","","","","","","","","","","","","","","","","","","feedback_test","","","","","","","","",""
"630","","j","psychophysics","94","236757","0.0-8.0-0.0-1.0-0.0-0.42","6","7","6","6","5","5","2","4","4","4","5","1","0","1","2","0","1","2","1","5","5","5","5","5","4","5","5","5","4","8","8","7","8","6","6","7","5","8","6","3","5","6","6","3","6","1","6","3","1","2","2","7","3","6","6","6","3","3","6","2","5","3","3","2","7","3","6","5","7","7","6","5","3","2","5","3","7","2","5","776852011219161090","刘","395","Male","[""坏我"",""坏他"",""好他"",""好我""]","[""弱我"",""弱他"",""强他"",""强我""]","","","","","","","","match","","","","","","","","","","key","j","16.676072164948433","758.3333534223067","422.22223340729164","j","true","match","img/diamond.png","好他","好他","prac_ALT2_moral","practice_moral","","","","","","","","",""
"null","<span style='color:GreenYellow; font-size: 70px;'>正确! </span>","null","html-keyboard-response","95","237258","0.0-8.0-0.0-1.0-0.0-1.42","6","7","6","6","5","5","2","4","4","4","5","1","0","1","2","0","1","2","1","5","5","5","5","5","4","5","5","5","4","8","8","7","8","6","6","7","5","8","6","3","5","6","6","3","6","1","6","3","1","2","2","7","3","6","6","6","3","3","6","2","5","3","3","2","7","3","6","5","7","7","6","5","3","2","5","3","7","2","5","776852011219161090","刘","395","Male","[""坏我"",""坏他"",""好他"",""好我""]","[""弱我"",""弱他"",""强他"",""强我""]","","","","","","","","","","","","","","","","","","","","","","","","","","","","","","feedback_test","","","","","","","","",""
"845","","f","psychophysics","96","239106","0.0-8.0-0.0-1.0-0.0-0.43","6","7","6","6","5","5","2","4","4","4","5","1","0","1","2","0","1","2","1","5","5","5","5","5","4","5","5","5","4","8","8","7","8","6","6","7","5","8","6","3","5","6","6","3","6","1","6","3","1","2","2","7","3","6","6","6","3","3","6","2","5","3","3","2","7","3","6","5","7","7","6","5","3","2","5","3","7","2","5","776852011219161090","刘","395","Male","[""坏我"",""坏他"",""好他"",""好我""]","[""弱我"",""弱他"",""强他"",""强我""]","","","","","","","","nonmatch","","","","","","","","","","key","f","16.675690909090918","758.3333534223067","422.22223340729164","f","true","nonmatch","img/square.png","好我","坏他","prac_ALT2_moral","practice_moral","","","","","","","","",""
"null","<span style='color:GreenYellow; font-size: 70px;'>正确! </span>","null","html-keyboard-response","97","239610","0.0-8.0-0.0-1.0-0.0-1.43","6","7","6","6","5","5","2","4","4","4","5","1","0","1","2","0","1","2","1","5","5","5","5","5","4","5","5","5","4","8","8","7","8","6","6","7","5","8","6","3","5","6","6","3","6","1","6","3","1","2","2","7","3","6","6","6","3","3","6","2","5","3","3","2","7","3","6","5","7","7","6","5","3","2","5","3","7","2","5","776852011219161090","刘","395","Male","[""坏我"",""坏他"",""好他"",""好我""]","[""弱我"",""弱他"",""强他"",""强我""]","","","","","","","","","","","","","","","","","","","","","","","","","","","","","","feedback_test","","","","","","","","",""
"616","","f","psychophysics","98","241238","0.0-8.0-0.0-1.0-0.0-0.44","6","7","6","6","5","5","2","4","4","4","5","1","0","1","2","0","1","2","1","5","5","5","5","5","4","5","5","5","4","8","8","7","8","6","6","7","5","8","6","3","5","6","6","3","6","1","6","3","1","2","2","7","3","6","6","6","3","3","6","2","5","3","3","2","7","3","6","5","7","7","6","5","3","2","5","3","7","2","5","776852011219161090","刘","395","Male","[""坏我"",""坏他"",""好他"",""好我""]","[""弱我"",""弱他"",""强他"",""强我""]","","","","","","","","nonmatch","","","","","","","","","","key","f","16.67475000000013","758.3333534223067","422.22223340729164","f","true","nonmatch","img/square.png","坏我","坏他","prac_ALT2_moral","practice_moral","","","","","","","","",""
"null","<span style='color:GreenYellow; font-size: 70px;'>正确! </span>","null","html-keyboard-response","99","241744","0.0-8.0-0.0-1.0-0.0-1.44","6","7","6","6","5","5","2","4","4","4","5","1","0","1","2","0","1","2","1","5","5","5","5","5","4","5","5","5","4","8","8","7","8","6","6","7","5","8","6","3","5","6","6","3","6","1","6","3","1","2","2","7","3","6","6","6","3","3","6","2","5","3","3","2","7","3","6","5","7","7","6","5","3","2","5","3","7","2","5","776852011219161090","刘","395","Male","[""坏我"",""坏他"",""好他"",""好我""]","[""弱我"",""弱他"",""强他"",""强我""]","","","","","","","","","","","","","","","","","","","","","","","","","","","","","","feedback_test","","","","","","","","",""
"675","","j","psychophysics","100","243424","0.0-8.0-0.0-1.0-0.0-0.45","6","7","6","6","5","5","2","4","4","4","5","1","0","1","2","0","1","2","1","5","5","5","5","5","4","5","5","5","4","8","8","7","8","6","6","7","5","8","6","3","5","6","6","3","6","1","6","3","1","2","2","7","3","6","6","6","3","3","6","2","5","3","3","2","7","3","6","5","7","7","6","5","3","2","5","3","7","2","5","776852011219161090","刘","395","Male","[""坏我"",""坏他"",""好他"",""好我""]","[""弱我"",""弱他"",""强他"",""强我""]","","","","","","","","match","","","","","","","","","","key","j","16.67695000000007","758.3333534223067","422.22223340729164","j","true","match","img/square.png","坏他","坏他","prac_ALT2_moral","practice_moral","","","","","","","","",""
"null","<span style='color:GreenYellow; font-size: 70px;'>正确! </span>","null","html-keyboard-response","101","243937","0.0-8.0-0.0-1.0-0.0-1.45","6","7","6","6","5","5","2","4","4","4","5","1","0","1","2","0","1","2","1","5","5","5","5","5","4","5","5","5","4","8","8","7","8","6","6","7","5","8","6","3","5","6","6","3","6","1","6","3","1","2","2","7","3","6","6","6","3","3","6","2","5","3","3","2","7","3","6","5","7","7","6","5","3","2","5","3","7","2","5","776852011219161090","刘","395","Male","[""坏我"",""坏他"",""好他"",""好我""]","[""弱我"",""弱他"",""强他"",""强我""]","","","","","","","","","","","","","","","","","","","","","","","","","","","","","","feedback_test","","","","","","","","",""
"587","","f","psychophysics","102","245528","0.0-8.0-0.0-1.0-0.0-0.46","6","7","6","6","5","5","2","4","4","4","5","1","0","1","2","0","1","2","1","5","5","5","5","5","4","5","5","5","4","8","8","7","8","6","6","7","5","8","6","3","5","6","6","3","6","1","6","3","1","2","2","7","3","6","6","6","3","3","6","2","5","3","3","2","7","3","6","5","7","7","6","5","3","2","5","3","7","2","5","776852011219161090","刘","395","Male","[""坏我"",""坏他"",""好他"",""好我""]","[""弱我"",""弱他"",""强他"",""强我""]","","","","","","","","nonmatch","","","","","","","","","","key","f","16.675712765957368","758.3333534223067","422.22223340729164","j","false","match","img/square.png","坏他","坏他","prac_ALT2_moral","practice_moral","","","","","","","","",""
"null","<span style='color:red; font-size: 70px;'>错误! </span>","null","html-keyboard-response","103","246032","0.0-8.0-0.0-1.0-0.0-1.46","6","7","6","6","5","5","2","4","4","4","5","1","0","1","2","0","1","2","1","5","5","5","5","5","4","5","5","5","4","8","8","7","8","6","6","7","5","8","6","3","5","6","6","3","6","1","6","3","1","2","2","7","3","6","6","6","3","3","6","2","5","3","3","2","7","3","6","5","7","7","6","5","3","2","5","3","7","2","5","776852011219161090","刘","395","Male","[""坏我"",""坏他"",""好他"",""好我""]","[""弱我"",""弱他"",""强他"",""强我""]","","","","","","","","","","","","","","","","","","","","","","","","","","","","","","feedback_test","","","","","","","","",""
"636","","j","psychophysics","104","247676","0.0-8.0-0.0-1.0-0.0-0.47","6","7","6","6","5","5","2","4","4","4","5","1","0","1","2","0","1","2","1","5","5","5","5","5","4","5","5","5","4","8","8","7","8","6","6","7","5","8","6","3","5","6","6","3","6","1","6","3","1","2","2","7","3","6","6","6","3","3","6","2","5","3","3","2","7","3","6","5","7","7","6","5","3","2","5","3","7","2","5","776852011219161090","刘","395","Male","[""坏我"",""坏他"",""好他"",""好我""]","[""弱我"",""弱他"",""强他"",""强我""]","","","","","","","","match","","","","","","","","","","key","j","16.675989795918102","758.3333534223067","422.22223340729164","f","false","nonmatch","img/diamond.png","坏我","好他","prac_ALT2_moral","practice_moral","","","","","","","","",""
"null","<span style='color:red; font-size: 70px;'>错误! </span>","null","html-keyboard-response","105","248179","0.0-8.0-0.0-1.0-0.0-1.47","6","7","6","6","5","5","2","4","4","4","5","1","0","1","2","0","1","2","1","5","5","5","5","5","4","5","5","5","4","8","8","7","8","6","6","7","5","8","6","3","5","6","6","3","6","1","6","3","1","2","2","7","3","6","6","6","3","3","6","2","5","3","3","2","7","3","6","5","7","7","6","5","3","2","5","3","7","2","5","776852011219161090","刘","395","Male","[""坏我"",""坏他"",""好他"",""好我""]","[""弱我"",""弱他"",""强他"",""强我""]","","","","","","","","","","","","","","","","","","","","","","","","","","","","","","feedback_test","","","","","","","","",""
"8729","<style>.context{color:white; font-size: 35px; line-height:40px}</style>                            <div><p class='context'>您正确回答了77% 的试次。</p><p class='context'>您的平均反应时为736毫秒。</p><p class='context'>恭喜您完成练习。按空格键进入正式实验。</p><p class='footer' style='font-size: 35px; line-height:40px;'>请在进入正式实验实验之前将您的<span style='color: lightgreen;'>食指</span>放在电脑键盘的相应键位上进行按键。</p>"," ","html-keyboard-response","106","256922","0.0-8.0-0.0-2.0","6","7","6","6","5","5","2","4","4","4","5","1","0","1","2","0","1","2","1","5","5","5","5","5","4","5","5","5","4","8","8","7","8","6","6","7","5","8","6","3","5","6","6","3","6","1","6","3","1","2","2","7","3","6","6","6","3","3","6","2","5","3","3","2","7","3","6","5","7","7","6","5","3","2","5","3","7","2","5","776852011219161090","刘","395","Male","[""坏我"",""坏他"",""好他"",""好我""]","[""弱我"",""弱他"",""强他"",""强我""]","","","","","","","","","","","","","","","","","","","","","","","","","","","","","","","","","","","","","","",""
"956","
    <p style='color: white; font-size: 22px'>请您将手指放在按键上，准备进入正式的匹配任务。</p>
    <p> <div style = ""color: green""><按空格键进入下一阶段的匹配任务></div></p>
    "," ","html-keyboard-response","107","257887","0.0-8.0-0.0-3.0","6","7","6","6","5","5","2","4","4","4","5","1","0","1","2","0","1","2","1","5","5","5","5","5","4","5","5","5","4","8","8","7","8","6","6","7","5","8","6","3","5","6","6","3","6","1","6","3","1","2","2","7","3","6","6","6","3","3","6","2","5","3","3","2","7","3","6","5","7","7","6","5","3","2","5","3","7","2","5","776852011219161090","刘","395","Male","[""坏我"",""坏他"",""好他"",""好我""]","[""弱我"",""弱他"",""强他"",""强我""]","","","","","","","","","","","","","","","","","","","","","","","","","","","","","","","","","","","","","","",""
"709","","f","psychophysics","108","259601","0.0-8.0-0.0-4.0-0.0-0.0","6","7","6","6","5","5","2","4","4","4","5","1","0","1","2","0","1","2","1","5","5","5","5","5","4","5","5","5","4","8","8","7","8","6","6","7","5","8","6","3","5","6","6","3","6","1","6","3","1","2","2","7","3","6","6","6","3","3","6","2","5","3","3","2","7","3","6","5","7","7","6","5","3","2","5","3","7","2","5","776852011219161090","刘","395","Male","[""坏我"",""坏他"",""好他"",""好我""]","[""弱我"",""弱他"",""强他"",""强我""]","","","","","","","","nonmatch","","","","","","","","","","key","f","16.67541176470581","758.3333534223067","422.22223340729164","f","true","nonmatch","img/pentagon.png","坏他","坏我","ALT2","moral","","","","","","","","",""
"null","<span style='color:GreenYellow; font-size: 70px;'>正确! </span>","null","html-keyboard-response","109","260103","0.0-8.0-0.0-4.0-0.0-1.0","6","7","6","6","5","5","2","4","4","4","5","1","0","1","2","0","1","2","1","5","5","5","5","5","4","5","5","5","4","8","8","7","8","6","6","7","5","8","6","3","5","6","6","3","6","1","6","3","1","2","2","7","3","6","6","6","3","3","6","2","5","3","3","2","7","3","6","5","7","7","6","5","3","2","5","3","7","2","5","776852011219161090","刘","395","Male","[""坏我"",""坏他"",""好他"",""好我""]","[""弱我"",""弱他"",""强他"",""强我""]","","","","","","","","","","","","","","","","","","","","","","","","","","","","","","feedback_test","","","","","","","","",""
"781","","j","psychophysics","110","261890","0.0-8.0-0.0-4.0-0.0-0.1","6","7","6","6","5","5","2","4","4","4","5","1","0","1","2","0","1","2","1","5","5","5","5","5","4","5","5","5","4","8","8","7","8","6","6","7","5","8","6","3","5","6","6","3","6","1","6","3","1","2","2","7","3","6","6","6","3","3","6","2","5","3","3","2","7","3","6","5","7","7","6","5","3","2","5","3","7","2","5","776852011219161090","刘","395","Male","[""坏我"",""坏他"",""好他"",""好我""]","[""弱我"",""弱他"",""强他"",""强我""]","","","","","","","","match","","","","","","","","","","key","j","16.673877358490397","758.3333534223067","422.22223340729164","j","true","match","img/pentagon.png","坏我","坏我","ALT2","moral","","","","","","","","",""
"null","<span style='color:GreenYellow; font-size: 70px;'>正确! </span>","null","html-keyboard-response","111","262393","0.0-8.0-0.0-4.0-0.0-1.1","6","7","6","6","5","5","2","4","4","4","5","1","0","1","2","0","1","2","1","5","5","5","5","5","4","5","5","5","4","8","8","7","8","6","6","7","5","8","6","3","5","6","6","3","6","1","6","3","1","2","2","7","3","6","6","6","3","3","6","2","5","3","3","2","7","3","6","5","7","7","6","5","3","2","5","3","7","2","5","776852011219161090","刘","395","Male","[""坏我"",""坏他"",""好他"",""好我""]","[""弱我"",""弱他"",""强他"",""强我""]","","","","","","","","","","","","","","","","","","","","","","","","","","","","","","feedback_test","","","","","","","","",""
"736","","f","psychophysics","112","264134","0.0-8.0-0.0-4.0-0.0-0.2","6","7","6","6","5","5","2","4","4","4","5","1","0","1","2","0","1","2","1","5","5","5","5","5","4","5","5","5","4","8","8","7","8","6","6","7","5","8","6","3","5","6","6","3","6","1","6","3","1","2","2","7","3","6","6","6","3","3","6","2","5","3","3","2","7","3","6","5","7","7","6","5","3","2","5","3","7","2","5","776852011219161090","刘","395","Male","[""坏我"",""坏他"",""好他"",""好我""]","[""弱我"",""弱他"",""强他"",""强我""]","","","","","","","","nonmatch","","","","","","","","","","key","f","16.67464077669858","758.3333534223067","422.22223340729164","f","true","nonmatch","img/ellipse.png","好他","好我","ALT2","moral","","","","","","","","",""
"null","<span style='color:GreenYellow; font-size: 70px;'>正确! </span>","null","html-keyboard-response","113","264637","0.0-8.0-0.0-4.0-0.0-1.2","6","7","6","6","5","5","2","4","4","4","5","1","0","1","2","0","1","2","1","5","5","5","5","5","4","5","5","5","4","8","8","7","8","6","6","7","5","8","6","3","5","6","6","3","6","1","6","3","1","2","2","7","3","6","6","6","3","3","6","2","5","3","3","2","7","3","6","5","7","7","6","5","3","2","5","3","7","2","5","776852011219161090","刘","395","Male","[""坏我"",""坏他"",""好他"",""好我""]","[""弱我"",""弱他"",""强他"",""强我""]","","","","","","","","","","","","","","","","","","","","","","","","","","","","","","feedback_test","","","","","","","","",""
"734","","f","psychophysics","114","266375","0.0-8.0-0.0-4.0-0.0-0.3","6","7","6","6","5","5","2","4","4","4","5","1","0","1","2","0","1","2","1","5","5","5","5","5","4","5","5","5","4","8","8","7","8","6","6","7","5","8","6","3","5","6","6","3","6","1","6","3","1","2","2","7","3","6","6","6","3","3","6","2","5","3","3","2","7","3","6","5","7","7","6","5","3","2","5","3","7","2","5","776852011219161090","刘","395","Male","[""坏我"",""坏他"",""好他"",""好我""]","[""弱我"",""弱他"",""强他"",""强我""]","","","","","","","","nonmatch","","","","","","","","","","key","f","16.67523300970873","758.3333534223067","422.22223340729164","j","false","match","img/diamond.png","好他","好他","ALT2","moral","","","","","","","","",""
"null","<span style='color:red; font-size: 70px;'>错误! </span>","null","html-keyboard-response","115","266877","0.0-8.0-0.0-4.0-0.0-1.3","6","7","6","6","5","5","2","4","4","4","5","1","0","1","2","0","1","2","1","5","5","5","5","5","4","5","5","5","4","8","8","7","8","6","6","7","5","8","6","3","5","6","6","3","6","1","6","3","1","2","2","7","3","6","6","6","3","3","6","2","5","3","3","2","7","3","6","5","7","7","6","5","3","2","5","3","7","2","5","776852011219161090","刘","395","Male","[""坏我"",""坏他"",""好他"",""好我""]","[""弱我"",""弱他"",""强他"",""强我""]","","","","","","","","","","","","","","","","","","","","","","","","","","","","","","feedback_test","","","","","","","","",""
"743","","f","psychophysics","116","268624","0.0-8.0-0.0-4.0-0.0-0.4","6","7","6","6","5","5","2","4","4","4","5","1","0","1","2","0","1","2","1","5","5","5","5","5","4","5","5","5","4","8","8","7","8","6","6","7","5","8","6","3","5","6","6","3","6","1","6","3","1","2","2","7","3","6","6","6","3","3","6","2","5","3","3","2","7","3","6","5","7","7","6","5","3","2","5","3","7","2","5","776852011219161090","刘","395","Male","[""坏我"",""坏他"",""好他"",""好我""]","[""弱我"",""弱他"",""强他"",""强我""]","","","","","","","","nonmatch","","","","","","","","","","key","f","16.663233009708403","758.3333534223067","422.22223340729164","f","true","nonmatch","img/square.png","好他","坏他","ALT2","moral","","","","","","","","",""
"null","<span style='color:GreenYellow; font-size: 70px;'>正确! </span>","null","html-keyboard-response","117","269130","0.0-8.0-0.0-4.0-0.0-1.4","6","7","6","6","5","5","2","4","4","4","5","1","0","1","2","0","1","2","1","5","5","5","5","5","4","5","5","5","4","8","8","7","8","6","6","7","5","8","6","3","5","6","6","3","6","1","6","3","1","2","2","7","3","6","6","6","3","3","6","2","5","3","3","2","7","3","6","5","7","7","6","5","3","2","5","3","7","2","5","776852011219161090","刘","395","Male","[""坏我"",""坏他"",""好他"",""好我""]","[""弱我"",""弱他"",""强他"",""强我""]","","","","","","","","","","","","","","","","","","","","","","","","","","","","","","feedback_test","","","","","","","","",""
"774","","j","psychophysics","118","270907","0.0-8.0-0.0-4.0-0.0-0.5","6","7","6","6","5","5","2","4","4","4","5","1","0","1","2","0","1","2","1","5","5","5","5","5","4","5","5","5","4","8","8","7","8","6","6","7","5","8","6","3","5","6","6","3","6","1","6","3","1","2","2","7","3","6","6","6","3","3","6","2","5","3","3","2","7","3","6","5","7","7","6","5","3","2","5","3","7","2","5","776852011219161090","刘","395","Male","[""坏我"",""坏他"",""好他"",""好我""]","[""弱我"",""弱他"",""强他"",""强我""]","","","","","","","","match","","","","","","","","","","key","j","16.67660000000005","758.3333534223067","422.22223340729164","f","false","nonmatch","img/diamond.png","好我","好他","ALT2","moral","","","","","","","","",""
"null","<span style='color:red; font-size: 70px;'>错误! </span>","null","html-keyboard-response","119","271411","0.0-8.0-0.0-4.0-0.0-1.5","6","7","6","6","5","5","2","4","4","4","5","1","0","1","2","0","1","2","1","5","5","5","5","5","4","5","5","5","4","8","8","7","8","6","6","7","5","8","6","3","5","6","6","3","6","1","6","3","1","2","2","7","3","6","6","6","3","3","6","2","5","3","3","2","7","3","6","5","7","7","6","5","3","2","5","3","7","2","5","776852011219161090","刘","395","Male","[""坏我"",""坏他"",""好他"",""好我""]","[""弱我"",""弱他"",""强他"",""强我""]","","","","","","","","","","","","","","","","","","","","","","","","","","","","","","feedback_test","","","","","","","","",""
"761","","j","psychophysics","120","273174","0.0-8.0-0.0-4.0-0.0-0.6","6","7","6","6","5","5","2","4","4","4","5","1","0","1","2","0","1","2","1","5","5","5","5","5","4","5","5","5","4","8","8","7","8","6","6","7","5","8","6","3","5","6","6","3","6","1","6","3","1","2","2","7","3","6","6","6","3","3","6","2","5","3","3","2","7","3","6","5","7","7","6","5","3","2","5","3","7","2","5","776852011219161090","刘","395","Male","[""坏我"",""坏他"",""好他"",""好我""]","[""弱我"",""弱他"",""强他"",""强我""]","","","","","","","","match","","","","","","","","","","key","j","16.675780952380904","758.3333534223067","422.22223340729164","j","true","match","img/diamond.png","好他","好他","ALT2","moral","","","","","","","","",""
"null","<span style='color:GreenYellow; font-size: 70px;'>正确! </span>","null","html-keyboard-response","121","273677","0.0-8.0-0.0-4.0-0.0-1.6","6","7","6","6","5","5","2","4","4","4","5","1","0","1","2","0","1","2","1","5","5","5","5","5","4","5","5","5","4","8","8","7","8","6","6","7","5","8","6","3","5","6","6","3","6","1","6","3","1","2","2","7","3","6","6","6","3","3","6","2","5","3","3","2","7","3","6","5","7","7","6","5","3","2","5","3","7","2","5","776852011219161090","刘","395","Male","[""坏我"",""坏他"",""好他"",""好我""]","[""弱我"",""弱他"",""强他"",""强我""]","","","","","","","","","","","","","","","","","","","","","","","","","","","","","","feedback_test","","","","","","","","",""
"810","","j","psychophysics","122","275492","0.0-8.0-0.0-4.0-0.0-0.7","6","7","6","6","5","5","2","4","4","4","5","1","0","1","2","0","1","2","1","5","5","5","5","5","4","5","5","5","4","8","8","7","8","6","6","7","5","8","6","3","5","6","6","3","6","1","6","3","1","2","2","7","3","6","6","6","3","3","6","2","5","3","3","2","7","3","6","5","7","7","6","5","3","2","5","3","7","2","5","776852011219161090","刘","395","Male","[""坏我"",""坏他"",""好他"",""好我""]","[""弱我"",""弱他"",""强他"",""强我""]","","","","","","","","match","","","","","","","","","","key","j","16.675027777777697","758.3333534223067","422.22223340729164","j","true","match","img/square.png","坏他","坏他","ALT2","moral","","","","","","","","",""
"null","<span style='color:GreenYellow; font-size: 70px;'>正确! </span>","null","html-keyboard-response","123","275996","0.0-8.0-0.0-4.0-0.0-1.7","6","7","6","6","5","5","2","4","4","4","5","1","0","1","2","0","1","2","1","5","5","5","5","5","4","5","5","5","4","8","8","7","8","6","6","7","5","8","6","3","5","6","6","3","6","1","6","3","1","2","2","7","3","6","6","6","3","3","6","2","5","3","3","2","7","3","6","5","7","7","6","5","3","2","5","3","7","2","5","776852011219161090","刘","395","Male","[""坏我"",""坏他"",""好他"",""好我""]","[""弱我"",""弱他"",""强他"",""强我""]","","","","","","","","","","","","","","","","","","","","","","","","","","","","","","feedback_test","","","","","","","","",""
"725","","f","psychophysics","124","277725","0.0-8.0-0.0-4.0-0.0-0.8","6","7","6","6","5","5","2","4","4","4","5","1","0","1","2","0","1","2","1","5","5","5","5","5","4","5","5","5","4","8","8","7","8","6","6","7","5","8","6","3","5","6","6","3","6","1","6","3","1","2","2","7","3","6","6","6","3","3","6","2","5","3","3","2","7","3","6","5","7","7","6","5","3","2","5","3","7","2","5","776852011219161090","刘","395","Male","[""坏我"",""坏他"",""好他"",""好我""]","[""弱我"",""弱他"",""强他"",""强我""]","","","","","","","","nonmatch","","","","","","","","","","key","f","16.676951456310913","758.3333534223067","422.22223340729164","f","true","nonmatch","img/diamond.png","坏他","好他","ALT2","moral","","","","","","","","",""
"null","<span style='color:GreenYellow; font-size: 70px;'>正确! </span>","null","html-keyboard-response","125","278227","0.0-8.0-0.0-4.0-0.0-1.8","6","7","6","6","5","5","2","4","4","4","5","1","0","1","2","0","1","2","1","5","5","5","5","5","4","5","5","5","4","8","8","7","8","6","6","7","5","8","6","3","5","6","6","3","6","1","6","3","1","2","2","7","3","6","6","6","3","3","6","2","5","3","3","2","7","3","6","5","7","7","6","5","3","2","5","3","7","2","5","776852011219161090","刘","395","Male","[""坏我"",""坏他"",""好他"",""好我""]","[""弱我"",""弱他"",""强他"",""强我""]","","","","","","","","","","","","","","","","","","","","","","","","","","","","","","feedback_test","","","","","","","","",""
"801","","f","psychophysics","126","280033","0.0-8.0-0.0-4.0-0.0-0.9","6","7","6","6","5","5","2","4","4","4","5","1","0","1","2","0","1","2","1","5","5","5","5","5","4","5","5","5","4","8","8","7","8","6","6","7","5","8","6","3","5","6","6","3","6","1","6","3","1","2","2","7","3","6","6","6","3","3","6","2","5","3","3","2","7","3","6","5","7","7","6","5","3","2","5","3","7","2","5","776852011219161090","刘","395","Male","[""坏我"",""坏他"",""好他"",""好我""]","[""弱我"",""弱他"",""强他"",""强我""]","","","","","","","","nonmatch","","","","","","","","","","key","f","16.674850467290014","758.3333534223067","422.22223340729164","f","true","nonmatch","img/diamond.png","坏我","好他","ALT2","moral","","","","","","","","",""
"null","<span style='color:GreenYellow; font-size: 70px;'>正确! </span>","null","html-keyboard-response","127","280536","0.0-8.0-0.0-4.0-0.0-1.9","6","7","6","6","5","5","2","4","4","4","5","1","0","1","2","0","1","2","1","5","5","5","5","5","4","5","5","5","4","8","8","7","8","6","6","7","5","8","6","3","5","6","6","3","6","1","6","3","1","2","2","7","3","6","6","6","3","3","6","2","5","3","3","2","7","3","6","5","7","7","6","5","3","2","5","3","7","2","5","776852011219161090","刘","395","Male","[""坏我"",""坏他"",""好他"",""好我""]","[""弱我"",""弱他"",""强他"",""强我""]","","","","","","","","","","","","","","","","","","","","","","","","","","","","","","feedback_test","","","","","","","","",""
"799","","j","psychophysics","128","282337","0.0-8.0-0.0-4.0-0.0-0.10","6","7","6","6","5","5","2","4","4","4","5","1","0","1","2","0","1","2","1","5","5","5","5","5","4","5","5","5","4","8","8","7","8","6","6","7","5","8","6","3","5","6","6","3","6","1","6","3","1","2","2","7","3","6","6","6","3","3","6","2","5","3","3","2","7","3","6","5","7","7","6","5","3","2","5","3","7","2","5","776852011219161090","刘","395","Male","[""坏我"",""坏他"",""好他"",""好我""]","[""弱我"",""弱他"",""强他"",""强我""]","","","","","","","","match","","","","","","","","","","key","j","16.67387850467272","758.3333534223067","422.22223340729164","j","true","match","img/square.png","坏他","坏他","ALT2","moral","","","","","","","","",""
"null","<span style='color:GreenYellow; font-size: 70px;'>正确! </span>","null","html-keyboard-response","129","282838","0.0-8.0-0.0-4.0-0.0-1.10","6","7","6","6","5","5","2","4","4","4","5","1","0","1","2","0","1","2","1","5","5","5","5","5","4","5","5","5","4","8","8","7","8","6","6","7","5","8","6","3","5","6","6","3","6","1","6","3","1","2","2","7","3","6","6","6","3","3","6","2","5","3","3","2","7","3","6","5","7","7","6","5","3","2","5","3","7","2","5","776852011219161090","刘","395","Male","[""坏我"",""坏他"",""好他"",""好我""]","[""弱我"",""弱他"",""强他"",""强我""]","","","","","","","","","","","","","","","","","","","","","","","","","","","","","","feedback_test","","","","","","","","",""
"590","","f","psychophysics","130","284432","0.0-8.0-0.0-4.0-0.0-0.11","6","7","6","6","5","5","2","4","4","4","5","1","0","1","2","0","1","2","1","5","5","5","5","5","4","5","5","5","4","8","8","7","8","6","6","7","5","8","6","3","5","6","6","3","6","1","6","3","1","2","2","7","3","6","6","6","3","3","6","2","5","3","3","2","7","3","6","5","7","7","6","5","3","2","5","3","7","2","5","776852011219161090","刘","395","Male","[""坏我"",""坏他"",""好他"",""好我""]","[""弱我"",""弱他"",""强他"",""强我""]","","","","","","","","nonmatch","","","","","","","","","","key","f","16.674702127659792","758.3333534223067","422.22223340729164","f","true","nonmatch","img/square.png","坏我","坏他","ALT2","moral","","","","","","","","",""
"null","<span style='color:GreenYellow; font-size: 70px;'>正确! </span>","null","html-keyboard-response","131","284936","0.0-8.0-0.0-4.0-0.0-1.11","6","7","6","6","5","5","2","4","4","4","5","1","0","1","2","0","1","2","1","5","5","5","5","5","4","5","5","5","4","8","8","7","8","6","6","7","5","8","6","3","5","6","6","3","6","1","6","3","1","2","2","7","3","6","6","6","3","3","6","2","5","3","3","2","7","3","6","5","7","7","6","5","3","2","5","3","7","2","5","776852011219161090","刘","395","Male","[""坏我"",""坏他"",""好他"",""好我""]","[""弱我"",""弱他"",""强他"",""强我""]","","","","","","","","","","","","","","","","","","","","","","","","","","","","","","feedback_test","","","","","","","","",""
"892","","j","psychophysics","132","286832","0.0-8.0-0.0-4.0-0.0-0.12","6","7","6","6","5","5","2","4","4","4","5","1","0","1","2","0","1","2","1","5","5","5","5","5","4","5","5","5","4","8","8","7","8","6","6","7","5","8","6","3","5","6","6","3","6","1","6","3","1","2","2","7","3","6","6","6","3","3","6","2","5","3","3","2","7","3","6","5","7","7","6","5","3","2","5","3","7","2","5","776852011219161090","刘","395","Male","[""坏我"",""坏他"",""好他"",""好我""]","[""弱我"",""弱他"",""强他"",""强我""]","","","","","","","","match","","","","","","","","","","key","j","16.675681818181925","758.3333534223067","422.22223340729164","j","true","match","img/pentagon.png","坏我","坏我","ALT2","moral","","","","","","","","",""
"null","<span style='color:GreenYellow; font-size: 70px;'>正确! </span>","null","html-keyboard-response","133","287339","0.0-8.0-0.0-4.0-0.0-1.12","6","7","6","6","5","5","2","4","4","4","5","1","0","1","2","0","1","2","1","5","5","5","5","5","4","5","5","5","4","8","8","7","8","6","6","7","5","8","6","3","5","6","6","3","6","1","6","3","1","2","2","7","3","6","6","6","3","3","6","2","5","3","3","2","7","3","6","5","7","7","6","5","3","2","5","3","7","2","5","776852011219161090","刘","395","Male","[""坏我"",""坏他"",""好他"",""好我""]","[""弱我"",""弱他"",""强他"",""强我""]","","","","","","","","","","","","","","","","","","","","","","","","","","","","","","feedback_test","","","","","","","","",""
"627","","j","psychophysics","134","288969","0.0-8.0-0.0-4.0-0.0-0.13","6","7","6","6","5","5","2","4","4","4","5","1","0","1","2","0","1","2","1","5","5","5","5","5","4","5","5","5","4","8","8","7","8","6","6","7","5","8","6","3","5","6","6","3","6","1","6","3","1","2","2","7","3","6","6","6","3","3","6","2","5","3","3","2","7","3","6","5","7","7","6","5","3","2","5","3","7","2","5","776852011219161090","刘","395","Male","[""坏我"",""坏他"",""好他"",""好我""]","[""弱我"",""弱他"",""强他"",""强我""]","","","","","","","","match","","","","","","","","","","key","j","16.674531250000047","758.3333534223067","422.22223340729164","j","true","match","img/pentagon.png","坏我","坏我","ALT2","moral","","","","","","","","",""
"null","<span style='color:GreenYellow; font-size: 70px;'>正确! </span>","null","html-keyboard-response","135","289470","0.0-8.0-0.0-4.0-0.0-1.13","6","7","6","6","5","5","2","4","4","4","5","1","0","1","2","0","1","2","1","5","5","5","5","5","4","5","5","5","4","8","8","7","8","6","6","7","5","8","6","3","5","6","6","3","6","1","6","3","1","2","2","7","3","6","6","6","3","3","6","2","5","3","3","2","7","3","6","5","7","7","6","5","3","2","5","3","7","2","5","776852011219161090","刘","395","Male","[""坏我"",""坏他"",""好他"",""好我""]","[""弱我"",""弱他"",""强他"",""强我""]","","","","","","","","","","","","","","","","","","","","","","","","","","","","","","feedback_test","","","","","","","","",""
