"rt","stimulus","response","trial_type","trial_index","time_elapsed","internal_node_id","swb_1","swb_2","swb_3","swb_4","swb_5","LOT_1","LOT_2","LOT_3","LOT_4","LOT_5","LOT_6","IPC_1","IPC_2","IPC_3","IPC_4","IPC_5","IPC_6","IPC_7","IPC_8","MorIden_1","MorIden_2","MorIden_3","MorIden_4","MorIden_5","MorIden_6","MorIden_7","MorIden_8","MorIden_9","MorIden_10","moralSeImag_1","moralSeImag_2","moralSeImag_3","moralSeImag_4","moralSeImag_5","moralSeImag_6","moralSeImag_7","moralSeImag_8","moralSeImag_9","sde_1","sde_2","sde_3","sde_4","sde_5","sde_6","sde_7","sde_8","sde_9","sde_10","trap2","sde_11","sde_12","sde_13","sde_14","sde_15","sde_16","sde_17","sde_18","sde_19","sde_20","IM_1","IM_2","IM_3","IM_4","IM_5","IM_6","IM_7","IM_8","IM_9","IM_10","IM_11","IM_12","IM_13","IM_14","IM_15","IM_16","IM_17","IM_18","IM_19","IM_20","subj_idx","friend_name","ParticipantID","Sex","Word","Word2","value","success","timeout","failed_images","failed_audio","failed_video","user_agent","responses","item_order","radio_event_ids","radio_event_times","key_event_times","mouse_event_times","straightlining","zigzagging","honeypot","task_id","screen_id","time_stamp","response_type","key_press","avg_frame_time","center_x","center_y","person","word","valence","domain","math","correct_response","correct","status","view_history","identity","duration","Image","condition","question_order","trap2_item"
"2336","
   <p><div style='color:white; font-size: 25px'>您好，欢迎参加本次实验。</div></p>
   <p><div style='color:white; font-size: 25px'>为充分保障您的权利，请确保您已经知晓并同意《参与实验同意书》以及《数据公开知情同意书》。</div></p>
   <p><div style='color:white; font-size: 25px'>如果您未见过上述内容，请咨询实验员。</div></p>
   <p style='color:white; font-size: 25px'>如果您选择继续实验，则表示您已经清楚两份知情同意书的内容并同意。</p>
   <p><div style = ""color: pink;font-size:30px;"">请确保您记得day0的实验编号，您将在本次实验输入该编号，若您忘记，请咨询实验员后作答。</div></p>
   <p><div style = ""color:lightblue;font-size:25px;"">请您尽可能认真地作答，我们将依据您在各问卷和按键任务中的作答质量发放报酬。</div></p>
   <p> <div style = ""color: green""><按空格键至下页></div> </p>
   "," ","html-keyboard-response","0","2368","0.0-0.0","7","5","6","7","6","5","5","4","5","4","4","-3","-1","1","0","2","1","0","0","4","5","4","5","4","5","2","2","1","5","8","6","7","7","6","9","7","8","6","5","6","6","6","7","6","5","5","7","6","1","5","5","1","6","5","6","7","7","5","5","3","7","2","5","7","5","6","6","5","7","6","5","7","3","6","5","5","6","7","5","772058156674322434","吴  ","398","Male","[""好他"",""坏我"",""好我"",""坏他""]","[""强他"",""弱我"",""强我"",""弱他""]","","","","","","","","","","","","","","","","","","","","","","","","","","","","","","","","","","","","","","",""
"","","","call-function","1","2368","0.0-1.0-0.0","7","5","6","7","6","5","5","4","5","4","4","-3","-1","1","0","2","1","0","0","4","5","4","5","4","5","2","2","1","5","8","6","7","7","6","9","7","8","6","5","6","6","6","7","6","5","5","7","6","1","5","5","1","6","5","6","7","7","5","5","3","7","2","5","7","5","6","6","5","7","6","5","7","3","6","5","5","6","7","5","772058156674322434","吴  ","398","Male","[""好他"",""坏我"",""好我"",""坏他""]","[""强他"",""弱我"",""强我"",""弱他""]","","","","","","","","","","","","","","","","","","","","","","","","","","","","","","","","","","","","","","",""
"54990","","[{""name"":""Sex"",""value"":""0""},{""name"":""friend_name"",""value"":""吴  ""},{""name"":""ParticipantID"",""value"":""398""}]","survey-html-form","2","57419","0.0-1.0-1.0","7","5","6","7","6","5","5","4","5","4","4","-3","-1","1","0","2","1","0","0","4","5","4","5","4","5","2","2","1","5","8","6","7","7","6","9","7","8","6","5","6","6","6","7","6","5","5","7","6","1","5","5","1","6","5","6","7","7","5","5","3","7","2","5","7","5","6","6","5","7","6","5","7","3","6","5","5","6","7","5","772058156674322434","吴  ","398","Male","[""好他"",""坏我"",""好我"",""坏他""]","[""强他"",""弱我"",""强我"",""弱他""]","","","","","","","","","","","","","","","","","","","","","","","","","","","","","","","","","","","","","","",""
"","","","preload","3","58005","0.0-2.0","7","5","6","7","6","5","5","4","5","4","4","-3","-1","1","0","2","1","0","0","4","5","4","5","4","5","2","2","1","5","8","6","7","7","6","9","7","8","6","5","6","6","6","7","6","5","5","7","6","1","5","5","1","6","5","6","7","7","5","5","3","7","2","5","7","5","6","6","5","7","6","5","7","3","6","5","5","6","7","5","772058156674322434","吴  ","398","Male","[""好他"",""坏我"",""好我"",""坏他""]","[""强他"",""弱我"",""强我"",""弱他""]","","true","false","[]","[]","[]","","","","","","","","","","","","","","","","","","","","","","","","","","","","","","","","",""
"","","","fullscreen","4","59548","0.0-3.0","7","5","6","7","6","5","5","4","5","4","4","-3","-1","1","0","2","1","0","0","4","5","4","5","4","5","2","2","1","5","8","6","7","7","6","9","7","8","6","5","6","6","6","7","6","5","5","7","6","1","5","5","1","6","5","6","7","7","5","5","3","7","2","5","7","5","6","6","5","7","6","5","7","3","6","5","5","6","7","5","772058156674322434","吴  ","398","Male","[""好他"",""坏我"",""好我"",""坏他""]","[""强他"",""弱我"",""强我"",""弱他""]","","true","","","","","","","","","","","","","","","","","","","","","","","","","","","","","","","","","","","","",""
"50069","","{""Q01"":""7"",""Q02"":""5"",""Q03"":""6"",""Q04"":""7"",""Q05"":""6""}","survey-template","5","109856","0.0-4.0","7","5","6","7","6","5","5","4","5","4","4","-3","-1","1","0","2","1","0","0","4","5","4","5","4","5","2","2","1","5","8","6","7","7","6","9","7","8","6","5","6","6","6","7","6","5","5","7","6","1","5","5","1","6","5","6","7","7","5","5","3","7","2","5","7","5","6","6","5","7","6","5","7","3","6","5","5","6","7","5","772058156674322434","吴  ","398","Male","[""好他"",""坏我"",""好我"",""坏他""]","[""强他"",""弱我"",""强我"",""弱他""]","","","","","","","","{""Q01"":""7"",""Q02"":""5"",""Q03"":""6"",""Q04"":""7"",""Q05"":""6""}","[0,1,2,3,4]","[""Q01"",""Q02"",""Q03"",""Q03"",""Q04"",""Q05""]","[10015,12261,13065,13568,14411,15587]","[]","[10015,11504,12261,13065,13568,14411,15587,50069]","0.4","0.75","0","","","","","","","","","","","","","","","","","","","","","","",""
"51187","","{""Q01"":""5"",""Q02"":""5"",""Q03"":""4"",""Q04"":""5"",""Q05"":""4"",""Q06"":""4""}","survey-template","6","161048","0.0-5.0","7","5","6","7","6","5","5","4","5","4","4","-3","-1","1","0","2","1","0","0","4","5","4","5","4","5","2","2","1","5","8","6","7","7","6","9","7","8","6","5","6","6","6","7","6","5","5","7","6","1","5","5","1","6","5","6","7","7","5","5","3","7","2","5","7","5","6","6","5","7","6","5","7","3","6","5","5","6","7","5","772058156674322434","吴  ","398","Male","[""好他"",""坏我"",""好我"",""坏他""]","[""强他"",""弱我"",""强我"",""弱他""]","","","","","","","","{""Q01"":""5"",""Q02"":""5"",""Q03"":""4"",""Q04"":""5"",""Q05"":""4"",""Q06"":""4""}","[0,1,2,3,4,5]","[""Q01"",""Q02"",""Q03"",""Q04"",""Q05"",""Q06"",""Q04"",""Q05""]","[2828,4862,6039,7179,8043,16253,25264,25895]","[]","[2828,4862,6039,7179,8043,16253,23810,24097,24455,24930,25264,25895,51187]","0.3333333333333333","0.4","0","","","","","","","","","","","","","","","","","","","","","","",""
"187081","","{""Q01"":""-3"",""Q02"":""-1"",""Q03"":""1"",""Q04"":""0"",""Q05"":""2"",""Q06"":""1"",""Q07"":""0"",""Q08"":""0""}","survey-template","7","348135","0.0-6.0","7","5","6","7","6","5","5","4","5","4","4","-3","-1","1","0","2","1","0","0","4","5","4","5","4","5","2","2","1","5","8","6","7","7","6","9","7","8","6","5","6","6","6","7","6","5","5","7","6","1","5","5","1","6","5","6","7","7","5","5","3","7","2","5","7","5","6","6","5","7","6","5","7","3","6","5","5","6","7","5","772058156674322434","吴  ","398","Male","[""好他"",""坏我"",""好我"",""坏他""]","[""强他"",""弱我"",""强我"",""弱他""]","","","","","","","","{""Q01"":""-3"",""Q02"":""-1"",""Q03"":""1"",""Q04"":""0"",""Q05"":""2"",""Q06"":""1"",""Q07"":""0"",""Q08"":""0""}","[0,1,2,3,4,5,6,7]","[""Q01"",""Q02"",""Q03"",""Q04"",""Q05"",""Q06"",""Q07"",""Q08""]","[3229,4935,6283,11552,17776,41896,44095,46810]","[]","[3229,4935,6283,10729,11552,16700,16954,17380,17776,41896,44095,46810,187081]","0.375","0.42857142857142855","0","","","","","","","","","","","","","","","","","","","","","","",""
"428875","
    <p><div style='color:white;font-size:35px; line-height:20px;'>词汇评估任务</div></p><br>
    <p><div style='color:white;font-size:25px; line-height:20px;'>请再次回忆该亲密的朋友，你们至少2年前就认识了，并且最近2年经常见面。</div></p>
    <p><div style='color:white;font-size:25px; line-height:20px;'>在本实验中，您将会看到一些形容词。</div></p>
    <p><div style='color:yellow;font-size:25px; line-height:20px;'>您的任务是判断这些形容词是否符合对您自己或您的朋友的描述。</div></p><p style='font-size:35px'>符合按<span style=""color:lightgreen""> f 键</span>，不符合按<span style=""color:red""> j 键</span></p>","0","html-button-response","8","777015","0.0-7.0-0.0","7","5","6","7","6","5","5","4","5","4","4","-3","-1","1","0","2","1","0","0","4","5","4","5","4","5","2","2","1","5","8","6","7","7","6","9","7","8","6","5","6","6","6","7","6","5","5","7","6","1","5","5","1","6","5","6","7","7","5","5","3","7","2","5","7","5","6","6","5","7","6","5","7","3","6","5","5","6","7","5","772058156674322434","吴  ","398","Male","[""好他"",""坏我"",""好我"",""坏他""]","[""强他"",""弱我"",""强我"",""弱他""]","","","","","","","","","","","","","","","","","SRET_EW","EW_instructions","Sun Jan 07 2024 20:53:20 GMT+0800 (中国标准时间)","","","","","","","","","","","","","","","","","","","",""
"1585","","j","psychophysics","9","779817","0.0-7.0-1.0-0.0","7","5","6","7","6","5","5","4","5","4","4","-3","-1","1","0","2","1","0","0","4","5","4","5","4","5","2","2","1","5","8","6","7","7","6","9","7","8","6","5","6","6","6","7","6","5","5","7","6","1","5","5","1","6","5","6","7","7","5","5","3","7","2","5","7","5","6","6","5","7","6","5","7","3","6","5","5","6","7","5","772058156674322434","吴  ","398","Male","[""好他"",""坏我"",""好我"",""坏他""]","[""强他"",""弱我"",""强我"",""弱他""]","","","","","","","","no","","","","","","","","","SRET_EW","EW_practice","","key","j","20.592558139535353","703.6333333333334","391.9666666666667","自己","刻板","Negative","ability","","","","","","","","","","",""
"1052","","j","psychophysics","10","781996","0.0-7.0-1.0-0.1","7","5","6","7","6","5","5","4","5","4","4","-3","-1","1","0","2","1","0","0","4","5","4","5","4","5","2","2","1","5","8","6","7","7","6","9","7","8","6","5","6","6","6","7","6","5","5","7","6","1","5","5","1","6","5","6","7","7","5","5","3","7","2","5","7","5","6","6","5","7","6","5","7","3","6","5","5","6","7","5","772058156674322434","吴  ","398","Male","[""好他"",""坏我"",""好我"",""坏他""]","[""强他"",""弱我"",""强我"",""弱他""]","","","","","","","","no","","","","","","","","","SRET_EW","EW_practice","","key","j","18.969739130434945","703.6333333333334","391.9666666666667","朋友","徇私","Negative","morality","","","","","","","","","","",""
"967","","f","psychophysics","11","784094","0.0-7.0-1.0-0.2","7","5","6","7","6","5","5","4","5","4","4","-3","-1","1","0","2","1","0","0","4","5","4","5","4","5","2","2","1","5","8","6","7","7","6","9","7","8","6","5","6","6","6","7","6","5","5","7","6","1","5","5","1","6","5","6","7","7","5","5","3","7","2","5","7","5","6","6","5","7","6","5","7","3","6","5","5","6","7","5","772058156674322434","吴  ","398","Male","[""好他"",""坏我"",""好我"",""坏他""]","[""强他"",""弱我"",""强我"",""弱他""]","","","","","","","","yes","","","","","","","","","SRET_EW","EW_practice","","key","f","16.78725806451609","703.6333333333334","391.9666666666667","自己","严谨","Positive","ability","","","","","","","","","","",""
"1889","","f","psychophysics","12","786993","0.0-7.0-1.0-0.3","7","5","6","7","6","5","5","4","5","4","4","-3","-1","1","0","2","1","0","0","4","5","4","5","4","5","2","2","1","5","8","6","7","7","6","9","7","8","6","5","6","6","6","7","6","5","5","7","6","1","5","5","1","6","5","6","7","7","5","5","3","7","2","5","7","5","6","6","5","7","6","5","7","3","6","5","5","6","7","5","772058156674322434","吴  ","398","Male","[""好他"",""坏我"",""好我"",""坏他""]","[""强他"",""弱我"",""强我"",""弱他""]","","","","","","","","yes","","","","","","","","","SRET_EW","EW_practice","","key","f","16.74965116279037","703.6333333333334","391.9666666666667","朋友","忠实","Positive","morality","","","","","","","","","","",""
"3576","
    <p><div style='color:white;font-size:35px; line-height:20px;'>请您再次阅读实验要求</div></p><br>
    <p><div style='color:white;font-size:25px; line-height:20px;'>请回忆某一个亲密的朋友，你们至少2年前就认识了，并且最近2年经常见面。</div></p>
    <p><div style='color:white;font-size:25px; line-height:20px;'>在本实验中，您将会看到一些形容词。</div></p>
    <p><div style='color:yellow;font-size:25px; line-height:20px;'>您的任务是判断这些形容词是否符合对您自己或您的朋友的描述。</div></p>
    <p><div class='footer' style='font-size:25px; line-height:20px;'>如果对本实验还有不清楚之处，请立即向实验员咨询。</p><p style='font-size:25px; line-height:20px;'>如果您明白了规则：</p><p style='font-size:22px; line-height:20px;'>请按 继续 进入正式实验</p>
    </div>
    <p style='font-size:35px'>符合按<span style=""color:lightgreen""> f 键</span>，不符合按<span style=""color:red""> j 键</span></p>","0","html-button-response","13","790570","0.0-7.0-2.0","7","5","6","7","6","5","5","4","5","4","4","-3","-1","1","0","2","1","0","0","4","5","4","5","4","5","2","2","1","5","8","6","7","7","6","9","7","8","6","5","6","6","6","7","6","5","5","7","6","1","5","5","1","6","5","6","7","7","5","5","3","7","2","5","7","5","6","6","5","7","6","5","7","3","6","5","5","6","7","5","772058156674322434","吴  ","398","Male","[""好他"",""坏我"",""好我"",""坏他""]","[""强他"",""弱我"",""强我"",""弱他""]","","","","","","","","","","","","","","","","","SRET_EW","prac_instructions","Sun Jan 07 2024 20:53:20 GMT+0800 (中国标准时间)","","","","","","","","","","","","","","","","","","","",""
"1210","","f","psychophysics","14","792784","0.0-7.0-3.0-0.0","7","5","6","7","6","5","5","4","5","4","4","-3","-1","1","0","2","1","0","0","4","5","4","5","4","5","2","2","1","5","8","6","7","7","6","9","7","8","6","5","6","6","6","7","6","5","5","7","6","1","5","5","1","6","5","6","7","7","5","5","3","7","2","5","7","5","6","6","5","7","6","5","7","3","6","5","5","6","7","5","772058156674322434","吴  ","398","Male","[""好他"",""坏我"",""好我"",""坏他""]","[""强他"",""弱我"",""强我"",""弱他""]","","","","","","","","yes","","","","","","","","","SRET","EW_formal","","key","f","16.58436090225543","703.6333333333334","391.9666666666667","自己","坚贞","Positive","morality","","","","","","","","","","",""
"1115","","f","psychophysics","15","794916","0.0-7.0-3.0-0.1","7","5","6","7","6","5","5","4","5","4","4","-3","-1","1","0","2","1","0","0","4","5","4","5","4","5","2","2","1","5","8","6","7","7","6","9","7","8","6","5","6","6","6","7","6","5","5","7","6","1","5","5","1","6","5","6","7","7","5","5","3","7","2","5","7","5","6","6","5","7","6","5","7","3","6","5","5","6","7","5","772058156674322434","吴  ","398","Male","[""好他"",""坏我"",""好我"",""坏他""]","[""强他"",""弱我"",""强我"",""弱他""]","","","","","","","","yes","","","","","","","","","SRET","EW_formal","","key","f","16.652913385826185","703.6333333333334","391.9666666666667","朋友","务实","Positive","ability","","","","","","","","","","",""
"870","","j","psychophysics","16","796801","0.0-7.0-3.0-0.2","7","5","6","7","6","5","5","4","5","4","4","-3","-1","1","0","2","1","0","0","4","5","4","5","4","5","2","2","1","5","8","6","7","7","6","9","7","8","6","5","6","6","6","7","6","5","5","7","6","1","5","5","1","6","5","6","7","7","5","5","3","7","2","5","7","5","6","6","5","7","6","5","7","3","6","5","5","6","7","5","772058156674322434","吴  ","398","Male","[""好他"",""坏我"",""好我"",""坏他""]","[""强他"",""弱我"",""强我"",""弱他""]","","","","","","","","no","","","","","","","","","SRET","EW_formal","","key","j","16.652523364485504","703.6333333333334","391.9666666666667","自己","说谎","Negative","morality","","","","","","","","","","",""
"1036","","j","psychophysics","17","798848","0.0-7.0-3.0-0.3","7","5","6","7","6","5","5","4","5","4","4","-3","-1","1","0","2","1","0","0","4","5","4","5","4","5","2","2","1","5","8","6","7","7","6","9","7","8","6","5","6","6","6","7","6","5","5","7","6","1","5","5","1","6","5","6","7","7","5","5","3","7","2","5","7","5","6","6","5","7","6","5","7","3","6","5","5","6","7","5","772058156674322434","吴  ","398","Male","[""好他"",""坏我"",""好我"",""坏他""]","[""强他"",""弱我"",""强我"",""弱他""]","","","","","","","","no","","","","","","","","","SRET","EW_formal","","key","j","16.652950819672398","703.6333333333334","391.9666666666667","朋友","迷糊","Negative","ability","","","","","","","","","","",""
"1101","","f","psychophysics","18","800963","0.0-7.0-3.0-0.4","7","5","6","7","6","5","5","4","5","4","4","-3","-1","1","0","2","1","0","0","4","5","4","5","4","5","2","2","1","5","8","6","7","7","6","9","7","8","6","5","6","6","6","7","6","5","5","7","6","1","5","5","1","6","5","6","7","7","5","5","3","7","2","5","7","5","6","6","5","7","6","5","7","3","6","5","5","6","7","5","772058156674322434","吴  ","398","Male","[""好他"",""坏我"",""好我"",""坏他""]","[""强他"",""弱我"",""强我"",""弱他""]","","","","","","","","yes","","","","","","","","","SRET","EW_formal","","key","f","16.65285714285629","703.6333333333334","391.9666666666667","自己","伪善","Negative","morality","","","","","","","","","","",""
"1074","","f","psychophysics","19","803043","0.0-7.0-3.0-0.5","7","5","6","7","6","5","5","4","5","4","4","-3","-1","1","0","2","1","0","0","4","5","4","5","4","5","2","2","1","5","8","6","7","7","6","9","7","8","6","5","6","6","6","7","6","5","5","7","6","1","5","5","1","6","5","6","7","7","5","5","3","7","2","5","7","5","6","6","5","7","6","5","7","3","6","5","5","6","7","5","772058156674322434","吴  ","398","Male","[""好他"",""坏我"",""好我"",""坏他""]","[""强他"",""弱我"",""强我"",""弱他""]","","","","","","","","yes","","","","","","","","","SRET","EW_formal","","key","f","16.652845528455664","703.6333333333334","391.9666666666667","朋友","守法","Positive","morality","","","","","","","","","","",""
"850","","f","psychophysics","20","804907","0.0-7.0-3.0-0.6","7","5","6","7","6","5","5","4","5","4","4","-3","-1","1","0","2","1","0","0","4","5","4","5","4","5","2","2","1","5","8","6","7","7","6","9","7","8","6","5","6","6","6","7","6","5","5","7","6","1","5","5","1","6","5","6","7","7","5","5","3","7","2","5","7","5","6","6","5","7","6","5","7","3","6","5","5","6","7","5","772058156674322434","吴  ","398","Male","[""好他"",""坏我"",""好我"",""坏他""]","[""强他"",""弱我"",""强我"",""弱他""]","","","","","","","","yes","","","","","","","","","SRET","EW_formal","","key","f","16.652972972973853","703.6333333333334","391.9666666666667","自己","礼貌","Positive","morality","","","","","","","","","","",""
"715","","f","psychophysics","21","806639","0.0-7.0-3.0-0.7","7","5","6","7","6","5","5","4","5","4","4","-3","-1","1","0","2","1","0","0","4","5","4","5","4","5","2","2","1","5","8","6","7","7","6","9","7","8","6","5","6","6","6","7","6","5","5","7","6","1","5","5","1","6","5","6","7","7","5","5","3","7","2","5","7","5","6","6","5","7","6","5","7","3","6","5","5","6","7","5","772058156674322434","吴  ","398","Male","[""好他"",""坏我"",""好我"",""坏他""]","[""强他"",""弱我"",""强我"",""弱他""]","","","","","","","","yes","","","","","","","","","SRET","EW_formal","","key","f","16.653009708736825","703.6333333333334","391.9666666666667","自己","诚信","Positive","morality","","","","","","","","","","",""
"613","","f","psychophysics","22","808373","0.0-7.0-3.0-0.8","7","5","6","7","6","5","5","4","5","4","4","-3","-1","1","0","2","1","0","0","4","5","4","5","4","5","2","2","1","5","8","6","7","7","6","9","7","8","6","5","6","6","6","7","6","5","5","7","6","1","5","5","1","6","5","6","7","7","5","5","3","7","2","5","7","5","6","6","5","7","6","5","7","3","6","5","5","6","7","5","772058156674322434","吴  ","398","Male","[""好他"",""坏我"",""好我"",""坏他""]","[""强他"",""弱我"",""强我"",""弱他""]","","","","","","","","yes","","","","","","","","","SRET","EW_formal","","key","f","16.65288461538484","703.6333333333334","391.9666666666667","自己","仁爱","Positive","morality","","","","","","","","","","",""
"883","","j","psychophysics","23","810270","0.0-7.0-3.0-0.9","7","5","6","7","6","5","5","4","5","4","4","-3","-1","1","0","2","1","0","0","4","5","4","5","4","5","2","2","1","5","8","6","7","7","6","9","7","8","6","5","6","6","6","7","6","5","5","7","6","1","5","5","1","6","5","6","7","7","5","5","3","7","2","5","7","5","6","6","5","7","6","5","7","3","6","5","5","6","7","5","772058156674322434","吴  ","398","Male","[""好他"",""坏我"",""好我"",""坏他""]","[""强他"",""弱我"",""强我"",""弱他""]","","","","","","","","no","","","","","","","","","SRET","EW_formal","","key","j","16.6528571428571","703.6333333333334","391.9666666666667","朋友","差生","Negative","ability","","","","","","","","","","",""
"999","","j","psychophysics","24","812284","0.0-7.0-3.0-0.10","7","5","6","7","6","5","5","4","5","4","4","-3","-1","1","0","2","1","0","0","4","5","4","5","4","5","2","2","1","5","8","6","7","7","6","9","7","8","6","5","6","6","6","7","6","5","5","7","6","1","5","5","1","6","5","6","7","7","5","5","3","7","2","5","7","5","6","6","5","7","6","5","7","3","6","5","5","6","7","5","772058156674322434","吴  ","398","Male","[""好他"",""坏我"",""好我"",""坏他""]","[""强他"",""弱我"",""强我"",""弱他""]","","","","","","","","no","","","","","","","","","SRET","EW_formal","","key","j","16.652833333334033","703.6333333333334","391.9666666666667","朋友","刻薄","Negative","morality","","","","","","","","","","",""
"1024","","f","psychophysics","25","814331","0.0-7.0-3.0-0.11","7","5","6","7","6","5","5","4","5","4","4","-3","-1","1","0","2","1","0","0","4","5","4","5","4","5","2","2","1","5","8","6","7","7","6","9","7","8","6","5","6","6","6","7","6","5","5","7","6","1","5","5","1","6","5","6","7","7","5","5","3","7","2","5","7","5","6","6","5","7","6","5","7","3","6","5","5","6","7","5","772058156674322434","吴  ","398","Male","[""好他"",""坏我"",""好我"",""坏他""]","[""强他"",""弱我"",""强我"",""弱他""]","","","","","","","","yes","","","","","","","","","SRET","EW_formal","","key","f","16.652950819672398","703.6333333333334","391.9666666666667","朋友","努力","Positive","ability","","","","","","","","","","",""
"853","","j","psychophysics","26","816203","0.0-7.0-3.0-0.12","7","5","6","7","6","5","5","4","5","4","4","-3","-1","1","0","2","1","0","0","4","5","4","5","4","5","2","2","1","5","8","6","7","7","6","9","7","8","6","5","6","6","6","7","6","5","5","7","6","1","5","5","1","6","5","6","7","7","5","5","3","7","2","5","7","5","6","6","5","7","6","5","7","3","6","5","5","6","7","5","772058156674322434","吴  ","398","Male","[""好他"",""坏我"",""好我"",""坏他""]","[""强他"",""弱我"",""强我"",""弱他""]","","","","","","","","no","","","","","","","","","SRET","EW_formal","","key","j","16.80306306306319","703.6333333333334","391.9666666666667","朋友","迂拙","Negative","ability","","","","","","","","","","",""
"789","","j","psychophysics","27","818001","0.0-7.0-3.0-0.13","7","5","6","7","6","5","5","4","5","4","4","-3","-1","1","0","2","1","0","0","4","5","4","5","4","5","2","2","1","5","8","6","7","7","6","9","7","8","6","5","6","6","6","7","6","5","5","7","6","1","5","5","1","6","5","6","7","7","5","5","3","7","2","5","7","5","6","6","5","7","6","5","7","3","6","5","5","6","7","5","772058156674322434","吴  ","398","Male","[""好他"",""坏我"",""好我"",""坏他""]","[""强他"",""弱我"",""强我"",""弱他""]","","","","","","","","no","","","","","","","","","SRET","EW_formal","","key","j","16.809999999999867","703.6333333333334","391.9666666666667","朋友","无赖","Negative","morality","","","","","","","","","","",""
"696","","f","psychophysics","28","819751","0.0-7.0-3.0-0.14","7","5","6","7","6","5","5","4","5","4","4","-3","-1","1","0","2","1","0","0","4","5","4","5","4","5","2","2","1","5","8","6","7","7","6","9","7","8","6","5","6","6","6","7","6","5","5","7","6","1","5","5","1","6","5","6","7","7","5","5","3","7","2","5","7","5","6","6","5","7","6","5","7","3","6","5","5","6","7","5","772058156674322434","吴  ","398","Male","[""好他"",""坏我"",""好我"",""坏他""]","[""强他"",""弱我"",""强我"",""弱他""]","","","","","","","","yes","","","","","","","","","SRET","EW_formal","","key","f","16.653076923076206","703.6333333333334","391.9666666666667","朋友","忠义","Positive","morality","","","","","","","","","","",""
"713","","f","psychophysics","29","821477","0.0-7.0-3.0-0.15","7","5","6","7","6","5","5","4","5","4","4","-3","-1","1","0","2","1","0","0","4","5","4","5","4","5","2","2","1","5","8","6","7","7","6","9","7","8","6","5","6","6","6","7","6","5","5","7","6","1","5","5","1","6","5","6","7","7","5","5","3","7","2","5","7","5","6","6","5","7","6","5","7","3","6","5","5","6","7","5","772058156674322434","吴  ","398","Male","[""好他"",""坏我"",""好我"",""坏他""]","[""强他"",""弱我"",""强我"",""弱他""]","","","","","","","","yes","","","","","","","","","SRET","EW_formal","","key","f","16.65294117647036","703.6333333333334","391.9666666666667","朋友","全才","Positive","ability","","","","","","","","","","",""
"666","","f","psychophysics","30","823160","0.0-7.0-3.0-0.16","7","5","6","7","6","5","5","4","5","4","4","-3","-1","1","0","2","1","0","0","4","5","4","5","4","5","2","2","1","5","8","6","7","7","6","9","7","8","6","5","6","6","6","7","6","5","5","7","6","1","5","5","1","6","5","6","7","7","5","5","3","7","2","5","7","5","6","6","5","7","6","5","7","3","6","5","5","6","7","5","772058156674322434","吴  ","398","Male","[""好他"",""坏我"",""好我"",""坏他""]","[""强他"",""弱我"",""强我"",""弱他""]","","","","","","","","yes","","","","","","","","","SRET","EW_formal","","key","f","16.61240000000107","703.6333333333334","391.9666666666667","朋友","果决","Positive","ability","","","","","","","","","","",""
"722","","j","psychophysics","31","824897","0.0-7.0-3.0-0.17","7","5","6","7","6","5","5","4","5","4","4","-3","-1","1","0","2","1","0","0","4","5","4","5","4","5","2","2","1","5","8","6","7","7","6","9","7","8","6","5","6","6","6","7","6","5","5","7","6","1","5","5","1","6","5","6","7","7","5","5","3","7","2","5","7","5","6","6","5","7","6","5","7","3","6","5","5","6","7","5","772058156674322434","吴  ","398","Male","[""好他"",""坏我"",""好我"",""坏他""]","[""强他"",""弱我"",""强我"",""弱他""]","","","","","","","","no","","","","","","","","","SRET","EW_formal","","key","j","16.65288461538484","703.6333333333334","391.9666666666667","朋友","愚钝","Negative","ability","","","","","","","","","","",""
"904","","j","psychophysics","32","826827","0.0-7.0-3.0-0.18","7","5","6","7","6","5","5","4","5","4","4","-3","-1","1","0","2","1","0","0","4","5","4","5","4","5","2","2","1","5","8","6","7","7","6","9","7","8","6","5","6","6","6","7","6","5","5","7","6","1","5","5","1","6","5","6","7","7","5","5","3","7","2","5","7","5","6","6","5","7","6","5","7","3","6","5","5","6","7","5","772058156674322434","吴  ","398","Male","[""好他"",""坏我"",""好我"",""坏他""]","[""强他"",""弱我"",""强我"",""弱他""]","","","","","","","","no","","","","","","","","","SRET","EW_formal","","key","j","16.652869565217028","703.6333333333334","391.9666666666667","自己","无助","Negative","ability","","","","","","","","","","",""
"910","","j","psychophysics","33","828740","0.0-7.0-3.0-0.19","7","5","6","7","6","5","5","4","5","4","4","-3","-1","1","0","2","1","0","0","4","5","4","5","4","5","2","2","1","5","8","6","7","7","6","9","7","8","6","5","6","6","6","7","6","5","5","7","6","1","5","5","1","6","5","6","7","7","5","5","3","7","2","5","7","5","6","6","5","7","6","5","7","3","6","5","5","6","7","5","772058156674322434","吴  ","398","Male","[""好他"",""坏我"",""好我"",""坏他""]","[""强他"",""弱我"",""强我"",""弱他""]","","","","","","","","no","","","","","","","","","SRET","EW_formal","","key","j","16.652807017544227","703.6333333333334","391.9666666666667","朋友","短浅","Negative","ability","","","","","","","","","","",""
"872","","j","psychophysics","34","830624","0.0-7.0-3.0-0.20","7","5","6","7","6","5","5","4","5","4","4","-3","-1","1","0","2","1","0","0","4","5","4","5","4","5","2","2","1","5","8","6","7","7","6","9","7","8","6","5","6","6","6","7","6","5","5","7","6","1","5","5","1","6","5","6","7","7","5","5","3","7","2","5","7","5","6","6","5","7","6","5","7","3","6","5","5","6","7","5","772058156674322434","吴  ","398","Male","[""好他"",""坏我"",""好我"",""坏他""]","[""强他"",""弱我"",""强我"",""弱他""]","","","","","","","","no","","","","","","","","","SRET","EW_formal","","key","j","16.6528571428571","703.6333333333334","391.9666666666667","朋友","庸碌","Negative","ability","","","","","","","","","","",""
"956","","f","psychophysics","35","832591","0.0-7.0-3.0-0.21","7","5","6","7","6","5","5","4","5","4","4","-3","-1","1","0","2","1","0","0","4","5","4","5","4","5","2","2","1","5","8","6","7","7","6","9","7","8","6","5","6","6","6","7","6","5","5","7","6","1","5","5","1","6","5","6","7","7","5","5","3","7","2","5","7","5","6","6","5","7","6","5","7","3","6","5","5","6","7","5","772058156674322434","吴  ","398","Male","[""好他"",""坏我"",""好我"",""坏他""]","[""强他"",""弱我"",""强我"",""弱他""]","","","","","","","","yes","","","","","","","","","SRET","EW_formal","","key","f","16.652991452991653","703.6333333333334","391.9666666666667","自己","廉正","Positive","morality","","","","","","","","","","",""
"696","","f","psychophysics","36","834300","0.0-7.0-3.0-0.22","7","5","6","7","6","5","5","4","5","4","4","-3","-1","1","0","2","1","0","0","4","5","4","5","4","5","2","2","1","5","8","6","7","7","6","9","7","8","6","5","6","6","6","7","6","5","5","7","6","1","5","5","1","6","5","6","7","7","5","5","3","7","2","5","7","5","6","6","5","7","6","5","7","3","6","5","5","6","7","5","772058156674322434","吴  ","398","Male","[""好他"",""坏我"",""好我"",""坏他""]","[""强他"",""弱我"",""强我"",""弱他""]","","","","","","","","yes","","","","","","","","","SRET","EW_formal","","key","f","16.653069306930323","703.6333333333334","391.9666666666667","自己","中用","Positive","ability","","","","","","","","","","",""
"863","","j","psychophysics","37","836166","0.0-7.0-3.0-0.23","7","5","6","7","6","5","5","4","5","4","4","-3","-1","1","0","2","1","0","0","4","5","4","5","4","5","2","2","1","5","8","6","7","7","6","9","7","8","6","5","6","6","6","7","6","5","5","7","6","1","5","5","1","6","5","6","7","7","5","5","3","7","2","5","7","5","6","6","5","7","6","5","7","3","6","5","5","6","7","5","772058156674322434","吴  ","398","Male","[""好他"",""坏我"",""好我"",""坏他""]","[""强他"",""弱我"",""强我"",""弱他""]","","","","","","","","no","","","","","","","","","SRET","EW_formal","","key","j","16.65303571428584","703.6333333333334","391.9666666666667","自己","无能","Negative","ability","","","","","","","","","","",""
"1016","","j","psychophysics","38","838198","0.0-7.0-3.0-0.24","7","5","6","7","6","5","5","4","5","4","4","-3","-1","1","0","2","1","0","0","4","5","4","5","4","5","2","2","1","5","8","6","7","7","6","9","7","8","6","5","6","6","6","7","6","5","5","7","6","1","5","5","1","6","5","6","7","7","5","5","3","7","2","5","7","5","6","6","5","7","6","5","7","3","6","5","5","6","7","5","772058156674322434","吴  ","398","Male","[""好他"",""坏我"",""好我"",""坏他""]","[""强他"",""弱我"",""强我"",""弱他""]","","","","","","","","no","","","","","","","","","SRET","EW_formal","","key","j","16.653553719007917","703.6333333333334","391.9666666666667","朋友","邪恶","Negative","morality","","","","","","","","","","",""
"781","","f","psychophysics","39","840047","0.0-7.0-3.0-0.25","7","5","6","7","6","5","5","4","5","4","4","-3","-1","1","0","2","1","0","0","4","5","4","5","4","5","2","2","1","5","8","6","7","7","6","9","7","8","6","5","6","6","6","7","6","5","5","7","6","1","5","5","1","6","5","6","7","7","5","5","3","7","2","5","7","5","6","6","5","7","6","5","7","3","6","5","5","6","7","5","772058156674322434","吴  ","398","Male","[""好他"",""坏我"",""好我"",""坏他""]","[""强他"",""弱我"",""强我"",""弱他""]","","","","","","","","yes","","","","","","","","","SRET","EW_formal","","key","f","16.65309090909061","703.6333333333334","391.9666666666667","朋友","守信","Positive","morality","","","","","","","","","","",""
"928","","j","psychophysics","40","841995","0.0-7.0-3.0-0.26","7","5","6","7","6","5","5","4","5","4","4","-3","-1","1","0","2","1","0","0","4","5","4","5","4","5","2","2","1","5","8","6","7","7","6","9","7","8","6","5","6","6","6","7","6","5","5","7","6","1","5","5","1","6","5","6","7","7","5","5","3","7","2","5","7","5","6","6","5","7","6","5","7","3","6","5","5","6","7","5","772058156674322434","吴  ","398","Male","[""好他"",""坏我"",""好我"",""坏他""]","[""强他"",""弱我"",""强我"",""弱他""]","","","","","","","","no","","","","","","","","","SRET","EW_formal","","key","j","16.652931034482677","703.6333333333334","391.9666666666667","自己","顶事","Positive","ability","","","","","","","","","","",""
"1196","","f","psychophysics","41","844207","0.0-7.0-3.0-0.27","7","5","6","7","6","5","5","4","5","4","4","-3","-1","1","0","2","1","0","0","4","5","4","5","4","5","2","2","1","5","8","6","7","7","6","9","7","8","6","5","6","6","6","7","6","5","5","7","6","1","5","5","1","6","5","6","7","7","5","5","3","7","2","5","7","5","6","6","5","7","6","5","7","3","6","5","5","6","7","5","772058156674322434","吴  ","398","Male","[""好他"",""坏我"",""好我"",""坏他""]","[""强他"",""弱我"",""强我"",""弱他""]","","","","","","","","yes","","","","","","","","","SRET","EW_formal","","key","f","17.04328125000029","703.6333333333334","391.9666666666667","朋友","独断","Negative","ability","","","","","","","","","","",""
"703","","f","psychophysics","42","845926","0.0-7.0-3.0-0.28","7","5","6","7","6","5","5","4","5","4","4","-3","-1","1","0","2","1","0","0","4","5","4","5","4","5","2","2","1","5","8","6","7","7","6","9","7","8","6","5","6","6","6","7","6","5","5","7","6","1","5","5","1","6","5","6","7","7","5","5","3","7","2","5","7","5","6","6","5","7","6","5","7","3","6","5","5","6","7","5","772058156674322434","吴  ","398","Male","[""好他"",""坏我"",""好我"",""坏他""]","[""强他"",""弱我"",""强我"",""弱他""]","","","","","","","","yes","","","","","","","","","SRET","EW_formal","","key","f","16.653009708736825","703.6333333333334","391.9666666666667","自己","宽容","Positive","morality","","","","","","","","","","",""
"1472","","f","psychophysics","43","848411","0.0-7.0-3.0-0.29","7","5","6","7","6","5","5","4","5","4","4","-3","-1","1","0","2","1","0","0","4","5","4","5","4","5","2","2","1","5","8","6","7","7","6","9","7","8","6","5","6","6","6","7","6","5","5","7","6","1","5","5","1","6","5","6","7","7","5","5","3","7","2","5","7","5","6","6","5","7","6","5","7","3","6","5","5","6","7","5","772058156674322434","吴  ","398","Male","[""好他"",""坏我"",""好我"",""坏他""]","[""强他"",""弱我"",""强我"",""弱他""]","","","","","","","","yes","","","","","","","","","SRET","EW_formal","","key","f","16.88095890410956","703.6333333333334","391.9666666666667","朋友","忠诚","Positive","morality","","","","","","","","","","",""
"954","","f","psychophysics","44","850374","0.0-7.0-3.0-0.30","7","5","6","7","6","5","5","4","5","4","4","-3","-1","1","0","2","1","0","0","4","5","4","5","4","5","2","2","1","5","8","6","7","7","6","9","7","8","6","5","6","6","6","7","6","5","5","7","6","1","5","5","1","6","5","6","7","7","5","5","3","7","2","5","7","5","6","6","5","7","6","5","7","3","6","5","5","6","7","5","772058156674322434","吴  ","398","Male","[""好他"",""坏我"",""好我"",""坏他""]","[""强他"",""弱我"",""强我"",""弱他""]","","","","","","","","yes","","","","","","","","","SRET","EW_formal","","key","f","16.652991452991653","703.6333333333334","391.9666666666667","朋友","毅力","Positive","ability","","","","","","","","","","",""
"986","","j","psychophysics","45","852369","0.0-7.0-3.0-0.31","7","5","6","7","6","5","5","4","5","4","4","-3","-1","1","0","2","1","0","0","4","5","4","5","4","5","2","2","1","5","8","6","7","7","6","9","7","8","6","5","6","6","6","7","6","5","5","7","6","1","5","5","1","6","5","6","7","7","5","5","3","7","2","5","7","5","6","6","5","7","6","5","7","3","6","5","5","6","7","5","772058156674322434","吴  ","398","Male","[""好他"",""坏我"",""好我"",""坏他""]","[""强他"",""弱我"",""强我"",""弱他""]","","","","","","","","no","","","","","","","","","SRET","EW_formal","","key","j","16.652941176470197","703.6333333333334","391.9666666666667","自己","窝囊","Negative","ability","","","","","","","","","","",""
"917","","j","psychophysics","46","854383","0.0-7.0-3.0-0.32","7","5","6","7","6","5","5","4","5","4","4","-3","-1","1","0","2","1","0","0","4","5","4","5","4","5","2","2","1","5","8","6","7","7","6","9","7","8","6","5","6","6","6","7","6","5","5","7","6","1","5","5","1","6","5","6","7","7","5","5","3","7","2","5","7","5","6","6","5","7","6","5","7","3","6","5","5","6","7","5","772058156674322434","吴  ","398","Male","[""好他"",""坏我"",""好我"",""坏他""]","[""强他"",""弱我"",""强我"",""弱他""]","","","","","","","","no","","","","","","","","","SRET","EW_formal","","key","j","16.794067796609774","703.6333333333334","391.9666666666667","朋友","迟钝","Negative","ability","","","","","","","","","","",""
"884","","f","psychophysics","47","856284","0.0-7.0-3.0-0.33","7","5","6","7","6","5","5","4","5","4","4","-3","-1","1","0","2","1","0","0","4","5","4","5","4","5","2","2","1","5","8","6","7","7","6","9","7","8","6","5","6","6","6","7","6","5","5","7","6","1","5","5","1","6","5","6","7","7","5","5","3","7","2","5","7","5","6","6","5","7","6","5","7","3","6","5","5","6","7","5","772058156674322434","吴  ","398","Male","[""好他"",""坏我"",""好我"",""坏他""]","[""强他"",""弱我"",""强我"",""弱他""]","","","","","","","","yes","","","","","","","","","SRET","EW_formal","","key","f","16.652807017544227","703.6333333333334","391.9666666666667","自己","果断","Positive","ability","","","","","","","","","","",""
"1081","","j","psychophysics","48","858479","0.0-7.0-3.0-0.34","7","5","6","7","6","5","5","4","5","4","4","-3","-1","1","0","2","1","0","0","4","5","4","5","4","5","2","2","1","5","8","6","7","7","6","9","7","8","6","5","6","6","6","7","6","5","5","7","6","1","5","5","1","6","5","6","7","7","5","5","3","7","2","5","7","5","6","6","5","7","6","5","7","3","6","5","5","6","7","5","772058156674322434","吴  ","398","Male","[""好他"",""坏我"",""好我"",""坏他""]","[""强他"",""弱我"",""强我"",""弱他""]","","","","","","","","no","","","","","","","","","SRET","EW_formal","","key","j","16.652868217054046","703.6333333333334","391.9666666666667","自己","无知","Negative","ability","","","","","","","","","","",""
"698","","f","psychophysics","49","860213","0.0-7.0-3.0-0.35","7","5","6","7","6","5","5","4","5","4","4","-3","-1","1","0","2","1","0","0","4","5","4","5","4","5","2","2","1","5","8","6","7","7","6","9","7","8","6","5","6","6","6","7","6","5","5","7","6","1","5","5","1","6","5","6","7","7","5","5","3","7","2","5","7","5","6","6","5","7","6","5","7","3","6","5","5","6","7","5","772058156674322434","吴  ","398","Male","[""好他"",""坏我"",""好我"",""坏他""]","[""强他"",""弱我"",""强我"",""弱他""]","","","","","","","","yes","","","","","","","","","SRET","EW_formal","","key","f","16.65288461538484","703.6333333333334","391.9666666666667","朋友","忠勇","Positive","morality","","","","","","","","","","",""
"857","","j","psychophysics","50","862075","0.0-7.0-3.0-0.36","7","5","6","7","6","5","5","4","5","4","4","-3","-1","1","0","2","1","0","0","4","5","4","5","4","5","2","2","1","5","8","6","7","7","6","9","7","8","6","5","6","6","6","7","6","5","5","7","6","1","5","5","1","6","5","6","7","7","5","5","3","7","2","5","7","5","6","6","5","7","6","5","7","3","6","5","5","6","7","5","772058156674322434","吴  ","398","Male","[""好他"",""坏我"",""好我"",""坏他""]","[""强他"",""弱我"",""强我"",""弱他""]","","","","","","","","no","","","","","","","","","SRET","EW_formal","","key","j","16.652909090909684","703.6333333333334","391.9666666666667","自己","失信","Negative","morality","","","","","","","","","","",""
"967","","f","psychophysics","51","864061","0.0-7.0-3.0-0.37","7","5","6","7","6","5","5","4","5","4","4","-3","-1","1","0","2","1","0","0","4","5","4","5","4","5","2","2","1","5","8","6","7","7","6","9","7","8","6","5","6","6","6","7","6","5","5","7","6","1","5","5","1","6","5","6","7","7","5","5","3","7","2","5","7","5","6","6","5","7","6","5","7","3","6","5","5","6","7","5","772058156674322434","吴  ","398","Male","[""好他"",""坏我"",""好我"",""坏他""]","[""强他"",""弱我"",""强我"",""弱他""]","","","","","","","","yes","","","","","","","","","SRET","EW_formal","","key","f","16.653613445378387","703.6333333333334","391.9666666666667","朋友","稳健","Positive","ability","","","","","","","","","","",""
"1236","","j","psychophysics","52","866314","0.0-7.0-3.0-0.38","7","5","6","7","6","5","5","4","5","4","4","-3","-1","1","0","2","1","0","0","4","5","4","5","4","5","2","2","1","5","8","6","7","7","6","9","7","8","6","5","6","6","6","7","6","5","5","7","6","1","5","5","1","6","5","6","7","7","5","5","3","7","2","5","7","5","6","6","5","7","6","5","7","3","6","5","5","6","7","5","772058156674322434","吴  ","398","Male","[""好他"",""坏我"",""好我"",""坏他""]","[""强他"",""弱我"",""强我"",""弱他""]","","","","","","","","no","","","","","","","","","SRET","EW_formal","","key","j","16.652835820895383","703.6333333333334","391.9666666666667","自己","外行","Negative","ability","","","","","","","","","","",""
"865","","j","psychophysics","53","868193","0.0-7.0-3.0-0.39","7","5","6","7","6","5","5","4","5","4","4","-3","-1","1","0","2","1","0","0","4","5","4","5","4","5","2","2","1","5","8","6","7","7","6","9","7","8","6","5","6","6","6","7","6","5","5","7","6","1","5","5","1","6","5","6","7","7","5","5","3","7","2","5","7","5","6","6","5","7","6","5","7","3","6","5","5","6","7","5","772058156674322434","吴  ","398","Male","[""好他"",""坏我"",""好我"",""坏他""]","[""强他"",""弱我"",""强我"",""弱他""]","","","","","","","","no","","","","","","","","","SRET","EW_formal","","key","j","16.6528571428571","703.6333333333334","391.9666666666667","自己","业余","Negative","ability","","","","","","","","","","",""
"851","","f","psychophysics","54","870055","0.0-7.0-3.0-0.40","7","5","6","7","6","5","5","4","5","4","4","-3","-1","1","0","2","1","0","0","4","5","4","5","4","5","2","2","1","5","8","6","7","7","6","9","7","8","6","5","6","6","6","7","6","5","5","7","6","1","5","5","1","6","5","6","7","7","5","5","3","7","2","5","7","5","6","6","5","7","6","5","7","3","6","5","5","6","7","5","772058156674322434","吴  ","398","Male","[""好他"",""坏我"",""好我"",""坏他""]","[""强他"",""弱我"",""强我"",""弱他""]","","","","","","","","yes","","","","","","","","","SRET","EW_formal","","key","f","16.652792792792457","703.6333333333334","391.9666666666667","自己","守时","Positive","morality","","","","","","","","","","",""
"1499","","f","psychophysics","55","872568","0.0-7.0-3.0-0.41","7","5","6","7","6","5","5","4","5","4","4","-3","-1","1","0","2","1","0","0","4","5","4","5","4","5","2","2","1","5","8","6","7","7","6","9","7","8","6","5","6","6","6","7","6","5","5","7","6","1","5","5","1","6","5","6","7","7","5","5","3","7","2","5","7","5","6","6","5","7","6","5","7","3","6","5","5","6","7","5","772058156674322434","吴  ","398","Male","[""好他"",""坏我"",""好我"",""坏他""]","[""强他"",""弱我"",""强我"",""弱他""]","","","","","","","","yes","","","","","","","","","SRET","EW_formal","","key","f","16.653020134228502","703.6333333333334","391.9666666666667","朋友","君子","Positive","morality","","","","","","","","","","",""
"1019","","j","psychophysics","56","874603","0.0-7.0-3.0-0.42","7","5","6","7","6","5","5","4","5","4","4","-3","-1","1","0","2","1","0","0","4","5","4","5","4","5","2","2","1","5","8","6","7","7","6","9","7","8","6","5","6","6","6","7","6","5","5","7","6","1","5","5","1","6","5","6","7","7","5","5","3","7","2","5","7","5","6","6","5","7","6","5","7","3","6","5","5","6","7","5","772058156674322434","吴  ","398","Male","[""好他"",""坏我"",""好我"",""坏他""]","[""强他"",""弱我"",""强我"",""弱他""]","","","","","","","","no","","","","","","","","","SRET","EW_formal","","key","j","16.652786885246016","703.6333333333334","391.9666666666667","自己","歹毒","Negative","morality","","","","","","","","","","",""
"1165","","f","psychophysics","57","876769","0.0-7.0-3.0-0.43","7","5","6","7","6","5","5","4","5","4","4","-3","-1","1","0","2","1","0","0","4","5","4","5","4","5","2","2","1","5","8","6","7","7","6","9","7","8","6","5","6","6","6","7","6","5","5","7","6","1","5","5","1","6","5","6","7","7","5","5","3","7","2","5","7","5","6","6","5","7","6","5","7","3","6","5","5","6","7","5","772058156674322434","吴  ","398","Male","[""好他"",""坏我"",""好我"",""坏他""]","[""强他"",""弱我"",""强我"",""弱他""]","","","","","","","","yes","","","","","","","","","SRET","EW_formal","","key","f","16.65302325581388","703.6333333333334","391.9666666666667","自己","独立","Positive","ability","","","","","","","","","","",""
"905","","j","psychophysics","58","878687","0.0-7.0-3.0-0.44","7","5","6","7","6","5","5","4","5","4","4","-3","-1","1","0","2","1","0","0","4","5","4","5","4","5","2","2","1","5","8","6","7","7","6","9","7","8","6","5","6","6","6","7","6","5","5","7","6","1","5","5","1","6","5","6","7","7","5","5","3","7","2","5","7","5","6","6","5","7","6","5","7","3","6","5","5","6","7","5","772058156674322434","吴  ","398","Male","[""好他"",""坏我"",""好我"",""坏他""]","[""强他"",""弱我"",""强我"",""弱他""]","","","","","","","","no","","","","","","","","","SRET","EW_formal","","key","j","16.65298245613986","703.6333333333334","391.9666666666667","自己","自私","Negative","morality","","","","","","","","","","",""
"869","","f","psychophysics","59","880564","0.0-7.0-3.0-0.45","7","5","6","7","6","5","5","4","5","4","4","-3","-1","1","0","2","1","0","0","4","5","4","5","4","5","2","2","1","5","8","6","7","7","6","9","7","8","6","5","6","6","6","7","6","5","5","7","6","1","5","5","1","6","5","6","7","7","5","5","3","7","2","5","7","5","6","6","5","7","6","5","7","3","6","5","5","6","7","5","772058156674322434","吴  ","398","Male","[""好他"",""坏我"",""好我"",""坏他""]","[""强他"",""弱我"",""强我"",""弱他""]","","","","","","","","yes","","","","","","","","","SRET","EW_formal","","key","f","16.80288288288284","703.6333333333334","391.9666666666667","自己","刻苦","Positive","ability","","","","","","","","","","",""
"894","","f","psychophysics","60","882475","0.0-7.0-3.0-0.46","7","5","6","7","6","5","5","4","5","4","4","-3","-1","1","0","2","1","0","0","4","5","4","5","4","5","2","2","1","5","8","6","7","7","6","9","7","8","6","5","6","6","6","7","6","5","5","7","6","1","5","5","1","6","5","6","7","7","5","5","3","7","2","5","7","5","6","6","5","7","6","5","7","3","6","5","5","6","7","5","772058156674322434","吴  ","398","Male","[""好他"",""坏我"",""好我"",""坏他""]","[""强他"",""弱我"",""强我"",""弱他""]","","","","","","","","yes","","","","","","","","","SRET","EW_formal","","key","f","16.652920353982548","703.6333333333334","391.9666666666667","自己","爱国","Positive","morality","","","","","","","","","","",""
"1344","","f","psychophysics","61","884827","0.0-7.0-3.0-0.47","7","5","6","7","6","5","5","4","5","4","4","-3","-1","1","0","2","1","0","0","4","5","4","5","4","5","2","2","1","5","8","6","7","7","6","9","7","8","6","5","6","6","6","7","6","5","5","7","6","1","5","5","1","6","5","6","7","7","5","5","3","7","2","5","7","5","6","6","5","7","6","5","7","3","6","5","5","6","7","5","772058156674322434","吴  ","398","Male","[""好他"",""坏我"",""好我"",""坏他""]","[""强他"",""弱我"",""强我"",""弱他""]","","","","","","","","yes","","","","","","","","","SRET","EW_formal","","key","f","16.652624113474484","703.6333333333334","391.9666666666667","朋友","善良","Positive","morality","","","","","","","","","","",""
"708","","j","psychophysics","62","886538","0.0-7.0-3.0-0.48","7","5","6","7","6","5","5","4","5","4","4","-3","-1","1","0","2","1","0","0","4","5","4","5","4","5","2","2","1","5","8","6","7","7","6","9","7","8","6","5","6","6","6","7","6","5","5","7","6","1","5","5","1","6","5","6","7","7","5","5","3","7","2","5","7","5","6","6","5","7","6","5","7","3","6","5","5","6","7","5","772058156674322434","吴  ","398","Male","[""好他"",""坏我"",""好我"",""坏他""]","[""强他"",""弱我"",""强我"",""弱他""]","","","","","","","","no","","","","","","","","","SRET","EW_formal","","key","j","16.65287128712931","703.6333333333334","391.9666666666667","自己","无为","Negative","ability","","","","","","","","","","",""
"839","","f","psychophysics","63","888394","0.0-7.0-3.0-0.49","7","5","6","7","6","5","5","4","5","4","4","-3","-1","1","0","2","1","0","0","4","5","4","5","4","5","2","2","1","5","8","6","7","7","6","9","7","8","6","5","6","6","6","7","6","5","5","7","6","1","5","5","1","6","5","6","7","7","5","5","3","7","2","5","7","5","6","6","5","7","6","5","7","3","6","5","5","6","7","5","772058156674322434","吴  ","398","Male","[""好他"",""坏我"",""好我"",""坏他""]","[""强他"",""弱我"",""强我"",""弱他""]","","","","","","","","yes","","","","","","","","","SRET","EW_formal","","key","f","16.83109090909129","703.6333333333334","391.9666666666667","自己","高明","Positive","ability","","","","","","","","","","",""
"800","","j","psychophysics","64","890221","0.0-7.0-3.0-0.50","7","5","6","7","6","5","5","4","5","4","4","-3","-1","1","0","2","1","0","0","4","5","4","5","4","5","2","2","1","5","8","6","7","7","6","9","7","8","6","5","6","6","6","7","6","5","5","7","6","1","5","5","1","6","5","6","7","7","5","5","3","7","2","5","7","5","6","6","5","7","6","5","7","3","6","5","5","6","7","5","772058156674322434","吴  ","398","Male","[""好他"",""坏我"",""好我"",""坏他""]","[""强他"",""弱我"",""强我"",""弱他""]","","","","","","","","no","","","","","","","","","SRET","EW_formal","","key","j","16.652962962963134","703.6333333333334","391.9666666666667","朋友","恶劣","Negative","morality","","","","","","","","","","",""
"856","","j","psychophysics","65","892092","0.0-7.0-3.0-0.51","7","5","6","7","6","5","5","4","5","4","4","-3","-1","1","0","2","1","0","0","4","5","4","5","4","5","2","2","1","5","8","6","7","7","6","9","7","8","6","5","6","6","6","7","6","5","5","7","6","1","5","5","1","6","5","6","7","7","5","5","3","7","2","5","7","5","6","6","5","7","6","5","7","3","6","5","5","6","7","5","772058156674322434","吴  ","398","Male","[""好他"",""坏我"",""好我"",""坏他""]","[""强他"",""弱我"",""强我"",""弱他""]","","","","","","","","no","","","","","","","","","SRET","EW_formal","","key","j","16.80288288288284","703.6333333333334","391.9666666666667","朋友","虚伪","Negative","morality","","","","","","","","","","",""
"1267","","f","psychophysics","66","894372","0.0-7.0-3.0-0.52","7","5","6","7","6","5","5","4","5","4","4","-3","-1","1","0","2","1","0","0","4","5","4","5","4","5","2","2","1","5","8","6","7","7","6","9","7","8","6","5","6","6","6","7","6","5","5","7","6","1","5","5","1","6","5","6","7","7","5","5","3","7","2","5","7","5","6","6","5","7","6","5","7","3","6","5","5","6","7","5","772058156674322434","吴  ","398","Male","[""好他"",""坏我"",""好我"",""坏他""]","[""强他"",""弱我"",""强我"",""弱他""]","","","","","","","","yes","","","","","","","","","SRET","EW_formal","","key","f","16.652941176470076","703.6333333333334","391.9666666666667","自己","博学","Positive","ability","","","","","","","","","","",""
"677","","f","psychophysics","67","896051","0.0-7.0-3.0-0.53","7","5","6","7","6","5","5","4","5","4","4","-3","-1","1","0","2","1","0","0","4","5","4","5","4","5","2","2","1","5","8","6","7","7","6","9","7","8","6","5","6","6","6","7","6","5","5","7","6","1","5","5","1","6","5","6","7","7","5","5","3","7","2","5","7","5","6","6","5","7","6","5","7","3","6","5","5","6","7","5","772058156674322434","吴  ","398","Male","[""好他"",""坏我"",""好我"",""坏他""]","[""强他"",""弱我"",""强我"",""弱他""]","","","","","","","","yes","","","","","","","","","SRET","EW_formal","","key","f","16.652600000000092","703.6333333333334","391.9666666666667","自己","高尚","Positive","morality","","","","","","","","","","",""
"1052","","f","psychophysics","68","898136","0.0-7.0-3.0-0.54","7","5","6","7","6","5","5","4","5","4","4","-3","-1","1","0","2","1","0","0","4","5","4","5","4","5","2","2","1","5","8","6","7","7","6","9","7","8","6","5","6","6","6","7","6","5","5","7","6","1","5","5","1","6","5","6","7","7","5","5","3","7","2","5","7","5","6","6","5","7","6","5","7","3","6","5","5","6","7","5","772058156674322434","吴  ","398","Male","[""好他"",""坏我"",""好我"",""坏他""]","[""强他"",""弱我"",""强我"",""弱他""]","","","","","","","","yes","","","","","","","","","SRET","EW_formal","","key","f","16.653064516128882","703.6333333333334","391.9666666666667","自己","学霸","Positive","ability","","","","","","","","","","",""
"866","","j","psychophysics","69","900018","0.0-7.0-3.0-0.55","7","5","6","7","6","5","5","4","5","4","4","-3","-1","1","0","2","1","0","0","4","5","4","5","4","5","2","2","1","5","8","6","7","7","6","9","7","8","6","5","6","6","6","7","6","5","5","7","6","1","5","5","1","6","5","6","7","7","5","5","3","7","2","5","7","5","6","6","5","7","6","5","7","3","6","5","5","6","7","5","772058156674322434","吴  ","398","Male","[""好他"",""坏我"",""好我"",""坏他""]","[""强他"",""弱我"",""强我"",""弱他""]","","","","","","","","no","","","","","","","","","SRET","EW_formal","","key","j","16.79909909909868","703.6333333333334","391.9666666666667","自己","不端","Negative","morality","","","","","","","","","","",""
"675","","j","psychophysics","70","901792","0.0-7.0-3.0-0.56","7","5","6","7","6","5","5","4","5","4","4","-3","-1","1","0","2","1","0","0","4","5","4","5","4","5","2","2","1","5","8","6","7","7","6","9","7","8","6","5","6","6","6","7","6","5","5","7","6","1","5","5","1","6","5","6","7","7","5","5","3","7","2","5","7","5","6","6","5","7","6","5","7","3","6","5","5","6","7","5","772058156674322434","吴  ","398","Male","[""好他"",""坏我"",""好我"",""坏他""]","[""强他"",""弱我"",""强我"",""弱他""]","","","","","","","","no","","","","","","","","","SRET","EW_formal","","key","j","16.652952380951806","703.6333333333334","391.9666666666667","自己","淫乱","Negative","morality","","","","","","","","","","",""
"905","","f","psychophysics","71","903717","0.0-7.0-3.0-0.57","7","5","6","7","6","5","5","4","5","4","4","-3","-1","1","0","2","1","0","0","4","5","4","5","4","5","2","2","1","5","8","6","7","7","6","9","7","8","6","5","6","6","6","7","6","5","5","7","6","1","5","5","1","6","5","6","7","7","5","5","3","7","2","5","7","5","6","6","5","7","6","5","7","3","6","5","5","6","7","5","772058156674322434","吴  ","398","Male","[""好他"",""坏我"",""好我"",""坏他""]","[""强他"",""弱我"",""强我"",""弱他""]","","","","","","","","yes","","","","","","","","","SRET","EW_formal","","key","f","16.652869565217028","703.6333333333334","391.9666666666667","朋友","奉献","Positive","morality","","","","","","","","","","",""
"719","","j","psychophysics","72","905462","0.0-7.0-3.0-0.58","7","5","6","7","6","5","5","4","5","4","4","-3","-1","1","0","2","1","0","0","4","5","4","5","4","5","2","2","1","5","8","6","7","7","6","9","7","8","6","5","6","6","6","7","6","5","5","7","6","1","5","5","1","6","5","6","7","7","5","5","3","7","2","5","7","5","6","6","5","7","6","5","7","3","6","5","5","6","7","5","772058156674322434","吴  ","398","Male","[""好他"",""坏我"",""好我"",""坏他""]","[""强他"",""弱我"",""强我"",""弱他""]","","","","","","","","no","","","","","","","","","SRET","EW_formal","","key","j","16.65288461538484","703.6333333333334","391.9666666666667","自己","腐败","Negative","morality","","","","","","","","","","",""
"822","","f","psychophysics","73","907296","0.0-7.0-3.0-0.59","7","5","6","7","6","5","5","4","5","4","4","-3","-1","1","0","2","1","0","0","4","5","4","5","4","5","2","2","1","5","8","6","7","7","6","9","7","8","6","5","6","6","6","7","6","5","5","7","6","1","5","5","1","6","5","6","7","7","5","5","3","7","2","5","7","5","6","6","5","7","6","5","7","3","6","5","5","6","7","5","772058156674322434","吴  ","398","Male","[""好他"",""坏我"",""好我"",""坏他""]","[""强他"",""弱我"",""强我"",""弱他""]","","","","","","","","yes","","","","","","","","","SRET","EW_formal","","key","f","16.65284403669648","703.6333333333334","391.9666666666667","自己","精干","Positive","ability","","","","","","","","","","",""
"1105","","j","psychophysics","74","909408","0.0-7.0-3.0-0.60","7","5","6","7","6","5","5","4","5","4","4","-3","-1","1","0","2","1","0","0","4","5","4","5","4","5","2","2","1","5","8","6","7","7","6","9","7","8","6","5","6","6","6","7","6","5","5","7","6","1","5","5","1","6","5","6","7","7","5","5","3","7","2","5","7","5","6","6","5","7","6","5","7","3","6","5","5","6","7","5","772058156674322434","吴  ","398","Male","[""好他"",""坏我"",""好我"",""坏他""]","[""强他"",""弱我"",""强我"",""弱他""]","","","","","","","","no","","","","","","","","","SRET","EW_formal","","key","j","16.65285714285722","703.6333333333334","391.9666666666667","自己","下流","Negative","morality","","","","","","","","","","",""
"935","","f","psychophysics","75","911354","0.0-7.0-3.0-0.61","7","5","6","7","6","5","5","4","5","4","4","-3","-1","1","0","2","1","0","0","4","5","4","5","4","5","2","2","1","5","8","6","7","7","6","9","7","8","6","5","6","6","6","7","6","5","5","7","6","1","5","5","1","6","5","6","7","7","5","5","3","7","2","5","7","5","6","6","5","7","6","5","7","3","6","5","5","6","7","5","772058156674322434","吴  ","398","Male","[""好他"",""坏我"",""好我"",""坏他""]","[""强他"",""弱我"",""强我"",""弱他""]","","","","","","","","yes","","","","","","","","","SRET","EW_formal","","key","f","16.652869565217028","703.6333333333334","391.9666666666667","自己","好心","Positive","morality","","","","","","","","","","",""
"724","","f","psychophysics","76","913092","0.0-7.0-3.0-0.62","7","5","6","7","6","5","5","4","5","4","4","-3","-1","1","0","2","1","0","0","4","5","4","5","4","5","2","2","1","5","8","6","7","7","6","9","7","8","6","5","6","6","6","7","6","5","5","7","6","1","5","5","1","6","5","6","7","7","5","5","3","7","2","5","7","5","6","6","5","7","6","5","7","3","6","5","5","6","7","5","772058156674322434","吴  ","398","Male","[""好他"",""坏我"",""好我"",""坏他""]","[""强他"",""弱我"",""强我"",""弱他""]","","","","","","","","yes","","","","","","","","","SRET","EW_formal","","key","f","16.65288461538372","703.6333333333334","391.9666666666667","自己","肯干","Positive","ability","","","","","","","","","","",""
"734","","j","psychophysics","77","914835","0.0-7.0-3.0-0.63","7","5","6","7","6","5","5","4","5","4","4","-3","-1","1","0","2","1","0","0","4","5","4","5","4","5","2","2","1","5","8","6","7","7","6","9","7","8","6","5","6","6","6","7","6","5","5","7","6","1","5","5","1","6","5","6","7","7","5","5","3","7","2","5","7","5","6","6","5","7","6","5","7","3","6","5","5","6","7","5","772058156674322434","吴  ","398","Male","[""好他"",""坏我"",""好我"",""坏他""]","[""强他"",""弱我"",""强我"",""弱他""]","","","","","","","","no","","","","","","","","","SRET","EW_formal","","key","j","16.65288461538484","703.6333333333334","391.9666666666667","自己","拖延","Negative","ability","","","","","","","","","","",""
"1145","","j","psychophysics","78","916986","0.0-7.0-3.0-0.64","7","5","6","7","6","5","5","4","5","4","4","-3","-1","1","0","2","1","0","0","4","5","4","5","4","5","2","2","1","5","8","6","7","7","6","9","7","8","6","5","6","6","6","7","6","5","5","7","6","1","5","5","1","6","5","6","7","7","5","5","3","7","2","5","7","5","6","6","5","7","6","5","7","3","6","5","5","6","7","5","772058156674322434","吴  ","398","Male","[""好他"",""坏我"",""好我"",""坏他""]","[""强他"",""弱我"",""强我"",""弱他""]","","","","","","","","no","","","","","","","","","SRET","EW_formal","","key","j","16.652968749999673","703.6333333333334","391.9666666666667","朋友","屈才","Negative","ability","","","","","","","","","","",""
"951","","j","psychophysics","79","918948","0.0-7.0-3.0-0.65","7","5","6","7","6","5","5","4","5","4","4","-3","-1","1","0","2","1","0","0","4","5","4","5","4","5","2","2","1","5","8","6","7","7","6","9","7","8","6","5","6","6","6","7","6","5","5","7","6","1","5","5","1","6","5","6","7","7","5","5","3","7","2","5","7","5","6","6","5","7","6","5","7","3","6","5","5","6","7","5","772058156674322434","吴  ","398","Male","[""好他"",""坏我"",""好我"",""坏他""]","[""强他"",""弱我"",""强我"",""弱他""]","","","","","","","","no","","","","","","","","","SRET","EW_formal","","key","j","16.652991452991653","703.6333333333334","391.9666666666667","自己","畏难","Negative","ability","","","","","","","","","","",""
"724","","j","psychophysics","80","920677","0.0-7.0-3.0-0.66","7","5","6","7","6","5","5","4","5","4","4","-3","-1","1","0","2","1","0","0","4","5","4","5","4","5","2","2","1","5","8","6","7","7","6","9","7","8","6","5","6","6","6","7","6","5","5","7","6","1","5","5","1","6","5","6","7","7","5","5","3","7","2","5","7","5","6","6","5","7","6","5","7","3","6","5","5","6","7","5","772058156674322434","吴  ","398","Male","[""好他"",""坏我"",""好我"",""坏他""]","[""强他"",""弱我"",""强我"",""弱他""]","","","","","","","","no","","","","","","","","","SRET","EW_formal","","key","j","16.652745098039947","703.6333333333334","391.9666666666667","朋友","小人","Negative","morality","","","","","","","","","","",""
"795","","j","psychophysics","81","922476","0.0-7.0-3.0-0.67","7","5","6","7","6","5","5","4","5","4","4","-3","-1","1","0","2","1","0","0","4","5","4","5","4","5","2","2","1","5","8","6","7","7","6","9","7","8","6","5","6","6","6","7","6","5","5","7","6","1","5","5","1","6","5","6","7","7","5","5","3","7","2","5","7","5","6","6","5","7","6","5","7","3","6","5","5","6","7","5","772058156674322434","吴  ","398","Male","[""好他"",""坏我"",""好我"",""坏他""]","[""强他"",""弱我"",""强我"",""弱他""]","","","","","","","","no","","","","","","","","","SRET","EW_formal","","key","j","16.652897196261552","703.6333333333334","391.9666666666667","朋友","狡狯","Negative","morality","","","","","","","","","","",""
"898","","j","psychophysics","82","924381","0.0-7.0-3.0-0.68","7","5","6","7","6","5","5","4","5","4","4","-3","-1","1","0","2","1","0","0","4","5","4","5","4","5","2","2","1","5","8","6","7","7","6","9","7","8","6","5","6","6","6","7","6","5","5","7","6","1","5","5","1","6","5","6","7","7","5","5","3","7","2","5","7","5","6","6","5","7","6","5","7","3","6","5","5","6","7","5","772058156674322434","吴  ","398","Male","[""好他"",""坏我"",""好我"",""坏他""]","[""强他"",""弱我"",""强我"",""弱他""]","","","","","","","","no","","","","","","","","","SRET","EW_formal","","key","j","16.657368421053164","703.6333333333334","391.9666666666667","朋友","贪污","Negative","morality","","","","","","","","","","",""
"1015","","j","psychophysics","83","926428","0.0-7.0-3.0-0.69","7","5","6","7","6","5","5","4","5","4","4","-3","-1","1","0","2","1","0","0","4","5","4","5","4","5","2","2","1","5","8","6","7","7","6","9","7","8","6","5","6","6","6","7","6","5","5","7","6","1","5","5","1","6","5","6","7","7","5","5","3","7","2","5","7","5","6","6","5","7","6","5","7","3","6","5","5","6","7","5","772058156674322434","吴  ","398","Male","[""好他"",""坏我"",""好我"",""坏他""]","[""强他"",""弱我"",""强我"",""弱他""]","","","","","","","","no","","","","","","","","","SRET","EW_formal","","key","j","16.652950819671442","703.6333333333334","391.9666666666667","朋友","思辨","Positive","ability","","","","","","","","","","",""
"828","","j","psychophysics","84","928271","0.0-7.0-3.0-0.70","7","5","6","7","6","5","5","4","5","4","4","-3","-1","1","0","2","1","0","0","4","5","4","5","4","5","2","2","1","5","8","6","7","7","6","9","7","8","6","5","6","6","6","7","6","5","5","7","6","1","5","5","1","6","5","6","7","7","5","5","3","7","2","5","7","5","6","6","5","7","6","5","7","3","6","5","5","6","7","5","772058156674322434","吴  ","398","Male","[""好他"",""坏我"",""好我"",""坏他""]","[""强他"",""弱我"",""强我"",""弱他""]","","","","","","","","no","","","","","","","","","SRET","EW_formal","","key","j","16.6541284403674","703.6333333333334","391.9666666666667","自己","诡诈","Negative","morality","","","","","","","","","","",""
"915","","j","psychophysics","85","930206","0.0-7.0-3.0-0.71","7","5","6","7","6","5","5","4","5","4","4","-3","-1","1","0","2","1","0","0","4","5","4","5","4","5","2","2","1","5","8","6","7","7","6","9","7","8","6","5","6","6","6","7","6","5","5","7","6","1","5","5","1","6","5","6","7","7","5","5","3","7","2","5","7","5","6","6","5","7","6","5","7","3","6","5","5","6","7","5","772058156674322434","吴  ","398","Male","[""好他"",""坏我"",""好我"",""坏他""]","[""强他"",""弱我"",""强我"",""弱他""]","","","","","","","","no","","","","","","","","","SRET","EW_formal","","key","j","16.944385964911547","703.6333333333334","391.9666666666667","自己","势利","Negative","morality","","","","","","","","","","",""
"903","","f","psychophysics","86","932123","0.0-7.0-3.0-0.72","7","5","6","7","6","5","5","4","5","4","4","-3","-1","1","0","2","1","0","0","4","5","4","5","4","5","2","2","1","5","8","6","7","7","6","9","7","8","6","5","6","6","6","7","6","5","5","7","6","1","5","5","1","6","5","6","7","7","5","5","3","7","2","5","7","5","6","6","5","7","6","5","7","3","6","5","5","6","7","5","772058156674322434","吴  ","398","Male","[""好他"",""坏我"",""好我"",""坏他""]","[""强他"",""弱我"",""强我"",""弱他""]","","","","","","","","yes","","","","","","","","","SRET","EW_formal","","key","f","16.652982456140883","703.6333333333334","391.9666666666667","朋友","勤恳","Positive","morality","","","","","","","","","","",""
"748","","j","psychophysics","87","933887","0.0-7.0-3.0-0.73","7","5","6","7","6","5","5","4","5","4","4","-3","-1","1","0","2","1","0","0","4","5","4","5","4","5","2","2","1","5","8","6","7","7","6","9","7","8","6","5","6","6","6","7","6","5","5","7","6","1","5","5","1","6","5","6","7","7","5","5","3","7","2","5","7","5","6","6","5","7","6","5","7","3","6","5","5","6","7","5","772058156674322434","吴  ","398","Male","[""好他"",""坏我"",""好我"",""坏他""]","[""强他"",""弱我"",""强我"",""弱他""]","","","","","","","","no","","","","","","","","","SRET","EW_formal","","key","j","16.652761904762258","703.6333333333334","391.9666666666667","朋友","利己","Negative","morality","","","","","","","","","","",""
"937","","j","psychophysics","88","935836","0.0-7.0-3.0-0.74","7","5","6","7","6","5","5","4","5","4","4","-3","-1","1","0","2","1","0","0","4","5","4","5","4","5","2","2","1","5","8","6","7","7","6","9","7","8","6","5","6","6","6","7","6","5","5","7","6","1","5","5","1","6","5","6","7","7","5","5","3","7","2","5","7","5","6","6","5","7","6","5","7","3","6","5","5","6","7","5","772058156674322434","吴  ","398","Male","[""好他"",""坏我"",""好我"",""坏他""]","[""强他"",""弱我"",""强我"",""弱他""]","","","","","","","","no","","","","","","","","","SRET","EW_formal","","key","j","16.652931034482677","703.6333333333334","391.9666666666667","朋友","罪恶","Negative","morality","","","","","","","","","","",""
"651","","j","psychophysics","89","937501","0.0-7.0-3.0-0.75","7","5","6","7","6","5","5","4","5","4","4","-3","-1","1","0","2","1","0","0","4","5","4","5","4","5","2","2","1","5","8","6","7","7","6","9","7","8","6","5","6","6","6","7","6","5","5","7","6","1","5","5","1","6","5","6","7","7","5","5","3","7","2","5","7","5","6","6","5","7","6","5","7","3","6","5","5","6","7","5","772058156674322434","吴  ","398","Male","[""好他"",""坏我"",""好我"",""坏他""]","[""强他"",""弱我"",""强我"",""弱他""]","","","","","","","","no","","","","","","","","","SRET","EW_formal","","key","j","16.65292929292826","703.6333333333334","391.9666666666667","朋友","驽钝","Negative","ability","","","","","","","","","","",""
"1668","","f","psychophysics","90","940267","0.0-7.0-3.0-0.76","7","5","6","7","6","5","5","4","5","4","4","-3","-1","1","0","2","1","0","0","4","5","4","5","4","5","2","2","1","5","8","6","7","7","6","9","7","8","6","5","6","6","6","7","6","5","5","7","6","1","5","5","1","6","5","6","7","7","5","5","3","7","2","5","7","5","6","6","5","7","6","5","7","3","6","5","5","6","7","5","772058156674322434","吴  ","398","Male","[""好他"",""坏我"",""好我"",""坏他""]","[""强他"",""弱我"",""强我"",""弱他""]","","","","","","","","yes","","","","","","","","","SRET","EW_formal","","key","f","16.65284848484902","703.6333333333334","391.9666666666667","朋友","骁勇","Positive","ability","","","","","","","","","","",""
"819","","f","psychophysics","91","942098","0.0-7.0-3.0-0.77","7","5","6","7","6","5","5","4","5","4","4","-3","-1","1","0","2","1","0","0","4","5","4","5","4","5","2","2","1","5","8","6","7","7","6","9","7","8","6","5","6","6","6","7","6","5","5","7","6","1","5","5","1","6","5","6","7","7","5","5","3","7","2","5","7","5","6","6","5","7","6","5","7","3","6","5","5","6","7","5","772058156674322434","吴  ","398","Male","[""好他"",""坏我"",""好我"",""坏他""]","[""强他"",""弱我"",""强我"",""弱他""]","","","","","","","","yes","","","","","","","","","SRET","EW_formal","","key","f","16.653394495412588","703.6333333333334","391.9666666666667","朋友","高效","Positive","ability","","","","","","","","","","",""
"866","","j","psychophysics","92","943978","0.0-7.0-3.0-0.78","7","5","6","7","6","5","5","4","5","4","4","-3","-1","1","0","2","1","0","0","4","5","4","5","4","5","2","2","1","5","8","6","7","7","6","9","7","8","6","5","6","6","6","7","6","5","5","7","6","1","5","5","1","6","5","6","7","7","5","5","3","7","2","5","7","5","6","6","5","7","6","5","7","3","6","5","5","6","7","5","772058156674322434","吴  ","398","Male","[""好他"",""坏我"",""好我"",""坏他""]","[""强他"",""弱我"",""强我"",""弱他""]","","","","","","","","no","","","","","","","","","SRET","EW_formal","","key","j","16.65303571428584","703.6333333333334","391.9666666666667","朋友","博识","Positive","ability","","","","","","","","","","",""
"800","","j","psychophysics","93","945792","0.0-7.0-3.0-0.79","7","5","6","7","6","5","5","4","5","4","4","-3","-1","1","0","2","1","0","0","4","5","4","5","4","5","2","2","1","5","8","6","7","7","6","9","7","8","6","5","6","6","6","7","6","5","5","7","6","1","5","5","1","6","5","6","7","7","5","5","3","7","2","5","7","5","6","6","5","7","6","5","7","3","6","5","5","6","7","5","772058156674322434","吴  ","398","Male","[""好他"",""坏我"",""好我"",""坏他""]","[""强他"",""弱我"",""强我"",""弱他""]","","","","","","","","no","","","","","","","","","SRET","EW_formal","","key","j","16.652897196261552","703.6333333333334","391.9666666666667","朋友","废物","Negative","ability","","","","","","","","","","",""
"919","","j","psychophysics","94","947725","0.0-7.0-3.0-0.80","7","5","6","7","6","5","5","4","5","4","4","-3","-1","1","0","2","1","0","0","4","5","4","5","4","5","2","2","1","5","8","6","7","7","6","9","7","8","6","5","6","6","6","7","6","5","5","7","6","1","5","5","1","6","5","6","7","7","5","5","3","7","2","5","7","5","6","6","5","7","6","5","7","3","6","5","5","6","7","5","772058156674322434","吴  ","398","Male","[""好他"",""坏我"",""好我"",""坏他""]","[""强他"",""弱我"",""强我"",""弱他""]","","","","","","","","no","","","","","","","","","SRET","EW_formal","","key","j","16.945087719298165","703.6333333333334","391.9666666666667","自己","愚痴","Negative","ability","","","","","","","","","","",""
"768","","f","psychophysics","95","949607","0.0-7.0-3.0-0.81","7","5","6","7","6","5","5","4","5","4","4","-3","-1","1","0","2","1","0","0","4","5","4","5","4","5","2","2","1","5","8","6","7","7","6","9","7","8","6","5","6","6","6","7","6","5","5","7","6","1","5","5","1","6","5","6","7","7","5","5","3","7","2","5","7","5","6","6","5","7","6","5","7","3","6","5","5","6","7","5","772058156674322434","吴  ","398","Male","[""好他"",""坏我"",""好我"",""坏他""]","[""强他"",""弱我"",""强我"",""弱他""]","","","","","","","","yes","","","","","","","","","SRET","EW_formal","","key","f","16.6528571428571","703.6333333333334","391.9666666666667","朋友","自律","Positive","ability","","","","","","","","","","",""
"762","","f","psychophysics","96","951372","0.0-7.0-3.0-0.82","7","5","6","7","6","5","5","4","5","4","4","-3","-1","1","0","2","1","0","0","4","5","4","5","4","5","2","2","1","5","8","6","7","7","6","9","7","8","6","5","6","6","6","7","6","5","5","7","6","1","5","5","1","6","5","6","7","7","5","5","3","7","2","5","7","5","6","6","5","7","6","5","7","3","6","5","5","6","7","5","772058156674322434","吴  ","398","Male","[""好他"",""坏我"",""好我"",""坏他""]","[""强他"",""弱我"",""强我"",""弱他""]","","","","","","","","yes","","","","","","","","","SRET","EW_formal","","key","f","16.652952380951806","703.6333333333334","391.9666666666667","朋友","善心","Positive","morality","","","","","","","","","","",""
"1251","","f","psychophysics","97","953636","0.0-7.0-3.0-0.83","7","5","6","7","6","5","5","4","5","4","4","-3","-1","1","0","2","1","0","0","4","5","4","5","4","5","2","2","1","5","8","6","7","7","6","9","7","8","6","5","6","6","6","7","6","5","5","7","6","1","5","5","1","6","5","6","7","7","5","5","3","7","2","5","7","5","6","6","5","7","6","5","7","3","6","5","5","6","7","5","772058156674322434","吴  ","398","Male","[""好他"",""坏我"",""好我"",""坏他""]","[""强他"",""弱我"",""强我"",""弱他""]","","","","","","","","yes","","","","","","","","","SRET","EW_formal","","key","f","16.65288888888899","703.6333333333334","391.9666666666667","自己","孝顺","Positive","morality","","","","","","","","","","",""
"573","","j","psychophysics","98","955323","0.0-7.0-3.0-0.84","7","5","6","7","6","5","5","4","5","4","4","-3","-1","1","0","2","1","0","0","4","5","4","5","4","5","2","2","1","5","8","6","7","7","6","9","7","8","6","5","6","6","6","7","6","5","5","7","6","1","5","5","1","6","5","6","7","7","5","5","3","7","2","5","7","5","6","6","5","7","6","5","7","3","6","5","5","6","7","5","772058156674322434","吴  ","398","Male","[""好他"",""坏我"",""好我"",""坏他""]","[""强他"",""弱我"",""强我"",""弱他""]","","","","","","","","no","","","","","","","","","SRET","EW_formal","","key","j","16.821010101010383","703.6333333333334","391.9666666666667","朋友","低俗","Negative","morality","","","","","","","","","","",""
"882","","f","psychophysics","99","957214","0.0-7.0-3.0-0.85","7","5","6","7","6","5","5","4","5","4","4","-3","-1","1","0","2","1","0","0","4","5","4","5","4","5","2","2","1","5","8","6","7","7","6","9","7","8","6","5","6","6","6","7","6","5","5","7","6","1","5","5","1","6","5","6","7","7","5","5","3","7","2","5","7","5","6","6","5","7","6","5","7","3","6","5","5","6","7","5","772058156674322434","吴  ","398","Male","[""好他"",""坏我"",""好我"",""坏他""]","[""强他"",""弱我"",""强我"",""弱他""]","","","","","","","","yes","","","","","","","","","SRET","EW_formal","","key","f","16.653214285714576","703.6333333333334","391.9666666666667","自己","主见","Positive","ability","","","","","","","","","","",""
"814","","j","psychophysics","100","959035","0.0-7.0-3.0-0.86","7","5","6","7","6","5","5","4","5","4","4","-3","-1","1","0","2","1","0","0","4","5","4","5","4","5","2","2","1","5","8","6","7","7","6","9","7","8","6","5","6","6","6","7","6","5","5","7","6","1","5","5","1","6","5","6","7","7","5","5","3","7","2","5","7","5","6","6","5","7","6","5","7","3","6","5","5","6","7","5","772058156674322434","吴  ","398","Male","[""好他"",""坏我"",""好我"",""坏他""]","[""强他"",""弱我"",""强我"",""弱他""]","","","","","","","","no","","","","","","","","","SRET","EW_formal","","key","j","16.652660550458844","703.6333333333334","391.9666666666667","自己","缓慢","Negative","ability","","","","","","","","","","",""
"834","","f","psychophysics","101","960881","0.0-7.0-3.0-0.87","7","5","6","7","6","5","5","4","5","4","4","-3","-1","1","0","2","1","0","0","4","5","4","5","4","5","2","2","1","5","8","6","7","7","6","9","7","8","6","5","6","6","6","7","6","5","5","7","6","1","5","5","1","6","5","6","7","7","5","5","3","7","2","5","7","5","6","6","5","7","6","5","7","3","6","5","5","6","7","5","772058156674322434","吴  ","398","Male","[""好他"",""坏我"",""好我"",""坏他""]","[""强他"",""弱我"",""强我"",""弱他""]","","","","","","","","yes","","","","","","","","","SRET","EW_formal","","key","f","16.96129629629582","703.6333333333334","391.9666666666667","朋友","素养","Positive","morality","","","","","","","","","","",""
"13340","
    <p><div style='color:white;font-size:35px; line-height:20px;'>计算任务</div></p><br>
    <p><div style='color:red;font-size:25px; line-height:20px;'>接下来，您将看到一些四则运算题，<b>请从键盘选择 0-9 进行反应。</b></div></p>
    <p><div style='color:red;font-size:25px; line-height:20px;'>请尽可能快地进行计算，计算的速度和正确率将影响报酬的发放。</div></p>
    <p><div class='footer' style='color:white;font-size:25px; line-height:20px;'>如果对本实验还有不清楚之处，请立即向实验员咨询。</p><p style='color:white;font-size:25px; line-height:20px;'>如果您明白了规则：</p><p style='color:white;font-size:22px; line-height:20px;'>请按 继续 进入练习</p>
    </div>
    ","0","html-button-response","102","974332","0.0-7.0-4.0","7","5","6","7","6","5","5","4","5","4","4","-3","-1","1","0","2","1","0","0","4","5","4","5","4","5","2","2","1","5","8","6","7","7","6","9","7","8","6","5","6","6","6","7","6","5","5","7","6","1","5","5","1","6","5","6","7","7","5","5","3","7","2","5","7","5","6","6","5","7","6","5","7","3","6","5","5","6","7","5","772058156674322434","吴  ","398","Male","[""好他"",""坏我"",""好我"",""坏他""]","[""强他"",""弱我"",""强我"",""弱他""]","","","","","","","","","","","","","","","","","SRET_math","math_instructions","Sun Jan 07 2024 20:53:20 GMT+0800 (中国标准时间)","","","","","","","","","","","","","","","","","","","",""
"3746","","7","psychophysics","103","978085","0.0-7.0-5.0-0.0","7","5","6","7","6","5","5","4","5","4","4","-3","-1","1","0","2","1","0","0","4","5","4","5","4","5","2","2","1","5","8","6","7","7","6","9","7","8","6","5","6","6","6","7","6","5","5","7","6","1","5","5","1","6","5","6","7","7","5","5","3","7","2","5","7","5","6","6","5","7","6","5","7","3","6","5","5","6","7","5","772058156674322434","吴  ","398","Male","[""好他"",""坏我"",""好我"",""坏他""]","[""强他"",""弱我"",""强我"",""弱他""]","","","","","","","","7","","","","","","","","","SRET","SRET_math_calculate","","key","7","16.7023214285712","703.6333333333334","391.9666666666667","","","","","12-5= ?","7","1","","","","","","","",""
"4410","","3","psychophysics","104","982498","0.0-7.0-5.0-0.1","7","5","6","7","6","5","5","4","5","4","4","-3","-1","1","0","2","1","0","0","4","5","4","5","4","5","2","2","1","5","8","6","7","7","6","9","7","8","6","5","6","6","6","7","6","5","5","7","6","1","5","5","1","6","5","6","7","7","5","5","3","7","2","5","7","5","6","6","5","7","6","5","7","3","6","5","5","6","7","5","772058156674322434","吴  ","398","Male","[""好他"",""坏我"",""好我"",""坏他""]","[""强他"",""弱我"",""强我"",""弱他""]","","","","","","","","3","","","","","","","","","SRET","SRET_math_calculate","","key","3","16.652954545454563","703.6333333333334","391.9666666666667","","","","","21/7=  ?","3","1","","","","","","","",""
"4048","","8","psychophysics","105","986547","0.0-7.0-5.0-0.2","7","5","6","7","6","5","5","4","5","4","4","-3","-1","1","0","2","1","0","0","4","5","4","5","4","5","2","2","1","5","8","6","7","7","6","9","7","8","6","5","6","6","6","7","6","5","5","7","6","1","5","5","1","6","5","6","7","7","5","5","3","7","2","5","7","5","6","6","5","7","6","5","7","3","6","5","5","6","7","5","772058156674322434","吴  ","398","Male","[""好他"",""坏我"",""好我"",""坏他""]","[""强他"",""弱我"",""强我"",""弱他""]","","","","","","","","8","","","","","","","","","SRET","SRET_math_calculate","","key","8","16.721991701244814","703.6333333333334","391.9666666666667","","","","","72/9= ?","8","1","","","","","","","",""
"4423","","5","psychophysics","106","990972","0.0-7.0-5.0-0.3","7","5","6","7","6","5","5","4","5","4","4","-3","-1","1","0","2","1","0","0","4","5","4","5","4","5","2","2","1","5","8","6","7","7","6","9","7","8","6","5","6","6","6","7","6","5","5","7","6","1","5","5","1","6","5","6","7","7","5","5","3","7","2","5","7","5","6","6","5","7","6","5","7","3","6","5","5","6","7","5","772058156674322434","吴  ","398","Male","[""好他"",""坏我"",""好我"",""坏他""]","[""强他"",""弱我"",""强我"",""弱他""]","","","","","","","","5","","","","","","","","","SRET","SRET_math_calculate","","key","5","16.652905660377428","703.6333333333334","391.9666666666667","","","","","16-11= ?","5","1","","","","","","","",""
"4032","","8","psychophysics","107","995007","0.0-7.0-5.0-0.4","7","5","6","7","6","5","5","4","5","4","4","-3","-1","1","0","2","1","0","0","4","5","4","5","4","5","2","2","1","5","8","6","7","7","6","9","7","8","6","5","6","6","6","7","6","5","5","7","6","1","5","5","1","6","5","6","7","7","5","5","3","7","2","5","7","5","6","6","5","7","6","5","7","3","6","5","5","6","7","5","772058156674322434","吴  ","398","Male","[""好他"",""坏我"",""好我"",""坏他""]","[""强他"",""弱我"",""强我"",""弱他""]","","","","","","","","8","","","","","","","","","SRET","SRET_math_calculate","","key","8","16.722583333333024","703.6333333333334","391.9666666666667","","","","","5+3= ?","8","1","","","","","","","",""
"5437","","7","psychophysics","108","1000446","0.0-7.0-5.0-0.5","7","5","6","7","6","5","5","4","5","4","4","-3","-1","1","0","2","1","0","0","4","5","4","5","4","5","2","2","1","5","8","6","7","7","6","9","7","8","6","5","6","6","6","7","6","5","5","7","6","1","5","5","1","6","5","6","7","7","5","5","3","7","2","5","7","5","6","6","5","7","6","5","7","3","6","5","5","6","7","5","772058156674322434","吴  ","398","Male","[""好他"",""坏我"",""好我"",""坏他""]","[""强他"",""弱我"",""强我"",""弱他""]","","","","","","","","7","","","","","","","","","SRET","SRET_math_calculate","","key","7","16.653476923076937","703.6333333333334","391.9666666666667","","","","","7*1=  ?","7","1","","","","","","","",""
"2003","","3","psychophysics","109","1002452","0.0-7.0-5.0-0.6","7","5","6","7","6","5","5","4","5","4","4","-3","-1","1","0","2","1","0","0","4","5","4","5","4","5","2","2","1","5","8","6","7","7","6","9","7","8","6","5","6","6","6","7","6","5","5","7","6","1","5","5","1","6","5","6","7","7","5","5","3","7","2","5","7","5","6","6","5","7","6","5","7","3","6","5","5","6","7","5","772058156674322434","吴  ","398","Male","[""好他"",""坏我"",""好我"",""坏他""]","[""强他"",""弱我"",""强我"",""弱他""]","","","","","","","","3","","","","","","","","","SRET","SRET_math_calculate","","key","3","16.653000000000855","703.6333333333334","391.9666666666667","","","","","2+1= ?","3","1","","","","","","","",""
"3366","","8","psychophysics","110","1005828","0.0-7.0-5.0-0.7","7","5","6","7","6","5","5","4","5","4","4","-3","-1","1","0","2","1","0","0","4","5","4","5","4","5","2","2","1","5","8","6","7","7","6","9","7","8","6","5","6","6","6","7","6","5","5","7","6","1","5","5","1","6","5","6","7","7","5","5","3","7","2","5","7","5","6","6","5","7","6","5","7","3","6","5","5","6","7","5","772058156674322434","吴  ","398","Male","[""好他"",""坏我"",""好我"",""坏他""]","[""强他"",""弱我"",""强我"",""弱他""]","","","","","","","","8","","","","","","","","","SRET","SRET_math_calculate","","key","8","16.652871287128736","703.6333333333334","391.9666666666667","","","","","3+5= ?","8","1","","","","","","","",""
"3795","","1","psychophysics","111","1009624","0.0-7.0-5.0-0.8","7","5","6","7","6","5","5","4","5","4","4","-3","-1","1","0","2","1","0","0","4","5","4","5","4","5","2","2","1","5","8","6","7","7","6","9","7","8","6","5","6","6","6","7","6","5","5","7","6","1","5","5","1","6","5","6","7","7","5","5","3","7","2","5","7","5","6","6","5","7","6","5","7","3","6","5","5","6","7","5","772058156674322434","吴  ","398","Male","[""好他"",""坏我"",""好我"",""坏他""]","[""强他"",""弱我"",""强我"",""弱他""]","","","","","","","","1","","","","","","","","","SRET","SRET_math_calculate","","key","1","16.652951541850097","703.6333333333334","391.9666666666667","","","","","4/4= ?","1","1","","","","","","","",""
"3110","","7","psychophysics","112","1012737","0.0-7.0-5.0-0.9","7","5","6","7","6","5","5","4","5","4","4","-3","-1","1","0","2","1","0","0","4","5","4","5","4","5","2","2","1","5","8","6","7","7","6","9","7","8","6","5","6","6","6","7","6","5","5","7","6","1","5","5","1","6","5","6","7","7","5","5","3","7","2","5","7","5","6","6","5","7","6","5","7","3","6","5","5","6","7","5","772058156674322434","吴  ","398","Male","[""好他"",""坏我"",""好我"",""坏他""]","[""强他"",""弱我"",""强我"",""弱他""]","","","","","","","","7","","","","","","","","","SRET","SRET_math_calculate","","key","7","16.652972972973224","703.6333333333334","391.9666666666667","","","","","3+4= ?","7","1","","","","","","","",""
"3530","","7","psychophysics","113","1016269","0.0-7.0-5.0-0.10","7","5","6","7","6","5","5","4","5","4","4","-3","-1","1","0","2","1","0","0","4","5","4","5","4","5","2","2","1","5","8","6","7","7","6","9","7","8","6","5","6","6","6","7","6","5","5","7","6","1","5","5","1","6","5","6","7","7","5","5","3","7","2","5","7","5","6","6","5","7","6","5","7","3","6","5","5","6","7","5","772058156674322434","吴  ","398","Male","[""好他"",""坏我"",""好我"",""坏他""]","[""强他"",""弱我"",""强我"",""弱他""]","","","","","","","","7","","","","","","","","","SRET","SRET_math_calculate","","key","7","16.653207547170272","703.6333333333334","391.9666666666667","","","","","2+5= ?","7","1","","","","","","","",""
"3346","","7","psychophysics","114","1019618","0.0-7.0-5.0-0.11","7","5","6","7","6","5","5","4","5","4","4","-3","-1","1","0","2","1","0","0","4","5","4","5","4","5","2","2","1","5","8","6","7","7","6","9","7","8","6","5","6","6","6","7","6","5","5","7","6","1","5","5","1","6","5","6","7","7","5","5","3","7","2","5","7","5","6","6","5","7","6","5","7","3","6","5","5","6","7","5","772058156674322434","吴  ","398","Male","[""好他"",""坏我"",""好我"",""坏他""]","[""强他"",""弱我"",""强我"",""弱他""]","","","","","","","","7","","","","","","","","","SRET","SRET_math_calculate","","key","7","16.65280000000028","703.6333333333334","391.9666666666667","","","","","9-2= ?","7","1","","","","","","","",""
"4808","","9","psychophysics","115","1024429","0.0-7.0-5.0-0.12","7","5","6","7","6","5","5","4","5","4","4","-3","-1","1","0","2","1","0","0","4","5","4","5","4","5","2","2","1","5","8","6","7","7","6","9","7","8","6","5","6","6","6","7","6","5","5","7","6","1","5","5","1","6","5","6","7","7","5","5","3","7","2","5","7","5","6","6","5","7","6","5","7","3","6","5","5","6","7","5","772058156674322434","吴  ","398","Male","[""好他"",""坏我"",""好我"",""坏他""]","[""强他"",""弱我"",""强我"",""弱他""]","","","","","","","","9","","","","","","","","","SRET","SRET_math_calculate","","key","9","16.65277777777778","703.6333333333334","391.9666666666667","","","","","3+6= ?","9","1","","","","","","","",""
"4439","","8","psychophysics","116","1028872","0.0-7.0-5.0-0.13","7","5","6","7","6","5","5","4","5","4","4","-3","-1","1","0","2","1","0","0","4","5","4","5","4","5","2","2","1","5","8","6","7","7","6","9","7","8","6","5","6","6","6","7","6","5","5","7","6","1","5","5","1","6","5","6","7","7","5","5","3","7","2","5","7","5","6","6","5","7","6","5","7","3","6","5","5","6","7","5","772058156674322434","吴  ","398","Male","[""好他"",""坏我"",""好我"",""坏他""]","[""强他"",""弱我"",""强我"",""弱他""]","","","","","","","","8","","","","","","","","","SRET","SRET_math_calculate","","key","8","16.652981132075613","703.6333333333334","391.9666666666667","","","","","56/7= ?","8","1","","","","","","","",""
"3893","","9","psychophysics","117","1032772","0.0-7.0-5.0-0.14","7","5","6","7","6","5","5","4","5","4","4","-3","-1","1","0","2","1","0","0","4","5","4","5","4","5","2","2","1","5","8","6","7","7","6","9","7","8","6","5","6","6","6","7","6","5","5","7","6","1","5","5","1","6","5","6","7","7","5","5","3","7","2","5","7","5","6","6","5","7","6","5","7","3","6","5","5","6","7","5","772058156674322434","吴  ","398","Male","[""好他"",""坏我"",""好我"",""坏他""]","[""强他"",""弱我"",""强我"",""弱他""]","","","","","","","","9","","","","","","","","","SRET","SRET_math_calculate","","key","9","16.65367521367555","703.6333333333334","391.9666666666667","","","","","18/2= ?","9","1","","","","","","","",""
"2362","","9","psychophysics","118","1035136","0.0-7.0-5.0-0.15","7","5","6","7","6","5","5","4","5","4","4","-3","-1","1","0","2","1","0","0","4","5","4","5","4","5","2","2","1","5","8","6","7","7","6","9","7","8","6","5","6","6","6","7","6","5","5","7","6","1","5","5","1","6","5","6","7","7","5","5","3","7","2","5","7","5","6","6","5","7","6","5","7","3","6","5","5","6","7","5","772058156674322434","吴  ","398","Male","[""好他"",""坏我"",""好我"",""坏他""]","[""强他"",""弱我"",""强我"",""弱他""]","","","","","","","","9","","","","","","","","","SRET","SRET_math_calculate","","key","9","16.65290780141801","703.6333333333334","391.9666666666667","","","","","5*0= ?","0","0","","","","","","","",""
"3448","","3","psychophysics","119","1038587","0.0-7.0-5.0-0.16","7","5","6","7","6","5","5","4","5","4","4","-3","-1","1","0","2","1","0","0","4","5","4","5","4","5","2","2","1","5","8","6","7","7","6","9","7","8","6","5","6","6","6","7","6","5","5","7","6","1","5","5","1","6","5","6","7","7","5","5","3","7","2","5","7","5","6","6","5","7","6","5","7","3","6","5","5","6","7","5","772058156674322434","吴  ","398","Male","[""好他"",""坏我"",""好我"",""坏他""]","[""强他"",""弱我"",""强我"",""弱他""]","","","","","","","","3","","","","","","","","","SRET","SRET_math_calculate","","key","3","16.652912621359224","703.6333333333334","391.9666666666667","","","","","11-8= ?","3","1","","","","","","","",""
"2778","","0","psychophysics","120","1041367","0.0-7.0-5.0-0.17","7","5","6","7","6","5","5","4","5","4","4","-3","-1","1","0","2","1","0","0","4","5","4","5","4","5","2","2","1","5","8","6","7","7","6","9","7","8","6","5","6","6","6","7","6","5","5","7","6","1","5","5","1","6","5","6","7","7","5","5","3","7","2","5","7","5","6","6","5","7","6","5","7","3","6","5","5","6","7","5","772058156674322434","吴  ","398","Male","[""好他"",""坏我"",""好我"",""坏他""]","[""强他"",""弱我"",""强我"",""弱他""]","","","","","","","","0","","","","","","","","","SRET","SRET_math_calculate","","key","0","16.652891566265087","703.6333333333334","391.9666666666667","","","","","6*0= ?","0","1","","","","","","","",""
"2162","","7","psychophysics","121","1043530","0.0-7.0-5.0-0.18","7","5","6","7","6","5","5","4","5","4","4","-3","-1","1","0","2","1","0","0","4","5","4","5","4","5","2","2","1","5","8","6","7","7","6","9","7","8","6","5","6","6","6","7","6","5","5","7","6","1","5","5","1","6","5","6","7","7","5","5","3","7","2","5","7","5","6","6","5","7","6","5","7","3","6","5","5","6","7","5","772058156674322434","吴  ","398","Male","[""好他"",""坏我"",""好我"",""坏他""]","[""强他"",""弱我"",""强我"",""弱他""]","","","","","","","","7","","","","","","","","","SRET","SRET_math_calculate","","key","7","16.652868217054046","703.6333333333334","391.9666666666667","","","","","8-1= ?","7","1","","","","","","","",""
"2176","","6","psychophysics","122","1045708","0.0-7.0-5.0-0.19","7","5","6","7","6","5","5","4","5","4","4","-3","-1","1","0","2","1","0","0","4","5","4","5","4","5","2","2","1","5","8","6","7","7","6","9","7","8","6","5","6","6","6","7","6","5","5","7","6","1","5","5","1","6","5","6","7","7","5","5","3","7","2","5","7","5","6","6","5","7","6","5","7","3","6","5","5","6","7","5","772058156674322434","吴  ","398","Male","[""好他"",""坏我"",""好我"",""坏他""]","[""强他"",""弱我"",""强我"",""弱他""]","","","","","","","","6","","","","","","","","","SRET","SRET_math_calculate","","key","6","16.652868217054046","703.6333333333334","391.9666666666667","","","","","5+1= ?","6","1","","","","","","","",""
"3029","","5","psychophysics","123","1048741","0.0-7.0-5.0-0.20","7","5","6","7","6","5","5","4","5","4","4","-3","-1","1","0","2","1","0","0","4","5","4","5","4","5","2","2","1","5","8","6","7","7","6","9","7","8","6","5","6","6","6","7","6","5","5","7","6","1","5","5","1","6","5","6","7","7","5","5","3","7","2","5","7","5","6","6","5","7","6","5","7","3","6","5","5","6","7","5","772058156674322434","吴  ","398","Male","[""好他"",""坏我"",""好我"",""坏他""]","[""强他"",""弱我"",""强我"",""弱他""]","","","","","","","","5","","","","","","","","","SRET","SRET_math_calculate","","key","5","16.653259668508237","703.6333333333334","391.9666666666667","","","","","15-10= ?","5","1","","","","","","","",""
"2650","","0","psychophysics","124","1051394","0.0-7.0-5.0-0.21","7","5","6","7","6","5","5","4","5","4","4","-3","-1","1","0","2","1","0","0","4","5","4","5","4","5","2","2","1","5","8","6","7","7","6","9","7","8","6","5","6","6","6","7","6","5","5","7","6","1","5","5","1","6","5","6","7","7","5","5","3","7","2","5","7","5","6","6","5","7","6","5","7","3","6","5","5","6","7","5","772058156674322434","吴  ","398","Male","[""好他"",""坏我"",""好我"",""坏他""]","[""强他"",""弱我"",""强我"",""弱他""]","","","","","","","","0","","","","","","","","","SRET","SRET_math_calculate","","key","0","16.652704402514434","703.6333333333334","391.9666666666667","","","","","7*0= ?","0","1","","","","","","","",""
"1859","","2","psychophysics","125","1053255","0.0-7.0-5.0-0.22","7","5","6","7","6","5","5","4","5","4","4","-3","-1","1","0","2","1","0","0","4","5","4","5","4","5","2","2","1","5","8","6","7","7","6","9","7","8","6","5","6","6","6","7","6","5","5","7","6","1","5","5","1","6","5","6","7","7","5","5","3","7","2","5","7","5","6","6","5","7","6","5","7","3","6","5","5","6","7","5","772058156674322434","吴  ","398","Male","[""好他"",""坏我"",""好我"",""坏他""]","[""强他"",""弱我"",""强我"",""弱他""]","","","","","","","","2","","","","","","","","","SRET","SRET_math_calculate","","key","2","16.652972972972805","703.6333333333334","391.9666666666667","","","","","1+1= ?","2","1","","","","","","","",""
"3730","","9","psychophysics","126","1056987","0.0-7.0-5.0-0.23","7","5","6","7","6","5","5","4","5","4","4","-3","-1","1","0","2","1","0","0","4","5","4","5","4","5","2","2","1","5","8","6","7","7","6","9","7","8","6","5","6","6","6","7","6","5","5","7","6","1","5","5","1","6","5","6","7","7","5","5","3","7","2","5","7","5","6","6","5","7","6","5","7","3","6","5","5","6","7","5","772058156674322434","吴  ","398","Male","[""好他"",""坏我"",""好我"",""坏他""]","[""强他"",""弱我"",""强我"",""弱他""]","","","","","","","","9","","","","","","","","","SRET","SRET_math_calculate","","key","9","16.65282511210796","703.6333333333334","391.9666666666667","","","","","7+2= ?","9","1","","","","","","","",""
"5639","","6","psychophysics","127","1062628","0.0-7.0-5.0-0.24","7","5","6","7","6","5","5","4","5","4","4","-3","-1","1","0","2","1","0","0","4","5","4","5","4","5","2","2","1","5","8","6","7","7","6","9","7","8","6","5","6","6","6","7","6","5","5","7","6","1","5","5","1","6","5","6","7","7","5","5","3","7","2","5","7","5","6","6","5","7","6","5","7","3","6","5","5","6","7","5","772058156674322434","吴  ","398","Male","[""好他"",""坏我"",""好我"",""坏他""]","[""强他"",""弱我"",""强我"",""弱他""]","","","","","","","","6","","","","","","","","","SRET","SRET_math_calculate","","key","6","16.802514970059992","703.6333333333334","391.9666666666667","","","","","11-5= ?","6","1","","","","","","","",""
"2201","","6","psychophysics","128","1064840","0.0-7.0-5.0-0.25","7","5","6","7","6","5","5","4","5","4","4","-3","-1","1","0","2","1","0","0","4","5","4","5","4","5","2","2","1","5","8","6","7","7","6","9","7","8","6","5","6","6","6","7","6","5","5","7","6","1","5","5","1","6","5","6","7","7","5","5","3","7","2","5","7","5","6","6","5","7","6","5","7","3","6","5","5","6","7","5","772058156674322434","吴  ","398","Male","[""好他"",""坏我"",""好我"",""坏他""]","[""强他"",""弱我"",""强我"",""弱他""]","","","","","","","","6","","","","","","","","","SRET","SRET_math_calculate","","key","6","16.65303030302995","703.6333333333334","391.9666666666667","","","","","3+3= ?","6","1","","","","","","","",""
"2516","","9","psychophysics","129","1067360","0.0-7.0-5.0-0.26","7","5","6","7","6","5","5","4","5","4","4","-3","-1","1","0","2","1","0","0","4","5","4","5","4","5","2","2","1","5","8","6","7","7","6","9","7","8","6","5","6","6","6","7","6","5","5","7","6","1","5","5","1","6","5","6","7","7","5","5","3","7","2","5","7","5","6","6","5","7","6","5","7","3","6","5","5","6","7","5","772058156674322434","吴  ","398","Male","[""好他"",""坏我"",""好我"",""坏他""]","[""强他"",""弱我"",""强我"",""弱他""]","","","","","","","","9","","","","","","","","","SRET","SRET_math_calculate","","key","9","16.76400000000062","703.6333333333334","391.9666666666667","","","","","1*9= ?","9","1","","","","","","","",""
"2064","","4","psychophysics","130","1069426","0.0-7.0-5.0-0.27","7","5","6","7","6","5","5","4","5","4","4","-3","-1","1","0","2","1","0","0","4","5","4","5","4","5","2","2","1","5","8","6","7","7","6","9","7","8","6","5","6","6","6","7","6","5","5","7","6","1","5","5","1","6","5","6","7","7","5","5","3","7","2","5","7","5","6","6","5","7","6","5","7","3","6","5","5","6","7","5","772058156674322434","吴  ","398","Male","[""好他"",""坏我"",""好我"",""坏他""]","[""强他"",""弱我"",""强我"",""弱他""]","","","","","","","","4","","","","","","","","","SRET","SRET_math_calculate","","key","4","16.65300813008183","703.6333333333334","391.9666666666667","","","","","3+1= ?","4","1","","","","","","","",""
"4080","","4","psychophysics","131","1073508","0.0-7.0-5.0-0.28","7","5","6","7","6","5","5","4","5","4","4","-3","-1","1","0","2","1","0","0","4","5","4","5","4","5","2","2","1","5","8","6","7","7","6","9","7","8","6","5","6","6","6","7","6","5","5","7","6","1","5","5","1","6","5","6","7","7","5","5","3","7","2","5","7","5","6","6","5","7","6","5","7","3","6","5","5","6","7","5","772058156674322434","吴  ","398","Male","[""好他"",""坏我"",""好我"",""坏他""]","[""强他"",""弱我"",""强我"",""弱他""]","","","","","","","","4","","","","","","","","","SRET","SRET_math_calculate","","key","4","16.72148148148175","703.6333333333334","391.9666666666667","","","","","20/5= ?","4","1","","","","","","","",""
"4591","","2","psychophysics","132","1078101","0.0-7.0-5.0-0.29","7","5","6","7","6","5","5","4","5","4","4","-3","-1","1","0","2","1","0","0","4","5","4","5","4","5","2","2","1","5","8","6","7","7","6","9","7","8","6","5","6","6","6","7","6","5","5","7","6","1","5","5","1","6","5","6","7","7","5","5","3","7","2","5","7","5","6","6","5","7","6","5","7","3","6","5","5","6","7","5","772058156674322434","吴  ","398","Male","[""好他"",""坏我"",""好我"",""坏他""]","[""强他"",""弱我"",""强我"",""弱他""]","","","","","","","","2","","","","","","","","","SRET","SRET_math_calculate","","key","2","16.775091575091917","703.6333333333334","391.9666666666667","","","","","5-3= ?","2","1","","","","","","","",""
"3676","","6","psychophysics","133","1081778","0.0-7.0-5.0-0.30","7","5","6","7","6","5","5","4","5","4","4","-3","-1","1","0","2","1","0","0","4","5","4","5","4","5","2","2","1","5","8","6","7","7","6","9","7","8","6","5","6","6","6","7","6","5","5","7","6","1","5","5","1","6","5","6","7","7","5","5","3","7","2","5","7","5","6","6","5","7","6","5","7","3","6","5","5","6","7","5","772058156674322434","吴  ","398","Male","[""好他"",""坏我"",""好我"",""坏他""]","[""强他"",""弱我"",""强我"",""弱他""]","","","","","","","","6","","","","","","","","","SRET","SRET_math_calculate","","key","6","16.729357798165136","703.6333333333334","391.9666666666667","","","","","2+4= ?","6","1","","","","","","","",""
"3277","","5","psychophysics","134","1085064","0.0-7.0-5.0-0.31","7","5","6","7","6","5","5","4","5","4","4","-3","-1","1","0","2","1","0","0","4","5","4","5","4","5","2","2","1","5","8","6","7","7","6","9","7","8","6","5","6","6","6","7","6","5","5","7","6","1","5","5","1","6","5","6","7","7","5","5","3","7","2","5","7","5","6","6","5","7","6","5","7","3","6","5","5","6","7","5","772058156674322434","吴  ","398","Male","[""好他"",""坏我"",""好我"",""坏他""]","[""强他"",""弱我"",""强我"",""弱他""]","","","","","","","","5","","","","","","","","","SRET","SRET_math_calculate","","key","5","16.652893401014612","703.6333333333334","391.9666666666667","","","","","9-4= ?","5","1","","","","","","","",""
"4160","","9","psychophysics","135","1089226","0.0-7.0-5.0-0.32","7","5","6","7","6","5","5","4","5","4","4","-3","-1","1","0","2","1","0","0","4","5","4","5","4","5","2","2","1","5","8","6","7","7","6","9","7","8","6","5","6","6","6","7","6","5","5","7","6","1","5","5","1","6","5","6","7","7","5","5","3","7","2","5","7","5","6","6","5","7","6","5","7","3","6","5","5","6","7","5","772058156674322434","吴  ","398","Male","[""好他"",""坏我"",""好我"",""坏他""]","[""强他"",""弱我"",""强我"",""弱他""]","","","","","","","","9","","","","","","","","","SRET","SRET_math_calculate","","key","9","16.65290322580709","703.6333333333334","391.9666666666667","","","","","3*3= ?","9","1","","","","","","","",""
"5200","","8","psychophysics","136","1094441","0.0-7.0-5.0-0.33","7","5","6","7","6","5","5","4","5","4","4","-3","-1","1","0","2","1","0","0","4","5","4","5","4","5","2","2","1","5","8","6","7","7","6","9","7","8","6","5","6","6","6","7","6","5","5","7","6","1","5","5","1","6","5","6","7","7","5","5","3","7","2","5","7","5","6","6","5","7","6","5","7","3","6","5","5","6","7","5","772058156674322434","吴  ","398","Male","[""好他"",""坏我"",""好我"",""坏他""]","[""强他"",""弱我"",""强我"",""弱他""]","","","","","","","","8","","","","","","","","","SRET","SRET_math_calculate","","key","8","16.65290734824314","703.6333333333334","391.9666666666667","","","","","50-42= ?","8","1","","","","","","","",""
"2160","","9","psychophysics","137","1096602","0.0-7.0-5.0-0.34","7","5","6","7","6","5","5","4","5","4","4","-3","-1","1","0","2","1","0","0","4","5","4","5","4","5","2","2","1","5","8","6","7","7","6","9","7","8","6","5","6","6","6","7","6","5","5","7","6","1","5","5","1","6","5","6","7","7","5","5","3","7","2","5","7","5","6","6","5","7","6","5","7","3","6","5","5","6","7","5","772058156674322434","吴  ","398","Male","[""好他"",""坏我"",""好我"",""坏他""]","[""强他"",""弱我"",""强我"",""弱他""]","","","","","","","","9","","","","","","","","","SRET","SRET_math_calculate","","key","9","16.652868217054046","703.6333333333334","391.9666666666667","","","","","8+1= ?","9","1","","","","","","","",""
