"rt","stimulus","response","trial_type","trial_index","time_elapsed","internal_node_id","swb_1","swb_2","swb_3","swb_4","swb_5","LOT_1","LOT_2","LOT_3","LOT_4","LOT_5","LOT_6","IPC_1","IPC_2","IPC_3","IPC_4","IPC_5","IPC_6","IPC_7","IPC_8","MorIden_1","MorIden_2","MorIden_3","MorIden_4","MorIden_5","MorIden_6","MorIden_7","MorIden_8","MorIden_9","MorIden_10","moralSeImag_1","moralSeImag_2","moralSeImag_3","moralSeImag_4","moralSeImag_5","moralSeImag_6","moralSeImag_7","moralSeImag_8","moralSeImag_9","sde_1","sde_2","sde_3","sde_4","sde_5","sde_6","sde_7","sde_8","sde_9","sde_10","trap2","sde_11","sde_12","sde_13","sde_14","sde_15","sde_16","sde_17","sde_18","sde_19","sde_20","IM_1","IM_2","IM_3","IM_4","IM_5","IM_6","IM_7","IM_8","IM_9","IM_10","IM_11","IM_12","IM_13","IM_14","IM_15","IM_16","IM_17","IM_18","IM_19","IM_20","subj_idx","friend_name","ParticipantID","Sex","Word","Word2","value","success","timeout","failed_images","failed_audio","failed_video","user_agent","responses","item_order","radio_event_ids","radio_event_times","key_event_times","mouse_event_times","straightlining","zigzagging","honeypot","task_id","screen_id","time_stamp","response_type","key_press","avg_frame_time","center_x","center_y","person","word","valence","domain","math","correct_response","correct","status","identity","view_history","duration","Image","condition","question_order","trap2_item"
"4089","
   <p><div style='color:white; font-size: 25px'>您好，欢迎参加本次实验。</div></p>
   <p><div style='color:white; font-size: 25px'>为充分保障您的权利，请确保您已经知晓并同意《参与实验同意书》以及《数据公开知情同意书》。</div></p>
   <p><div style='color:white; font-size: 25px'>如果您未见过上述内容，请咨询实验员。</div></p>
   <p style='color:white; font-size: 25px'>如果您选择继续实验，则表示您已经清楚两份知情同意书的内容并同意。</p>
   <p><div style = ""color: pink;font-size:30px;"">请确保您记得day0的实验编号，您将在本次实验输入该编号，若您忘记，请咨询实验员后作答。</div></p>
   <p><div style = ""color:lightblue;font-size:25px;"">请您尽可能认真地作答，我们将依据您在各问卷和按键任务中的作答质量发放报酬。</div></p>
   <p> <div style = ""color: green""><按空格键至下页></div> </p>
   "," ","html-keyboard-response","0","4092","0.0-0.0","6","4","5","6","5","5","3","4","5","5","5","1","0","0","1","-2","1","0","1","5","5","5","4","5","4","3","4","5","4","5","7","4","4","5","4","3","5","4","4","2","2","1","5","2","3","1","6","5","1","1","2","5","1","2","5","2","4","5","2","1","3","2","1","1","4","3","6","3","7","2","2","3","1","1","1","2","3","1","2","746367844434055169","张","587","Female","[""坏我"",""坏她"",""好她"",""好我""]","[""弱我"",""弱她"",""强她"",""强我""]","","","","","","","","","","","","","","","","","","","","","","","","","","","","","","","","","","","","","","",""
"","","","call-function","1","4093","0.0-1.0-0.0","6","4","5","6","5","5","3","4","5","5","5","1","0","0","1","-2","1","0","1","5","5","5","4","5","4","3","4","5","4","5","7","4","4","5","4","3","5","4","4","2","2","1","5","2","3","1","6","5","1","1","2","5","1","2","5","2","4","5","2","1","3","2","1","1","4","3","6","3","7","2","2","3","1","1","1","2","3","1","2","746367844434055169","张","587","Female","[""坏我"",""坏她"",""好她"",""好我""]","[""弱我"",""弱她"",""强她"",""强我""]","","","","","","","","","","","","","","","","","","","","","","","","","","","","","","","","","","","","","","",""
"70586","","[{""name"":""Sex"",""value"":""1""},{""name"":""friend_name"",""value"":""张""},{""name"":""ParticipantID"",""value"":""587""}]","survey-html-form","2","74683","0.0-1.0-1.0","6","4","5","6","5","5","3","4","5","5","5","1","0","0","1","-2","1","0","1","5","5","5","4","5","4","3","4","5","4","5","7","4","4","5","4","3","5","4","4","2","2","1","5","2","3","1","6","5","1","1","2","5","1","2","5","2","4","5","2","1","3","2","1","1","4","3","6","3","7","2","2","3","1","1","1","2","3","1","2","746367844434055169","张","587","Female","[""坏我"",""坏她"",""好她"",""好我""]","[""弱我"",""弱她"",""强她"",""强我""]","","","","","","","","","","","","","","","","","","","","","","","","","","","","","","","","","","","","","","",""
"","","","preload","3","75350","0.0-2.0","6","4","5","6","5","5","3","4","5","5","5","1","0","0","1","-2","1","0","1","5","5","5","4","5","4","3","4","5","4","5","7","4","4","5","4","3","5","4","4","2","2","1","5","2","3","1","6","5","1","1","2","5","1","2","5","2","4","5","2","1","3","2","1","1","4","3","6","3","7","2","2","3","1","1","1","2","3","1","2","746367844434055169","张","587","Female","[""坏我"",""坏她"",""好她"",""好我""]","[""弱我"",""弱她"",""强她"",""强我""]","","true","false","[]","[]","[]","","","","","","","","","","","","","","","","","","","","","","","","","","","","","","","","",""
"","","","fullscreen","4","76256","0.0-3.0","6","4","5","6","5","5","3","4","5","5","5","1","0","0","1","-2","1","0","1","5","5","5","4","5","4","3","4","5","4","5","7","4","4","5","4","3","5","4","4","2","2","1","5","2","3","1","6","5","1","1","2","5","1","2","5","2","4","5","2","1","3","2","1","1","4","3","6","3","7","2","2","3","1","1","1","2","3","1","2","746367844434055169","张","587","Female","[""坏我"",""坏她"",""好她"",""好我""]","[""弱我"",""弱她"",""强她"",""强我""]","","true","","","","","{}","","","","","","","","","","","","","","","","","","","","","","","","","","","","","","","",""
"11300.799999952316","","{""Q01"":""6"",""Q02"":""4"",""Q03"":""5"",""Q04"":""6"",""Q05"":""5""}","survey-template","5","87560","0.0-4.0","6","4","5","6","5","5","3","4","5","5","5","1","0","0","1","-2","1","0","1","5","5","5","4","5","4","3","4","5","4","5","7","4","4","5","4","3","5","4","4","2","2","1","5","2","3","1","6","5","1","1","2","5","1","2","5","2","4","5","2","1","3","2","1","1","4","3","6","3","7","2","2","3","1","1","1","2","3","1","2","746367844434055169","张","587","Female","[""坏我"",""坏她"",""好她"",""好我""]","[""弱我"",""弱她"",""强她"",""强我""]","","","","","","","","{""Q01"":""6"",""Q02"":""4"",""Q03"":""5"",""Q04"":""6"",""Q05"":""5""}","[0,1,2,3,4]","[""Q01"",""Q02"",""Q03"",""Q04"",""Q05""]","[2214.099999964237,5523.899999976158,7404,9095.799999952316,10167.799999952316]","[]","[2214.099999964237,3921.5,5523.899999976158,7404,9095.799999952316,10167.799999952316,11299.799999952316]","0.4","0.75","0","","","","","","","","","","","","","","","","","","","","","","",""
"12443.599999964237","","{""Q01"":""5"",""Q02"":""3"",""Q03"":""4"",""Q04"":""5"",""Q05"":""5"",""Q06"":""5""}","survey-template","6","100008","0.0-5.0","6","4","5","6","5","5","3","4","5","5","5","1","0","0","1","-2","1","0","1","5","5","5","4","5","4","3","4","5","4","5","7","4","4","5","4","3","5","4","4","2","2","1","5","2","3","1","6","5","1","1","2","5","1","2","5","2","4","5","2","1","3","2","1","1","4","3","6","3","7","2","2","3","1","1","1","2","3","1","2","746367844434055169","张","587","Female","[""坏我"",""坏她"",""好她"",""好我""]","[""弱我"",""弱她"",""强她"",""强我""]","","","","","","","","{""Q01"":""5"",""Q02"":""3"",""Q03"":""4"",""Q04"":""5"",""Q05"":""5"",""Q06"":""5""}","[0,1,2,3,4,5]","[""Q01"",""Q02"",""Q03"",""Q04"",""Q05"",""Q06""]","[2188.7999999523163,4852.699999988079,6176.099999964237,8694.899999976158,9890.5,11798.699999988079]","[]","[2188.7999999523163,4852.699999988079,6176.099999964237,8694.899999976158,9890.5,11798.699999988079,12442.799999952316]","0.3333333333333333","0.4","0","","","","","","","","","","","","","","","","","","","","","","",""
"19031.100000023842","","{""Q01"":""1"",""Q02"":""0"",""Q03"":""0"",""Q04"":""1"",""Q05"":""-2"",""Q06"":""1"",""Q07"":""0"",""Q08"":""1""}","survey-template","7","119042","0.0-6.0","6","4","5","6","5","5","3","4","5","5","5","1","0","0","1","-2","1","0","1","5","5","5","4","5","4","3","4","5","4","5","7","4","4","5","4","3","5","4","4","2","2","1","5","2","3","1","6","5","1","1","2","5","1","2","5","2","4","5","2","1","3","2","1","1","4","3","6","3","7","2","2","3","1","1","1","2","3","1","2","746367844434055169","张","587","Female","[""坏我"",""坏她"",""好她"",""好我""]","[""弱我"",""弱她"",""强她"",""强我""]","","","","","","","","{""Q01"":""1"",""Q02"":""0"",""Q03"":""0"",""Q04"":""1"",""Q05"":""-2"",""Q06"":""1"",""Q07"":""0"",""Q08"":""1""}","[0,1,2,3,4,5,6,7]","[""Q01"",""Q02"",""Q03"",""Q04"",""Q05"",""Q06"",""Q07"",""Q08""]","[2335.800000011921,3998,8565.800000011921,10424,11991.400000035763,13891.600000023842,15991.900000035763,17151.600000023842]","[]","[1987.4000000357628,2335.800000011921,3998,7338,8565.800000011921,10424,11991.400000035763,13891.600000023842,15991.900000035763,17151.600000023842,19030]","0.5","0.5714285714285714","0","","","","","","","","","","","","","","","","","","","","","","",""
"19271","
    <p><div style='color:white;font-size:35px; line-height:20px;'>词汇评估任务</div></p><br>
    <p><div style='color:white;font-size:25px; line-height:20px;'>请再次回忆该亲密的朋友，你们至少2年前就认识了，并且最近2年经常见面。</div></p>
    <p><div style='color:white;font-size:25px; line-height:20px;'>在本实验中，您将会看到一些形容词。</div></p>
    <p><div style='color:yellow;font-size:25px; line-height:20px;'>您的任务是判断这些形容词是否符合对您自己或您的朋友的描述。</div></p><p style='font-size:35px'>符合按<span style=""color:lightgreen""> j 键</span>，不符合按<span style=""color:red""> f 键</span></p>","0","html-button-response","8","138316","0.0-7.0-0.0","6","4","5","6","5","5","3","4","5","5","5","1","0","0","1","-2","1","0","1","5","5","5","4","5","4","3","4","5","4","5","7","4","4","5","4","3","5","4","4","2","2","1","5","2","3","1","6","5","1","1","2","5","1","2","5","2","4","5","2","1","3","2","1","1","4","3","6","3","7","2","2","3","1","1","1","2","3","1","2","746367844434055169","张","587","Female","[""坏我"",""坏她"",""好她"",""好我""]","[""弱我"",""弱她"",""强她"",""强我""]","","","","","","","","","","","","","","","","","SRET_EW","EW_instructions","Sun Jan 07 2024 20:33:57 GMT+0800 (中国标准时间)","","","","","","","","","","","","","","","","","","","",""
"null","","null","psychophysics","9","141324","0.0-7.0-1.0-0.0","6","4","5","6","5","5","3","4","5","5","5","1","0","0","1","-2","1","0","1","5","5","5","4","5","4","3","4","5","4","5","7","4","4","5","4","3","5","4","4","2","2","1","5","2","3","1","6","5","1","1","2","5","1","2","5","2","4","5","2","1","3","2","1","1","4","3","6","3","7","2","2","3","1","1","1","2","3","1","2","746367844434055169","张","587","Female","[""坏我"",""坏她"",""好她"",""好我""]","[""弱我"",""弱她"",""强她"",""强我""]","","","","","","","","","","","","","","","","","SRET_EW","EW_practice","","key","null","16.665555555555652","853.3333333333334","476","自己","刻板","Negative","ability","","","","","","","","","","",""
"561","","f","psychophysics","10","142892","0.0-7.0-1.0-0.1","6","4","5","6","5","5","3","4","5","5","5","1","0","0","1","-2","1","0","1","5","5","5","4","5","4","3","4","5","4","5","7","4","4","5","4","3","5","4","4","2","2","1","5","2","3","1","6","5","1","1","2","5","1","2","5","2","4","5","2","1","3","2","1","1","4","3","6","3","7","2","2","3","1","1","1","2","3","1","2","746367844434055169","张","587","Female","[""坏我"",""坏她"",""好她"",""好我""]","[""弱我"",""弱她"",""强她"",""强我""]","","","","","","","","no","","","","","","","","","SRET_EW","EW_practice","","key","f","16.665957446808573","853.3333333333334","476","朋友","徇私","Negative","morality","","","","","","","","","","",""
"949","","j","psychophysics","11","144844","0.0-7.0-1.0-0.2","6","4","5","6","5","5","3","4","5","5","5","1","0","0","1","-2","1","0","1","5","5","5","4","5","4","3","4","5","4","5","7","4","4","5","4","3","5","4","4","2","2","1","5","2","3","1","6","5","1","1","2","5","1","2","5","2","4","5","2","1","3","2","1","1","4","3","6","3","7","2","2","3","1","1","1","2","3","1","2","746367844434055169","张","587","Female","[""坏我"",""坏她"",""好她"",""好我""]","[""弱我"",""弱她"",""强她"",""强我""]","","","","","","","","yes","","","","","","","","","SRET_EW","EW_practice","","key","j","16.666379310344727","853.3333333333334","476","自己","严谨","Positive","ability","","","","","","","","","","",""
"867","","f","psychophysics","12","146717","0.0-7.0-1.0-0.3","6","4","5","6","5","5","3","4","5","5","5","1","0","0","1","-2","1","0","1","5","5","5","4","5","4","3","4","5","4","5","7","4","4","5","4","3","5","4","4","2","2","1","5","2","3","1","6","5","1","1","2","5","1","2","5","2","4","5","2","1","3","2","1","1","4","3","6","3","7","2","2","3","1","1","1","2","3","1","2","746367844434055169","张","587","Female","[""坏我"",""坏她"",""好她"",""好我""]","[""弱我"",""弱她"",""强她"",""强我""]","","","","","","","","no","","","","","","","","","SRET_EW","EW_practice","","key","f","16.665765765765713","853.3333333333334","476","朋友","忠实","Positive","morality","","","","","","","","","","",""
"7221","
    <p><div style='color:white;font-size:35px; line-height:20px;'>请您再次阅读实验要求</div></p><br>
    <p><div style='color:white;font-size:25px; line-height:20px;'>请回忆某一个亲密的朋友，你们至少2年前就认识了，并且最近2年经常见面。</div></p>
    <p><div style='color:white;font-size:25px; line-height:20px;'>在本实验中，您将会看到一些形容词。</div></p>
    <p><div style='color:yellow;font-size:25px; line-height:20px;'>您的任务是判断这些形容词是否符合对您自己或您的朋友的描述。</div></p>
    <p><div class='footer' style='font-size:25px; line-height:20px;'>如果对本实验还有不清楚之处，请立即向实验员咨询。</p><p style='font-size:25px; line-height:20px;'>如果您明白了规则：</p><p style='font-size:22px; line-height:20px;'>请按 继续 进入正式实验</p>
    </div>
    <p style='font-size:35px'>符合按<span style=""color:lightgreen""> j 键</span>，不符合按<span style=""color:red""> f 键</span></p>","0","html-button-response","13","153939","0.0-7.0-2.0","6","4","5","6","5","5","3","4","5","5","5","1","0","0","1","-2","1","0","1","5","5","5","4","5","4","3","4","5","4","5","7","4","4","5","4","3","5","4","4","2","2","1","5","2","3","1","6","5","1","1","2","5","1","2","5","2","4","5","2","1","3","2","1","1","4","3","6","3","7","2","2","3","1","1","1","2","3","1","2","746367844434055169","张","587","Female","[""坏我"",""坏她"",""好她"",""好我""]","[""弱我"",""弱她"",""强她"",""强我""]","","","","","","","","","","","","","","","","","SRET_EW","prac_instructions","Sun Jan 07 2024 20:33:57 GMT+0800 (中国标准时间)","","","","","","","","","","","","","","","","","","","",""
"841","","j","psychophysics","14","155788","0.0-7.0-3.0-0.0","6","4","5","6","5","5","3","4","5","5","5","1","0","0","1","-2","1","0","1","5","5","5","4","5","4","3","4","5","4","5","7","4","4","5","4","3","5","4","4","2","2","1","5","2","3","1","6","5","1","1","2","5","1","2","5","2","4","5","2","1","3","2","1","1","4","3","6","3","7","2","2","3","1","1","1","2","3","1","2","746367844434055169","张","587","Female","[""坏我"",""坏她"",""好她"",""好我""]","[""弱我"",""弱她"",""强她"",""强我""]","","","","","","","","yes","","","","","","","","","SRET","EW_formal","","key","j","16.663636363636364","853.3333333333334","476","朋友","务实","Positive","ability","","","","","","","","","","",""
"1061","","j","psychophysics","15","157857","0.0-7.0-3.0-0.1","6","4","5","6","5","5","3","4","5","5","5","1","0","0","1","-2","1","0","1","5","5","5","4","5","4","3","4","5","4","5","7","4","4","5","4","3","5","4","4","2","2","1","5","2","3","1","6","5","1","1","2","5","1","2","5","2","4","5","2","1","3","2","1","1","4","3","6","3","7","2","2","3","1","1","1","2","3","1","2","746367844434055169","张","587","Female","[""坏我"",""坏她"",""好她"",""好我""]","[""弱我"",""弱她"",""强她"",""强我""]","","","","","","","","yes","","","","","","","","","SRET","EW_formal","","key","j","16.666666666666668","853.3333333333334","476","朋友","迷糊","Negative","ability","","","","","","","","","","",""
"604","","j","psychophysics","16","159465","0.0-7.0-3.0-0.2","6","4","5","6","5","5","3","4","5","5","5","1","0","0","1","-2","1","0","1","5","5","5","4","5","4","3","4","5","4","5","7","4","4","5","4","3","5","4","4","2","2","1","5","2","3","1","6","5","1","1","2","5","1","2","5","2","4","5","2","1","3","2","1","1","4","3","6","3","7","2","2","3","1","1","1","2","3","1","2","746367844434055169","张","587","Female","[""坏我"",""坏她"",""好她"",""好我""]","[""弱我"",""弱她"",""强她"",""强我""]","","","","","","","","yes","","","","","","","","","SRET","EW_formal","","key","j","16.668749999999818","853.3333333333334","476","自己","坚贞","Positive","morality","","","","","","","","","","",""
"608","","f","psychophysics","17","161081","0.0-7.0-3.0-0.3","6","4","5","6","5","5","3","4","5","5","5","1","0","0","1","-2","1","0","1","5","5","5","4","5","4","3","4","5","4","5","7","4","4","5","4","3","5","4","4","2","2","1","5","2","3","1","6","5","1","1","2","5","1","2","5","2","4","5","2","1","3","2","1","1","4","3","6","3","7","2","2","3","1","1","1","2","3","1","2","746367844434055169","张","587","Female","[""坏我"",""坏她"",""好她"",""好我""]","[""弱我"",""弱她"",""强她"",""强我""]","","","","","","","","no","","","","","","","","","SRET","EW_formal","","key","f","16.668749999999818","853.3333333333334","476","自己","说谎","Negative","morality","","","","","","","","","","",""
"523","","j","psychophysics","18","162608","0.0-7.0-3.0-0.4","6","4","5","6","5","5","3","4","5","5","5","1","0","0","1","-2","1","0","1","5","5","5","4","5","4","3","4","5","4","5","7","4","4","5","4","3","5","4","4","2","2","1","5","2","3","1","6","5","1","1","2","5","1","2","5","2","4","5","2","1","3","2","1","1","4","3","6","3","7","2","2","3","1","1","1","2","3","1","2","746367844434055169","张","587","Female","[""坏我"",""坏她"",""好她"",""好我""]","[""弱我"",""弱她"",""强她"",""强我""]","","","","","","","","yes","","","","","","","","","SRET","EW_formal","","key","j","16.67032967032967","853.3333333333334","476","朋友","果决","Positive","ability","","","","","","","","","","",""
"770","","f","psychophysics","19","164385","0.0-7.0-3.0-0.5","6","4","5","6","5","5","3","4","5","5","5","1","0","0","1","-2","1","0","1","5","5","5","4","5","4","3","4","5","4","5","7","4","4","5","4","3","5","4","4","2","2","1","5","2","3","1","6","5","1","1","2","5","1","2","5","2","4","5","2","1","3","2","1","1","4","3","6","3","7","2","2","3","1","1","1","2","3","1","2","746367844434055169","张","587","Female","[""坏我"",""坏她"",""好她"",""好我""]","[""弱我"",""弱她"",""强她"",""强我""]","","","","","","","","no","","","","","","","","","SRET","EW_formal","","key","f","16.66571428571423","853.3333333333334","476","朋友","龌龊","Negative","morality","","","","","","","","","","",""
"641","","f","psychophysics","20","166029","0.0-7.0-3.0-0.6","6","4","5","6","5","5","3","4","5","5","5","1","0","0","1","-2","1","0","1","5","5","5","4","5","4","3","4","5","4","5","7","4","4","5","4","3","5","4","4","2","2","1","5","2","3","1","6","5","1","1","2","5","1","2","5","2","4","5","2","1","3","2","1","1","4","3","6","3","7","2","2","3","1","1","1","2","3","1","2","746367844434055169","张","587","Female","[""坏我"",""坏她"",""好她"",""好我""]","[""弱我"",""弱她"",""强她"",""强我""]","","","","","","","","no","","","","","","","","","SRET","EW_formal","","key","f","16.667346938775747","853.3333333333334","476","朋友","混账","Negative","morality","","","","","","","","","","",""
"1010","","f","psychophysics","21","168041","0.0-7.0-3.0-0.7","6","4","5","6","5","5","3","4","5","5","5","1","0","0","1","-2","1","0","1","5","5","5","4","5","4","3","4","5","4","5","7","4","4","5","4","3","5","4","4","2","2","1","5","2","3","1","6","5","1","1","2","5","1","2","5","2","4","5","2","1","3","2","1","1","4","3","6","3","7","2","2","3","1","1","1","2","3","1","2","746367844434055169","张","587","Female","[""坏我"",""坏她"",""好她"",""好我""]","[""弱我"",""弱她"",""强她"",""强我""]","","","","","","","","no","","","","","","","","","SRET","EW_formal","","key","f","16.668333333333187","853.3333333333334","476","朋友","怠惰","Negative","ability","","","","","","","","","","",""
"585","","j","psychophysics","22","169633","0.0-7.0-3.0-0.8","6","4","5","6","5","5","3","4","5","5","5","1","0","0","1","-2","1","0","1","5","5","5","4","5","4","3","4","5","4","5","7","4","4","5","4","3","5","4","4","2","2","1","5","2","3","1","6","5","1","1","2","5","1","2","5","2","4","5","2","1","3","2","1","1","4","3","6","3","7","2","2","3","1","1","1","2","3","1","2","746367844434055169","张","587","Female","[""坏我"",""坏她"",""好她"",""好我""]","[""弱我"",""弱她"",""强她"",""强我""]","","","","","","","","yes","","","","","","","","","SRET","EW_formal","","key","j","16.665957446808573","853.3333333333334","476","朋友","君子","Positive","morality","","","","","","","","","","",""
"597","","j","psychophysics","23","171237","0.0-7.0-3.0-0.9","6","4","5","6","5","5","3","4","5","5","5","1","0","0","1","-2","1","0","1","5","5","5","4","5","4","3","4","5","4","5","7","4","4","5","4","3","5","4","4","2","2","1","5","2","3","1","6","5","1","1","2","5","1","2","5","2","4","5","2","1","3","2","1","1","4","3","6","3","7","2","2","3","1","1","1","2","3","1","2","746367844434055169","张","587","Female","[""坏我"",""坏她"",""好她"",""好我""]","[""弱我"",""弱她"",""强她"",""强我""]","","","","","","","","yes","","","","","","","","","SRET","EW_formal","","key","j","16.66736842105257","853.3333333333334","476","自己","拖延","Negative","ability","","","","","","","","","","",""
"609","","j","psychophysics","24","172861","0.0-7.0-3.0-0.10","6","4","5","6","5","5","3","4","5","5","5","1","0","0","1","-2","1","0","1","5","5","5","4","5","4","3","4","5","4","5","7","4","4","5","4","3","5","4","4","2","2","1","5","2","3","1","6","5","1","1","2","5","1","2","5","2","4","5","2","1","3","2","1","1","4","3","6","3","7","2","2","3","1","1","1","2","3","1","2","746367844434055169","张","587","Female","[""坏我"",""坏她"",""好她"",""好我""]","[""弱我"",""弱她"",""强她"",""强我""]","","","","","","","","yes","","","","","","","","","SRET","EW_formal","","key","j","16.669072164948393","853.3333333333334","476","自己","逞能","Negative","ability","","","","","","","","","","",""
"614","","f","psychophysics","25","174481","0.0-7.0-3.0-0.11","6","4","5","6","5","5","3","4","5","5","5","1","0","0","1","-2","1","0","1","5","5","5","4","5","4","3","4","5","4","5","7","4","4","5","4","3","5","4","4","2","2","1","5","2","3","1","6","5","1","1","2","5","1","2","5","2","4","5","2","1","3","2","1","1","4","3","6","3","7","2","2","3","1","1","1","2","3","1","2","746367844434055169","张","587","Female","[""坏我"",""坏她"",""好她"",""好我""]","[""弱我"",""弱她"",""强她"",""强我""]","","","","","","","","no","","","","","","","","","SRET","EW_formal","","key","f","16.667708333333092","853.3333333333334","476","自己","蛇蝎","Negative","morality","","","","","","","","","","",""
"532","","j","psychophysics","26","176020","0.0-7.0-3.0-0.12","6","4","5","6","5","5","3","4","5","5","5","1","0","0","1","-2","1","0","1","5","5","5","4","5","4","3","4","5","4","5","7","4","4","5","4","3","5","4","4","2","2","1","5","2","3","1","6","5","1","1","2","5","1","2","5","2","4","5","2","1","3","2","1","1","4","3","6","3","7","2","2","3","1","1","1","2","3","1","2","746367844434055169","张","587","Female","[""坏我"",""坏她"",""好她"",""好我""]","[""弱我"",""弱她"",""强她"",""强我""]","","","","","","","","yes","","","","","","","","","SRET","EW_formal","","key","j","16.669230769230705","853.3333333333334","476","自己","厚道","Positive","morality","","","","","","","","","","",""
"781","","j","psychophysics","27","177808","0.0-7.0-3.0-0.13","6","4","5","6","5","5","3","4","5","5","5","1","0","0","1","-2","1","0","1","5","5","5","4","5","4","3","4","5","4","5","7","4","4","5","4","3","5","4","4","2","2","1","5","2","3","1","6","5","1","1","2","5","1","2","5","2","4","5","2","1","3","2","1","1","4","3","6","3","7","2","2","3","1","1","1","2","3","1","2","746367844434055169","张","587","Female","[""坏我"",""坏她"",""好她"",""好我""]","[""弱我"",""弱她"",""强她"",""强我""]","","","","","","","","yes","","","","","","","","","SRET","EW_formal","","key","j","16.667289719626115","853.3333333333334","476","朋友","废物","Negative","ability","","","","","","","","","","",""
"627","","f","psychophysics","28","179440","0.0-7.0-3.0-0.14","6","4","5","6","5","5","3","4","5","5","5","1","0","0","1","-2","1","0","1","5","5","5","4","5","4","3","4","5","4","5","7","4","4","5","4","3","5","4","4","2","2","1","5","2","3","1","6","5","1","1","2","5","1","2","5","2","4","5","2","1","3","2","1","1","4","3","6","3","7","2","2","3","1","1","1","2","3","1","2","746367844434055169","张","587","Female","[""坏我"",""坏她"",""好她"",""好我""]","[""弱我"",""弱她"",""强她"",""强我""]","","","","","","","","no","","","","","","","","","SRET","EW_formal","","key","f","16.66701030927847","853.3333333333334","476","朋友","势利","Negative","morality","","","","","","","","","","",""
"478","","j","psychophysics","29","180921","0.0-7.0-3.0-0.15","6","4","5","6","5","5","3","4","5","5","5","1","0","0","1","-2","1","0","1","5","5","5","4","5","4","3","4","5","4","5","7","4","4","5","4","3","5","4","4","2","2","1","5","2","3","1","6","5","1","1","2","5","1","2","5","2","4","5","2","1","3","2","1","1","4","3","6","3","7","2","2","3","1","1","1","2","3","1","2","746367844434055169","张","587","Female","[""坏我"",""坏她"",""好她"",""好我""]","[""弱我"",""弱她"",""强她"",""强我""]","","","","","","","","yes","","","","","","","","","SRET","EW_formal","","key","j","16.66436781609182","853.3333333333334","476","自己","独立","Positive","ability","","","","","","","","","","",""
"493","","j","psychophysics","30","182421","0.0-7.0-3.0-0.16","6","4","5","6","5","5","3","4","5","5","5","1","0","0","1","-2","1","0","1","5","5","5","4","5","4","3","4","5","4","5","7","4","4","5","4","3","5","4","4","2","2","1","5","2","3","1","6","5","1","1","2","5","1","2","5","2","4","5","2","1","3","2","1","1","4","3","6","3","7","2","2","3","1","1","1","2","3","1","2","746367844434055169","张","587","Female","[""坏我"",""坏她"",""好她"",""好我""]","[""弱我"",""弱她"",""强她"",""强我""]","","","","","","","","yes","","","","","","","","","SRET","EW_formal","","key","j","16.668539325842698","853.3333333333334","476","朋友","勤恳","Positive","morality","","","","","","","","","","",""
"986","","f","psychophysics","31","184412","0.0-7.0-3.0-0.17","6","4","5","6","5","5","3","4","5","5","5","1","0","0","1","-2","1","0","1","5","5","5","4","5","4","3","4","5","4","5","7","4","4","5","4","3","5","4","4","2","2","1","5","2","3","1","6","5","1","1","2","5","1","2","5","2","4","5","2","1","3","2","1","1","4","3","6","3","7","2","2","3","1","1","1","2","3","1","2","746367844434055169","张","587","Female","[""坏我"",""坏她"",""好她"",""好我""]","[""弱我"",""弱她"",""强她"",""强我""]","","","","","","","","no","","","","","","","","","SRET","EW_formal","","key","f","16.6672268907565","853.3333333333334","476","自己","淡泊","Positive","morality","","","","","","","","","","",""
"1031","","j","psychophysics","32","186453","0.0-7.0-3.0-0.18","6","4","5","6","5","5","3","4","5","5","5","1","0","0","1","-2","1","0","1","5","5","5","4","5","4","3","4","5","4","5","7","4","4","5","4","3","5","4","4","2","2","1","5","2","3","1","6","5","1","1","2","5","1","2","5","2","4","5","2","1","3","2","1","1","4","3","6","3","7","2","2","3","1","1","1","2","3","1","2","746367844434055169","张","587","Female","[""坏我"",""坏她"",""好她"",""好我""]","[""弱我"",""弱她"",""强她"",""强我""]","","","","","","","","yes","","","","","","","","","SRET","EW_formal","","key","j","16.667768595041228","853.3333333333334","476","朋友","学霸","Positive","ability","","","","","","","","","","",""
"561","","j","psychophysics","33","188017","0.0-7.0-3.0-0.19","6","4","5","6","5","5","3","4","5","5","5","1","0","0","1","-2","1","0","1","5","5","5","4","5","4","3","4","5","4","5","7","4","4","5","4","3","5","4","4","2","2","1","5","2","3","1","6","5","1","1","2","5","1","2","5","2","4","5","2","1","3","2","1","1","4","3","6","3","7","2","2","3","1","1","1","2","3","1","2","746367844434055169","张","587","Female","[""坏我"",""坏她"",""好她"",""好我""]","[""弱我"",""弱她"",""强她"",""强我""]","","","","","","","","yes","","","","","","","","","SRET","EW_formal","","key","j","16.667741935483935","853.3333333333334","476","自己","能干","Positive","ability","","","","","","","","","","",""
"401","","j","psychophysics","34","189423","0.0-7.0-3.0-0.20","6","4","5","6","5","5","3","4","5","5","5","1","0","0","1","-2","1","0","1","5","5","5","4","5","4","3","4","5","4","5","7","4","4","5","4","3","5","4","4","2","2","1","5","2","3","1","6","5","1","1","2","5","1","2","5","2","4","5","2","1","3","2","1","1","4","3","6","3","7","2","2","3","1","1","1","2","3","1","2","746367844434055169","张","587","Female","[""坏我"",""坏她"",""好她"",""好我""]","[""弱我"",""弱她"",""强她"",""强我""]","","","","","","","","yes","","","","","","","","","SRET","EW_formal","","key","j","16.666666666666668","853.3333333333334","476","自己","全才","Positive","ability","","","","","","","","","","",""
"632","","j","psychophysics","35","191057","0.0-7.0-3.0-0.21","6","4","5","6","5","5","3","4","5","5","5","1","0","0","1","-2","1","0","1","5","5","5","4","5","4","3","4","5","4","5","7","4","4","5","4","3","5","4","4","2","2","1","5","2","3","1","6","5","1","1","2","5","1","2","5","2","4","5","2","1","3","2","1","1","4","3","6","3","7","2","2","3","1","1","1","2","3","1","2","746367844434055169","张","587","Female","[""坏我"",""坏她"",""好她"",""好我""]","[""弱我"",""弱她"",""强她"",""强我""]","","","","","","","","yes","","","","","","","","","SRET","EW_formal","","key","j","16.66597938144336","853.3333333333334","476","朋友","无私","Positive","morality","","","","","","","","","","",""
"673","","j","psychophysics","36","192737","0.0-7.0-3.0-0.22","6","4","5","6","5","5","3","4","5","5","5","1","0","0","1","-2","1","0","1","5","5","5","4","5","4","3","4","5","4","5","7","4","4","5","4","3","5","4","4","2","2","1","5","2","3","1","6","5","1","1","2","5","1","2","5","2","4","5","2","1","3","2","1","1","4","3","6","3","7","2","2","3","1","1","1","2","3","1","2","746367844434055169","张","587","Female","[""坏我"",""坏她"",""好她"",""好我""]","[""弱我"",""弱她"",""强她"",""强我""]","","","","","","","","yes","","","","","","","","","SRET","EW_formal","","key","j","16.66565656565651","853.3333333333334","476","自己","毛糙","Negative","ability","","","","","","","","","","",""
"1213","","f","psychophysics","37","194966","0.0-7.0-3.0-0.23","6","4","5","6","5","5","3","4","5","5","5","1","0","0","1","-2","1","0","1","5","5","5","4","5","4","3","4","5","4","5","7","4","4","5","4","3","5","4","4","2","2","1","5","2","3","1","6","5","1","1","2","5","1","2","5","2","4","5","2","1","3","2","1","1","4","3","6","3","7","2","2","3","1","1","1","2","3","1","2","746367844434055169","张","587","Female","[""坏我"",""坏她"",""好她"",""好我""]","[""弱我"",""弱她"",""强她"",""强我""]","","","","","","","","no","","","","","","","","","SRET","EW_formal","","key","f","16.66691729323317","853.3333333333334","476","自己","低劣","Negative","morality","","","","","","","","","","",""
"501","","j","psychophysics","38","196473","0.0-7.0-3.0-0.24","6","4","5","6","5","5","3","4","5","5","5","1","0","0","1","-2","1","0","1","5","5","5","4","5","4","3","4","5","4","5","7","4","4","5","4","3","5","4","4","2","2","1","5","2","3","1","6","5","1","1","2","5","1","2","5","2","4","5","2","1","3","2","1","1","4","3","6","3","7","2","2","3","1","1","1","2","3","1","2","746367844434055169","张","587","Female","[""坏我"",""坏她"",""好她"",""好我""]","[""弱我"",""弱她"",""强她"",""强我""]","","","","","","","","yes","","","","","","","","","SRET","EW_formal","","key","j","16.665555555555493","853.3333333333334","476","朋友","敏捷","Positive","ability","","","","","","","","","","",""
"643","","j","psychophysics","39","198122","0.0-7.0-3.0-0.25","6","4","5","6","5","5","3","4","5","5","5","1","0","0","1","-2","1","0","1","5","5","5","4","5","4","3","4","5","4","5","7","4","4","5","4","3","5","4","4","2","2","1","5","2","3","1","6","5","1","1","2","5","1","2","5","2","4","5","2","1","3","2","1","1","4","3","6","3","7","2","2","3","1","1","1","2","3","1","2","746367844434055169","张","587","Female","[""坏我"",""坏她"",""好她"",""好我""]","[""弱我"",""弱她"",""强她"",""强我""]","","","","","","","","yes","","","","","","","","","SRET","EW_formal","","key","j","16.66701030927847","853.3333333333334","476","自己","敬业","Positive","morality","","","","","","","","","","",""
"518","","j","psychophysics","40","199646","0.0-7.0-3.0-0.26","6","4","5","6","5","5","3","4","5","5","5","1","0","0","1","-2","1","0","1","5","5","5","4","5","4","3","4","5","4","5","7","4","4","5","4","3","5","4","4","2","2","1","5","2","3","1","6","5","1","1","2","5","1","2","5","2","4","5","2","1","3","2","1","1","4","3","6","3","7","2","2","3","1","1","1","2","3","1","2","746367844434055169","张","587","Female","[""坏我"",""坏她"",""好她"",""好我""]","[""弱我"",""弱她"",""强她"",""强我""]","","","","","","","","yes","","","","","","","","","SRET","EW_formal","","key","j","16.66813186813174","853.3333333333334","476","自己","侠义","Positive","morality","","","","","","","","","","",""
"506","","j","psychophysics","41","201157","0.0-7.0-3.0-0.27","6","4","5","6","5","5","3","4","5","5","5","1","0","0","1","-2","1","0","1","5","5","5","4","5","4","3","4","5","4","5","7","4","4","5","4","3","5","4","4","2","2","1","5","2","3","1","6","5","1","1","2","5","1","2","5","2","4","5","2","1","3","2","1","1","4","3","6","3","7","2","2","3","1","1","1","2","3","1","2","746367844434055169","张","587","Female","[""坏我"",""坏她"",""好她"",""好我""]","[""弱我"",""弱她"",""强她"",""强我""]","","","","","","","","yes","","","","","","","","","SRET","EW_formal","","key","j","16.66888888888902","853.3333333333334","476","朋友","廉正","Positive","morality","","","","","","","","","","",""
"605","","f","psychophysics","42","202770","0.0-7.0-3.0-0.28","6","4","5","6","5","5","3","4","5","5","5","1","0","0","1","-2","1","0","1","5","5","5","4","5","4","3","4","5","4","5","7","4","4","5","4","3","5","4","4","2","2","1","5","2","3","1","6","5","1","1","2","5","1","2","5","2","4","5","2","1","3","2","1","1","4","3","6","3","7","2","2","3","1","1","1","2","3","1","2","746367844434055169","张","587","Female","[""坏我"",""坏她"",""好她"",""好我""]","[""弱我"",""弱她"",""强她"",""强我""]","","","","","","","","no","","","","","","","","","SRET","EW_formal","","key","f","16.66631578947356","853.3333333333334","476","朋友","自私","Negative","morality","","","","","","","","","","",""
"497","","j","psychophysics","43","204269","0.0-7.0-3.0-0.29","6","4","5","6","5","5","3","4","5","5","5","1","0","0","1","-2","1","0","1","5","5","5","4","5","4","3","4","5","4","5","7","4","4","5","4","3","5","4","4","2","2","1","5","2","3","1","6","5","1","1","2","5","1","2","5","2","4","5","2","1","3","2","1","1","4","3","6","3","7","2","2","3","1","1","1","2","3","1","2","746367844434055169","张","587","Female","[""坏我"",""坏她"",""好她"",""好我""]","[""弱我"",""弱她"",""强她"",""强我""]","","","","","","","","yes","","","","","","","","","SRET","EW_formal","","key","j","16.667415730337012","853.3333333333334","476","朋友","上进","Positive","ability","","","","","","","","","","",""
"506","","j","psychophysics","44","205778","0.0-7.0-3.0-0.30","6","4","5","6","5","5","3","4","5","5","5","1","0","0","1","-2","1","0","1","5","5","5","4","5","4","3","4","5","4","5","7","4","4","5","4","3","5","4","4","2","2","1","5","2","3","1","6","5","1","1","2","5","1","2","5","2","4","5","2","1","3","2","1","1","4","3","6","3","7","2","2","3","1","1","1","2","3","1","2","746367844434055169","张","587","Female","[""坏我"",""坏她"",""好她"",""好我""]","[""弱我"",""弱她"",""强她"",""强我""]","","","","","","","","yes","","","","","","","","","SRET","EW_formal","","key","j","16.66888888888902","853.3333333333334","476","自己","仗义","Positive","morality","","","","","","","","","","",""
"611","","f","psychophysics","45","207394","0.0-7.0-3.0-0.31","6","4","5","6","5","5","3","4","5","5","5","1","0","0","1","-2","1","0","1","5","5","5","4","5","4","3","4","5","4","5","7","4","4","5","4","3","5","4","4","2","2","1","5","2","3","1","6","5","1","1","2","5","1","2","5","2","4","5","2","1","3","2","1","1","4","3","6","3","7","2","2","3","1","1","1","2","3","1","2","746367844434055169","张","587","Female","[""坏我"",""坏她"",""好她"",""好我""]","[""弱我"",""弱她"",""强她"",""强我""]","","","","","","","","no","","","","","","","","","SRET","EW_formal","","key","f","16.667708333333394","853.3333333333334","476","自己","贪污","Negative","morality","","","","","","","","","","",""
"657","","j","psychophysics","46","209054","0.0-7.0-3.0-0.32","6","4","5","6","5","5","3","4","5","5","5","1","0","0","1","-2","1","0","1","5","5","5","4","5","4","3","4","5","4","5","7","4","4","5","4","3","5","4","4","2","2","1","5","2","3","1","6","5","1","1","2","5","1","2","5","2","4","5","2","1","3","2","1","1","4","3","6","3","7","2","2","3","1","1","1","2","3","1","2","746367844434055169","张","587","Female","[""坏我"",""坏她"",""好她"",""好我""]","[""弱我"",""弱她"",""强她"",""强我""]","","","","","","","","yes","","","","","","","","","SRET","EW_formal","","key","j","16.666326530612125","853.3333333333334","476","朋友","罪恶","Negative","morality","","","","","","","","","","",""
"770","","f","psychophysics","47","210830","0.0-7.0-3.0-0.33","6","4","5","6","5","5","3","4","5","5","5","1","0","0","1","-2","1","0","1","5","5","5","4","5","4","3","4","5","4","5","7","4","4","5","4","3","5","4","4","2","2","1","5","2","3","1","6","5","1","1","2","5","1","2","5","2","4","5","2","1","3","2","1","1","4","3","6","3","7","2","2","3","1","1","1","2","3","1","2","746367844434055169","张","587","Female","[""坏我"",""坏她"",""好她"",""好我""]","[""弱我"",""弱她"",""强她"",""强我""]","","","","","","","","no","","","","","","","","","SRET","EW_formal","","key","f","16.66792452830178","853.3333333333334","476","朋友","盲目","Negative","ability","","","","","","","","","","",""
"686","","f","psychophysics","48","212524","0.0-7.0-3.0-0.34","6","4","5","6","5","5","3","4","5","5","5","1","0","0","1","-2","1","0","1","5","5","5","4","5","4","3","4","5","4","5","7","4","4","5","4","3","5","4","4","2","2","1","5","2","3","1","6","5","1","1","2","5","1","2","5","2","4","5","2","1","3","2","1","1","4","3","6","3","7","2","2","3","1","1","1","2","3","1","2","746367844434055169","张","587","Female","[""坏我"",""坏她"",""好她"",""好我""]","[""弱我"",""弱她"",""强她"",""强我""]","","","","","","","","no","","","","","","","","","SRET","EW_formal","","key","f","16.664356435643622","853.3333333333334","476","朋友","昏庸","Negative","ability","","","","","","","","","","",""
"670","","j","psychophysics","49","214201","0.0-7.0-3.0-0.35","6","4","5","6","5","5","3","4","5","5","5","1","0","0","1","-2","1","0","1","5","5","5","4","5","4","3","4","5","4","5","7","4","4","5","4","3","5","4","4","2","2","1","5","2","3","1","6","5","1","1","2","5","1","2","5","2","4","5","2","1","3","2","1","1","4","3","6","3","7","2","2","3","1","1","1","2","3","1","2","746367844434055169","张","587","Female","[""坏我"",""坏她"",""好她"",""好我""]","[""弱我"",""弱她"",""强她"",""强我""]","","","","","","","","yes","","","","","","","","","SRET","EW_formal","","key","j","16.667676767676532","853.3333333333334","476","自己","独断","Negative","ability","","","","","","","","","","",""
"452","","j","psychophysics","50","215657","0.0-7.0-3.0-0.36","6","4","5","6","5","5","3","4","5","5","5","1","0","0","1","-2","1","0","1","5","5","5","4","5","4","3","4","5","4","5","7","4","4","5","4","3","5","4","4","2","2","1","5","2","3","1","6","5","1","1","2","5","1","2","5","2","4","5","2","1","3","2","1","1","4","3","6","3","7","2","2","3","1","1","1","2","3","1","2","746367844434055169","张","587","Female","[""坏我"",""坏她"",""好她"",""好我""]","[""弱我"",""弱她"",""强她"",""强我""]","","","","","","","","yes","","","","","","","","","SRET","EW_formal","","key","j","16.66781609195409","853.3333333333334","476","朋友","拜金","Negative","morality","","","","","","","","","","",""
"726","","j","psychophysics","51","217387","0.0-7.0-3.0-0.37","6","4","5","6","5","5","3","4","5","5","5","1","0","0","1","-2","1","0","1","5","5","5","4","5","4","3","4","5","4","5","7","4","4","5","4","3","5","4","4","2","2","1","5","2","3","1","6","5","1","1","2","5","1","2","5","2","4","5","2","1","3","2","1","1","4","3","6","3","7","2","2","3","1","1","1","2","3","1","2","746367844434055169","张","587","Female","[""坏我"",""坏她"",""好她"",""好我""]","[""弱我"",""弱她"",""强她"",""强我""]","","","","","","","","yes","","","","","","","","","SRET","EW_formal","","key","j","16.666666666666668","853.3333333333334","476","自己","干练","Positive","ability","","","","","","","","","","",""
"807","","j","psychophysics","52","219198","0.0-7.0-3.0-0.38","6","4","5","6","5","5","3","4","5","5","5","1","0","0","1","-2","1","0","1","5","5","5","4","5","4","3","4","5","4","5","7","4","4","5","4","3","5","4","4","2","2","1","5","2","3","1","6","5","1","1","2","5","1","2","5","2","4","5","2","1","3","2","1","1","4","3","6","3","7","2","2","3","1","1","1","2","3","1","2","746367844434055169","张","587","Female","[""坏我"",""坏她"",""好她"",""好我""]","[""弱我"",""弱她"",""强她"",""强我""]","","","","","","","","yes","","","","","","","","","SRET","EW_formal","","key","j","16.668518518518628","853.3333333333334","476","朋友","守时","Positive","morality","","","","","","","","","","",""
"945","","f","psychophysics","53","221154","0.0-7.0-3.0-0.39","6","4","5","6","5","5","3","4","5","5","5","1","0","0","1","-2","1","0","1","5","5","5","4","5","4","3","4","5","4","5","7","4","4","5","4","3","5","4","4","2","2","1","5","2","3","1","6","5","1","1","2","5","1","2","5","2","4","5","2","1","3","2","1","1","4","3","6","3","7","2","2","3","1","1","1","2","3","1","2","746367844434055169","张","587","Female","[""坏我"",""坏她"",""好她"",""好我""]","[""弱我"",""弱她"",""强她"",""强我""]","","","","","","","","no","","","","","","","","","SRET","EW_formal","","key","f","16.66810344827586","853.3333333333334","476","朋友","失信","Negative","morality","","","","","","","","","","",""
"666","","j","psychophysics","54","222825","0.0-7.0-3.0-0.40","6","4","5","6","5","5","3","4","5","5","5","1","0","0","1","-2","1","0","1","5","5","5","4","5","4","3","4","5","4","5","7","4","4","5","4","3","5","4","4","2","2","1","5","2","3","1","6","5","1","1","2","5","1","2","5","2","4","5","2","1","3","2","1","1","4","3","6","3","7","2","2","3","1","1","1","2","3","1","2","746367844434055169","张","587","Female","[""坏我"",""坏她"",""好她"",""好我""]","[""弱我"",""弱她"",""强她"",""强我""]","","","","","","","","yes","","","","","","","","","SRET","EW_formal","","key","j","16.665","853.3333333333334","476","朋友","博识","Positive","ability","","","","","","","","","","",""
"765","","j","psychophysics","55","224593","0.0-7.0-3.0-0.41","6","4","5","6","5","5","3","4","5","5","5","1","0","0","1","-2","1","0","1","5","5","5","4","5","4","3","4","5","4","5","7","4","4","5","4","3","5","4","4","2","2","1","5","2","3","1","6","5","1","1","2","5","1","2","5","2","4","5","2","1","3","2","1","1","4","3","6","3","7","2","2","3","1","1","1","2","3","1","2","746367844434055169","张","587","Female","[""坏我"",""坏她"",""好她"",""好我""]","[""弱我"",""弱她"",""强她"",""强我""]","","","","","","","","yes","","","","","","","","","SRET","EW_formal","","key","j","16.666666666666668","853.3333333333334","476","朋友","周到","Positive","ability","","","","","","","","","","",""
"569","","j","psychophysics","56","226174","0.0-7.0-3.0-0.42","6","4","5","6","5","5","3","4","5","5","5","1","0","0","1","-2","1","0","1","5","5","5","4","5","4","3","4","5","4","5","7","4","4","5","4","3","5","4","4","2","2","1","5","2","3","1","6","5","1","1","2","5","1","2","5","2","4","5","2","1","3","2","1","1","4","3","6","3","7","2","2","3","1","1","1","2","3","1","2","746367844434055169","张","587","Female","[""坏我"",""坏她"",""好她"",""好我""]","[""弱我"",""弱她"",""强她"",""强我""]","","","","","","","","yes","","","","","","","","","SRET","EW_formal","","key","j","16.667021276595868","853.3333333333334","476","朋友","守信","Positive","morality","","","","","","","","","","",""
"914","","j","psychophysics","57","228095","0.0-7.0-3.0-0.43","6","4","5","6","5","5","3","4","5","5","5","1","0","0","1","-2","1","0","1","5","5","5","4","5","4","3","4","5","4","5","7","4","4","5","4","3","5","4","4","2","2","1","5","2","3","1","6","5","1","1","2","5","1","2","5","2","4","5","2","1","3","2","1","1","4","3","6","3","7","2","2","3","1","1","1","2","3","1","2","746367844434055169","张","587","Female","[""坏我"",""坏她"",""好她"",""好我""]","[""弱我"",""弱她"",""强她"",""强我""]","","","","","","","","yes","","","","","","","","","SRET","EW_formal","","key","j","16.663157894736894","853.3333333333334","476","朋友","粗心","Negative","ability","","","","","","","","","","",""
"533","","j","psychophysics","58","229633","0.0-7.0-3.0-0.44","6","4","5","6","5","5","3","4","5","5","5","1","0","0","1","-2","1","0","1","5","5","5","4","5","4","3","4","5","4","5","7","4","4","5","4","3","5","4","4","2","2","1","5","2","3","1","6","5","1","1","2","5","1","2","5","2","4","5","2","1","3","2","1","1","4","3","6","3","7","2","2","3","1","1","1","2","3","1","2","746367844434055169","张","587","Female","[""坏我"",""坏她"",""好她"",""好我""]","[""弱我"",""弱她"",""强她"",""强我""]","","","","","","","","yes","","","","","","","","","SRET","EW_formal","","key","j","16.669230769230705","853.3333333333334","476","自己","有力","Positive","ability","","","","","","","","","","",""
"650","","f","psychophysics","59","231288","0.0-7.0-3.0-0.45","6","4","5","6","5","5","3","4","5","5","5","1","0","0","1","-2","1","0","1","5","5","5","4","5","4","3","4","5","4","5","7","4","4","5","4","3","5","4","4","2","2","1","5","2","3","1","6","5","1","1","2","5","1","2","5","2","4","5","2","1","3","2","1","1","4","3","6","3","7","2","2","3","1","1","1","2","3","1","2","746367844434055169","张","587","Female","[""坏我"",""坏她"",""好她"",""好我""]","[""弱我"",""弱她"",""强她"",""强我""]","","","","","","","","no","","","","","","","","","SRET","EW_formal","","key","f","16.66565656565651","853.3333333333334","476","自己","黑心","Negative","morality","","","","","","","","","","",""
"1075","","f","psychophysics","60","233370","0.0-7.0-3.0-0.46","6","4","5","6","5","5","3","4","5","5","5","1","0","0","1","-2","1","0","1","5","5","5","4","5","4","3","4","5","4","5","7","4","4","5","4","3","5","4","4","2","2","1","5","2","3","1","6","5","1","1","2","5","1","2","5","2","4","5","2","1","3","2","1","1","4","3","6","3","7","2","2","3","1","1","1","2","3","1","2","746367844434055169","张","587","Female","[""坏我"",""坏她"",""好她"",""好我""]","[""弱我"",""弱她"",""强她"",""强我""]","","","","","","","","no","","","","","","","","","SRET","EW_formal","","key","f","16.665853658536538","853.3333333333334","476","自己","虚伪","Negative","morality","","","","","","","","","","",""
"893","","j","psychophysics","61","235266","0.0-7.0-3.0-0.47","6","4","5","6","5","5","3","4","5","5","5","1","0","0","1","-2","1","0","1","5","5","5","4","5","4","3","4","5","4","5","7","4","4","5","4","3","5","4","4","2","2","1","5","2","3","1","6","5","1","1","2","5","1","2","5","2","4","5","2","1","3","2","1","1","4","3","6","3","7","2","2","3","1","1","1","2","3","1","2","746367844434055169","张","587","Female","[""坏我"",""坏她"",""好她"",""好我""]","[""弱我"",""弱她"",""强她"",""强我""]","","","","","","","","yes","","","","","","","","","SRET","EW_formal","","key","j","16.665486725663563","853.3333333333334","476","朋友","屈才","Negative","ability","","","","","","","","","","",""
"761","","f","psychophysics","62","237030","0.0-7.0-3.0-0.48","6","4","5","6","5","5","3","4","5","5","5","1","0","0","1","-2","1","0","1","5","5","5","4","5","4","3","4","5","4","5","7","4","4","5","4","3","5","4","4","2","2","1","5","2","3","1","6","5","1","1","2","5","1","2","5","2","4","5","2","1","3","2","1","1","4","3","6","3","7","2","2","3","1","1","1","2","3","1","2","746367844434055169","张","587","Female","[""坏我"",""坏她"",""好她"",""好我""]","[""弱我"",""弱她"",""强她"",""强我""]","","","","","","","","no","","","","","","","","","SRET","EW_formal","","key","f","16.6676190476191","853.3333333333334","476","自己","无能","Negative","ability","","","","","","","","","","",""
"446","","j","psychophysics","63","238483","0.0-7.0-3.0-0.49","6","4","5","6","5","5","3","4","5","5","5","1","0","0","1","-2","1","0","1","5","5","5","4","5","4","3","4","5","4","5","7","4","4","5","4","3","5","4","4","2","2","1","5","2","3","1","6","5","1","1","2","5","1","2","5","2","4","5","2","1","3","2","1","1","4","3","6","3","7","2","2","3","1","1","1","2","3","1","2","746367844434055169","张","587","Female","[""坏我"",""坏她"",""好她"",""好我""]","[""弱我"",""弱她"",""强她"",""强我""]","","","","","","","","yes","","","","","","","","","SRET","EW_formal","","key","j","16.670930232557936","853.3333333333334","476","自己","忠诚","Positive","morality","","","","","","","","","","",""
"810","","f","psychophysics","64","240297","0.0-7.0-3.0-0.50","6","4","5","6","5","5","3","4","5","5","5","1","0","0","1","-2","1","0","1","5","5","5","4","5","4","3","4","5","4","5","7","4","4","5","4","3","5","4","4","2","2","1","5","2","3","1","6","5","1","1","2","5","1","2","5","2","4","5","2","1","3","2","1","1","4","3","6","3","7","2","2","3","1","1","1","2","3","1","2","746367844434055169","张","587","Female","[""坏我"",""坏她"",""好她"",""好我""]","[""弱我"",""弱她"",""强她"",""强我""]","","","","","","","","no","","","","","","","","","SRET","EW_formal","","key","f","16.663888888888998","853.3333333333334","476","自己","业余","Negative","ability","","","","","","","","","","",""
"478","","j","psychophysics","65","241778","0.0-7.0-3.0-0.51","6","4","5","6","5","5","3","4","5","5","5","1","0","0","1","-2","1","0","1","5","5","5","4","5","4","3","4","5","4","5","7","4","4","5","4","3","5","4","4","2","2","1","5","2","3","1","6","5","1","1","2","5","1","2","5","2","4","5","2","1","3","2","1","1","4","3","6","3","7","2","2","3","1","1","1","2","3","1","2","746367844434055169","张","587","Female","[""坏我"",""坏她"",""好她"",""好我""]","[""弱我"",""弱她"",""强她"",""强我""]","","","","","","","","yes","","","","","","","","","SRET","EW_formal","","key","j","16.667045454545256","853.3333333333334","476","自己","聪明","Positive","ability","","","","","","","","","","",""
"646","","j","psychophysics","66","243425","0.0-7.0-3.0-0.52","6","4","5","6","5","5","3","4","5","5","5","1","0","0","1","-2","1","0","1","5","5","5","4","5","4","3","4","5","4","5","7","4","4","5","4","3","5","4","4","2","2","1","5","2","3","1","6","5","1","1","2","5","1","2","5","2","4","5","2","1","3","2","1","1","4","3","6","3","7","2","2","3","1","1","1","2","3","1","2","746367844434055169","张","587","Female","[""坏我"",""坏她"",""好她"",""好我""]","[""弱我"",""弱她"",""强她"",""强我""]","","","","","","","","yes","","","","","","","","","SRET","EW_formal","","key","j","16.667346938775747","853.3333333333334","476","自己","高尚","Positive","morality","","","","","","","","","","",""
"558","","j","psychophysics","67","244993","0.0-7.0-3.0-0.53","6","4","5","6","5","5","3","4","5","5","5","1","0","0","1","-2","1","0","1","5","5","5","4","5","4","3","4","5","4","5","7","4","4","5","4","3","5","4","4","2","2","1","5","2","3","1","6","5","1","1","2","5","1","2","5","2","4","5","2","1","3","2","1","1","4","3","6","3","7","2","2","3","1","1","1","2","3","1","2","746367844434055169","张","587","Female","[""坏我"",""坏她"",""好她"",""好我""]","[""弱我"",""弱她"",""强她"",""强我""]","","","","","","","","yes","","","","","","","","","SRET","EW_formal","","key","j","16.667741935483935","853.3333333333334","476","自己","仁厚","Positive","morality","","","","","","","","","","",""
"840","","j","psychophysics","68","246838","0.0-7.0-3.0-0.54","6","4","5","6","5","5","3","4","5","5","5","1","0","0","1","-2","1","0","1","5","5","5","4","5","4","3","4","5","4","5","7","4","4","5","4","3","5","4","4","2","2","1","5","2","3","1","6","5","1","1","2","5","1","2","5","2","4","5","2","1","3","2","1","1","4","3","6","3","7","2","2","3","1","1","1","2","3","1","2","746367844434055169","张","587","Female","[""坏我"",""坏她"",""好她"",""好我""]","[""弱我"",""弱她"",""强她"",""强我""]","","","","","","","","yes","","","","","","","","","SRET","EW_formal","","key","j","16.663636363636364","853.3333333333334","476","朋友","新手","Negative","ability","","","","","","","","","","",""
"557","","j","psychophysics","69","248397","0.0-7.0-3.0-0.55","6","4","5","6","5","5","3","4","5","5","5","1","0","0","1","-2","1","0","1","5","5","5","4","5","4","3","4","5","4","5","7","4","4","5","4","3","5","4","4","2","2","1","5","2","3","1","6","5","1","1","2","5","1","2","5","2","4","5","2","1","3","2","1","1","4","3","6","3","7","2","2","3","1","1","1","2","3","1","2","746367844434055169","张","587","Female","[""坏我"",""坏她"",""好她"",""好我""]","[""弱我"",""弱她"",""强她"",""强我""]","","","","","","","","yes","","","","","","","","","SRET","EW_formal","","key","j","16.665217391304157","853.3333333333334","476","自己","坚持","Positive","ability","","","","","","","","","","",""
"468","","j","psychophysics","70","249873","0.0-7.0-3.0-0.56","6","4","5","6","5","5","3","4","5","5","5","1","0","0","1","-2","1","0","1","5","5","5","4","5","4","3","4","5","4","5","7","4","4","5","4","3","5","4","4","2","2","1","5","2","3","1","6","5","1","1","2","5","1","2","5","2","4","5","2","1","3","2","1","1","4","3","6","3","7","2","2","3","1","1","1","2","3","1","2","746367844434055169","张","587","Female","[""坏我"",""坏她"",""好她"",""好我""]","[""弱我"",""弱她"",""强她"",""强我""]","","","","","","","","yes","","","","","","","","","SRET","EW_formal","","key","j","16.670454545454547","853.3333333333334","476","朋友","廉明","Positive","morality","","","","","","","","","","",""
"524","","j","psychophysics","71","251405","0.0-7.0-3.0-0.57","6","4","5","6","5","5","3","4","5","5","5","1","0","0","1","-2","1","0","1","5","5","5","4","5","4","3","4","5","4","5","7","4","4","5","4","3","5","4","4","2","2","1","5","2","3","1","6","5","1","1","2","5","1","2","5","2","4","5","2","1","3","2","1","1","4","3","6","3","7","2","2","3","1","1","1","2","3","1","2","746367844434055169","张","587","Female","[""坏我"",""坏她"",""好她"",""好我""]","[""弱我"",""弱她"",""强她"",""强我""]","","","","","","","","yes","","","","","","","","","SRET","EW_formal","","key","j","16.66593406593381","853.3333333333334","476","朋友","骁勇","Positive","ability","","","","","","","","","","",""
"482","","j","psychophysics","72","252885","0.0-7.0-3.0-0.58","6","4","5","6","5","5","3","4","5","5","5","1","0","0","1","-2","1","0","1","5","5","5","4","5","4","3","4","5","4","5","7","4","4","5","4","3","5","4","4","2","2","1","5","2","3","1","6","5","1","1","2","5","1","2","5","2","4","5","2","1","3","2","1","1","4","3","6","3","7","2","2","3","1","1","1","2","3","1","2","746367844434055169","张","587","Female","[""坏我"",""坏她"",""好她"",""好我""]","[""弱我"",""弱她"",""强她"",""强我""]","","","","","","","","yes","","","","","","","","","SRET","EW_formal","","key","j","16.665909090909157","853.3333333333334","476","自己","义气","Positive","morality","","","","","","","","","","",""
"523","","j","psychophysics","73","254414","0.0-7.0-3.0-0.59","6","4","5","6","5","5","3","4","5","5","5","1","0","0","1","-2","1","0","1","5","5","5","4","5","4","3","4","5","4","5","7","4","4","5","4","3","5","4","4","2","2","1","5","2","3","1","6","5","1","1","2","5","1","2","5","2","4","5","2","1","3","2","1","1","4","3","6","3","7","2","2","3","1","1","1","2","3","1","2","746367844434055169","张","587","Female","[""坏我"",""坏她"",""好她"",""好我""]","[""弱我"",""弱她"",""强她"",""强我""]","","","","","","","","yes","","","","","","","","","SRET","EW_formal","","key","j","16.666666666666668","853.3333333333334","476","朋友","专注","Positive","ability","","","","","","","","","","",""
"650","","f","psychophysics","74","256066","0.0-7.0-3.0-0.60","6","4","5","6","5","5","3","4","5","5","5","1","0","0","1","-2","1","0","1","5","5","5","4","5","4","3","4","5","4","5","7","4","4","5","4","3","5","4","4","2","2","1","5","2","3","1","6","5","1","1","2","5","1","2","5","2","4","5","2","1","3","2","1","1","4","3","6","3","7","2","2","3","1","1","1","2","3","1","2","746367844434055169","张","587","Female","[""坏我"",""坏她"",""好她"",""好我""]","[""弱我"",""弱她"",""强她"",""强我""]","","","","","","","","no","","","","","","","","","SRET","EW_formal","","key","f","16.6693877551021","853.3333333333334","476","自己","无为","Negative","ability","","","","","","","","","","",""
"484","","j","psychophysics","75","257554","0.0-7.0-3.0-0.61","6","4","5","6","5","5","3","4","5","5","5","1","0","0","1","-2","1","0","1","5","5","5","4","5","4","3","4","5","4","5","7","4","4","5","4","3","5","4","4","2","2","1","5","2","3","1","6","5","1","1","2","5","1","2","5","2","4","5","2","1","3","2","1","1","4","3","6","3","7","2","2","3","1","1","1","2","3","1","2","746367844434055169","张","587","Female","[""坏我"",""坏她"",""好她"",""好我""]","[""弱我"",""弱她"",""强她"",""强我""]","","","","","","","","yes","","","","","","","","","SRET","EW_formal","","key","j","16.667415730337012","853.3333333333334","476","自己","文明","Positive","morality","","","","","","","","","","",""
"1304","","j","psychophysics","76","259870","0.0-7.0-3.0-0.62","6","4","5","6","5","5","3","4","5","5","5","1","0","0","1","-2","1","0","1","5","5","5","4","5","4","3","4","5","4","5","7","4","4","5","4","3","5","4","4","2","2","1","5","2","3","1","6","5","1","1","2","5","1","2","5","2","4","5","2","1","3","2","1","1","4","3","6","3","7","2","2","3","1","1","1","2","3","1","2","746367844434055169","张","587","Female","[""坏我"",""坏她"",""好她"",""好我""]","[""弱我"",""弱她"",""强她"",""强我""]","","","","","","","","yes","","","","","","","","","SRET","EW_formal","","key","j","16.67318840579706","853.3333333333334","476","朋友","拖拉","Negative","ability","","","","","","","","","","",""
"618","","j","psychophysics","77","261490","0.0-7.0-3.0-0.63","6","4","5","6","5","5","3","4","5","5","5","1","0","0","1","-2","1","0","1","5","5","5","4","5","4","3","4","5","4","5","7","4","4","5","4","3","5","4","4","2","2","1","5","2","3","1","6","5","1","1","2","5","1","2","5","2","4","5","2","1","3","2","1","1","4","3","6","3","7","2","2","3","1","1","1","2","3","1","2","746367844434055169","张","587","Female","[""坏我"",""坏她"",""好她"",""好我""]","[""弱我"",""弱她"",""强她"",""强我""]","","","","","","","","yes","","","","","","","","","SRET","EW_formal","","key","j","16.666666666666668","853.3333333333334","476","自己","肯干","Positive","ability","","","","","","","","","","",""
"1716","","j","psychophysics","78","264210","0.0-7.0-3.0-0.64","6","4","5","6","5","5","3","4","5","5","5","1","0","0","1","-2","1","0","1","5","5","5","4","5","4","3","4","5","4","5","7","4","4","5","4","3","5","4","4","2","2","1","5","2","3","1","6","5","1","1","2","5","1","2","5","2","4","5","2","1","3","2","1","1","4","3","6","3","7","2","2","3","1","1","1","2","3","1","2","746367844434055169","张","587","Female","[""坏我"",""坏她"",""好她"",""好我""]","[""弱我"",""弱她"",""强她"",""强我""]","","","","","","","","yes","","","","","","","","","SRET","EW_formal","","key","j","16.667901234567974","853.3333333333334","476","朋友","浅薄","Negative","ability","","","","","","","","","","",""
"607","","j","psychophysics","79","265823","0.0-7.0-3.0-0.65","6","4","5","6","5","5","3","4","5","5","5","1","0","0","1","-2","1","0","1","5","5","5","4","5","4","3","4","5","4","5","7","4","4","5","4","3","5","4","4","2","2","1","5","2","3","1","6","5","1","1","2","5","1","2","5","2","4","5","2","1","3","2","1","1","4","3","6","3","7","2","2","3","1","1","1","2","3","1","2","746367844434055169","张","587","Female","[""坏我"",""坏她"",""好她"",""好我""]","[""弱我"",""弱她"",""强她"",""强我""]","","","","","","","","yes","","","","","","","","","SRET","EW_formal","","key","j","16.667708333333092","853.3333333333334","476","自己","勤奋","Positive","ability","","","","","","","","","","",""
"1360","","j","psychophysics","80","268191","0.0-7.0-3.0-0.66","6","4","5","6","5","5","3","4","5","5","5","1","0","0","1","-2","1","0","1","5","5","5","4","5","4","3","4","5","4","5","7","4","4","5","4","3","5","4","4","2","2","1","5","2","3","1","6","5","1","1","2","5","1","2","5","2","4","5","2","1","3","2","1","1","4","3","6","3","7","2","2","3","1","1","1","2","3","1","2","746367844434055169","张","587","Female","[""坏我"",""坏她"",""好她"",""好我""]","[""弱我"",""弱她"",""强她"",""强我""]","","","","","","","","yes","","","","","","","","","SRET","EW_formal","","key","j","16.666666666666668","853.3333333333334","476","自己","愚蠢","Negative","ability","","","","","","","","","","",""
"547","","j","psychophysics","81","269747","0.0-7.0-3.0-0.67","6","4","5","6","5","5","3","4","5","5","5","1","0","0","1","-2","1","0","1","5","5","5","4","5","4","3","4","5","4","5","7","4","4","5","4","3","5","4","4","2","2","1","5","2","3","1","6","5","1","1","2","5","1","2","5","2","4","5","2","1","3","2","1","1","4","3","6","3","7","2","2","3","1","1","1","2","3","1","2","746367844434055169","张","587","Female","[""坏我"",""坏她"",""好她"",""好我""]","[""弱我"",""弱她"",""强她"",""强我""]","","","","","","","","yes","","","","","","","","","SRET","EW_formal","","key","j","16.66630434782596","853.3333333333334","476","朋友","笨蛋","Negative","ability","","","","","","","","","","",""
"510","","j","psychophysics","82","271259","0.0-7.0-3.0-0.68","6","4","5","6","5","5","3","4","5","5","5","1","0","0","1","-2","1","0","1","5","5","5","4","5","4","3","4","5","4","5","7","4","4","5","4","3","5","4","4","2","2","1","5","2","3","1","6","5","1","1","2","5","1","2","5","2","4","5","2","1","3","2","1","1","4","3","6","3","7","2","2","3","1","1","1","2","3","1","2","746367844434055169","张","587","Female","[""坏我"",""坏她"",""好她"",""好我""]","[""弱我"",""弱她"",""强她"",""强我""]","","","","","","","","yes","","","","","","","","","SRET","EW_formal","","key","j","16.667777777778166","853.3333333333334","476","朋友","孝顺","Positive","morality","","","","","","","","","","",""
"860","","f","psychophysics","83","273122","0.0-7.0-3.0-0.69","6","4","5","6","5","5","3","4","5","5","5","1","0","0","1","-2","1","0","1","5","5","5","4","5","4","3","4","5","4","5","7","4","4","5","4","3","5","4","4","2","2","1","5","2","3","1","6","5","1","1","2","5","1","2","5","2","4","5","2","1","3","2","1","1","4","3","6","3","7","2","2","3","1","1","1","2","3","1","2","746367844434055169","张","587","Female","[""坏我"",""坏她"",""好她"",""好我""]","[""弱我"",""弱她"",""强她"",""强我""]","","","","","","","","no","","","","","","","","","SRET","EW_formal","","key","f","16.665765765765975","853.3333333333334","476","自己","不良","Negative","morality","","","","","","","","","","",""
"766","","f","psychophysics","84","274894","0.0-7.0-3.0-0.70","6","4","5","6","5","5","3","4","5","5","5","1","0","0","1","-2","1","0","1","5","5","5","4","5","4","3","4","5","4","5","7","4","4","5","4","3","5","4","4","2","2","1","5","2","3","1","6","5","1","1","2","5","1","2","5","2","4","5","2","1","3","2","1","1","4","3","6","3","7","2","2","3","1","1","1","2","3","1","2","746367844434055169","张","587","Female","[""坏我"",""坏她"",""好她"",""好我""]","[""弱我"",""弱她"",""强她"",""强我""]","","","","","","","","no","","","","","","","","","SRET","EW_formal","","key","f","16.665714285714508","853.3333333333334","476","自己","淫乱","Negative","morality","","","","","","","","","","",""
"482","","j","psychophysics","85","276378","0.0-7.0-3.0-0.71","6","4","5","6","5","5","3","4","5","5","5","1","0","0","1","-2","1","0","1","5","5","5","4","5","4","3","4","5","4","5","7","4","4","5","4","3","5","4","4","2","2","1","5","2","3","1","6","5","1","1","2","5","1","2","5","2","4","5","2","1","3","2","1","1","4","3","6","3","7","2","2","3","1","1","1","2","3","1","2","746367844434055169","张","587","Female","[""坏我"",""坏她"",""好她"",""好我""]","[""弱我"",""弱她"",""强她"",""强我""]","","","","","","","","yes","","","","","","","","","SRET","EW_formal","","key","j","16.667045454545587","853.3333333333334","476","自己","短浅","Negative","ability","","","","","","","","","","",""
"504","","j","psychophysics","86","277887","0.0-7.0-3.0-0.72","6","4","5","6","5","5","3","4","5","5","5","1","0","0","1","-2","1","0","1","5","5","5","4","5","4","3","4","5","4","5","7","4","4","5","4","3","5","4","4","2","2","1","5","2","3","1","6","5","1","1","2","5","1","2","5","2","4","5","2","1","3","2","1","1","4","3","6","3","7","2","2","3","1","1","1","2","3","1","2","746367844434055169","张","587","Female","[""坏我"",""坏她"",""好她"",""好我""]","[""弱我"",""弱她"",""强她"",""强我""]","","","","","","","","yes","","","","","","","","","SRET","EW_formal","","key","j","16.666666666666668","853.3333333333334","476","自己","顶事","Positive","ability","","","","","","","","","","",""
"738","","f","psychophysics","87","279627","0.0-7.0-3.0-0.73","6","4","5","6","5","5","3","4","5","5","5","1","0","0","1","-2","1","0","1","5","5","5","4","5","4","3","4","5","4","5","7","4","4","5","4","3","5","4","4","2","2","1","5","2","3","1","6","5","1","1","2","5","1","2","5","2","4","5","2","1","3","2","1","1","4","3","6","3","7","2","2","3","1","1","1","2","3","1","2","746367844434055169","张","587","Female","[""坏我"",""坏她"",""好她"",""好我""]","[""弱我"",""弱她"",""强她"",""强我""]","","","","","","","","no","","","","","","","","","SRET","EW_formal","","key","f","16.66601941747607","853.3333333333334","476","自己","邪恶","Negative","morality","","","","","","","","","","",""
"450","","j","psychophysics","88","281087","0.0-7.0-3.0-0.74","6","4","5","6","5","5","3","4","5","5","5","1","0","0","1","-2","1","0","1","5","5","5","4","5","4","3","4","5","4","5","7","4","4","5","4","3","5","4","4","2","2","1","5","2","3","1","6","5","1","1","2","5","1","2","5","2","4","5","2","1","3","2","1","1","4","3","6","3","7","2","2","3","1","1","1","2","3","1","2","746367844434055169","张","587","Female","[""坏我"",""坏她"",""好她"",""好我""]","[""弱我"",""弱她"",""强她"",""强我""]","","","","","","","","yes","","","","","","","","","SRET","EW_formal","","key","j","16.667816091953757","853.3333333333334","476","朋友","狡诈","Negative","morality","","","","","","","","","","",""
"568","","f","psychophysics","89","282658","0.0-7.0-3.0-0.75","6","4","5","6","5","5","3","4","5","5","5","1","0","0","1","-2","1","0","1","5","5","5","4","5","4","3","4","5","4","5","7","4","4","5","4","3","5","4","4","2","2","1","5","2","3","1","6","5","1","1","2","5","1","2","5","2","4","5","2","1","3","2","1","1","4","3","6","3","7","2","2","3","1","1","1","2","3","1","2","746367844434055169","张","587","Female","[""坏我"",""坏她"",""好她"",""好我""]","[""弱我"",""弱她"",""强她"",""强我""]","","","","","","","","no","","","","","","","","","SRET","EW_formal","","key","f","16.665591397849088","853.3333333333334","476","自己","不仁","Negative","morality","","","","","","","","","","",""
"606","","f","psychophysics","90","284272","0.0-7.0-3.0-0.76","6","4","5","6","5","5","3","4","5","5","5","1","0","0","1","-2","1","0","1","5","5","5","4","5","4","3","4","5","4","5","7","4","4","5","4","3","5","4","4","2","2","1","5","2","3","1","6","5","1","1","2","5","1","2","5","2","4","5","2","1","3","2","1","1","4","3","6","3","7","2","2","3","1","1","1","2","3","1","2","746367844434055169","张","587","Female","[""坏我"",""坏她"",""好她"",""好我""]","[""弱我"",""弱她"",""强她"",""强我""]","","","","","","","","no","","","","","","","","","SRET","EW_formal","","key","f","16.666666666666668","853.3333333333334","476","自己","狡狯","Negative","morality","","","","","","","","","","",""
"939","","j","psychophysics","91","286212","0.0-7.0-3.0-0.77","6","4","5","6","5","5","3","4","5","5","5","1","0","0","1","-2","1","0","1","5","5","5","4","5","4","3","4","5","4","5","7","4","4","5","4","3","5","4","4","2","2","1","5","2","3","1","6","5","1","1","2","5","1","2","5","2","4","5","2","1","3","2","1","1","4","3","6","3","7","2","2","3","1","1","1","2","3","1","2","746367844434055169","张","587","Female","[""坏我"",""坏她"",""好她"",""好我""]","[""弱我"",""弱她"",""强她"",""强我""]","","","","","","","","yes","","","","","","","","","SRET","EW_formal","","key","j","16.66695652173923","853.3333333333334","476","朋友","慈悲","Positive","morality","","","","","","","","","","",""
"623","","j","psychophysics","92","287838","0.0-7.0-3.0-0.78","6","4","5","6","5","5","3","4","5","5","5","1","0","0","1","-2","1","0","1","5","5","5","4","5","4","3","4","5","4","5","7","4","4","5","4","3","5","4","4","2","2","1","5","2","3","1","6","5","1","1","2","5","1","2","5","2","4","5","2","1","3","2","1","1","4","3","6","3","7","2","2","3","1","1","1","2","3","1","2","746367844434055169","张","587","Female","[""坏我"",""坏她"",""好她"",""好我""]","[""弱我"",""弱她"",""强她"",""强我""]","","","","","","","","yes","","","","","","","","","SRET","EW_formal","","key","j","16.66701030927847","853.3333333333334","476","朋友","无赖","Negative","morality","","","","","","","","","","",""
"814","","j","psychophysics","93","289663","0.0-7.0-3.0-0.79","6","4","5","6","5","5","3","4","5","5","5","1","0","0","1","-2","1","0","1","5","5","5","4","5","4","3","4","5","4","5","7","4","4","5","4","3","5","4","4","2","2","1","5","2","3","1","6","5","1","1","2","5","1","2","5","2","4","5","2","1","3","2","1","1","4","3","6","3","7","2","2","3","1","1","1","2","3","1","2","746367844434055169","张","587","Female","[""坏我"",""坏她"",""好她"",""好我""]","[""弱我"",""弱她"",""强她"",""强我""]","","","","","","","","yes","","","","","","","","","SRET","EW_formal","","key","j","16.669444444444338","853.3333333333334","476","朋友","利己","Negative","morality","","","","","","","","","","",""
"556","","j","psychophysics","94","291221","0.0-7.0-3.0-0.80","6","4","5","6","5","5","3","4","5","5","5","1","0","0","1","-2","1","0","1","5","5","5","4","5","4","3","4","5","4","5","7","4","4","5","4","3","5","4","4","2","2","1","5","2","3","1","6","5","1","1","2","5","1","2","5","2","4","5","2","1","3","2","1","1","4","3","6","3","7","2","2","3","1","1","1","2","3","1","2","746367844434055169","张","587","Female","[""坏我"",""坏她"",""好她"",""好我""]","[""弱我"",""弱她"",""强她"",""强我""]","","","","","","","","yes","","","","","","","","","SRET","EW_formal","","key","j","16.666666666666668","853.3333333333334","476","朋友","清廉","Positive","morality","","","","","","","","","","",""
"736","","j","psychophysics","95","292959","0.0-7.0-3.0-0.81","6","4","5","6","5","5","3","4","5","5","5","1","0","0","1","-2","1","0","1","5","5","5","4","5","4","3","4","5","4","5","7","4","4","5","4","3","5","4","4","2","2","1","5","2","3","1","6","5","1","1","2","5","1","2","5","2","4","5","2","1","3","2","1","1","4","3","6","3","7","2","2","3","1","1","1","2","3","1","2","746367844434055169","张","587","Female","[""坏我"",""坏她"",""好她"",""好我""]","[""弱我"",""弱她"",""强她"",""强我""]","","","","","","","","yes","","","","","","","","","SRET","EW_formal","","key","j","16.66699029126225","853.3333333333334","476","朋友","扎实","Positive","ability","","","","","","","","","","",""
"498","","j","psychophysics","96","294475","0.0-7.0-3.0-0.82","6","4","5","6","5","5","3","4","5","5","5","1","0","0","1","-2","1","0","1","5","5","5","4","5","4","3","4","5","4","5","7","4","4","5","4","3","5","4","4","2","2","1","5","2","3","1","6","5","1","1","2","5","1","2","5","2","4","5","2","1","3","2","1","1","4","3","6","3","7","2","2","3","1","1","1","2","3","1","2","746367844434055169","张","587","Female","[""坏我"",""坏她"",""好她"",""好我""]","[""弱我"",""弱她"",""强她"",""强我""]","","","","","","","","yes","","","","","","","","","SRET","EW_formal","","key","j","16.666666666666668","853.3333333333334","476","朋友","毅力","Positive","ability","","","","","","","","","","",""
"814","","f","psychophysics","97","296299","0.0-7.0-3.0-0.83","6","4","5","6","5","5","3","4","5","5","5","1","0","0","1","-2","1","0","1","5","5","5","4","5","4","3","4","5","4","5","7","4","4","5","4","3","5","4","4","2","2","1","5","2","3","1","6","5","1","1","2","5","1","2","5","2","4","5","2","1","3","2","1","1","4","3","6","3","7","2","2","3","1","1","1","2","3","1","2","746367844434055169","张","587","Female","[""坏我"",""坏她"",""好她"",""好我""]","[""弱我"",""弱她"",""强她"",""强我""]","","","","","","","","no","","","","","","","","","SRET","EW_formal","","key","f","16.666972477064327","853.3333333333334","476","自己","愚痴","Negative","ability","","","","","","","","","","",""
"1024","","f","psychophysics","98","298326","0.0-7.0-3.0-0.84","6","4","5","6","5","5","3","4","5","5","5","1","0","0","1","-2","1","0","1","5","5","5","4","5","4","3","4","5","4","5","7","4","4","5","4","3","5","4","4","2","2","1","5","2","3","1","6","5","1","1","2","5","1","2","5","2","4","5","2","1","3","2","1","1","4","3","6","3","7","2","2","3","1","1","1","2","3","1","2","746367844434055169","张","587","Female","[""坏我"",""坏她"",""好她"",""好我""]","[""弱我"",""弱她"",""强她"",""强我""]","","","","","","","","no","","","","","","","","","SRET","EW_formal","","key","f","16.665000000000386","853.3333333333334","476","朋友","低俗","Negative","morality","","","","","","","","","","",""
"1360","","j","psychophysics","99","300691","0.0-7.0-3.0-0.85","6","4","5","6","5","5","3","4","5","5","5","1","0","0","1","-2","1","0","1","5","5","5","4","5","4","3","4","5","4","5","7","4","4","5","4","3","5","4","4","2","2","1","5","2","3","1","6","5","1","1","2","5","1","2","5","2","4","5","2","1","3","2","1","1","4","3","6","3","7","2","2","3","1","1","1","2","3","1","2","746367844434055169","张","587","Female","[""坏我"",""坏她"",""好她"",""好我""]","[""弱我"",""弱她"",""强她"",""强我""]","","","","","","","","yes","","","","","","","","","SRET","EW_formal","","key","j","16.665957446808676","853.3333333333334","476","自己","缓慢","Negative","ability","","","","","","","","","","",""
"676","","j","psychophysics","100","302371","0.0-7.0-3.0-0.86","6","4","5","6","5","5","3","4","5","5","5","1","0","0","1","-2","1","0","1","5","5","5","4","5","4","3","4","5","4","5","7","4","4","5","4","3","5","4","4","2","2","1","5","2","3","1","6","5","1","1","2","5","1","2","5","2","4","5","2","1","3","2","1","1","4","3","6","3","7","2","2","3","1","1","1","2","3","1","2","746367844434055169","张","587","Female","[""坏我"",""坏她"",""好她"",""好我""]","[""弱我"",""弱她"",""强她"",""强我""]","","","","","","","","yes","","","","","","","","","SRET","EW_formal","","key","j","16.667000000000115","853.3333333333334","476","自己","主见","Positive","ability","","","","","","","","","","",""
"661","","j","psychophysics","101","304035","0.0-7.0-3.0-0.87","6","4","5","6","5","5","3","4","5","5","5","1","0","0","1","-2","1","0","1","5","5","5","4","5","4","3","4","5","4","5","7","4","4","5","4","3","5","4","4","2","2","1","5","2","3","1","6","5","1","1","2","5","1","2","5","2","4","5","2","1","3","2","1","1","4","3","6","3","7","2","2","3","1","1","1","2","3","1","2","746367844434055169","张","587","Female","[""坏我"",""坏她"",""好她"",""好我""]","[""弱我"",""弱她"",""强她"",""强我""]","","","","","","","","yes","","","","","","","","","SRET","EW_formal","","key","j","16.666666666666668","853.3333333333334","476","朋友","素养","Positive","morality","","","","","","","","","","",""
"6524","
    <p><div style='color:white;font-size:35px; line-height:20px;'>计算任务</div></p><br>
    <p><div style='color:red;font-size:25px; line-height:20px;'>接下来，您将看到一些四则运算题，<b>请从键盘选择 0-9 进行反应。</b></div></p>
    <p><div style='color:red;font-size:25px; line-height:20px;'>请尽可能快地进行计算，计算的速度和正确率将影响报酬的发放。</div></p>
    <p><div class='footer' style='color:white;font-size:25px; line-height:20px;'>如果对本实验还有不清楚之处，请立即向实验员咨询。</p><p style='color:white;font-size:25px; line-height:20px;'>如果您明白了规则：</p><p style='color:white;font-size:22px; line-height:20px;'>请按 继续 进入练习</p>
    </div>
    ","0","html-button-response","102","310562","0.0-7.0-4.0","6","4","5","6","5","5","3","4","5","5","5","1","0","0","1","-2","1","0","1","5","5","5","4","5","4","3","4","5","4","5","7","4","4","5","4","3","5","4","4","2","2","1","5","2","3","1","6","5","1","1","2","5","1","2","5","2","4","5","2","1","3","2","1","1","4","3","6","3","7","2","2","3","1","1","1","2","3","1","2","746367844434055169","张","587","Female","[""坏我"",""坏她"",""好她"",""好我""]","[""弱我"",""弱她"",""强她"",""强我""]","","","","","","","","","","","","","","","","","SRET_math","math_instructions","Sun Jan 07 2024 20:33:57 GMT+0800 (中国标准时间)","","","","","","","","","","","","","","","","","","","",""
"2382","","9","psychophysics","103","312950","0.0-7.0-5.0-0.0","6","4","5","6","5","5","3","4","5","5","5","1","0","0","1","-2","1","0","1","5","5","5","4","5","4","3","4","5","4","5","7","4","4","5","4","3","5","4","4","2","2","1","5","2","3","1","6","5","1","1","2","5","1","2","5","2","4","5","2","1","3","2","1","1","4","3","6","3","7","2","2","3","1","1","1","2","3","1","2","746367844434055169","张","587","Female","[""坏我"",""坏她"",""好她"",""好我""]","[""弱我"",""弱她"",""强她"",""强我""]","","","","","","","","9","","","","","","","","","SRET","SRET_math_calculate","","key","9","16.549305555555392","853.3333333333334","476","","","","","30-29= ?","1","0","","","","","","","",""
"2281","","5","psychophysics","104","315235","0.0-7.0-5.0-0.1","6","4","5","6","5","5","3","4","5","5","5","1","0","0","1","-2","1","0","1","5","5","5","4","5","4","3","4","5","4","5","7","4","4","5","4","3","5","4","4","2","2","1","5","2","3","1","6","5","1","1","2","5","1","2","5","2","4","5","2","1","3","2","1","1","4","3","6","3","7","2","2","3","1","1","1","2","3","1","2","746367844434055169","张","587","Female","[""坏我"",""坏她"",""好她"",""好我""]","[""弱我"",""弱她"",""强她"",""强我""]","","","","","","","","5","","","","","","","","","SRET","SRET_math_calculate","","key","5","16.665441176470587","853.3333333333334","476","","","","","9-4= ?","5","1","","","","","","","",""
"3702","","8","psychophysics","105","318939","0.0-7.0-5.0-0.2","6","4","5","6","5","5","3","4","5","5","5","1","0","0","1","-2","1","0","1","5","5","5","4","5","4","3","4","5","4","5","7","4","4","5","4","3","5","4","4","2","2","1","5","2","3","1","6","5","1","1","2","5","1","2","5","2","4","5","2","1","3","2","1","1","4","3","6","3","7","2","2","3","1","1","1","2","3","1","2","746367844434055169","张","587","Female","[""坏我"",""坏她"",""好她"",""好我""]","[""弱我"",""弱她"",""强她"",""强我""]","","","","","","","","8","","","","","","","","","SRET","SRET_math_calculate","","key","8","16.665158371040725","853.3333333333334","476","","","","","11-3= ?","8","1","","","","","","","",""
"2346","","2","psychophysics","106","321287","0.0-7.0-5.0-0.3","6","4","5","6","5","5","3","4","5","5","5","1","0","0","1","-2","1","0","1","5","5","5","4","5","4","3","4","5","4","5","7","4","4","5","4","3","5","4","4","2","2","1","5","2","3","1","6","5","1","1","2","5","1","2","5","2","4","5","2","1","3","2","1","1","4","3","6","3","7","2","2","3","1","1","1","2","3","1","2","746367844434055169","张","587","Female","[""坏我"",""坏她"",""好她"",""好我""]","[""弱我"",""弱她"",""强她"",""强我""]","","","","","","","","2","","","","","","","","","SRET","SRET_math_calculate","","key","2","16.667857142857144","853.3333333333334","476","","","","","90/45= ?","2","1","","","","","","","",""
"2146","","8","psychophysics","107","323435","0.0-7.0-5.0-0.4","6","4","5","6","5","5","3","4","5","5","5","1","0","0","1","-2","1","0","1","5","5","5","4","5","4","3","4","5","4","5","7","4","4","5","4","3","5","4","4","2","2","1","5","2","3","1","6","5","1","1","2","5","1","2","5","2","4","5","2","1","3","2","1","1","4","3","6","3","7","2","2","3","1","1","1","2","3","1","2","746367844434055169","张","587","Female","[""坏我"",""坏她"",""好她"",""好我""]","[""弱我"",""弱她"",""强她"",""强我""]","","","","","","","","8","","","","","","","","","SRET","SRET_math_calculate","","key","8","16.667187500000182","853.3333333333334","476","","","","","4+4= ?","8","1","","","","","","","",""
"2079","","6","psychophysics","108","325516","0.0-7.0-5.0-0.5","6","4","5","6","5","5","3","4","5","5","5","1","0","0","1","-2","1","0","1","5","5","5","4","5","4","3","4","5","4","5","7","4","4","5","4","3","5","4","4","2","2","1","5","2","3","1","6","5","1","1","2","5","1","2","5","2","4","5","2","1","3","2","1","1","4","3","6","3","7","2","2","3","1","1","1","2","3","1","2","746367844434055169","张","587","Female","[""坏我"",""坏她"",""好她"",""好我""]","[""弱我"",""弱她"",""强她"",""强我""]","","","","","","","","6","","","","","","","","","SRET","SRET_math_calculate","","key","6","16.666129032257878","853.3333333333334","476","","","","","9-3= ?","6","1","","","","","","","",""
"1853","","6","psychophysics","109","327371","0.0-7.0-5.0-0.6","6","4","5","6","5","5","3","4","5","5","5","1","0","0","1","-2","1","0","1","5","5","5","4","5","4","3","4","5","4","5","7","4","4","5","4","3","5","4","4","2","2","1","5","2","3","1","6","5","1","1","2","5","1","2","5","2","4","5","2","1","3","2","1","1","4","3","6","3","7","2","2","3","1","1","1","2","3","1","2","746367844434055169","张","587","Female","[""坏我"",""坏她"",""好她"",""好我""]","[""弱我"",""弱她"",""强她"",""强我""]","","","","","","","","6","","","","","","","","","SRET","SRET_math_calculate","","key","6","16.66545454545412","853.3333333333334","476","","","","","5+1= ?","6","1","","","","","","","",""
"2257","","9","psychophysics","110","329631","0.0-7.0-5.0-0.7","6","4","5","6","5","5","3","4","5","5","5","1","0","0","1","-2","1","0","1","5","5","5","4","5","4","3","4","5","4","5","7","4","4","5","4","3","5","4","4","2","2","1","5","2","3","1","6","5","1","1","2","5","1","2","5","2","4","5","2","1","3","2","1","1","4","3","6","3","7","2","2","3","1","1","1","2","3","1","2","746367844434055169","张","587","Female","[""坏我"",""坏她"",""好她"",""好我""]","[""弱我"",""弱她"",""强她"",""强我""]","","","","","","","","9","","","","","","","","","SRET","SRET_math_calculate","","key","9","16.666666666666668","853.3333333333334","476","","","","","1+8= ?","9","1","","","","","","","",""
"1955","","9","psychophysics","111","331589","0.0-7.0-5.0-0.8","6","4","5","6","5","5","3","4","5","5","5","1","0","0","1","-2","1","0","1","5","5","5","4","5","4","3","4","5","4","5","7","4","4","5","4","3","5","4","4","2","2","1","5","2","3","1","6","5","1","1","2","5","1","2","5","2","4","5","2","1","3","2","1","1","4","3","6","3","7","2","2","3","1","1","1","2","3","1","2","746367844434055169","张","587","Female","[""坏我"",""坏她"",""好她"",""好我""]","[""弱我"",""弱她"",""强她"",""强我""]","","","","","","","","9","","","","","","","","","SRET","SRET_math_calculate","","key","9","16.664655172413593","853.3333333333334","476","","","","","7+2= ?","9","1","","","","","","","",""
"2287","","7","psychophysics","112","333879","0.0-7.0-5.0-0.9","6","4","5","6","5","5","3","4","5","5","5","1","0","0","1","-2","1","0","1","5","5","5","4","5","4","3","4","5","4","5","7","4","4","5","4","3","5","4","4","2","2","1","5","2","3","1","6","5","1","1","2","5","1","2","5","2","4","5","2","1","3","2","1","1","4","3","6","3","7","2","2","3","1","1","1","2","3","1","2","746367844434055169","张","587","Female","[""坏我"",""坏她"",""好她"",""好我""]","[""弱我"",""弱她"",""强她"",""强我""]","","","","","","","","7","","","","","","","","","SRET","SRET_math_calculate","","key","7","16.666176470588493","853.3333333333334","476","","","","","21/3= ? ","7","1","","","","","","","",""
"1876","","7","psychophysics","113","335759","0.0-7.0-5.0-0.10","6","4","5","6","5","5","3","4","5","5","5","1","0","0","1","-2","1","0","1","5","5","5","4","5","4","3","4","5","4","5","7","4","4","5","4","3","5","4","4","2","2","1","5","2","3","1","6","5","1","1","2","5","1","2","5","2","4","5","2","1","3","2","1","1","4","3","6","3","7","2","2","3","1","1","1","2","3","1","2","746367844434055169","张","587","Female","[""坏我"",""坏她"",""好她"",""好我""]","[""弱我"",""弱她"",""强她"",""强我""]","","","","","","","","7","","","","","","","","","SRET","SRET_math_calculate","","key","7","16.66696428571387","853.3333333333334","476","","","","","4+3= ?","7","1","","","","","","","",""
"2161","","6","psychophysics","114","337923","0.0-7.0-5.0-0.11","6","4","5","6","5","5","3","4","5","5","5","1","0","0","1","-2","1","0","1","5","5","5","4","5","4","3","4","5","4","5","7","4","4","5","4","3","5","4","4","2","2","1","5","2","3","1","6","5","1","1","2","5","1","2","5","2","4","5","2","1","3","2","1","1","4","3","6","3","7","2","2","3","1","1","1","2","3","1","2","746367844434055169","张","587","Female","[""坏我"",""坏她"",""好她"",""好我""]","[""弱我"",""弱她"",""强她"",""强我""]","","","","","","","","6","","","","","","","","","SRET","SRET_math_calculate","","key","6","16.665891472867948","853.3333333333334","476","","","","","2+4= ?","6","1","","","","","","","",""
"2409","","1","psychophysics","115","340334","0.0-7.0-5.0-0.12","6","4","5","6","5","5","3","4","5","5","5","1","0","0","1","-2","1","0","1","5","5","5","4","5","4","3","4","5","4","5","7","4","4","5","4","3","5","4","4","2","2","1","5","2","3","1","6","5","1","1","2","5","1","2","5","2","4","5","2","1","3","2","1","1","4","3","6","3","7","2","2","3","1","1","1","2","3","1","2","746367844434055169","张","587","Female","[""坏我"",""坏她"",""好她"",""好我""]","[""弱我"",""弱她"",""强她"",""强我""]","","","","","","","","1","","","","","","","","","SRET","SRET_math_calculate","","key","1","16.666666666666668","853.3333333333334","476","","","","","9-8= ?","1","1","","","","","","","",""
"2151","","7","psychophysics","116","342487","0.0-7.0-5.0-0.13","6","4","5","6","5","5","3","4","5","5","5","1","0","0","1","-2","1","0","1","5","5","5","4","5","4","3","4","5","4","5","7","4","4","5","4","3","5","4","4","2","2","1","5","2","3","1","6","5","1","1","2","5","1","2","5","2","4","5","2","1","3","2","1","1","4","3","6","3","7","2","2","3","1","1","1","2","3","1","2","746367844434055169","张","587","Female","[""坏我"",""坏她"",""好她"",""好我""]","[""弱我"",""弱她"",""强她"",""强我""]","","","","","","","","7","","","","","","","","","SRET","SRET_math_calculate","","key","7","16.665624999999636","853.3333333333334","476","","","","","8-1= ?","7","1","","","","","","","",""
"2004","","9","psychophysics","117","344494","0.0-7.0-5.0-0.14","6","4","5","6","5","5","3","4","5","5","5","1","0","0","1","-2","1","0","1","5","5","5","4","5","4","3","4","5","4","5","7","4","4","5","4","3","5","4","4","2","2","1","5","2","3","1","6","5","1","1","2","5","1","2","5","2","4","5","2","1","3","2","1","1","4","3","6","3","7","2","2","3","1","1","1","2","3","1","2","746367844434055169","张","587","Female","[""坏我"",""坏她"",""好她"",""好我""]","[""弱我"",""弱她"",""强她"",""强我""]","","","","","","","","9","","","","","","","","","SRET","SRET_math_calculate","","key","9","16.6672268907565","853.3333333333334","476","","","","","2+7= ?","9","1","","","","","","","",""
"2188","","2","psychophysics","118","346683","0.0-7.0-5.0-0.15","6","4","5","6","5","5","3","4","5","5","5","1","0","0","1","-2","1","0","1","5","5","5","4","5","4","3","4","5","4","5","7","4","4","5","4","3","5","4","4","2","2","1","5","2","3","1","6","5","1","1","2","5","1","2","5","2","4","5","2","1","3","2","1","1","4","3","6","3","7","2","2","3","1","1","1","2","3","1","2","746367844434055169","张","587","Female","[""坏我"",""坏她"",""好她"",""好我""]","[""弱我"",""弱她"",""强她"",""强我""]","","","","","","","","2","","","","","","","","","SRET","SRET_math_calculate","","key","2","16.666412213740813","853.3333333333334","476","","","","","18/9= ?","2","1","","","","","","","",""
"2038","","7","psychophysics","119","348724","0.0-7.0-5.0-0.16","6","4","5","6","5","5","3","4","5","5","5","1","0","0","1","-2","1","0","1","5","5","5","4","5","4","3","4","5","4","5","7","4","4","5","4","3","5","4","4","2","2","1","5","2","3","1","6","5","1","1","2","5","1","2","5","2","4","5","2","1","3","2","1","1","4","3","6","3","7","2","2","3","1","1","1","2","3","1","2","746367844434055169","张","587","Female","[""坏我"",""坏她"",""好她"",""好我""]","[""弱我"",""弱她"",""强她"",""强我""]","","","","","","","","7","","","","","","","","","SRET","SRET_math_calculate","","key","7","16.666942148760427","853.3333333333334","476","","","","","6+1= ?","7","1","","","","","","","",""
"2129","","6","psychophysics","120","350855","0.0-7.0-5.0-0.17","6","4","5","6","5","5","3","4","5","5","5","1","0","0","1","-2","1","0","1","5","5","5","4","5","4","3","4","5","4","5","7","4","4","5","4","3","5","4","4","2","2","1","5","2","3","1","6","5","1","1","2","5","1","2","5","2","4","5","2","1","3","2","1","1","4","3","6","3","7","2","2","3","1","1","1","2","3","1","2","746367844434055169","张","587","Female","[""坏我"",""坏她"",""好她"",""好我""]","[""弱我"",""弱她"",""强她"",""强我""]","","","","","","","","6","","","","","","","","","SRET","SRET_math_calculate","","key","6","16.665354330708663","853.3333333333334","476","","","","","3*2= ?","6","1","","","","","","","",""
"2033","","7","psychophysics","121","352891","0.0-7.0-5.0-0.18","6","4","5","6","5","5","3","4","5","5","5","1","0","0","1","-2","1","0","1","5","5","5","4","5","4","3","4","5","4","5","7","4","4","5","4","3","5","4","4","2","2","1","5","2","3","1","6","5","1","1","2","5","1","2","5","2","4","5","2","1","3","2","1","1","4","3","6","3","7","2","2","3","1","1","1","2","3","1","2","746367844434055169","张","587","Female","[""坏我"",""坏她"",""好她"",""好我""]","[""弱我"",""弱她"",""强她"",""强我""]","","","","","","","","7","","","","","","","","","SRET","SRET_math_calculate","","key","7","16.667768595041228","853.3333333333334","476","","","","","2+5= ?","7","1","","","","","","","",""
"2474","","7","psychophysics","122","355367","0.0-7.0-5.0-0.19","6","4","5","6","5","5","3","4","5","5","5","1","0","0","1","-2","1","0","1","5","5","5","4","5","4","3","4","5","4","5","7","4","4","5","4","3","5","4","4","2","2","1","5","2","3","1","6","5","1","1","2","5","1","2","5","2","4","5","2","1","3","2","1","1","4","3","6","3","7","2","2","3","1","1","1","2","3","1","2","746367844434055169","张","587","Female","[""坏我"",""坏她"",""好她"",""好我""]","[""弱我"",""弱她"",""强她"",""强我""]","","","","","","","","7","","","","","","","","","SRET","SRET_math_calculate","","key","7","16.66689189189197","853.3333333333334","476","","","","","12-5= ?","7","1","","","","","","","",""
"2054","","5","psychophysics","123","357423","0.0-7.0-5.0-0.20","6","4","5","6","5","5","3","4","5","5","5","1","0","0","1","-2","1","0","1","5","5","5","4","5","4","3","4","5","4","5","7","4","4","5","4","3","5","4","4","2","2","1","5","2","3","1","6","5","1","1","2","5","1","2","5","2","4","5","2","1","3","2","1","1","4","3","6","3","7","2","2","3","1","1","1","2","3","1","2","746367844434055169","张","587","Female","[""坏我"",""坏她"",""好她"",""好我""]","[""弱我"",""弱她"",""强她"",""强我""]","","","","","","","","5","","","","","","","","","SRET","SRET_math_calculate","","key","5","16.6655737704919","853.3333333333334","476","","","","","4+1= ?","5","1","","","","","","","",""
"2216","","6","psychophysics","124","359641","0.0-7.0-5.0-0.21","6","4","5","6","5","5","3","4","5","5","5","1","0","0","1","-2","1","0","1","5","5","5","4","5","4","3","4","5","4","5","7","4","4","5","4","3","5","4","4","2","2","1","5","2","3","1","6","5","1","1","2","5","1","2","5","2","4","5","2","1","3","2","1","1","4","3","6","3","7","2","2","3","1","1","1","2","3","1","2","746367844434055169","张","587","Female","[""坏我"",""坏她"",""好她"",""好我""]","[""弱我"",""弱她"",""强她"",""强我""]","","","","","","","","6","","","","","","","","","SRET","SRET_math_calculate","","key","6","16.667424242424506","853.3333333333334","476","","","","","8-2= ?","6","1","","","","","","","",""
"2096","","3","psychophysics","125","361739","0.0-7.0-5.0-0.22","6","4","5","6","5","5","3","4","5","5","5","1","0","0","1","-2","1","0","1","5","5","5","4","5","4","3","4","5","4","5","7","4","4","5","4","3","5","4","4","2","2","1","5","2","3","1","6","5","1","1","2","5","1","2","5","2","4","5","2","1","3","2","1","1","4","3","6","3","7","2","2","3","1","1","1","2","3","1","2","746367844434055169","张","587","Female","[""坏我"",""坏她"",""好她"",""好我""]","[""弱我"",""弱她"",""强她"",""强我""]","","","","","","","","3","","","","","","","","","SRET","SRET_math_calculate","","key","3","16.665600000000094","853.3333333333334","476","","","","","6/2= ?","3","1","","","","","","","",""
"2485","","9","psychophysics","126","364227","0.0-7.0-5.0-0.23","6","4","5","6","5","5","3","4","5","5","5","1","0","0","1","-2","1","0","1","5","5","5","4","5","4","3","4","5","4","5","7","4","4","5","4","3","5","4","4","2","2","1","5","2","3","1","6","5","1","1","2","5","1","2","5","2","4","5","2","1","3","2","1","1","4","3","6","3","7","2","2","3","1","1","1","2","3","1","2","746367844434055169","张","587","Female","[""坏我"",""坏她"",""好她"",""好我""]","[""弱我"",""弱她"",""强她"",""强我""]","","","","","","","","9","","","","","","","","","SRET","SRET_math_calculate","","key","9","16.66621621621606","853.3333333333334","476","","","","","18/2= ?","9","1","","","","","","","",""
"1880","","9","psychophysics","127","366111","0.0-7.0-5.0-0.24","6","4","5","6","5","5","3","4","5","5","5","1","0","0","1","-2","1","0","1","5","5","5","4","5","4","3","4","5","4","5","7","4","4","5","4","3","5","4","4","2","2","1","5","2","3","1","6","5","1","1","2","5","1","2","5","2","4","5","2","1","3","2","1","1","4","3","6","3","7","2","2","3","1","1","1","2","3","1","2","746367844434055169","张","587","Female","[""坏我"",""坏她"",""好她"",""好我""]","[""弱我"",""弱她"",""强她"",""强我""]","","","","","","","","9","","","","","","","","","SRET","SRET_math_calculate","","key","9","16.66696428571439","853.3333333333334","476","","","","","32-23= ?","9","1","","","","","","","",""
"2582","","2","psychophysics","128","368698","0.0-7.0-5.0-0.25","6","4","5","6","5","5","3","4","5","5","5","1","0","0","1","-2","1","0","1","5","5","5","4","5","4","3","4","5","4","5","7","4","4","5","4","3","5","4","4","2","2","1","5","2","3","1","6","5","1","1","2","5","1","2","5","2","4","5","2","1","3","2","1","1","4","3","6","3","7","2","2","3","1","1","1","2","3","1","2","746367844434055169","张","587","Female","[""坏我"",""坏她"",""好她"",""好我""]","[""弱我"",""弱她"",""强她"",""强我""]","","","","","","","","2","","","","","","","","","SRET","SRET_math_calculate","","key","2","16.667096774193322","853.3333333333334","476","","","","","8-6= ?","2","1","","","","","","","",""
"1874","","3","psychophysics","129","370575","0.0-7.0-5.0-0.26","6","4","5","6","5","5","3","4","5","5","5","1","0","0","1","-2","1","0","1","5","5","5","4","5","4","3","4","5","4","5","7","4","4","5","4","3","5","4","4","2","2","1","5","2","3","1","6","5","1","1","2","5","1","2","5","2","4","5","2","1","3","2","1","1","4","3","6","3","7","2","2","3","1","1","1","2","3","1","2","746367844434055169","张","587","Female","[""坏我"",""坏她"",""好她"",""好我""]","[""弱我"",""弱她"",""强她"",""强我""]","","","","","","","","3","","","","","","","","","SRET","SRET_math_calculate","","key","3","16.666666666666668","853.3333333333334","476","","","","","2+1= ?","3","1","","","","","","","",""
"1981","","8","psychophysics","130","372558","0.0-7.0-5.0-0.27","6","4","5","6","5","5","3","4","5","5","5","1","0","0","1","-2","1","0","1","5","5","5","4","5","4","3","4","5","4","5","7","4","4","5","4","3","5","4","4","2","2","1","5","2","3","1","6","5","1","1","2","5","1","2","5","2","4","5","2","1","3","2","1","1","4","3","6","3","7","2","2","3","1","1","1","2","3","1","2","746367844434055169","张","587","Female","[""坏我"",""坏她"",""好她"",""好我""]","[""弱我"",""弱她"",""强她"",""强我""]","","","","","","","","8","","","","","","","","","SRET","SRET_math_calculate","","key","8","16.667796610169393","853.3333333333334","476","","","","","3+5= ?","8","1","","","","","","","",""
"2263","","2","psychophysics","131","374826","0.0-7.0-5.0-0.28","6","4","5","6","5","5","3","4","5","5","5","1","0","0","1","-2","1","0","1","5","5","5","4","5","4","3","4","5","4","5","7","4","4","5","4","3","5","4","4","2","2","1","5","2","3","1","6","5","1","1","2","5","1","2","5","2","4","5","2","1","3","2","1","1","4","3","6","3","7","2","2","3","1","1","1","2","3","1","2","746367844434055169","张","587","Female","[""坏我"",""坏她"",""好她"",""好我""]","[""弱我"",""弱她"",""强她"",""强我""]","","","","","","","","2","","","","","","","","","SRET","SRET_math_calculate","","key","2","16.668148148147804","853.3333333333334","476","","","","","3+2= ?","5","0","","","","","","","",""
"41","","5","psychophysics","132","374868","0.0-7.0-5.0-0.29","6","4","5","6","5","5","3","4","5","5","5","1","0","0","1","-2","1","0","1","5","5","5","4","5","4","3","4","5","4","5","7","4","4","5","4","3","5","4","4","2","2","1","5","2","3","1","6","5","1","1","2","5","1","2","5","2","4","5","2","1","3","2","1","1","4","3","6","3","7","2","2","3","1","1","1","2","3","1","2","746367844434055169","张","587","Female","[""坏我"",""坏她"",""好她"",""好我""]","[""弱我"",""弱她"",""强她"",""强我""]","","","","","","","","5","","","","","","","","","SRET","SRET_math_calculate","","key","5","16.60000000000582","853.3333333333334","476","","","","","12-12= ?","0","0","","","","","","","",""
"2455","","3","psychophysics","133","377325","0.0-7.0-5.0-0.30","6","4","5","6","5","5","3","4","5","5","5","1","0","0","1","-2","1","0","1","5","5","5","4","5","4","3","4","5","4","5","7","4","4","5","4","3","5","4","4","2","2","1","5","2","3","1","6","5","1","1","2","5","1","2","5","2","4","5","2","1","3","2","1","1","4","3","6","3","7","2","2","3","1","1","1","2","3","1","2","746367844434055169","张","587","Female","[""坏我"",""坏她"",""好她"",""好我""]","[""弱我"",""弱她"",""强她"",""强我""]","","","","","","","","3","","","","","","","","","SRET","SRET_math_calculate","","key","3","16.665753424657613","853.3333333333334","476","","","","","21/7=  ?","3","1","","","","","","","",""
"2109","","8","psychophysics","134","379437","0.0-7.0-5.0-0.31","6","4","5","6","5","5","3","4","5","5","5","1","0","0","1","-2","1","0","1","5","5","5","4","5","4","3","4","5","4","5","7","4","4","5","4","3","5","4","4","2","2","1","5","2","3","1","6","5","1","1","2","5","1","2","5","2","4","5","2","1","3","2","1","1","4","3","6","3","7","2","2","3","1","1","1","2","3","1","2","746367844434055169","张","587","Female","[""坏我"",""坏她"",""好她"",""好我""]","[""弱我"",""弱她"",""强她"",""强我""]","","","","","","","","8","","","","","","","","","SRET","SRET_math_calculate","","key","8","16.666666666666668","853.3333333333334","476","","","","","6+2= ?","8","1","","","","","","","",""
"2214","","3","psychophysics","135","381653","0.0-7.0-5.0-0.32","6","4","5","6","5","5","3","4","5","5","5","1","0","0","1","-2","1","0","1","5","5","5","4","5","4","3","4","5","4","5","7","4","4","5","4","3","5","4","4","2","2","1","5","2","3","1","6","5","1","1","2","5","1","2","5","2","4","5","2","1","3","2","1","1","4","3","6","3","7","2","2","3","1","1","1","2","3","1","2","746367844434055169","张","587","Female","[""坏我"",""坏她"",""好她"",""好我""]","[""弱我"",""弱她"",""强她"",""强我""]","","","","","","","","3","","","","","","","","","SRET","SRET_math_calculate","","key","3","16.666666666666668","853.3333333333334","476","","","","","9/3= ?","3","1","","","","","","","",""
"4214","","5","psychophysics","136","385869","0.0-7.0-5.0-0.33","6","4","5","6","5","5","3","4","5","5","5","1","0","0","1","-2","1","0","1","5","5","5","4","5","4","3","4","5","4","5","7","4","4","5","4","3","5","4","4","2","2","1","5","2","3","1","6","5","1","1","2","5","1","2","5","2","4","5","2","1","3","2","1","1","4","3","6","3","7","2","2","3","1","1","1","2","3","1","2","746367844434055169","张","587","Female","[""坏我"",""坏她"",""好她"",""好我""]","[""弱我"",""弱她"",""强她"",""强我""]","","","","","","","","5","","","","","","","","","SRET","SRET_math_calculate","","key","5","16.666666666666668","853.3333333333334","476","","","","","12-7= ?","5","1","","","","","","","",""
"2961","","6","psychophysics","137","388832","0.0-7.0-5.0-0.34","6","4","5","6","5","5","3","4","5","5","5","1","0","0","1","-2","1","0","1","5","5","5","4","5","4","3","4","5","4","5","7","4","4","5","4","3","5","4","4","2","2","1","5","2","3","1","6","5","1","1","2","5","1","2","5","2","4","5","2","1","3","2","1","1","4","3","6","3","7","2","2","3","1","1","1","2","3","1","2","746367844434055169","张","587","Female","[""坏我"",""坏她"",""好她"",""好我""]","[""弱我"",""弱她"",""强她"",""强我""]","","","","","","","","6","","","","","","","","","SRET","SRET_math_calculate","","key","6","16.665536723163775","853.3333333333334","476","","","","","11-5= ?","6","1","","","","","","","",""
"2071","","5","psychophysics","138","390905","0.0-7.0-5.0-0.35","6","4","5","6","5","5","3","4","5","5","5","1","0","0","1","-2","1","0","1","5","5","5","4","5","4","3","4","5","4","5","7","4","4","5","4","3","5","4","4","2","2","1","5","2","3","1","6","5","1","1","2","5","1","2","5","2","4","5","2","1","3","2","1","1","4","3","6","3","7","2","2","3","1","1","1","2","3","1","2","746367844434055169","张","587","Female","[""坏我"",""坏她"",""好她"",""好我""]","[""弱我"",""弱她"",""强她"",""强我""]","","","","","","","","5","","","","","","","","","SRET","SRET_math_calculate","","key","5","16.666666666666668","853.3333333333334","476","","","","","2+3= ?","5","1","","","","","","","",""
"2290","","5","psychophysics","139","393198","0.0-7.0-5.0-0.36","6","4","5","6","5","5","3","4","5","5","5","1","0","0","1","-2","1","0","1","5","5","5","4","5","4","3","4","5","4","5","7","4","4","5","4","3","5","4","4","2","2","1","5","2","3","1","6","5","1","1","2","5","1","2","5","2","4","5","2","1","3","2","1","1","4","3","6","3","7","2","2","3","1","1","1","2","3","1","2","746367844434055169","张","587","Female","[""坏我"",""坏她"",""好她"",""好我""]","[""弱我"",""弱她"",""强她"",""强我""]","","","","","","","","5","","","","","","","","","SRET","SRET_math_calculate","","key","5","16.666423357664147","853.3333333333334","476","","","","","16-11= ?","5","1","","","","","","","",""
