"rt","stimulus","response","trial_type","trial_index","time_elapsed","internal_node_id","swb_1","swb_2","swb_3","swb_4","swb_5","LOT_1","LOT_2","LOT_3","LOT_4","LOT_5","LOT_6","IPC_1","IPC_2","IPC_3","IPC_4","IPC_5","IPC_6","IPC_7","IPC_8","MorIden_1","MorIden_2","MorIden_3","MorIden_4","MorIden_5","MorIden_6","MorIden_7","MorIden_8","MorIden_9","MorIden_10","moralSeImag_1","moralSeImag_2","moralSeImag_3","moralSeImag_4","moralSeImag_5","moralSeImag_6","moralSeImag_7","moralSeImag_8","moralSeImag_9","sde_1","sde_2","sde_3","sde_4","sde_5","sde_6","sde_7","sde_8","sde_9","sde_10","trap2","sde_11","sde_12","sde_13","sde_14","sde_15","sde_16","sde_17","sde_18","sde_19","sde_20","IM_1","IM_2","IM_3","IM_4","IM_5","IM_6","IM_7","IM_8","IM_9","IM_10","IM_11","IM_12","IM_13","IM_14","IM_15","IM_16","IM_17","IM_18","IM_19","IM_20","subj_idx","friend_name","ParticipantID","Sex","Word","Word2","value","success","timeout","failed_images","failed_audio","failed_video","user_agent","responses","item_order","radio_event_ids","radio_event_times","key_event_times","mouse_event_times","straightlining","zigzagging","honeypot","task_id","screen_id","time_stamp","response_type","key_press","avg_frame_time","center_x","center_y","person","word","valence","domain","math","correct_response","correct","status","view_history","identity","duration","Image","condition","question_order","trap2_item"
"4475","
   <p><div style='color:white; font-size: 25px'>您好，欢迎参加本次实验。</div></p>
   <p><div style='color:white; font-size: 25px'>为充分保障您的权利，请确保您已经知晓并同意《参与实验同意书》以及《数据公开知情同意书》。</div></p>
   <p><div style='color:white; font-size: 25px'>如果您未见过上述内容，请咨询实验员。</div></p>
   <p style='color:white; font-size: 25px'>如果您选择继续实验，则表示您已经清楚两份知情同意书的内容并同意。</p>
   <p><div style = ""color: pink;font-size:30px;"">请确保您记得day0的实验编号，您将在本次实验输入该编号，若您忘记，请咨询实验员后作答。</div></p>
   <p><div style = ""color:lightblue;font-size:25px;"">请您尽可能认真地作答，我们将依据您在各问卷和按键任务中的作答质量发放报酬。</div></p>
   <p> <div style = ""color: green""><按空格键至下页></div> </p>
   "," ","html-keyboard-response","0","4481","0.0-0.0","4","3","3","3","2","4","3","2","5","5","4","0","1","-1","0","-1","-1","0","0","5","4","5","4","4","4","4","4","4","3","6","7","6","7","6","6","7","6","7","4","3","2","4","4","3","4","3","4","3","1","4","3","5","3","4","4","3","3","2","4","4","4","4","6","3","7","5","5","5","6","5","5","5","6","5","5","4","6","3","5","732534816976932865","刘","137","Female","[""好她"",""坏她"",""坏我"",""好我""]","[""强她"",""弱她"",""弱我"",""强我""]","","","","","","","","","","","","","","","","","","","","","","","","","","","","","","","","","","","","","","",""
"","","","call-function","1","4484","0.0-1.0-0.0","4","3","3","3","2","4","3","2","5","5","4","0","1","-1","0","-1","-1","0","0","5","4","5","4","4","4","4","4","4","3","6","7","6","7","6","6","7","6","7","4","3","2","4","4","3","4","3","4","3","1","4","3","5","3","4","4","3","3","2","4","4","4","4","6","3","7","5","5","5","6","5","5","5","6","5","5","4","6","3","5","732534816976932865","刘","137","Female","[""好她"",""坏她"",""坏我"",""好我""]","[""强她"",""弱她"",""弱我"",""强我""]","","","","","","","","","","","","","","","","","","","","","","","","","","","","","","","","","","","","","","",""
"14081","","[{""name"":""Sex"",""value"":""1""},{""name"":""friend_name"",""value"":""刘""},{""name"":""ParticipantID"",""value"":""137""}]","survey-html-form","2","18566","0.0-1.0-1.0","4","3","3","3","2","4","3","2","5","5","4","0","1","-1","0","-1","-1","0","0","5","4","5","4","4","4","4","4","4","3","6","7","6","7","6","6","7","6","7","4","3","2","4","4","3","4","3","4","3","1","4","3","5","3","4","4","3","3","2","4","4","4","4","6","3","7","5","5","5","6","5","5","5","6","5","5","4","6","3","5","732534816976932865","刘","137","Female","[""好她"",""坏她"",""坏我"",""好我""]","[""强她"",""弱她"",""弱我"",""强我""]","","","","","","","","","","","","","","","","","","","","","","","","","","","","","","","","","","","","","","",""
"","","","preload","3","20354","0.0-2.0","4","3","3","3","2","4","3","2","5","5","4","0","1","-1","0","-1","-1","0","0","5","4","5","4","4","4","4","4","4","3","6","7","6","7","6","6","7","6","7","4","3","2","4","4","3","4","3","4","3","1","4","3","5","3","4","4","3","3","2","4","4","4","4","6","3","7","5","5","5","6","5","5","5","6","5","5","4","6","3","5","732534816976932865","刘","137","Female","[""好她"",""坏她"",""坏我"",""好我""]","[""强她"",""弱她"",""弱我"",""强我""]","","true","false","[]","[]","[]","","","","","","","","","","","","","","","","","","","","","","","","","","","","","","","","",""
"","","","fullscreen","4","21488","0.0-3.0","4","3","3","3","2","4","3","2","5","5","4","0","1","-1","0","-1","-1","0","0","5","4","5","4","4","4","4","4","4","3","6","7","6","7","6","6","7","6","7","4","3","2","4","4","3","4","3","4","3","1","4","3","5","3","4","4","3","3","2","4","4","4","4","6","3","7","5","5","5","6","5","5","5","6","5","5","4","6","3","5","732534816976932865","刘","137","Female","[""好她"",""坏她"",""坏我"",""好我""]","[""强她"",""弱她"",""弱我"",""强我""]","","true","","","","","{}","","","","","","","","","","","","","","","","","","","","","","","","","","","","","","","",""
"16314.200000000012","","{""Q01"":""4"",""Q02"":""3"",""Q03"":""3"",""Q04"":""3"",""Q05"":""2""}","survey-template","5","37807","0.0-4.0","4","3","3","3","2","4","3","2","5","5","4","0","1","-1","0","-1","-1","0","0","5","4","5","4","4","4","4","4","4","3","6","7","6","7","6","6","7","6","7","4","3","2","4","4","3","4","3","4","3","1","4","3","5","3","4","4","3","3","2","4","4","4","4","6","3","7","5","5","5","6","5","5","5","6","5","5","4","6","3","5","732534816976932865","刘","137","Female","[""好她"",""坏她"",""坏我"",""好我""]","[""强她"",""弱她"",""弱我"",""强我""]","","","","","","","","{""Q01"":""4"",""Q02"":""3"",""Q03"":""3"",""Q04"":""3"",""Q05"":""2""}","[0,1,2,3,4]","[""Q01"",""Q02"",""Q03"",""Q04"",""Q05"",""Q01"",""Q05""]","[2313.4000000000233,2825,5465.5,6657.400000000023,10097,11960.700000000012,15457.400000000023]","[]","[2313.4000000000233,2825,4089.2000000000116,5465.5,6009.200000000012,6657.400000000023,8137.299999999988,10097,11017.5,11960.700000000012,15457.400000000023,16313.5]","0.6","0.5","0","","","","","","","","","","","","","","","","","","","","","","",""
"13084.099999999977","","{""Q01"":""4"",""Q02"":""3"",""Q03"":""2"",""Q04"":""5"",""Q05"":""5"",""Q06"":""4""}","survey-template","6","50894","0.0-5.0","4","3","3","3","2","4","3","2","5","5","4","0","1","-1","0","-1","-1","0","0","5","4","5","4","4","4","4","4","4","3","6","7","6","7","6","6","7","6","7","4","3","2","4","4","3","4","3","4","3","1","4","3","5","3","4","4","3","3","2","4","4","4","4","6","3","7","5","5","5","6","5","5","5","6","5","5","4","6","3","5","732534816976932865","刘","137","Female","[""好她"",""坏她"",""坏我"",""好我""]","[""强她"",""弱她"",""弱我"",""强我""]","","","","","","","","{""Q01"":""4"",""Q02"":""3"",""Q03"":""2"",""Q04"":""5"",""Q05"":""5"",""Q06"":""4""}","[0,1,2,3,4,5]","[""Q01"",""Q02"",""Q03"",""Q05"",""Q06"",""Q04""]","[2355.7999999999884,4787.400000000023,6131.700000000012,9571.299999999988,10899.900000000023,12203.599999999977]","[]","[2355.7999999999884,4787.400000000023,6131.700000000012,7875.900000000023,8803.700000000012,9571.299999999988,10899.900000000023,12203.599999999977,13083.599999999977]","0.3333333333333333","0.6","0","","","","","","","","","","","","","","","","","","","","","","",""
"21981.20000000001","","{""Q01"":""0"",""Q02"":""1"",""Q03"":""-1"",""Q04"":""0"",""Q05"":""-1"",""Q06"":""-1"",""Q07"":""0"",""Q08"":""0""}","survey-template","7","72879","0.0-6.0","4","3","3","3","2","4","3","2","5","5","4","0","1","-1","0","-1","-1","0","0","5","4","5","4","4","4","4","4","4","3","6","7","6","7","6","6","7","6","7","4","3","2","4","4","3","4","3","4","3","1","4","3","5","3","4","4","3","3","2","4","4","4","4","6","3","7","5","5","5","6","5","5","5","6","5","5","4","6","3","5","732534816976932865","刘","137","Female","[""好她"",""坏她"",""坏我"",""好我""]","[""强她"",""弱她"",""弱我"",""强我""]","","","","","","","","{""Q01"":""0"",""Q02"":""1"",""Q03"":""-1"",""Q04"":""0"",""Q05"":""-1"",""Q06"":""-1"",""Q07"":""0"",""Q08"":""0""}","[0,1,2,3,4,5,6,7]","[""Q01"",""Q02"",""Q03"",""Q04"",""Q05"",""Q06"",""Q07"",""Q08""]","[4237.100000000035,7581.200000000012,9820.799999999988,11668.399999999965,15013.299999999988,17412.899999999965,19844.79999999999,20868.29999999999]","[]","[3196.7000000000116,4237.100000000035,5565.299999999988,7581.200000000012,9820.799999999988,11668.399999999965,13645.299999999988,15013.299999999988,17412.899999999965,19844.79999999999,20868.29999999999,21980.100000000035]","0.5","0.5714285714285714","0","","","","","","","","","","","","","","","","","","","","","","",""
"15981","
    <p><div style='color:white;font-size:35px; line-height:20px;'>词汇评估任务</div></p><br>
    <p><div style='color:white;font-size:25px; line-height:20px;'>请再次回忆该亲密的朋友，你们至少2年前就认识了，并且最近2年经常见面。</div></p>
    <p><div style='color:white;font-size:25px; line-height:20px;'>在本实验中，您将会看到一些形容词。</div></p>
    <p><div style='color:yellow;font-size:25px; line-height:20px;'>您的任务是判断这些形容词是否符合对您自己或您的朋友的描述。</div></p><p style='font-size:35px'>符合按<span style=""color:lightgreen""> j 键</span>，不符合按<span style=""color:red""> f 键</span></p>","0","html-button-response","8","88862","0.0-7.0-0.0","4","3","3","3","2","4","3","2","5","5","4","0","1","-1","0","-1","-1","0","0","5","4","5","4","4","4","4","4","4","3","6","7","6","7","6","6","7","6","7","4","3","2","4","4","3","4","3","4","3","1","4","3","5","3","4","4","3","3","2","4","4","4","4","6","3","7","5","5","5","6","5","5","5","6","5","5","4","6","3","5","732534816976932865","刘","137","Female","[""好她"",""坏她"",""坏我"",""好我""]","[""强她"",""弱她"",""弱我"",""强我""]","","","","","","","","","","","","","","","","","SRET_EW","EW_instructions","Sun Jan 07 2024 13:43:48 GMT+0800 (中国标准时间)","","","","","","","","","","","","","","","","","","","",""
"1838","","j","psychophysics","9","91703","0.0-7.0-1.0-0.0","4","3","3","3","2","4","3","2","5","5","4","0","1","-1","0","-1","-1","0","0","5","4","5","4","4","4","4","4","4","3","6","7","6","7","6","6","7","6","7","4","3","2","4","4","3","4","3","4","3","1","4","3","5","3","4","4","3","3","2","4","4","4","4","6","3","7","5","5","5","6","5","5","5","6","5","5","4","6","3","5","732534816976932865","刘","137","Female","[""好她"",""坏她"",""坏我"",""好我""]","[""强她"",""弱她"",""弱我"",""强我""]","","","","","","","","yes","","","","","","","","","SRET_EW","EW_practice","","key","j","16.683511764705884","960","536","自己","刻板","Negative","ability","","","","","","","","","","",""
"1035","","f","psychophysics","10","93741","0.0-7.0-1.0-0.1","4","3","3","3","2","4","3","2","5","5","4","0","1","-1","0","-1","-1","0","0","5","4","5","4","4","4","4","4","4","3","6","7","6","7","6","6","7","6","7","4","3","2","4","4","3","4","3","4","3","1","4","3","5","3","4","4","3","3","2","4","4","4","4","6","3","7","5","5","5","6","5","5","5","6","5","5","4","6","3","5","732534816976932865","刘","137","Female","[""好她"",""坏她"",""坏我"",""好我""]","[""强她"",""弱她"",""弱我"",""强我""]","","","","","","","","no","","","","","","","","","SRET_EW","EW_practice","","key","f","16.683074380165305","960","536","自己","严谨","Positive","ability","","","","","","","","","","",""
"1312","","f","psychophysics","11","96055","0.0-7.0-1.0-0.2","4","3","3","3","2","4","3","2","5","5","4","0","1","-1","0","-1","-1","0","0","5","4","5","4","4","4","4","4","4","3","6","7","6","7","6","6","7","6","7","4","3","2","4","4","3","4","3","4","3","1","4","3","5","3","4","4","3","3","2","4","4","4","4","6","3","7","5","5","5","6","5","5","5","6","5","5","4","6","3","5","732534816976932865","刘","137","Female","[""好她"",""坏她"",""坏我"",""好我""]","[""强她"",""弱她"",""弱我"",""强我""]","","","","","","","","no","","","","","","","","","SRET_EW","EW_practice","","key","f","16.68396376811596","960","536","朋友","徇私","Negative","morality","","","","","","","","","","",""
"1325","","j","psychophysics","12","98383","0.0-7.0-1.0-0.3","4","3","3","3","2","4","3","2","5","5","4","0","1","-1","0","-1","-1","0","0","5","4","5","4","4","4","4","4","4","3","6","7","6","7","6","6","7","6","7","4","3","2","4","4","3","4","3","4","3","1","4","3","5","3","4","4","3","3","2","4","4","4","4","6","3","7","5","5","5","6","5","5","5","6","5","5","4","6","3","5","732534816976932865","刘","137","Female","[""好她"",""坏她"",""坏我"",""好我""]","[""强她"",""弱她"",""弱我"",""强我""]","","","","","","","","yes","","","","","","","","","SRET_EW","EW_practice","","key","j","16.68291366906477","960","536","朋友","忠实","Positive","morality","","","","","","","","","","",""
"16973","
    <p><div style='color:white;font-size:35px; line-height:20px;'>请您再次阅读实验要求</div></p><br>
    <p><div style='color:white;font-size:25px; line-height:20px;'>请回忆某一个亲密的朋友，你们至少2年前就认识了，并且最近2年经常见面。</div></p>
    <p><div style='color:white;font-size:25px; line-height:20px;'>在本实验中，您将会看到一些形容词。</div></p>
    <p><div style='color:yellow;font-size:25px; line-height:20px;'>您的任务是判断这些形容词是否符合对您自己或您的朋友的描述。</div></p>
    <p><div class='footer' style='font-size:25px; line-height:20px;'>如果对本实验还有不清楚之处，请立即向实验员咨询。</p><p style='font-size:25px; line-height:20px;'>如果您明白了规则：</p><p style='font-size:22px; line-height:20px;'>请按 继续 进入正式实验</p>
    </div>
    <p style='font-size:35px'>符合按<span style=""color:lightgreen""> j 键</span>，不符合按<span style=""color:red""> f 键</span></p>","0","html-button-response","13","115358","0.0-7.0-2.0","4","3","3","3","2","4","3","2","5","5","4","0","1","-1","0","-1","-1","0","0","5","4","5","4","4","4","4","4","4","3","6","7","6","7","6","6","7","6","7","4","3","2","4","4","3","4","3","4","3","1","4","3","5","3","4","4","3","3","2","4","4","4","4","6","3","7","5","5","5","6","5","5","5","6","5","5","4","6","3","5","732534816976932865","刘","137","Female","[""好她"",""坏她"",""坏我"",""好我""]","[""强她"",""弱她"",""弱我"",""强我""]","","","","","","","","","","","","","","","","","SRET_EW","prac_instructions","Sun Jan 07 2024 13:43:48 GMT+0800 (中国标准时间)","","","","","","","","","","","","","","","","","","","",""
"735","","f","psychophysics","14","117095","0.0-7.0-3.0-0.0","4","3","3","3","2","4","3","2","5","5","4","0","1","-1","0","-1","-1","0","0","5","4","5","4","4","4","4","4","4","3","6","7","6","7","6","6","7","6","7","4","3","2","4","4","3","4","3","4","3","1","4","3","5","3","4","4","3","3","2","4","4","4","4","6","3","7","5","5","5","6","5","5","5","6","5","5","4","6","3","5","732534816976932865","刘","137","Female","[""好她"",""坏她"",""坏我"",""好我""]","[""强她"",""弱她"",""弱我"",""强我""]","","","","","","","","no","","","","","","","","","SRET","EW_formal","","key","f","16.683740384615355","960","536","朋友","迷糊","Negative","ability","","","","","","","","","","",""
"1109","","f","psychophysics","15","119207","0.0-7.0-3.0-0.1","4","3","3","3","2","4","3","2","5","5","4","0","1","-1","0","-1","-1","0","0","5","4","5","4","4","4","4","4","4","3","6","7","6","7","6","6","7","6","7","4","3","2","4","4","3","4","3","4","3","1","4","3","5","3","4","4","3","3","2","4","4","4","4","6","3","7","5","5","5","6","5","5","5","6","5","5","4","6","3","5","732534816976932865","刘","137","Female","[""好她"",""坏她"",""坏我"",""好我""]","[""强她"",""弱她"",""弱我"",""强我""]","","","","","","","","no","","","","","","","","","SRET","EW_formal","","key","f","16.68342063492067","960","536","自己","说谎","Negative","morality","","","","","","","","","","",""
"899","","j","psychophysics","16","121109","0.0-7.0-3.0-0.2","4","3","3","3","2","4","3","2","5","5","4","0","1","-1","0","-1","-1","0","0","5","4","5","4","4","4","4","4","4","3","6","7","6","7","6","6","7","6","7","4","3","2","4","4","3","4","3","4","3","1","4","3","5","3","4","4","3","3","2","4","4","4","4","6","3","7","5","5","5","6","5","5","5","6","5","5","4","6","3","5","732534816976932865","刘","137","Female","[""好她"",""坏她"",""坏我"",""好我""]","[""强她"",""弱她"",""弱我"",""强我""]","","","","","","","","yes","","","","","","","","","SRET","EW_formal","","key","j","16.683575221238993","960","536","朋友","务实","Positive","ability","","","","","","","","","","",""
"745","","j","psychophysics","17","122855","0.0-7.0-3.0-0.3","4","3","3","3","2","4","3","2","5","5","4","0","1","-1","0","-1","-1","0","0","5","4","5","4","4","4","4","4","4","3","6","7","6","7","6","6","7","6","7","4","3","2","4","4","3","4","3","4","3","1","4","3","5","3","4","4","3","3","2","4","4","4","4","6","3","7","5","5","5","6","5","5","5","6","5","5","4","6","3","5","732534816976932865","刘","137","Female","[""好她"",""坏她"",""坏我"",""好我""]","[""强她"",""弱她"",""弱我"",""强我""]","","","","","","","","yes","","","","","","","","","SRET","EW_formal","","key","j","16.684009708737946","960","536","自己","坚贞","Positive","morality","","","","","","","","","","",""
"1014","","f","psychophysics","18","124871","0.0-7.0-3.0-0.4","4","3","3","3","2","4","3","2","5","5","4","0","1","-1","0","-1","-1","0","0","5","4","5","4","4","4","4","4","4","3","6","7","6","7","6","6","7","6","7","4","3","2","4","4","3","4","3","4","3","1","4","3","5","3","4","4","3","3","2","4","4","4","4","6","3","7","5","5","5","6","5","5","5","6","5","5","4","6","3","5","732534816976932865","刘","137","Female","[""好她"",""坏她"",""坏我"",""好我""]","[""强她"",""弱她"",""弱我"",""强我""]","","","","","","","","no","","","","","","","","","SRET","EW_formal","","key","f","16.683266666666775","960","536","朋友","混账","Negative","morality","","","","","","","","","","",""
"1310","","j","psychophysics","19","127183","0.0-7.0-3.0-0.5","4","3","3","3","2","4","3","2","5","5","4","0","1","-1","0","-1","-1","0","0","5","4","5","4","4","4","4","4","4","3","6","7","6","7","6","6","7","6","7","4","3","2","4","4","3","4","3","4","3","1","4","3","5","3","4","4","3","3","2","4","4","4","4","6","3","7","5","5","5","6","5","5","5","6","5","5","4","6","3","5","732534816976932865","刘","137","Female","[""好她"",""坏她"",""坏我"",""好我""]","[""强她"",""弱她"",""弱我"",""强我""]","","","","","","","","yes","","","","","","","","","SRET","EW_formal","","key","j","16.683608695652197","960","536","朋友","骁勇","Positive","ability","","","","","","","","","","",""
"934","","j","psychophysics","20","129119","0.0-7.0-3.0-0.6","4","3","3","3","2","4","3","2","5","5","4","0","1","-1","0","-1","-1","0","0","5","4","5","4","4","4","4","4","4","3","6","7","6","7","6","6","7","6","7","4","3","2","4","4","3","4","3","4","3","1","4","3","5","3","4","4","3","3","2","4","4","4","4","6","3","7","5","5","5","6","5","5","5","6","5","5","4","6","3","5","732534816976932865","刘","137","Female","[""好她"",""坏她"",""坏我"",""好我""]","[""强她"",""弱她"",""弱我"",""强我""]","","","","","","","","yes","","","","","","","","","SRET","EW_formal","","key","j","16.683252173912983","960","536","自己","忠诚","Positive","morality","","","","","","","","","","",""
"909","","f","psychophysics","21","131031","0.0-7.0-3.0-0.7","4","3","3","3","2","4","3","2","5","5","4","0","1","-1","0","-1","-1","0","0","5","4","5","4","4","4","4","4","4","3","6","7","6","7","6","6","7","6","7","4","3","2","4","4","3","4","3","4","3","1","4","3","5","3","4","4","3","3","2","4","4","4","4","6","3","7","5","5","5","6","5","5","5","6","5","5","4","6","3","5","732534816976932865","刘","137","Female","[""好她"",""坏她"",""坏我"",""好我""]","[""强她"",""弱她"",""弱我"",""强我""]","","","","","","","","no","","","","","","","","","SRET","EW_formal","","key","f","16.68320353982318","960","536","朋友","不良","Negative","morality","","","","","","","","","","",""
"945","","f","psychophysics","22","132982","0.0-7.0-3.0-0.8","4","3","3","3","2","4","3","2","5","5","4","0","1","-1","0","-1","-1","0","0","5","4","5","4","4","4","4","4","4","3","6","7","6","7","6","6","7","6","7","4","3","2","4","4","3","4","3","4","3","1","4","3","5","3","4","4","3","3","2","4","4","4","4","6","3","7","5","5","5","6","5","5","5","6","5","5","4","6","3","5","732534816976932865","刘","137","Female","[""好她"",""坏她"",""坏我"",""好我""]","[""强她"",""弱她"",""弱我"",""强我""]","","","","","","","","no","","","","","","","","","SRET","EW_formal","","key","f","16.683172413793038","960","536","朋友","顶事","Positive","ability","","","","","","","","","","",""
"1219","","f","psychophysics","23","135202","0.0-7.0-3.0-0.9","4","3","3","3","2","4","3","2","5","5","4","0","1","-1","0","-1","-1","0","0","5","4","5","4","4","4","4","4","4","3","6","7","6","7","6","6","7","6","7","4","3","2","4","4","3","4","3","4","3","1","4","3","5","3","4","4","3","3","2","4","4","4","4","6","3","7","5","5","5","6","5","5","5","6","5","5","4","6","3","5","732534816976932865","刘","137","Female","[""好她"",""坏她"",""坏我"",""好我""]","[""强她"",""弱她"",""弱我"",""强我""]","","","","","","","","no","","","","","","","","","SRET","EW_formal","","key","f","16.684272727272678","960","536","朋友","逞能","Negative","ability","","","","","","","","","","",""
"1601","","j","psychophysics","24","137807","0.0-7.0-3.0-0.10","4","3","3","3","2","4","3","2","5","5","4","0","1","-1","0","-1","-1","0","0","5","4","5","4","4","4","4","4","4","3","6","7","6","7","6","6","7","6","7","4","3","2","4","4","3","4","3","4","3","1","4","3","5","3","4","4","3","3","2","4","4","4","4","6","3","7","5","5","5","6","5","5","5","6","5","5","4","6","3","5","732534816976932865","刘","137","Female","[""好她"",""坏她"",""坏我"",""好我""]","[""强她"",""弱她"",""弱我"",""强我""]","","","","","","","","yes","","","","","","","","","SRET","EW_formal","","key","j","16.683448717948824","960","536","自己","逞强","Negative","ability","","","","","","","","","","",""
"1333","","j","psychophysics","25","140143","0.0-7.0-3.0-0.11","4","3","3","3","2","4","3","2","5","5","4","0","1","-1","0","-1","-1","0","0","5","4","5","4","4","4","4","4","4","3","6","7","6","7","6","6","7","6","7","4","3","2","4","4","3","4","3","4","3","1","4","3","5","3","4","4","3","3","2","4","4","4","4","6","3","7","5","5","5","6","5","5","5","6","5","5","4","6","3","5","732534816976932865","刘","137","Female","[""好她"",""坏她"",""坏我"",""好我""]","[""强她"",""弱她"",""弱我"",""强我""]","","","","","","","","yes","","","","","","","","","SRET","EW_formal","","key","j","16.68367625899293","960","536","自己","庸碌","Negative","ability","","","","","","","","","","",""
"1237","","f","psychophysics","26","142382","0.0-7.0-3.0-0.12","4","3","3","3","2","4","3","2","5","5","4","0","1","-1","0","-1","-1","0","0","5","4","5","4","4","4","4","4","4","3","6","7","6","7","6","6","7","6","7","4","3","2","4","4","3","4","3","4","3","1","4","3","5","3","4","4","3","3","2","4","4","4","4","6","3","7","5","5","5","6","5","5","5","6","5","5","4","6","3","5","732534816976932865","刘","137","Female","[""好她"",""坏她"",""坏我"",""好我""]","[""强她"",""弱她"",""弱我"",""强我""]","","","","","","","","no","","","","","","","","","SRET","EW_formal","","key","f","16.683067669172917","960","536","朋友","愚钝","Negative","ability","","","","","","","","","","",""
"895","","f","psychophysics","27","144278","0.0-7.0-3.0-0.13","4","3","3","3","2","4","3","2","5","5","4","0","1","-1","0","-1","-1","0","0","5","4","5","4","4","4","4","4","4","3","6","7","6","7","6","6","7","6","7","4","3","2","4","4","3","4","3","4","3","1","4","3","5","3","4","4","3","3","2","4","4","4","4","6","3","7","5","5","5","6","5","5","5","6","5","5","4","6","3","5","732534816976932865","刘","137","Female","[""好她"",""坏她"",""坏我"",""好我""]","[""强她"",""弱她"",""弱我"",""强我""]","","","","","","","","no","","","","","","","","","SRET","EW_formal","","key","f","16.683669642857108","960","536","朋友","贪污","Negative","morality","","","","","","","","","","",""
"1068","","j","psychophysics","28","146351","0.0-7.0-3.0-0.14","4","3","3","3","2","4","3","2","5","5","4","0","1","-1","0","-1","-1","0","0","5","4","5","4","4","4","4","4","4","3","6","7","6","7","6","6","7","6","7","4","3","2","4","4","3","4","3","4","3","1","4","3","5","3","4","4","3","3","2","4","4","4","4","6","3","7","5","5","5","6","5","5","5","6","5","5","4","6","3","5","732534816976932865","刘","137","Female","[""好她"",""坏她"",""坏我"",""好我""]","[""强她"",""弱她"",""弱我"",""强我""]","","","","","","","","yes","","","","","","","","","SRET","EW_formal","","key","j","16.684024193548296","960","536","朋友","高洁","Positive","morality","","","","","","","","","","",""
"870","","j","psychophysics","29","148224","0.0-7.0-3.0-0.15","4","3","3","3","2","4","3","2","5","5","4","0","1","-1","0","-1","-1","0","0","5","4","5","4","4","4","4","4","4","3","6","7","6","7","6","6","7","6","7","4","3","2","4","4","3","4","3","4","3","1","4","3","5","3","4","4","3","3","2","4","4","4","4","6","3","7","5","5","5","6","5","5","5","6","5","5","4","6","3","5","732534816976932865","刘","137","Female","[""好她"",""坏她"",""坏我"",""好我""]","[""强她"",""弱她"",""弱我"",""强我""]","","","","","","","","yes","","","","","","","","","SRET","EW_formal","","key","j","16.68363963963982","960","536","朋友","义气","Positive","morality","","","","","","","","","","",""
"1253","","f","psychophysics","30","150479","0.0-7.0-3.0-0.16","4","3","3","3","2","4","3","2","5","5","4","0","1","-1","0","-1","-1","0","0","5","4","5","4","4","4","4","4","4","3","6","7","6","7","6","6","7","6","7","4","3","2","4","4","3","4","3","4","3","1","4","3","5","3","4","4","3","3","2","4","4","4","4","6","3","7","5","5","5","6","5","5","5","6","5","5","4","6","3","5","732534816976932865","刘","137","Female","[""好她"",""坏她"",""坏我"",""好我""]","[""强她"",""弱她"",""弱我"",""强我""]","","","","","","","","no","","","","","","","","","SRET","EW_formal","","key","f","16.68356716417909","960","536","自己","伪善","Negative","morality","","","","","","","","","","",""
"1381","","j","psychophysics","31","152862","0.0-7.0-3.0-0.17","4","3","3","3","2","4","3","2","5","5","4","0","1","-1","0","-1","-1","0","0","5","4","5","4","4","4","4","4","4","3","6","7","6","7","6","6","7","6","7","4","3","2","4","4","3","4","3","4","3","1","4","3","5","3","4","4","3","3","2","4","4","4","4","6","3","7","5","5","5","6","5","5","5","6","5","5","4","6","3","5","732534816976932865","刘","137","Female","[""好她"",""坏她"",""坏我"",""好我""]","[""强她"",""弱她"",""弱我"",""强我""]","","","","","","","","yes","","","","","","","","","SRET","EW_formal","","key","j","16.80134751773043","960","536","朋友","努力","Positive","ability","","","","","","","","","","",""
"815","","j","psychophysics","32","154679","0.0-7.0-3.0-0.18","4","3","3","3","2","4","3","2","5","5","4","0","1","-1","0","-1","-1","0","0","5","4","5","4","4","4","4","4","4","3","6","7","6","7","6","6","7","6","7","4","3","2","4","4","3","4","3","4","3","1","4","3","5","3","4","4","3","3","2","4","4","4","4","6","3","7","5","5","5","6","5","5","5","6","5","5","4","6","3","5","732534816976932865","刘","137","Female","[""好她"",""坏她"",""坏我"",""好我""]","[""强她"",""弱她"",""弱我"",""强我""]","","","","","","","","yes","","","","","","","","","SRET","EW_formal","","key","j","16.684120370370188","960","536","朋友","忠义","Positive","morality","","","","","","","","","","",""
"764","","j","psychophysics","33","156446","0.0-7.0-3.0-0.19","4","3","3","3","2","4","3","2","5","5","4","0","1","-1","0","-1","-1","0","0","5","4","5","4","4","4","4","4","4","3","6","7","6","7","6","6","7","6","7","4","3","2","4","4","3","4","3","4","3","1","4","3","5","3","4","4","3","3","2","4","4","4","4","6","3","7","5","5","5","6","5","5","5","6","5","5","4","6","3","5","732534816976932865","刘","137","Female","[""好她"",""坏她"",""坏我"",""好我""]","[""强她"",""弱她"",""弱我"",""强我""]","","","","","","","","yes","","","","","","","","","SRET","EW_formal","","key","j","16.683228571428586","960","536","自己","精干","Positive","ability","","","","","","","","","","",""
"1048","","f","psychophysics","34","158494","0.0-7.0-3.0-0.20","4","3","3","3","2","4","3","2","5","5","4","0","1","-1","0","-1","-1","0","0","5","4","5","4","4","4","4","4","4","3","6","7","6","7","6","6","7","6","7","4","3","2","4","4","3","4","3","4","3","1","4","3","5","3","4","4","3","3","2","4","4","4","4","6","3","7","5","5","5","6","5","5","5","6","5","5","4","6","3","5","732534816976932865","刘","137","Female","[""好她"",""坏她"",""坏我"",""好我""]","[""强她"",""弱她"",""弱我"",""强我""]","","","","","","","","no","","","","","","","","","SRET","EW_formal","","key","f","16.683303278688623","960","536","朋友","怠惰","Negative","ability","","","","","","","","","","",""
"918","","f","psychophysics","35","160415","0.0-7.0-3.0-0.21","4","3","3","3","2","4","3","2","5","5","4","0","1","-1","0","-1","-1","0","0","5","4","5","4","4","4","4","4","4","3","6","7","6","7","6","6","7","6","7","4","3","2","4","4","3","4","3","4","3","1","4","3","5","3","4","4","3","3","2","4","4","4","4","6","3","7","5","5","5","6","5","5","5","6","5","5","4","6","3","5","732534816976932865","刘","137","Female","[""好她"",""坏她"",""坏我"",""好我""]","[""强她"",""弱她"",""弱我"",""强我""]","","","","","","","","no","","","","","","","","","SRET","EW_formal","","key","f","16.683394736842164","960","536","朋友","虚假","Negative","morality","","","","","","","","","","",""
"781","","j","psychophysics","36","162198","0.0-7.0-3.0-0.22","4","3","3","3","2","4","3","2","5","5","4","0","1","-1","0","-1","-1","0","0","5","4","5","4","4","4","4","4","4","3","6","7","6","7","6","6","7","6","7","4","3","2","4","4","3","4","3","4","3","1","4","3","5","3","4","4","3","3","2","4","4","4","4","6","3","7","5","5","5","6","5","5","5","6","5","5","4","6","3","5","732534816976932865","刘","137","Female","[""好她"",""坏她"",""坏我"",""好我""]","[""强她"",""弱她"",""弱我"",""强我""]","","","","","","","","yes","","","","","","","","","SRET","EW_formal","","key","j","16.68320754716966","960","536","自己","善良","Positive","morality","","","","","","","","","","",""
"869","","f","psychophysics","37","164071","0.0-7.0-3.0-0.23","4","3","3","3","2","4","3","2","5","5","4","0","1","-1","0","-1","-1","0","0","5","4","5","4","4","4","4","4","4","3","6","7","6","7","6","6","7","6","7","4","3","2","4","4","3","4","3","4","3","1","4","3","5","3","4","4","3","3","2","4","4","4","4","6","3","7","5","5","5","6","5","5","5","6","5","5","4","6","3","5","732534816976932865","刘","137","Female","[""好她"",""坏她"",""坏我"",""好我""]","[""强她"",""弱她"",""弱我"",""强我""]","","","","","","","","no","","","","","","","","","SRET","EW_formal","","key","f","16.68370270270247","960","536","自己","短浅","Negative","ability","","","","","","","","","","",""
"1463","","j","psychophysics","38","166535","0.0-7.0-3.0-0.24","4","3","3","3","2","4","3","2","5","5","4","0","1","-1","0","-1","-1","0","0","5","4","5","4","4","4","4","4","4","3","6","7","6","7","6","6","7","6","7","4","3","2","4","4","3","4","3","4","3","1","4","3","5","3","4","4","3","3","2","4","4","4","4","6","3","7","5","5","5","6","5","5","5","6","5","5","4","6","3","5","732534816976932865","刘","137","Female","[""好她"",""坏她"",""坏我"",""好我""]","[""强她"",""弱她"",""弱我"",""强我""]","","","","","","","","yes","","","","","","","","","SRET","EW_formal","","key","j","16.683312925170167","960","536","自己","高效","Positive","ability","","","","","","","","","","",""
"877","","j","psychophysics","39","168415","0.0-7.0-3.0-0.25","4","3","3","3","2","4","3","2","5","5","4","0","1","-1","0","-1","-1","0","0","5","4","5","4","4","4","4","4","4","3","6","7","6","7","6","6","7","6","7","4","3","2","4","4","3","4","3","4","3","1","4","3","5","3","4","4","3","3","2","4","4","4","4","6","3","7","5","5","5","6","5","5","5","6","5","5","4","6","3","5","732534816976932865","刘","137","Female","[""好她"",""坏她"",""坏我"",""好我""]","[""强她"",""弱她"",""弱我"",""强我""]","","","","","","","","yes","","","","","","","","","SRET","EW_formal","","key","j","16.683432432432472","960","536","自己","有力","Positive","ability","","","","","","","","","","",""
"973","","f","psychophysics","40","170389","0.0-7.0-3.0-0.26","4","3","3","3","2","4","3","2","5","5","4","0","1","-1","0","-1","-1","0","0","5","4","5","4","4","4","4","4","4","3","6","7","6","7","6","6","7","6","7","4","3","2","4","4","3","4","3","4","3","1","4","3","5","3","4","4","3","3","2","4","4","4","4","6","3","7","5","5","5","6","5","5","5","6","5","5","4","6","3","5","732534816976932865","刘","137","Female","[""好她"",""坏她"",""坏我"",""好我""]","[""强她"",""弱她"",""弱我"",""强我""]","","","","","","","","no","","","","","","","","","SRET","EW_formal","","key","f","16.683466101694957","960","536","朋友","下流","Negative","morality","","","","","","","","","","",""
"735","","j","psychophysics","41","172127","0.0-7.0-3.0-0.27","4","3","3","3","2","4","3","2","5","5","4","0","1","-1","0","-1","-1","0","0","5","4","5","4","4","4","4","4","4","3","6","7","6","7","6","6","7","6","7","4","3","2","4","4","3","4","3","4","3","1","4","3","5","3","4","4","3","3","2","4","4","4","4","6","3","7","5","5","5","6","5","5","5","6","5","5","4","6","3","5","732534816976932865","刘","137","Female","[""好她"",""坏她"",""坏我"",""好我""]","[""强她"",""弱她"",""弱我"",""强我""]","","","","","","","","yes","","","","","","","","","SRET","EW_formal","","key","j","16.683524271844576","960","536","自己","正气","Positive","morality","","","","","","","","","","",""
"798","","j","psychophysics","42","173927","0.0-7.0-3.0-0.28","4","3","3","3","2","4","3","2","5","5","4","0","1","-1","0","-1","-1","0","0","5","4","5","4","4","4","4","4","4","3","6","7","6","7","6","6","7","6","7","4","3","2","4","4","3","4","3","4","3","1","4","3","5","3","4","4","3","3","2","4","4","4","4","6","3","7","5","5","5","6","5","5","5","6","5","5","4","6","3","5","732534816976932865","刘","137","Female","[""好她"",""坏她"",""坏我"",""好我""]","[""强她"",""弱她"",""弱我"",""强我""]","","","","","","","","yes","","","","","","","","","SRET","EW_formal","","key","j","16.683327102803823","960","536","自己","淡泊","Positive","morality","","","","","","","","","","",""
"862","","j","psychophysics","43","175791","0.0-7.0-3.0-0.29","4","3","3","3","2","4","3","2","5","5","4","0","1","-1","0","-1","-1","0","0","5","4","5","4","4","4","4","4","4","3","6","7","6","7","6","6","7","6","7","4","3","2","4","4","3","4","3","4","3","1","4","3","5","3","4","4","3","3","2","4","4","4","4","6","3","7","5","5","5","6","5","5","5","6","5","5","4","6","3","5","732534816976932865","刘","137","Female","[""好她"",""坏她"",""坏我"",""好我""]","[""强她"",""弱她"",""弱我"",""强我""]","","","","","","","","yes","","","","","","","","","SRET","EW_formal","","key","j","16.68387272727295","960","536","朋友","君子","Positive","morality","","","","","","","","","","",""
"661","","j","psychophysics","44","177454","0.0-7.0-3.0-0.30","4","3","3","3","2","4","3","2","5","5","4","0","1","-1","0","-1","-1","0","0","5","4","5","4","4","4","4","4","4","3","6","7","6","7","6","6","7","6","7","4","3","2","4","4","3","4","3","4","3","1","4","3","5","3","4","4","3","3","2","4","4","4","4","6","3","7","5","5","5","6","5","5","5","6","5","5","4","6","3","5","732534816976932865","刘","137","Female","[""好她"",""坏她"",""坏我"",""好我""]","[""强她"",""弱她"",""弱我"",""强我""]","","","","","","","","yes","","","","","","","","","SRET","EW_formal","","key","j","16.68358585858574","960","536","自己","谦逊","Positive","morality","","","","","","","","","","",""
"694","","j","psychophysics","45","179151","0.0-7.0-3.0-0.31","4","3","3","3","2","4","3","2","5","5","4","0","1","-1","0","-1","-1","0","0","5","4","5","4","4","4","4","4","4","3","6","7","6","7","6","6","7","6","7","4","3","2","4","4","3","4","3","4","3","1","4","3","5","3","4","4","3","3","2","4","4","4","4","6","3","7","5","5","5","6","5","5","5","6","5","5","4","6","3","5","732534816976932865","刘","137","Female","[""好她"",""坏她"",""坏我"",""好我""]","[""强她"",""弱她"",""弱我"",""强我""]","","","","","","","","yes","","","","","","","","","SRET","EW_formal","","key","j","16.68285148514874","960","536","朋友","能干","Positive","ability","","","","","","","","","","",""
"614","","j","psychophysics","46","180767","0.0-7.0-3.0-0.32","4","3","3","3","2","4","3","2","5","5","4","0","1","-1","0","-1","-1","0","0","5","4","5","4","4","4","4","4","4","3","6","7","6","7","6","6","7","6","7","4","3","2","4","4","3","4","3","4","3","1","4","3","5","3","4","4","3","3","2","4","4","4","4","6","3","7","5","5","5","6","5","5","5","6","5","5","4","6","3","5","732534816976932865","刘","137","Female","[""好她"",""坏她"",""坏我"",""好我""]","[""强她"",""弱她"",""弱我"",""强我""]","","","","","","","","yes","","","","","","","","","SRET","EW_formal","","key","j","16.683749999999844","960","536","朋友","敬业","Positive","morality","","","","","","","","","","",""
"766","","f","psychophysics","47","182535","0.0-7.0-3.0-0.33","4","3","3","3","2","4","3","2","5","5","4","0","1","-1","0","-1","-1","0","0","5","4","5","4","4","4","4","4","4","3","6","7","6","7","6","6","7","6","7","4","3","2","4","4","3","4","3","4","3","1","4","3","5","3","4","4","3","3","2","4","4","4","4","6","3","7","5","5","5","6","5","5","5","6","5","5","4","6","3","5","732534816976932865","刘","137","Female","[""好她"",""坏她"",""坏我"",""好我""]","[""强她"",""弱她"",""弱我"",""强我""]","","","","","","","","no","","","","","","","","","SRET","EW_formal","","key","f","16.683733333333485","960","536","自己","恶劣","Negative","morality","","","","","","","","","","",""
"1134","","f","psychophysics","48","184671","0.0-7.0-3.0-0.34","4","3","3","3","2","4","3","2","5","5","4","0","1","-1","0","-1","-1","0","0","5","4","5","4","4","4","4","4","4","3","6","7","6","7","6","6","7","6","7","4","3","2","4","4","3","4","3","4","3","1","4","3","5","3","4","4","3","3","2","4","4","4","4","6","3","7","5","5","5","6","5","5","5","6","5","5","4","6","3","5","732534816976932865","刘","137","Female","[""好她"",""坏她"",""坏我"",""好我""]","[""强她"",""弱她"",""弱我"",""强我""]","","","","","","","","no","","","","","","","","","SRET","EW_formal","","key","f","16.683322834645722","960","536","朋友","无知","Negative","ability","","","","","","","","","","",""
"886","","j","psychophysics","49","186559","0.0-7.0-3.0-0.35","4","3","3","3","2","4","3","2","5","5","4","0","1","-1","0","-1","-1","0","0","5","4","5","4","4","4","4","4","4","3","6","7","6","7","6","6","7","6","7","4","3","2","4","4","3","4","3","4","3","1","4","3","5","3","4","4","3","3","2","4","4","4","4","6","3","7","5","5","5","6","5","5","5","6","5","5","4","6","3","5","732534816976932865","刘","137","Female","[""好她"",""坏她"",""坏我"",""好我""]","[""强她"",""弱她"",""弱我"",""强我""]","","","","","","","","yes","","","","","","","","","SRET","EW_formal","","key","j","16.683348214285747","960","536","朋友","屈才","Negative","ability","","","","","","","","","","",""
"1318","","j","psychophysics","50","188879","0.0-7.0-3.0-0.36","4","3","3","3","2","4","3","2","5","5","4","0","1","-1","0","-1","-1","0","0","5","4","5","4","4","4","4","4","4","3","6","7","6","7","6","6","7","6","7","4","3","2","4","4","3","4","3","4","3","1","4","3","5","3","4","4","3","3","2","4","4","4","4","6","3","7","5","5","5","6","5","5","5","6","5","5","4","6","3","5","732534816976932865","刘","137","Female","[""好她"",""坏她"",""坏我"",""好我""]","[""强她"",""弱她"",""弱我"",""强我""]","","","","","","","","yes","","","","","","","","","SRET","EW_formal","","key","j","16.683137681159323","960","536","自己","无助","Negative","ability","","","","","","","","","","",""
"null","","null","psychophysics","51","191885","0.0-7.0-3.0-0.37","4","3","3","3","2","4","3","2","5","5","4","0","1","-1","0","-1","-1","0","0","5","4","5","4","4","4","4","4","4","3","6","7","6","7","6","6","7","6","7","4","3","2","4","4","3","4","3","4","3","1","4","3","5","3","4","4","3","3","2","4","4","4","4","6","3","7","5","5","5","6","5","5","5","6","5","5","4","6","3","5","732534816976932865","刘","137","Female","[""好她"",""坏她"",""坏我"",""好我""]","[""强她"",""弱她"",""弱我"",""强我""]","","","","","","","","","","","","","","","","","SRET","EW_formal","","key","null","16.683664804469213","960","536","自己","清廉","Positive","morality","","","","","","","","","","",""
"753","","j","psychophysics","52","193639","0.0-7.0-3.0-0.38","4","3","3","3","2","4","3","2","5","5","4","0","1","-1","0","-1","-1","0","0","5","4","5","4","4","4","4","4","4","3","6","7","6","7","6","6","7","6","7","4","3","2","4","4","3","4","3","4","3","1","4","3","5","3","4","4","3","3","2","4","4","4","4","6","3","7","5","5","5","6","5","5","5","6","5","5","4","6","3","5","732534816976932865","刘","137","Female","[""好她"",""坏她"",""坏我"",""好我""]","[""强她"",""弱她"",""弱我"",""强我""]","","","","","","","","yes","","","","","","","","","SRET","EW_formal","","key","j","16.68335576923066","960","536","自己","毅力","Positive","ability","","","","","","","","","","",""
"806","","j","psychophysics","53","195447","0.0-7.0-3.0-0.39","4","3","3","3","2","4","3","2","5","5","4","0","1","-1","0","-1","-1","0","0","5","4","5","4","4","4","4","4","4","3","6","7","6","7","6","6","7","6","7","4","3","2","4","4","3","4","3","4","3","1","4","3","5","3","4","4","3","3","2","4","4","4","4","6","3","7","5","5","5","6","5","5","5","6","5","5","4","6","3","5","732534816976932865","刘","137","Female","[""好她"",""坏她"",""坏我"",""好我""]","[""强她"",""弱她"",""弱我"",""强我""]","","","","","","","","yes","","","","","","","","","SRET","EW_formal","","key","j","16.683222222222227","960","536","自己","利己","Negative","morality","","","","","","","","","","",""
"1183","","f","psychophysics","54","197633","0.0-7.0-3.0-0.40","4","3","3","3","2","4","3","2","5","5","4","0","1","-1","0","-1","-1","0","0","5","4","5","4","4","4","4","4","4","3","6","7","6","7","6","6","7","6","7","4","3","2","4","4","3","4","3","4","3","1","4","3","5","3","4","4","3","3","2","4","4","4","4","6","3","7","5","5","5","6","5","5","5","6","5","5","4","6","3","5","732534816976932865","刘","137","Female","[""好她"",""坏她"",""坏我"",""好我""]","[""强她"",""弱她"",""弱我"",""强我""]","","","","","","","","no","","","","","","","","","SRET","EW_formal","","key","f","16.68383076923089","960","536","朋友","驽钝","Negative","ability","","","","","","","","","","",""
"891","","j","psychophysics","55","199527","0.0-7.0-3.0-0.41","4","3","3","3","2","4","3","2","5","5","4","0","1","-1","0","-1","-1","0","0","5","4","5","4","4","4","4","4","4","3","6","7","6","7","6","6","7","6","7","4","3","2","4","4","3","4","3","4","3","1","4","3","5","3","4","4","3","3","2","4","4","4","4","6","3","7","5","5","5","6","5","5","5","6","5","5","4","6","3","5","732534816976932865","刘","137","Female","[""好她"",""坏她"",""坏我"",""好我""]","[""强她"",""弱她"",""弱我"",""强我""]","","","","","","","","yes","","","","","","","","","SRET","EW_formal","","key","j","16.683651785714183","960","536","朋友","文明","Positive","morality","","","","","","","","","","",""
"598","","j","psychophysics","56","201127","0.0-7.0-3.0-0.42","4","3","3","3","2","4","3","2","5","5","4","0","1","-1","0","-1","-1","0","0","5","4","5","4","4","4","4","4","4","3","6","7","6","7","6","6","7","6","7","4","3","2","4","4","3","4","3","4","3","1","4","3","5","3","4","4","3","3","2","4","4","4","4","6","3","7","5","5","5","6","5","5","5","6","5","5","4","6","3","5","732534816976932865","刘","137","Female","[""好她"",""坏她"",""坏我"",""好我""]","[""强她"",""弱她"",""弱我"",""强我""]","","","","","","","","yes","","","","","","","","","SRET","EW_formal","","key","j","16.683094736842108","960","536","自己","忠良","Positive","morality","","","","","","","","","","",""
"821","","f","psychophysics","57","202950","0.0-7.0-3.0-0.43","4","3","3","3","2","4","3","2","5","5","4","0","1","-1","0","-1","-1","0","0","5","4","5","4","4","4","4","4","4","3","6","7","6","7","6","6","7","6","7","4","3","2","4","4","3","4","3","4","3","1","4","3","5","3","4","4","3","3","2","4","4","4","4","6","3","7","5","5","5","6","5","5","5","6","5","5","4","6","3","5","732534816976932865","刘","137","Female","[""好她"",""坏她"",""坏我"",""好我""]","[""强她"",""弱她"",""弱我"",""强我""]","","","","","","","","no","","","","","","","","","SRET","EW_formal","","key","f","16.83871962616811","960","536","自己","蛇蝎","Negative","morality","","","","","","","","","","",""
"823","","j","psychophysics","58","204774","0.0-7.0-3.0-0.44","4","3","3","3","2","4","3","2","5","5","4","0","1","-1","0","-1","-1","0","0","5","4","5","4","4","4","4","4","4","3","6","7","6","7","6","6","7","6","7","4","3","2","4","4","3","4","3","4","3","1","4","3","5","3","4","4","3","3","2","4","4","4","4","6","3","7","5","5","5","6","5","5","5","6","5","5","4","6","3","5","732534816976932865","刘","137","Female","[""好她"",""坏她"",""坏我"",""好我""]","[""强她"",""弱她"",""弱我"",""强我""]","","","","","","","","yes","","","","","","","","","SRET","EW_formal","","key","j","16.683036697247715","960","536","朋友","上进","Positive","ability","","","","","","","","","","",""
"1055","","f","psychophysics","59","206830","0.0-7.0-3.0-0.45","4","3","3","3","2","4","3","2","5","5","4","0","1","-1","0","-1","-1","0","0","5","4","5","4","4","4","4","4","4","3","6","7","6","7","6","6","7","6","7","4","3","2","4","4","3","4","3","4","3","1","4","3","5","3","4","4","3","3","2","4","4","4","4","6","3","7","5","5","5","6","5","5","5","6","5","5","4","6","3","5","732534816976932865","刘","137","Female","[""好她"",""坏她"",""坏我"",""好我""]","[""强她"",""弱她"",""弱我"",""强我""]","","","","","","","","no","","","","","","","","","SRET","EW_formal","","key","f","16.68340163934426","960","536","朋友","不仁","Negative","morality","","","","","","","","","","",""
"1167","","f","psychophysics","60","208999","0.0-7.0-3.0-0.46","4","3","3","3","2","4","3","2","5","5","4","0","1","-1","0","-1","-1","0","0","5","4","5","4","4","4","4","4","4","3","6","7","6","7","6","6","7","6","7","4","3","2","4","4","3","4","3","4","3","1","4","3","5","3","4","4","3","3","2","4","4","4","4","6","3","7","5","5","5","6","5","5","5","6","5","5","4","6","3","5","732534816976932865","刘","137","Female","[""好她"",""坏她"",""坏我"",""好我""]","[""强她"",""弱她"",""弱我"",""强我""]","","","","","","","","no","","","","","","","","","SRET","EW_formal","","key","f","16.683077519379832","960","536","自己","马虎","Negative","ability","","","","","","","","","","",""
"1109","","j","psychophysics","61","211110","0.0-7.0-3.0-0.47","4","3","3","3","2","4","3","2","5","5","4","0","1","-1","0","-1","-1","0","0","5","4","5","4","4","4","4","4","4","3","6","7","6","7","6","6","7","6","7","4","3","2","4","4","3","4","3","4","3","1","4","3","5","3","4","4","3","3","2","4","4","4","4","6","3","7","5","5","5","6","5","5","5","6","5","5","4","6","3","5","732534816976932865","刘","137","Female","[""好她"",""坏她"",""坏我"",""好我""]","[""强她"",""弱她"",""弱我"",""强我""]","","","","","","","","yes","","","","","","","","","SRET","EW_formal","","key","j","16.68386400000006","960","536","自己","热心","Positive","morality","","","","","","","","","","",""
"1015","","f","psychophysics","62","213127","0.0-7.0-3.0-0.48","4","3","3","3","2","4","3","2","5","5","4","0","1","-1","0","-1","-1","0","0","5","4","5","4","4","4","4","4","4","3","6","7","6","7","6","6","7","6","7","4","3","2","4","4","3","4","3","4","3","1","4","3","5","3","4","4","3","3","2","4","4","4","4","6","3","7","5","5","5","6","5","5","5","6","5","5","4","6","3","5","732534816976932865","刘","137","Female","[""好她"",""坏她"",""坏我"",""好我""]","[""强她"",""弱她"",""弱我"",""强我""]","","","","","","","","no","","","","","","","","","SRET","EW_formal","","key","f","16.683383333333282","960","536","朋友","阴毒","Negative","morality","","","","","","","","","","",""
"781","","j","psychophysics","63","214910","0.0-7.0-3.0-0.49","4","3","3","3","2","4","3","2","5","5","4","0","1","-1","0","-1","-1","0","0","5","4","5","4","4","4","4","4","4","3","6","7","6","7","6","6","7","6","7","4","3","2","4","4","3","4","3","4","3","1","4","3","5","3","4","4","3","3","2","4","4","4","4","6","3","7","5","5","5","6","5","5","5","6","5","5","4","6","3","5","732534816976932865","刘","137","Female","[""好她"",""坏她"",""坏我"",""好我""]","[""强她"",""弱她"",""弱我"",""强我""]","","","","","","","","yes","","","","","","","","","SRET","EW_formal","","key","j","16.682933962264183","960","536","朋友","果断","Positive","ability","","","","","","","","","","",""
"984","","f","psychophysics","64","216895","0.0-7.0-3.0-0.50","4","3","3","3","2","4","3","2","5","5","4","0","1","-1","0","-1","-1","0","0","5","4","5","4","4","4","4","4","4","3","6","7","6","7","6","6","7","6","7","4","3","2","4","4","3","4","3","4","3","1","4","3","5","3","4","4","3","3","2","4","4","4","4","6","3","7","5","5","5","6","5","5","5","6","5","5","4","6","3","5","732534816976932865","刘","137","Female","[""好她"",""坏她"",""坏我"",""好我""]","[""强她"",""弱她"",""弱我"",""强我""]","","","","","","","","no","","","","","","","","","SRET","EW_formal","","key","f","16.68333050847459","960","536","朋友","不孝","Negative","morality","","","","","","","","","","",""
"718","","j","psychophysics","65","218615","0.0-7.0-3.0-0.51","4","3","3","3","2","4","3","2","5","5","4","0","1","-1","0","-1","-1","0","0","5","4","5","4","4","4","4","4","4","3","6","7","6","7","6","6","7","6","7","4","3","2","4","4","3","4","3","4","3","1","4","3","5","3","4","4","3","3","2","4","4","4","4","6","3","7","5","5","5","6","5","5","5","6","5","5","4","6","3","5","732534816976932865","刘","137","Female","[""好她"",""坏她"",""坏我"",""好我""]","[""强她"",""弱她"",""弱我"",""强我""]","","","","","","","","yes","","","","","","","","","SRET","EW_formal","","key","j","16.68321568627446","960","536","自己","守时","Positive","morality","","","","","","","","","","",""
"677","","j","psychophysics","66","220295","0.0-7.0-3.0-0.52","4","3","3","3","2","4","3","2","5","5","4","0","1","-1","0","-1","-1","0","0","5","4","5","4","4","4","4","4","4","3","6","7","6","7","6","6","7","6","7","4","3","2","4","4","3","4","3","4","3","1","4","3","5","3","4","4","3","3","2","4","4","4","4","6","3","7","5","5","5","6","5","5","5","6","5","5","4","6","3","5","732534816976932865","刘","137","Female","[""好她"",""坏她"",""坏我"",""好我""]","[""强她"",""弱她"",""弱我"",""强我""]","","","","","","","","yes","","","","","","","","","SRET","EW_formal","","key","j","16.68309999999998","960","536","朋友","专注","Positive","ability","","","","","","","","","","",""
"734","","f","psychophysics","67","222031","0.0-7.0-3.0-0.53","4","3","3","3","2","4","3","2","5","5","4","0","1","-1","0","-1","-1","0","0","5","4","5","4","4","4","4","4","4","3","6","7","6","7","6","6","7","6","7","4","3","2","4","4","3","4","3","4","3","1","4","3","5","3","4","4","3","3","2","4","4","4","4","6","3","7","5","5","5","6","5","5","5","6","5","5","4","6","3","5","732534816976932865","刘","137","Female","[""好她"",""坏她"",""坏我"",""好我""]","[""强她"",""弱她"",""弱我"",""强我""]","","","","","","","","no","","","","","","","","","SRET","EW_formal","","key","f","16.68283495145626","960","536","自己","奸险","Negative","morality","","","","","","","","","","",""
"948","","f","psychophysics","68","223982","0.0-7.0-3.0-0.54","4","3","3","3","2","4","3","2","5","5","4","0","1","-1","0","-1","-1","0","0","5","4","5","4","4","4","4","4","4","3","6","7","6","7","6","6","7","6","7","4","3","2","4","4","3","4","3","4","3","1","4","3","5","3","4","4","3","3","2","4","4","4","4","6","3","7","5","5","5","6","5","5","5","6","5","5","4","6","3","5","732534816976932865","刘","137","Female","[""好她"",""坏她"",""坏我"",""好我""]","[""强她"",""弱她"",""弱我"",""强我""]","","","","","","","","no","","","","","","","","","SRET","EW_formal","","key","f","16.68312068965541","960","536","自己","奸诈","Negative","morality","","","","","","","","","","",""
"1120","","j","psychophysics","69","226103","0.0-7.0-3.0-0.55","4","3","3","3","2","4","3","2","5","5","4","0","1","-1","0","-1","-1","0","0","5","4","5","4","4","4","4","4","4","3","6","7","6","7","6","6","7","6","7","4","3","2","4","4","3","4","3","4","3","1","4","3","5","3","4","4","3","3","2","4","4","4","4","6","3","7","5","5","5","6","5","5","5","6","5","5","4","6","3","5","732534816976932865","刘","137","Female","[""好她"",""坏她"",""坏我"",""好我""]","[""强她"",""弱她"",""弱我"",""强我""]","","","","","","","","yes","","","","","","","","","SRET","EW_formal","","key","j","16.6837539682539","960","536","朋友","肯干","Positive","ability","","","","","","","","","","",""
"813","","j","psychophysics","70","227919","0.0-7.0-3.0-0.56","4","3","3","3","2","4","3","2","5","5","4","0","1","-1","0","-1","-1","0","0","5","4","5","4","4","4","4","4","4","3","6","7","6","7","6","6","7","6","7","4","3","2","4","4","3","4","3","4","3","1","4","3","5","3","4","4","3","3","2","4","4","4","4","6","3","7","5","5","5","6","5","5","5","6","5","5","4","6","3","5","732534816976932865","刘","137","Female","[""好她"",""坏她"",""坏我"",""好我""]","[""强她"",""弱她"",""弱我"",""强我""]","","","","","","","","yes","","","","","","","","","SRET","EW_formal","","key","j","16.683231481481386","960","536","自己","果决","Positive","ability","","","","","","","","","","",""
"805","","f","psychophysics","71","229727","0.0-7.0-3.0-0.57","4","3","3","3","2","4","3","2","5","5","4","0","1","-1","0","-1","-1","0","0","5","4","5","4","4","4","4","4","4","3","6","7","6","7","6","6","7","6","7","4","3","2","4","4","3","4","3","4","3","1","4","3","5","3","4","4","3","3","2","4","4","4","4","6","3","7","5","5","5","6","5","5","5","6","5","5","4","6","3","5","732534816976932865","刘","137","Female","[""好她"",""坏她"",""坏我"",""好我""]","[""强她"",""弱她"",""弱我"",""强我""]","","","","","","","","no","","","","","","","","","SRET","EW_formal","","key","f","16.683607476635586","960","536","朋友","迟钝","Negative","ability","","","","","","","","","","",""
"894","","j","psychophysics","72","231624","0.0-7.0-3.0-0.58","4","3","3","3","2","4","3","2","5","5","4","0","1","-1","0","-1","-1","0","0","5","4","5","4","4","4","4","4","4","3","6","7","6","7","6","6","7","6","7","4","3","2","4","4","3","4","3","4","3","1","4","3","5","3","4","4","3","3","2","4","4","4","4","6","3","7","5","5","5","6","5","5","5","6","5","5","4","6","3","5","732534816976932865","刘","137","Female","[""好她"",""坏她"",""坏我"",""好我""]","[""强她"",""弱她"",""弱我"",""强我""]","","","","","","","","yes","","","","","","","","","SRET","EW_formal","","key","j","16.683389380530958","960","536","自己","远见","Positive","ability","","","","","","","","","","",""
"644","","j","psychophysics","73","233270","0.0-7.0-3.0-0.59","4","3","3","3","2","4","3","2","5","5","4","0","1","-1","0","-1","-1","0","0","5","4","5","4","4","4","4","4","4","3","6","7","6","7","6","6","7","6","7","4","3","2","4","4","3","4","3","4","3","1","4","3","5","3","4","4","3","3","2","4","4","4","4","6","3","7","5","5","5","6","5","5","5","6","5","5","4","6","3","5","732534816976932865","刘","137","Female","[""好她"",""坏她"",""坏我"",""好我""]","[""强她"",""弱她"",""弱我"",""强我""]","","","","","","","","yes","","","","","","","","","SRET","EW_formal","","key","j","16.6840612244898","960","536","自己","好心","Positive","morality","","","","","","","","","","",""
"952","","f","psychophysics","74","235223","0.0-7.0-3.0-0.60","4","3","3","3","2","4","3","2","5","5","4","0","1","-1","0","-1","-1","0","0","5","4","5","4","4","4","4","4","4","3","6","7","6","7","6","6","7","6","7","4","3","2","4","4","3","4","3","4","3","1","4","3","5","3","4","4","3","3","2","4","4","4","4","6","3","7","5","5","5","6","5","5","5","6","5","5","4","6","3","5","732534816976932865","刘","137","Female","[""好她"",""坏她"",""坏我"",""好我""]","[""强她"",""弱她"",""弱我"",""强我""]","","","","","","","","no","","","","","","","","","SRET","EW_formal","","key","f","16.683594827586134","960","536","自己","笨蛋","Negative","ability","","","","","","","","","","",""
"781","","j","psychophysics","75","237007","0.0-7.0-3.0-0.61","4","3","3","3","2","4","3","2","5","5","4","0","1","-1","0","-1","-1","0","0","5","4","5","4","4","4","4","4","4","3","6","7","6","7","6","6","7","6","7","4","3","2","4","4","3","4","3","4","3","1","4","3","5","3","4","4","3","3","2","4","4","4","4","6","3","7","5","5","5","6","5","5","5","6","5","5","4","6","3","5","732534816976932865","刘","137","Female","[""好她"",""坏她"",""坏我"",""好我""]","[""强她"",""弱她"",""弱我"",""强我""]","","","","","","","","yes","","","","","","","","","SRET","EW_formal","","key","j","16.683735849056557","960","536","朋友","慈悲","Positive","morality","","","","","","","","","","",""
"1352","","f","psychophysics","76","239360","0.0-7.0-3.0-0.62","4","3","3","3","2","4","3","2","5","5","4","0","1","-1","0","-1","-1","0","0","5","4","5","4","4","4","4","4","4","3","6","7","6","7","6","6","7","6","7","4","3","2","4","4","3","4","3","4","3","1","4","3","5","3","4","4","3","3","2","4","4","4","4","6","3","7","5","5","5","6","5","5","5","6","5","5","4","6","3","5","732534816976932865","刘","137","Female","[""好她"",""坏她"",""坏我"",""好我""]","[""强她"",""弱她"",""弱我"",""强我""]","","","","","","","","no","","","","","","","","","SRET","EW_formal","","key","f","16.684021428571267","960","536","自己","无能","Negative","ability","","","","","","","","","","",""
"940","","j","psychophysics","77","241303","0.0-7.0-3.0-0.63","4","3","3","3","2","4","3","2","5","5","4","0","1","-1","0","-1","-1","0","0","5","4","5","4","4","4","4","4","4","3","6","7","6","7","6","6","7","6","7","4","3","2","4","4","3","4","3","4","3","1","4","3","5","3","4","4","3","3","2","4","4","4","4","6","3","7","5","5","5","6","5","5","5","6","5","5","4","6","3","5","732534816976932865","刘","137","Female","[""好她"",""坏她"",""坏我"",""好我""]","[""强她"",""弱她"",""弱我"",""强我""]","","","","","","","","yes","","","","","","","","","SRET","EW_formal","","key","j","16.683295652173896","960","536","朋友","新手","Negative","ability","","","","","","","","","","",""
"629","","j","psychophysics","78","242935","0.0-7.0-3.0-0.64","4","3","3","3","2","4","3","2","5","5","4","0","1","-1","0","-1","-1","0","0","5","4","5","4","4","4","4","4","4","3","6","7","6","7","6","6","7","6","7","4","3","2","4","4","3","4","3","4","3","1","4","3","5","3","4","4","3","3","2","4","4","4","4","6","3","7","5","5","5","6","5","5","5","6","5","5","4","6","3","5","732534816976932865","刘","137","Female","[""好她"",""坏她"",""坏我"",""好我""]","[""强她"",""弱她"",""弱我"",""强我""]","","","","","","","","yes","","","","","","","","","SRET","EW_formal","","key","j","16.683123711340272","960","536","朋友","全才","Positive","ability","","","","","","","","","","",""
"645","","j","psychophysics","79","244583","0.0-7.0-3.0-0.65","4","3","3","3","2","4","3","2","5","5","4","0","1","-1","0","-1","-1","0","0","5","4","5","4","4","4","4","4","4","3","6","7","6","7","6","6","7","6","7","4","3","2","4","4","3","4","3","4","3","1","4","3","5","3","4","4","3","3","2","4","4","4","4","6","3","7","5","5","5","6","5","5","5","6","5","5","4","6","3","5","732534816976932865","刘","137","Female","[""好她"",""坏她"",""坏我"",""好我""]","[""强她"",""弱她"",""弱我"",""强我""]","","","","","","","","yes","","","","","","","","","SRET","EW_formal","","key","j","16.683816326530863","960","536","自己","利落","Positive","ability","","","","","","","","","","",""
"669","","j","psychophysics","80","246254","0.0-7.0-3.0-0.66","4","3","3","3","2","4","3","2","5","5","4","0","1","-1","0","-1","-1","0","0","5","4","5","4","4","4","4","4","4","3","6","7","6","7","6","6","7","6","7","4","3","2","4","4","3","4","3","4","3","1","4","3","5","3","4","4","3","3","2","4","4","4","4","6","3","7","5","5","5","6","5","5","5","6","5","5","4","6","3","5","732534816976932865","刘","137","Female","[""好她"",""坏她"",""坏我"",""好我""]","[""强她"",""弱她"",""弱我"",""强我""]","","","","","","","","yes","","","","","","","","","SRET","EW_formal","","key","j","16.6836262626263","960","536","自己","敏捷","Positive","ability","","","","","","","","","","",""
"672","","j","psychophysics","81","247928","0.0-7.0-3.0-0.67","4","3","3","3","2","4","3","2","5","5","4","0","1","-1","0","-1","-1","0","0","5","4","5","4","4","4","4","4","4","3","6","7","6","7","6","6","7","6","7","4","3","2","4","4","3","4","3","4","3","1","4","3","5","3","4","4","3","3","2","4","4","4","4","6","3","7","5","5","5","6","5","5","5","6","5","5","4","6","3","5","732534816976932865","刘","137","Female","[""好她"",""坏她"",""坏我"",""好我""]","[""强她"",""弱她"",""弱我"",""强我""]","","","","","","","","yes","","","","","","","","","SRET","EW_formal","","key","j","16.68325252525245","960","536","朋友","自律","Positive","ability","","","","","","","","","","",""
"851","","j","psychophysics","82","249782","0.0-7.0-3.0-0.68","4","3","3","3","2","4","3","2","5","5","4","0","1","-1","0","-1","-1","0","0","5","4","5","4","4","4","4","4","4","3","6","7","6","7","6","6","7","6","7","4","3","2","4","4","3","4","3","4","3","1","4","3","5","3","4","4","3","3","2","4","4","4","4","6","3","7","5","5","5","6","5","5","5","6","5","5","4","6","3","5","732534816976932865","刘","137","Female","[""好她"",""坏她"",""坏我"",""好我""]","[""强她"",""弱她"",""弱我"",""强我""]","","","","","","","","yes","","","","","","","","","SRET","EW_formal","","key","j","16.682690909091086","960","536","朋友","忠勇","Positive","morality","","","","","","","","","","",""
"849","","j","psychophysics","83","251631","0.0-7.0-3.0-0.69","4","3","3","3","2","4","3","2","5","5","4","0","1","-1","0","-1","-1","0","0","5","4","5","4","4","4","4","4","4","3","6","7","6","7","6","6","7","6","7","4","3","2","4","4","3","4","3","4","3","1","4","3","5","3","4","4","3","3","2","4","4","4","4","6","3","7","5","5","5","6","5","5","5","6","5","5","4","6","3","5","732534816976932865","刘","137","Female","[""好她"",""坏她"",""坏我"",""好我""]","[""强她"",""弱她"",""弱我"",""强我""]","","","","","","","","yes","","","","","","","","","SRET","EW_formal","","key","j","16.683699999999952","960","536","自己","独断","Negative","ability","","","","","","","","","","",""
"999","","f","psychophysics","84","253631","0.0-7.0-3.0-0.70","4","3","3","3","2","4","3","2","5","5","4","0","1","-1","0","-1","-1","0","0","5","4","5","4","4","4","4","4","4","3","6","7","6","7","6","6","7","6","7","4","3","2","4","4","3","4","3","4","3","1","4","3","5","3","4","4","3","3","2","4","4","4","4","6","3","7","5","5","5","6","5","5","5","6","5","5","4","6","3","5","732534816976932865","刘","137","Female","[""好她"",""坏她"",""坏我"",""好我""]","[""强她"",""弱她"",""弱我"",""强我""]","","","","","","","","no","","","","","","","","","SRET","EW_formal","","key","f","16.68341176470589","960","536","自己","诡诈","Negative","morality","","","","","","","","","","",""
"1222","","j","psychophysics","85","255855","0.0-7.0-3.0-0.71","4","3","3","3","2","4","3","2","5","5","4","0","1","-1","0","-1","-1","0","0","5","4","5","4","4","4","4","4","4","3","6","7","6","7","6","6","7","6","7","4","3","2","4","4","3","4","3","4","3","1","4","3","5","3","4","4","3","3","2","4","4","4","4","6","3","7","5","5","5","6","5","5","5","6","5","5","4","6","3","5","732534816976932865","刘","137","Female","[""好她"",""坏她"",""坏我"",""好我""]","[""强她"",""弱她"",""弱我"",""强我""]","","","","","","","","yes","","","","","","","","","SRET","EW_formal","","key","j","16.68369696969691","960","536","朋友","犹豫","Negative","ability","","","","","","","","","","",""
"854","","j","psychophysics","86","257711","0.0-7.0-3.0-0.72","4","3","3","3","2","4","3","2","5","5","4","0","1","-1","0","-1","-1","0","0","5","4","5","4","4","4","4","4","4","3","6","7","6","7","6","6","7","6","7","4","3","2","4","4","3","4","3","4","3","1","4","3","5","3","4","4","3","3","2","4","4","4","4","6","3","7","5","5","5","6","5","5","5","6","5","5","4","6","3","5","732534816976932865","刘","137","Female","[""好她"",""坏她"",""坏我"",""好我""]","[""强她"",""弱她"",""弱我"",""强我""]","","","","","","","","yes","","","","","","","","","SRET","EW_formal","","key","j","16.68316216216195","960","536","朋友","废物","Negative","ability","","","","","","","","","","",""
"718","","j","psychophysics","87","259431","0.0-7.0-3.0-0.73","4","3","3","3","2","4","3","2","5","5","4","0","1","-1","0","-1","-1","0","0","5","4","5","4","4","4","4","4","4","3","6","7","6","7","6","6","7","6","7","4","3","2","4","4","3","4","3","4","3","1","4","3","5","3","4","4","3","3","2","4","4","4","4","6","3","7","5","5","5","6","5","5","5","6","5","5","4","6","3","5","732534816976932865","刘","137","Female","[""好她"",""坏她"",""坏我"",""好我""]","[""强她"",""弱她"",""弱我"",""强我""]","","","","","","","","yes","","","","","","","","","SRET","EW_formal","","key","j","16.683970588235432","960","536","自己","稳健","Positive","ability","","","","","","","","","","",""
"1031","","j","psychophysics","88","261463","0.0-7.0-3.0-0.74","4","3","3","3","2","4","3","2","5","5","4","0","1","-1","0","-1","-1","0","0","5","4","5","4","4","4","4","4","4","3","6","7","6","7","6","6","7","6","7","4","3","2","4","4","3","4","3","4","3","1","4","3","5","3","4","4","3","3","2","4","4","4","4","6","3","7","5","5","5","6","5","5","5","6","5","5","4","6","3","5","732534816976932865","刘","137","Female","[""好她"",""坏她"",""坏我"",""好我""]","[""强她"",""弱她"",""弱我"",""强我""]","","","","","","","","yes","","","","","","","","","SRET","EW_formal","","key","j","16.68336363636344","960","536","朋友","拜金","Negative","morality","","","","","","","","","","",""
"1423","","j","psychophysics","89","263887","0.0-7.0-3.0-0.75","4","3","3","3","2","4","3","2","5","5","4","0","1","-1","0","-1","-1","0","0","5","4","5","4","4","4","4","4","4","3","6","7","6","7","6","6","7","6","7","4","3","2","4","4","3","4","3","4","3","1","4","3","5","3","4","4","3","3","2","4","4","4","4","6","3","7","5","5","5","6","5","5","5","6","5","5","4","6","3","5","732534816976932865","刘","137","Female","[""好她"",""坏她"",""坏我"",""好我""]","[""强她"",""弱她"",""弱我"",""强我""]","","","","","","","","yes","","","","","","","","","SRET","EW_formal","","key","j","16.683527777777474","960","536","自己","自私","Negative","morality","","","","","","","","","","",""
"1381","","f","psychophysics","90","266270","0.0-7.0-3.0-0.76","4","3","3","3","2","4","3","2","5","5","4","0","1","-1","0","-1","-1","0","0","5","4","5","4","4","4","4","4","4","3","6","7","6","7","6","6","7","6","7","4","3","2","4","4","3","4","3","4","3","1","4","3","5","3","4","4","3","3","2","4","4","4","4","6","3","7","5","5","5","6","5","5","5","6","5","5","4","6","3","5","732534816976932865","刘","137","Female","[""好她"",""坏她"",""坏我"",""好我""]","[""强她"",""弱她"",""弱我"",""强我""]","","","","","","","","no","","","","","","","","","SRET","EW_formal","","key","f","16.682971830986045","960","536","自己","愚痴","Negative","ability","","","","","","","","","","",""
"1871","","j","psychophysics","91","269143","0.0-7.0-3.0-0.77","4","3","3","3","2","4","3","2","5","5","4","0","1","-1","0","-1","-1","0","0","5","4","5","4","4","4","4","4","4","3","6","7","6","7","6","6","7","6","7","4","3","2","4","4","3","4","3","4","3","1","4","3","5","3","4","4","3","3","2","4","4","4","4","6","3","7","5","5","5","6","5","5","5","6","5","5","4","6","3","5","732534816976932865","刘","137","Female","[""好她"",""坏她"",""坏我"",""好我""]","[""强她"",""弱她"",""弱我"",""强我""]","","","","","","","","yes","","","","","","","","","SRET","EW_formal","","key","j","16.683467836257094","960","536","自己","盲目","Negative","ability","","","","","","","","","","",""
"742","","f","psychophysics","92","270887","0.0-7.0-3.0-0.78","4","3","3","3","2","4","3","2","5","5","4","0","1","-1","0","-1","-1","0","0","5","4","5","4","4","4","4","4","4","3","6","7","6","7","6","6","7","6","7","4","3","2","4","4","3","4","3","4","3","1","4","3","5","3","4","4","3","3","2","4","4","4","4","6","3","7","5","5","5","6","5","5","5","6","5","5","4","6","3","5","732534816976932865","刘","137","Female","[""好她"",""坏她"",""坏我"",""好我""]","[""强她"",""弱她"",""弱我"",""强我""]","","","","","","","","no","","","","","","","","","SRET","EW_formal","","key","f","16.68331067961159","960","536","朋友","缺德","Negative","morality","","","","","","","","","","",""
"1099","","f","psychophysics","93","272992","0.0-7.0-3.0-0.79","4","3","3","3","2","4","3","2","5","5","4","0","1","-1","0","-1","-1","0","0","5","4","5","4","4","4","4","4","4","3","6","7","6","7","6","6","7","6","7","4","3","2","4","4","3","4","3","4","3","1","4","3","5","3","4","4","3","3","2","4","4","4","4","6","3","7","5","5","5","6","5","5","5","6","5","5","4","6","3","5","732534816976932865","刘","137","Female","[""好她"",""坏她"",""坏我"",""好我""]","[""强她"",""弱她"",""弱我"",""强我""]","","","","","","","","no","","","","","","","","","SRET","EW_formal","","key","f","16.683293650793892","960","536","自己","失信","Negative","morality","","","","","","","","","","",""
"757","","j","psychophysics","94","274751","0.0-7.0-3.0-0.80","4","3","3","3","2","4","3","2","5","5","4","0","1","-1","0","-1","-1","0","0","5","4","5","4","4","4","4","4","4","3","6","7","6","7","6","6","7","6","7","4","3","2","4","4","3","4","3","4","3","1","4","3","5","3","4","4","3","3","2","4","4","4","4","6","3","7","5","5","5","6","5","5","5","6","5","5","4","6","3","5","732534816976932865","刘","137","Female","[""好她"",""坏她"",""坏我"",""好我""]","[""强她"",""弱她"",""弱我"",""强我""]","","","","","","","","yes","","","","","","","","","SRET","EW_formal","","key","j","16.683374999999963","960","536","朋友","仗义","Positive","morality","","","","","","","","","","",""
"983","","f","psychophysics","95","276735","0.0-7.0-3.0-0.81","4","3","3","3","2","4","3","2","5","5","4","0","1","-1","0","-1","-1","0","0","5","4","5","4","4","4","4","4","4","3","6","7","6","7","6","6","7","6","7","4","3","2","4","4","3","4","3","4","3","1","4","3","5","3","4","4","3","3","2","4","4","4","4","6","3","7","5","5","5","6","5","5","5","6","5","5","4","6","3","5","732534816976932865","刘","137","Female","[""好她"",""坏她"",""坏我"",""好我""]","[""强她"",""弱她"",""弱我"",""强我""]","","","","","","","","no","","","","","","","","","SRET","EW_formal","","key","f","16.683313559321984","960","536","自己","刻薄","Negative","morality","","","","","","","","","","",""
"893","","j","psychophysics","96","278631","0.0-7.0-3.0-0.82","4","3","3","3","2","4","3","2","5","5","4","0","1","-1","0","-1","-1","0","0","5","4","5","4","4","4","4","4","4","3","6","7","6","7","6","6","7","6","7","4","3","2","4","4","3","4","3","4","3","1","4","3","5","3","4","4","3","3","2","4","4","4","4","6","3","7","5","5","5","6","5","5","5","6","5","5","4","6","3","5","732534816976932865","刘","137","Female","[""好她"",""坏她"",""坏我"",""好我""]","[""强她"",""弱她"",""弱我"",""强我""]","","","","","","","","yes","","","","","","","","","SRET","EW_formal","","key","j","16.683495575221116","960","536","朋友","刚正","Positive","morality","","","","","","","","","","",""
"838","","j","psychophysics","97","280471","0.0-7.0-3.0-0.83","4","3","3","3","2","4","3","2","5","5","4","0","1","-1","0","-1","-1","0","0","5","4","5","4","4","4","4","4","4","3","6","7","6","7","6","6","7","6","7","4","3","2","4","4","3","4","3","4","3","1","4","3","5","3","4","4","3","3","2","4","4","4","4","6","3","7","5","5","5","6","5","5","5","6","5","5","4","6","3","5","732534816976932865","刘","137","Female","[""好她"",""坏她"",""坏我"",""好我""]","[""强她"",""弱她"",""弱我"",""强我""]","","","","","","","","yes","","","","","","","","","SRET","EW_formal","","key","j","16.684183486238542","960","536","自己","扎实","Positive","ability","","","","","","","","","","",""
"740","","j","psychophysics","98","282214","0.0-7.0-3.0-0.84","4","3","3","3","2","4","3","2","5","5","4","0","1","-1","0","-1","-1","0","0","5","4","5","4","4","4","4","4","4","3","6","7","6","7","6","6","7","6","7","4","3","2","4","4","3","4","3","4","3","1","4","3","5","3","4","4","3","3","2","4","4","4","4","6","3","7","5","5","5","6","5","5","5","6","5","5","4","6","3","5","732534816976932865","刘","137","Female","[""好她"",""坏她"",""坏我"",""好我""]","[""强她"",""弱她"",""弱我"",""强我""]","","","","","","","","yes","","","","","","","","","SRET","EW_formal","","key","j","16.68430097087386","960","536","自己","缓慢","Negative","ability","","","","","","","","","","",""
"809","","j","psychophysics","99","284024","0.0-7.0-3.0-0.85","4","3","3","3","2","4","3","2","5","5","4","0","1","-1","0","-1","-1","0","0","5","4","5","4","4","4","4","4","4","3","6","7","6","7","6","6","7","6","7","4","3","2","4","4","3","4","3","4","3","1","4","3","5","3","4","4","3","3","2","4","4","4","4","6","3","7","5","5","5","6","5","5","5","6","5","5","4","6","3","5","732534816976932865","刘","137","Female","[""好她"",""坏她"",""坏我"",""好我""]","[""强她"",""弱她"",""弱我"",""强我""]","","","","","","","","yes","","","","","","","","","SRET","EW_formal","","key","j","16.684129629629616","960","536","自己","主见","Positive","ability","","","","","","","","","","",""
"1054","","f","psychophysics","100","286079","0.0-7.0-3.0-0.86","4","3","3","3","2","4","3","2","5","5","4","0","1","-1","0","-1","-1","0","0","5","4","5","4","4","4","4","4","4","3","6","7","6","7","6","6","7","6","7","4","3","2","4","4","3","4","3","4","3","1","4","3","5","3","4","4","3","3","2","4","4","4","4","6","3","7","5","5","5","6","5","5","5","6","5","5","4","6","3","5","732534816976932865","刘","137","Female","[""好她"",""坏她"",""坏我"",""好我""]","[""强她"",""弱她"",""弱我"",""强我""]","","","","","","","","no","","","","","","","","","SRET","EW_formal","","key","f","16.68354918032772","960","536","朋友","低俗","Negative","morality","","","","","","","","","","",""
"926","","j","psychophysics","101","288007","0.0-7.0-3.0-0.87","4","3","3","3","2","4","3","2","5","5","4","0","1","-1","0","-1","-1","0","0","5","4","5","4","4","4","4","4","4","3","6","7","6","7","6","6","7","6","7","4","3","2","4","4","3","4","3","4","3","1","4","3","5","3","4","4","3","3","2","4","4","4","4","6","3","7","5","5","5","6","5","5","5","6","5","5","4","6","3","5","732534816976932865","刘","137","Female","[""好她"",""坏她"",""坏我"",""好我""]","[""强她"",""弱她"",""弱我"",""强我""]","","","","","","","","yes","","","","","","","","","SRET","EW_formal","","key","j","16.682739130434904","960","536","朋友","素养","Positive","morality","","","","","","","","","","",""
"9629","
    <p><div style='color:white;font-size:35px; line-height:20px;'>计算任务</div></p><br>
    <p><div style='color:red;font-size:25px; line-height:20px;'>接下来，您将看到一些四则运算题，<b>请从键盘选择 0-9 进行反应。</b></div></p>
    <p><div style='color:red;font-size:25px; line-height:20px;'>请尽可能快地进行计算，计算的速度和正确率将影响报酬的发放。</div></p>
    <p><div class='footer' style='color:white;font-size:25px; line-height:20px;'>如果对本实验还有不清楚之处，请立即向实验员咨询。</p><p style='color:white;font-size:25px; line-height:20px;'>如果您明白了规则：</p><p style='color:white;font-size:22px; line-height:20px;'>请按 继续 进入练习</p>
    </div>
    ","0","html-button-response","102","297639","0.0-7.0-4.0","4","3","3","3","2","4","3","2","5","5","4","0","1","-1","0","-1","-1","0","0","5","4","5","4","4","4","4","4","4","3","6","7","6","7","6","6","7","6","7","4","3","2","4","4","3","4","3","4","3","1","4","3","5","3","4","4","3","3","2","4","4","4","4","6","3","7","5","5","5","6","5","5","5","6","5","5","4","6","3","5","732534816976932865","刘","137","Female","[""好她"",""坏她"",""坏我"",""好我""]","[""强她"",""弱她"",""弱我"",""强我""]","","","","","","","","","","","","","","","","","SRET_math","math_instructions","Sun Jan 07 2024 13:43:48 GMT+0800 (中国标准时间)","","","","","","","","","","","","","","","","","","","",""
"2070","","9","psychophysics","103","299711","0.0-7.0-5.0-0.0","4","3","3","3","2","4","3","2","5","5","4","0","1","-1","0","-1","-1","0","0","5","4","5","4","4","4","4","4","4","3","6","7","6","7","6","6","7","6","7","4","3","2","4","4","3","4","3","4","3","1","4","3","5","3","4","4","3","3","2","4","4","4","4","6","3","7","5","5","5","6","5","5","5","6","5","5","4","6","3","5","732534816976932865","刘","137","Female","[""好她"",""坏她"",""坏我"",""好我""]","[""强她"",""弱她"",""弱我"",""强我""]","","","","","","","","9","","","","","","","","","SRET","SRET_math_calculate","","key","9","16.683338709677862","960","536","","","","","1*9= ?","9","1","","","","","","","",""
"1756","","9","psychophysics","104","301471","0.0-7.0-5.0-0.1","4","3","3","3","2","4","3","2","5","5","4","0","1","-1","0","-1","-1","0","0","5","4","5","4","4","4","4","4","4","3","6","7","6","7","6","6","7","6","7","4","3","2","4","4","3","4","3","4","3","1","4","3","5","3","4","4","3","3","2","4","4","4","4","6","3","7","5","5","5","6","5","5","5","6","5","5","4","6","3","5","732534816976932865","刘","137","Female","[""好她"",""坏她"",""坏我"",""好我""]","[""强她"",""弱她"",""弱我"",""强我""]","","","","","","","","9","","","","","","","","","SRET","SRET_math_calculate","","key","9","16.683523809523987","960","536","","","","","6+3= ?","9","1","","","","","","","",""
"1756","","3","psychophysics","105","303230","0.0-7.0-5.0-0.2","4","3","3","3","2","4","3","2","5","5","4","0","1","-1","0","-1","-1","0","0","5","4","5","4","4","4","4","4","4","3","6","7","6","7","6","6","7","6","7","4","3","2","4","4","3","4","3","4","3","1","4","3","5","3","4","4","3","3","2","4","4","4","4","6","3","7","5","5","5","6","5","5","5","6","5","5","4","6","3","5","732534816976932865","刘","137","Female","[""好她"",""坏她"",""坏我"",""好我""]","[""强她"",""弱她"",""弱我"",""强我""]","","","","","","","","3","","","","","","","","","SRET","SRET_math_calculate","","key","3","16.683144230768868","960","536","","","","","9-6= ?","3","1","","","","","","","",""
"2040","","8","psychophysics","106","305270","0.0-7.0-5.0-0.3","4","3","3","3","2","4","3","2","5","5","4","0","1","-1","0","-1","-1","0","0","5","4","5","4","4","4","4","4","4","3","6","7","6","7","6","6","7","6","7","4","3","2","4","4","3","4","3","4","3","1","4","3","5","3","4","4","3","3","2","4","4","4","4","6","3","7","5","5","5","6","5","5","5","6","5","5","4","6","3","5","732534816976932865","刘","137","Female","[""好她"",""坏她"",""坏我"",""好我""]","[""强她"",""弱她"",""弱我"",""强我""]","","","","","","","","8","","","","","","","","","SRET","SRET_math_calculate","","key","8","16.68295041322304","960","536","","","","","2*4= ?","8","1","","","","","","","",""
"1712","","4","psychophysics","107","306983","0.0-7.0-5.0-0.4","4","3","3","3","2","4","3","2","5","5","4","0","1","-1","0","-1","-1","0","0","5","4","5","4","4","4","4","4","4","3","6","7","6","7","6","6","7","6","7","4","3","2","4","4","3","4","3","4","3","1","4","3","5","3","4","4","3","3","2","4","4","4","4","6","3","7","5","5","5","6","5","5","5","6","5","5","4","6","3","5","732534816976932865","刘","137","Female","[""好她"",""坏她"",""坏我"",""好我""]","[""强她"",""弱她"",""弱我"",""强我""]","","","","","","","","4","","","","","","","","","SRET","SRET_math_calculate","","key","4","16.684009803921285","960","536","","","","","3+1= ?","4","1","","","","","","","",""
"1844","","2","psychophysics","108","308831","0.0-7.0-5.0-0.5","4","3","3","3","2","4","3","2","5","5","4","0","1","-1","0","-1","-1","0","0","5","4","5","4","4","4","4","4","4","3","6","7","6","7","6","6","7","6","7","4","3","2","4","4","3","4","3","4","3","1","4","3","5","3","4","4","3","3","2","4","4","4","4","6","3","7","5","5","5","6","5","5","5","6","5","5","4","6","3","5","732534816976932865","刘","137","Female","[""好她"",""坏她"",""坏我"",""好我""]","[""强她"",""弱她"",""弱我"",""强我""]","","","","","","","","2","","","","","","","","","SRET","SRET_math_calculate","","key","2","16.684236363635865","960","536","","","","","11-8= ?","3","0","","","","","","","",""
"2","","3","psychophysics","109","308837","0.0-7.0-5.0-0.6","4","3","3","3","2","4","3","2","5","5","4","0","1","-1","0","-1","-1","0","0","5","4","5","4","4","4","4","4","4","3","6","7","6","7","6","6","7","6","7","4","3","2","4","4","3","4","3","4","3","1","4","3","5","3","4","4","3","3","2","4","4","4","4","6","3","7","5","5","5","6","5","5","5","6","5","5","4","6","3","5","732534816976932865","刘","137","Female","[""好她"",""坏她"",""坏我"",""好我""]","[""强她"",""弱她"",""弱我"",""强我""]","","","","","","","","3","","","","","","","","","SRET","SRET_math_calculate","","key","3","NaN","960","536","","","","","1+8= ?","9","0","","","","","","","",""
"161","","3","psychophysics","110","308999","0.0-7.0-5.0-0.7","4","3","3","3","2","4","3","2","5","5","4","0","1","-1","0","-1","-1","0","0","5","4","5","4","4","4","4","4","4","3","6","7","6","7","6","6","7","6","7","4","3","2","4","4","3","4","3","4","3","1","4","3","5","3","4","4","3","3","2","4","4","4","4","6","3","7","5","5","5","6","5","5","5","6","5","5","4","6","3","5","732534816976932865","刘","137","Female","[""好她"",""坏她"",""坏我"",""好我""]","[""强她"",""弱她"",""弱我"",""强我""]","","","","","","","","3","","","","","","","","","SRET","SRET_math_calculate","","key","3","16.683666666665683","960","536","","","","","32-32= ?","0","0","","","","","","","",""
"1910","","8","psychophysics","111","310911","0.0-7.0-5.0-0.8","4","3","3","3","2","4","3","2","5","5","4","0","1","-1","0","-1","-1","0","0","5","4","5","4","4","4","4","4","4","3","6","7","6","7","6","6","7","6","7","4","3","2","4","4","3","4","3","4","3","1","4","3","5","3","4","4","3","3","2","4","4","4","4","6","3","7","5","5","5","6","5","5","5","6","5","5","4","6","3","5","732534816976932865","刘","137","Female","[""好她"",""坏她"",""坏我"",""好我""]","[""强她"",""弱她"",""弱我"",""强我""]","","","","","","","","8","","","","","","","","","SRET","SRET_math_calculate","","key","8","16.683761061947028","960","536","","","","","13-5= ?","8","1","","","","","","","",""
"1925","","6","psychophysics","112","312839","0.0-7.0-5.0-0.9","4","3","3","3","2","4","3","2","5","5","4","0","1","-1","0","-1","-1","0","0","5","4","5","4","4","4","4","4","4","3","6","7","6","7","6","6","7","6","7","4","3","2","4","4","3","4","3","4","3","1","4","3","5","3","4","4","3","3","2","4","4","4","4","6","3","7","5","5","5","6","5","5","5","6","5","5","4","6","3","5","732534816976932865","刘","137","Female","[""好她"",""坏她"",""坏我"",""好我""]","[""强她"",""弱她"",""弱我"",""强我""]","","","","","","","","6","","","","","","","","","SRET","SRET_math_calculate","","key","6","16.68363478260884","960","536","","","","","11-5= ?","6","1","","","","","","","",""
"1894","","7","psychophysics","113","314735","0.0-7.0-5.0-0.10","4","3","3","3","2","4","3","2","5","5","4","0","1","-1","0","-1","-1","0","0","5","4","5","4","4","4","4","4","4","3","6","7","6","7","6","6","7","6","7","4","3","2","4","4","3","4","3","4","3","1","4","3","5","3","4","4","3","3","2","4","4","4","4","6","3","7","5","5","5","6","5","5","5","6","5","5","4","6","3","5","732534816976932865","刘","137","Female","[""好她"",""坏她"",""坏我"",""好我""]","[""强她"",""弱她"",""弱我"",""强我""]","","","","","","","","7","","","","","","","","","SRET","SRET_math_calculate","","key","7","16.68327433628337","960","536","","","","","1+6= ?","7","1","","","","","","","",""
"1714","","4","psychophysics","114","316464","0.0-7.0-5.0-0.11","4","3","3","3","2","4","3","2","5","5","4","0","1","-1","0","-1","-1","0","0","5","4","5","4","4","4","4","4","4","3","6","7","6","7","6","6","7","6","7","4","3","2","4","4","3","4","3","4","3","1","4","3","5","3","4","4","3","3","2","4","4","4","4","6","3","7","5","5","5","6","5","5","5","6","5","5","4","6","3","5","732534816976932865","刘","137","Female","[""好她"",""坏她"",""坏我"",""好我""]","[""强她"",""弱她"",""弱我"",""强我""]","","","","","","","","4","","","","","","","","","SRET","SRET_math_calculate","","key","4","16.683980392156894","960","536","","","","","2+2= ?","4","1","","","","","","","",""
"1788","","1","psychophysics","115","318254","0.0-7.0-5.0-0.12","4","3","3","3","2","4","3","2","5","5","4","0","1","-1","0","-1","-1","0","0","5","4","5","4","4","4","4","4","4","3","6","7","6","7","6","6","7","6","7","4","3","2","4","4","3","4","3","4","3","1","4","3","5","3","4","4","3","3","2","4","4","4","4","6","3","7","5","5","5","6","5","5","5","6","5","5","4","6","3","5","732534816976932865","刘","137","Female","[""好她"",""坏她"",""坏我"",""好我""]","[""强她"",""弱她"",""弱我"",""强我""]","","","","","","","","1","","","","","","","","","SRET","SRET_math_calculate","","key","1","16.682626168224548","960","536","","","","","30-29= ?","1","1","","","","","","","",""
"1897","","8","psychophysics","116","320152","0.0-7.0-5.0-0.13","4","3","3","3","2","4","3","2","5","5","4","0","1","-1","0","-1","-1","0","0","5","4","5","4","4","4","4","4","4","3","6","7","6","7","6","6","7","6","7","4","3","2","4","4","3","4","3","4","3","1","4","3","5","3","4","4","3","3","2","4","4","4","4","6","3","7","5","5","5","6","5","5","5","6","5","5","4","6","3","5","732534816976932865","刘","137","Female","[""好她"",""坏她"",""坏我"",""好我""]","[""强她"",""弱她"",""弱我"",""强我""]","","","","","","","","8","","","","","","","","","SRET","SRET_math_calculate","","key","8","16.684330357143022","960","536","","","","","9-1= ?","8","1","","","","","","","",""
"1946","","0","psychophysics","117","322104","0.0-7.0-5.0-0.14","4","3","3","3","2","4","3","2","5","5","4","0","1","-1","0","-1","-1","0","0","5","4","5","4","4","4","4","4","4","3","6","7","6","7","6","6","7","6","7","4","3","2","4","4","3","4","3","4","3","1","4","3","5","3","4","4","3","3","2","4","4","4","4","6","3","7","5","5","5","6","5","5","5","6","5","5","4","6","3","5","732534816976932865","刘","137","Female","[""好她"",""坏她"",""坏我"",""好我""]","[""强她"",""弱她"",""弱我"",""强我""]","","","","","","","","0","","","","","","","","","SRET","SRET_math_calculate","","key","0","16.683827586206586","960","536","","","","","5*0= ?","0","1","","","","","","","",""
"1770","","8","psychophysics","118","323879","0.0-7.0-5.0-0.15","4","3","3","3","2","4","3","2","5","5","4","0","1","-1","0","-1","-1","0","0","5","4","5","4","4","4","4","4","4","3","6","7","6","7","6","6","7","6","7","4","3","2","4","4","3","4","3","4","3","1","4","3","5","3","4","4","3","3","2","4","4","4","4","6","3","7","5","5","5","6","5","5","5","6","5","5","4","6","3","5","732534816976932865","刘","137","Female","[""好她"",""坏她"",""坏我"",""好我""]","[""强她"",""弱她"",""弱我"",""强我""]","","","","","","","","8","","","","","","","","","SRET","SRET_math_calculate","","key","8","16.683141509433966","960","536","","","","","3+5= ?","8","1","","","","","","","",""
"1765","","5","psychophysics","119","325647","0.0-7.0-5.0-0.16","4","3","3","3","2","4","3","2","5","5","4","0","1","-1","0","-1","-1","0","0","5","4","5","4","4","4","4","4","4","3","6","7","6","7","6","6","7","6","7","4","3","2","4","4","3","4","3","4","3","1","4","3","5","3","4","4","3","3","2","4","4","4","4","6","3","7","5","5","5","6","5","5","5","6","5","5","4","6","3","5","732534816976932865","刘","137","Female","[""好她"",""坏她"",""坏我"",""好我""]","[""强她"",""弱她"",""弱我"",""强我""]","","","","","","","","5","","","","","","","","","SRET","SRET_math_calculate","","key","5","16.68306666666675","960","536","","","","","8-3= ? ","5","1","","","","","","","",""
"1870","","8","psychophysics","120","327519","0.0-7.0-5.0-0.17","4","3","3","3","2","4","3","2","5","5","4","0","1","-1","0","-1","-1","0","0","5","4","5","4","4","4","4","4","4","3","6","7","6","7","6","6","7","6","7","4","3","2","4","4","3","4","3","4","3","1","4","3","5","3","4","4","3","3","2","4","4","4","4","6","3","7","5","5","5","6","5","5","5","6","5","5","4","6","3","5","732534816976932865","刘","137","Female","[""好她"",""坏她"",""坏我"",""好我""]","[""强她"",""弱她"",""弱我"",""强我""]","","","","","","","","8","","","","","","","","","SRET","SRET_math_calculate","","key","8","16.68327027027021","960","536","","","","","11-3= ?","8","1","","","","","","","",""
"1837","","1","psychophysics","121","329359","0.0-7.0-5.0-0.18","4","3","3","3","2","4","3","2","5","5","4","0","1","-1","0","-1","-1","0","0","5","4","5","4","4","4","4","4","4","3","6","7","6","7","6","6","7","6","7","4","3","2","4","4","3","4","3","4","3","1","4","3","5","3","4","4","3","3","2","4","4","4","4","6","3","7","5","5","5","6","5","5","5","6","5","5","4","6","3","5","732534816976932865","刘","137","Female","[""好她"",""坏她"",""坏我"",""好我""]","[""强她"",""弱她"",""弱我"",""强我""]","","","","","","","","1","","","","","","","","","SRET","SRET_math_calculate","","key","1","16.68237614678913","960","536","","","","","8/4= ?","2","0","","","","","","","",""
"1901","","7","psychophysics","122","331262","0.0-7.0-5.0-0.19","4","3","3","3","2","4","3","2","5","5","4","0","1","-1","0","-1","-1","0","0","5","4","5","4","4","4","4","4","4","3","6","7","6","7","6","6","7","6","7","4","3","2","4","4","3","4","3","4","3","1","4","3","5","3","4","4","3","3","2","4","4","4","4","6","3","7","5","5","5","6","5","5","5","6","5","5","4","6","3","5","732534816976932865","刘","137","Female","[""好她"",""坏她"",""坏我"",""好我""]","[""强她"",""弱她"",""弱我"",""强我""]","","","","","","","","7","","","","","","","","","SRET","SRET_math_calculate","","key","7","16.683362831858158","960","536","","","","","8-1= ?","7","1","","","","","","","",""
"1808","","8","psychophysics","123","333071","0.0-7.0-5.0-0.20","4","3","3","3","2","4","3","2","5","5","4","0","1","-1","0","-1","-1","0","0","5","4","5","4","4","4","4","4","4","3","6","7","6","7","6","6","7","6","7","4","3","2","4","4","3","4","3","4","3","1","4","3","5","3","4","4","3","3","2","4","4","4","4","6","3","7","5","5","5","6","5","5","5","6","5","5","4","6","3","5","732534816976932865","刘","137","Female","[""好她"",""坏她"",""坏我"",""好我""]","[""强她"",""弱她"",""弱我"",""强我""]","","","","","","","","8","","","","","","","","","SRET","SRET_math_calculate","","key","8","16.684157407407636","960","536","","","","","1*8= ?","8","1","","","","","","","",""
"1811","","8","psychophysics","124","334886","0.0-7.0-5.0-0.21","4","3","3","3","2","4","3","2","5","5","4","0","1","-1","0","-1","-1","0","0","5","4","5","4","4","4","4","4","4","3","6","7","6","7","6","6","7","6","7","4","3","2","4","4","3","4","3","4","3","1","4","3","5","3","4","4","3","3","2","4","4","4","4","6","3","7","5","5","5","6","5","5","5","6","5","5","4","6","3","5","732534816976932865","刘","137","Female","[""好她"",""坏她"",""坏我"",""好我""]","[""强她"",""弱她"",""弱我"",""强我""]","","","","","","","","8","","","","","","","","","SRET","SRET_math_calculate","","key","8","16.683490740741103","960","536","","","","","50-42= ?","8","1","","","","","","","",""
"1991","","2","psychophysics","125","336879","0.0-7.0-5.0-0.22","4","3","3","3","2","4","3","2","5","5","4","0","1","-1","0","-1","-1","0","0","5","4","5","4","4","4","4","4","4","3","6","7","6","7","6","6","7","6","7","4","3","2","4","4","3","4","3","4","3","1","4","3","5","3","4","4","3","3","2","4","4","4","4","6","3","7","5","5","5","6","5","5","5","6","5","5","4","6","3","5","732534816976932865","刘","137","Female","[""好她"",""坏她"",""坏我"",""好我""]","[""强她"",""弱她"",""弱我"",""强我""]","","","","","","","","2","","","","","","","","","SRET","SRET_math_calculate","","key","2","16.683330508474345","960","536","","","","","29-27= ?","2","1","","","","","","","",""
"1766","","2","psychophysics","126","338648","0.0-7.0-5.0-0.23","4","3","3","3","2","4","3","2","5","5","4","0","1","-1","0","-1","-1","0","0","5","4","5","4","4","4","4","4","4","3","6","7","6","7","6","6","7","6","7","4","3","2","4","4","3","4","3","4","3","1","4","3","5","3","4","4","3","3","2","4","4","4","4","6","3","7","5","5","5","6","5","5","5","6","5","5","4","6","3","5","732534816976932865","刘","137","Female","[""好她"",""坏她"",""坏我"",""好我""]","[""强她"",""弱她"",""弱我"",""强我""]","","","","","","","","2","","","","","","","","","SRET","SRET_math_calculate","","key","2","16.683123809523835","960","536","","","","","18/9= ?","2","1","","","","","","","",""
"1884","","0","psychophysics","127","340534","0.0-7.0-5.0-0.24","4","3","3","3","2","4","3","2","5","5","4","0","1","-1","0","-1","-1","0","0","5","4","5","4","4","4","4","4","4","3","6","7","6","7","6","6","7","6","7","4","3","2","4","4","3","4","3","4","3","1","4","3","5","3","4","4","3","3","2","4","4","4","4","6","3","7","5","5","5","6","5","5","5","6","5","5","4","6","3","5","732534816976932865","刘","137","Female","[""好她"",""坏她"",""坏我"",""好我""]","[""强她"",""弱她"",""弱我"",""强我""]","","","","","","","","0","","","","","","","","","SRET","SRET_math_calculate","","key","0","16.683160714285936","960","536","","","","","12-12= ?","0","1","","","","","","","",""
"2512","","9","psychophysics","128","343046","0.0-7.0-5.0-0.25","4","3","3","3","2","4","3","2","5","5","4","0","1","-1","0","-1","-1","0","0","5","4","5","4","4","4","4","4","4","3","6","7","6","7","6","6","7","6","7","4","3","2","4","4","3","4","3","4","3","1","4","3","5","3","4","4","3","3","2","4","4","4","4","6","3","7","5","5","5","6","5","5","5","6","5","5","4","6","3","5","732534816976932865","刘","137","Female","[""好她"",""坏她"",""坏我"",""好我""]","[""强她"",""弱她"",""弱我"",""强我""]","","","","","","","","9","","","","","","","","","SRET","SRET_math_calculate","","key","9","16.683253333333415","960","536","","","","","81/9= ?","9","1","","","","","","","",""
"2547","","7","psychophysics","129","345597","0.0-7.0-5.0-0.26","4","3","3","3","2","4","3","2","5","5","4","0","1","-1","0","-1","-1","0","0","5","4","5","4","4","4","4","4","4","3","6","7","6","7","6","6","7","6","7","4","3","2","4","4","3","4","3","4","3","1","4","3","5","3","4","4","3","3","2","4","4","4","4","6","3","7","5","5","5","6","5","5","5","6","5","5","4","6","3","5","732534816976932865","刘","137","Female","[""好她"",""坏她"",""坏我"",""好我""]","[""强她"",""弱她"",""弱我"",""强我""]","","","","","","","","7","","","","","","","","","SRET","SRET_math_calculate","","key","7","16.683263157894544","960","536","","","","","49/7 = ?","7","1","","","","","","","",""
"1945","","7","psychophysics","130","347543","0.0-7.0-5.0-0.27","4","3","3","3","2","4","3","2","5","5","4","0","1","-1","0","-1","-1","0","0","5","4","5","4","4","4","4","4","4","3","6","7","6","7","6","6","7","6","7","4","3","2","4","4","3","4","3","4","3","1","4","3","5","3","4","4","3","3","2","4","4","4","4","6","3","7","5","5","5","6","5","5","5","6","5","5","4","6","3","5","732534816976932865","刘","137","Female","[""好她"",""坏她"",""坏我"",""好我""]","[""强她"",""弱她"",""弱我"",""强我""]","","","","","","","","7","","","","","","","","","SRET","SRET_math_calculate","","key","7","16.68326086956532","960","536","","","","","3+4= ?","7","1","","","","","","","",""
"1837","","5","psychophysics","131","349383","0.0-7.0-5.0-0.28","4","3","3","3","2","4","3","2","5","5","4","0","1","-1","0","-1","-1","0","0","5","4","5","4","4","4","4","4","4","3","6","7","6","7","6","6","7","6","7","4","3","2","4","4","3","4","3","4","3","1","4","3","5","3","4","4","3","3","2","4","4","4","4","6","3","7","5","5","5","6","5","5","5","6","5","5","4","6","3","5","732534816976932865","刘","137","Female","[""好她"",""坏她"",""坏我"",""好我""]","[""强她"",""弱她"",""弱我"",""强我""]","","","","","","","","5","","","","","","","","","SRET","SRET_math_calculate","","key","5","16.682834862385356","960","536","","","","","3+2= ?","5","1","","","","","","","",""
"2227","","7","psychophysics","132","351613","0.0-7.0-5.0-0.29","4","3","3","3","2","4","3","2","5","5","4","0","1","-1","0","-1","-1","0","0","5","4","5","4","4","4","4","4","4","3","6","7","6","7","6","6","7","6","7","4","3","2","4","4","3","4","3","4","3","1","4","3","5","3","4","4","3","3","2","4","4","4","4","6","3","7","5","5","5","6","5","5","5","6","5","5","4","6","3","5","732534816976932865","刘","137","Female","[""好她"",""坏她"",""坏我"",""好我""]","[""强她"",""弱她"",""弱我"",""强我""]","","","","","","","","7","","","","","","","","","SRET","SRET_math_calculate","","key","7","16.68323308270673","960","536","","","","","11-4= ?","7","1","","","","","","","",""
"1896","","9","psychophysics","133","353511","0.0-7.0-5.0-0.30","4","3","3","3","2","4","3","2","5","5","4","0","1","-1","0","-1","-1","0","0","5","4","5","4","4","4","4","4","4","3","6","7","6","7","6","6","7","6","7","4","3","2","4","4","3","4","3","4","3","1","4","3","5","3","4","4","3","3","2","4","4","4","4","6","3","7","5","5","5","6","5","5","5","6","5","5","4","6","3","5","732534816976932865","刘","137","Female","[""好她"",""坏她"",""坏我"",""好我""]","[""强她"",""弱她"",""弱我"",""强我""]","","","","","","","","9","","","","","","","","","SRET","SRET_math_calculate","","key","9","16.68400000000014","960","536","","","","","3*3= ?","9","1","","","","","","","",""
"1866","","2","psychophysics","134","355381","0.0-7.0-5.0-0.31","4","3","3","3","2","4","3","2","5","5","4","0","1","-1","0","-1","-1","0","0","5","4","5","4","4","4","4","4","4","3","6","7","6","7","6","6","7","6","7","4","3","2","4","4","3","4","3","4","3","1","4","3","5","3","4","4","3","3","2","4","4","4","4","6","3","7","5","5","5","6","5","5","5","6","5","5","4","6","3","5","732534816976932865","刘","137","Female","[""好她"",""坏她"",""坏我"",""好我""]","[""强她"",""弱她"",""弱我"",""强我""]","","","","","","","","2","","","","","","","","","SRET","SRET_math_calculate","","key","2","16.683828828829082","960","536","","","","","1+1= ?","2","1","","","","","","","",""
"2656","","5","psychophysics","135","358038","0.0-7.0-5.0-0.32","4","3","3","3","2","4","3","2","5","5","4","0","1","-1","0","-1","-1","0","0","5","4","5","4","4","4","4","4","4","3","6","7","6","7","6","6","7","6","7","4","3","2","4","4","3","4","3","4","3","1","4","3","5","3","4","4","3","3","2","4","4","4","4","6","3","7","5","5","5","6","5","5","5","6","5","5","4","6","3","5","732534816976932865","刘","137","Female","[""好她"",""坏她"",""坏我"",""好我""]","[""强她"",""弱她"",""弱我"",""强我""]","","","","","","","","5","","","","","","","","","SRET","SRET_math_calculate","","key","5","16.683443037974662","960","536","","","","","14-9= ?","5","1","","","","","","","",""
"1787","","9","psychophysics","136","359830","0.0-7.0-5.0-0.33","4","3","3","3","2","4","3","2","5","5","4","0","1","-1","0","-1","-1","0","0","5","4","5","4","4","4","4","4","4","3","6","7","6","7","6","6","7","6","7","4","3","2","4","4","3","4","3","4","3","1","4","3","5","3","4","4","3","3","2","4","4","4","4","6","3","7","5","5","5","6","5","5","5","6","5","5","4","6","3","5","732534816976932865","刘","137","Female","[""好她"",""坏她"",""坏我"",""好我""]","[""强她"",""弱她"",""弱我"",""强我""]","","","","","","","","9","","","","","","","","","SRET","SRET_math_calculate","","key","9","16.68334579439268","960","536","","","","","7+2= ?","9","1","","","","","","","",""
"1804","","7","psychophysics","137","361637","0.0-7.0-5.0-0.34","4","3","3","3","2","4","3","2","5","5","4","0","1","-1","0","-1","-1","0","0","5","4","5","4","4","4","4","4","4","3","6","7","6","7","6","6","7","6","7","4","3","2","4","4","3","4","3","4","3","1","4","3","5","3","4","4","3","3","2","4","4","4","4","6","3","7","5","5","5","6","5","5","5","6","5","5","4","6","3","5","732534816976932865","刘","137","Female","[""好她"",""坏她"",""坏我"",""好我""]","[""强她"",""弱她"",""弱我"",""强我""]","","","","","","","","7","","","","","","","","","SRET","SRET_math_calculate","","key","7","16.68306542056119","960","536","","","","","12-5= ?","7","1","","","","","","","",""
"1752","","5","psychophysics","138","363391","0.0-7.0-5.0-0.35","4","3","3","3","2","4","3","2","5","5","4","0","1","-1","0","-1","-1","0","0","5","4","5","4","4","4","4","4","4","3","6","7","6","7","6","6","7","6","7","4","3","2","4","4","3","4","3","4","3","1","4","3","5","3","4","4","3","3","2","4","4","4","4","6","3","7","5","5","5","6","5","5","5","6","5","5","4","6","3","5","732534816976932865","刘","137","Female","[""好她"",""坏她"",""坏我"",""好我""]","[""强她"",""弱她"",""弱我"",""强我""]","","","","","","","","5","","","","","","","","","SRET","SRET_math_calculate","","key","5","16.68425961538462","960","536","","","","","10-5= ?","5","1","","","","","","","",""
"2093","","8","psychophysics","139","365487","0.0-7.0-5.0-0.36","4","3","3","3","2","4","3","2","5","5","4","0","1","-1","0","-1","-1","0","0","5","4","5","4","4","4","4","4","4","3","6","7","6","7","6","6","7","6","7","4","3","2","4","4","3","4","3","4","3","1","4","3","5","3","4","4","3","3","2","4","4","4","4","6","3","7","5","5","5","6","5","5","5","6","5","5","4","6","3","5","732534816976932865","刘","137","Female","[""好她"",""坏她"",""坏我"",""好我""]","[""强她"",""弱她"",""弱我"",""强我""]","","","","","","","","8","","","","","","","","","SRET","SRET_math_calculate","","key","8","16.683223999999928","960","536","","","","","56/7= ?","8","1","","","","","","","",""
"2279","","4","psychophysics","140","367766","0.0-7.0-5.0-0.37","4","3","3","3","2","4","3","2","5","5","4","0","1","-1","0","-1","-1","0","0","5","4","5","4","4","4","4","4","4","3","6","7","6","7","6","6","7","6","7","4","3","2","4","4","3","4","3","4","3","1","4","3","5","3","4","4","3","3","2","4","4","4","4","6","3","7","5","5","5","6","5","5","5","6","5","5","4","6","3","5","732534816976932865","刘","137","Female","[""好她"",""坏她"",""坏我"",""好我""]","[""强她"",""弱她"",""弱我"",""强我""]","","","","","","","","4","","","","","","","","","SRET","SRET_math_calculate","","key","4","16.68325185185186","960","536","","","","","21/7=  ?","3","0","","","","","","","",""
"2060","","3","psychophysics","141","369831","0.0-7.0-5.0-0.38","4","3","3","3","2","4","3","2","5","5","4","0","1","-1","0","-1","-1","0","0","5","4","5","4","4","4","4","4","4","3","6","7","6","7","6","6","7","6","7","4","3","2","4","4","3","4","3","4","3","1","4","3","5","3","4","4","3","3","2","4","4","4","4","6","3","7","5","5","5","6","5","5","5","6","5","5","4","6","3","5","732534816976932865","刘","137","Female","[""好她"",""坏她"",""坏我"",""好我""]","[""强她"",""弱她"",""弱我"",""强我""]","","","","","","","","3","","","","","","","","","SRET","SRET_math_calculate","","key","3","16.683601626016603","960","536","","","","","9/3= ?","3","1","","","","","","","",""
