"rt","stimulus","response","trial_type","trial_index","time_elapsed","internal_node_id","swb_1","swb_2","swb_3","swb_4","swb_5","LOT_1","LOT_2","LOT_3","LOT_4","LOT_5","LOT_6","IPC_1","IPC_2","IPC_3","IPC_4","IPC_5","IPC_6","IPC_7","IPC_8","MorIden_1","MorIden_2","MorIden_3","MorIden_4","MorIden_5","MorIden_6","MorIden_7","MorIden_8","MorIden_9","MorIden_10","moralSeImag_1","moralSeImag_2","moralSeImag_3","moralSeImag_4","moralSeImag_5","moralSeImag_6","moralSeImag_7","moralSeImag_8","moralSeImag_9","sde_1","sde_2","sde_3","sde_4","sde_5","sde_6","sde_7","sde_8","sde_9","sde_10","trap2","sde_11","sde_12","sde_13","sde_14","sde_15","sde_16","sde_17","sde_18","sde_19","sde_20","IM_1","IM_2","IM_3","IM_4","IM_5","IM_6","IM_7","IM_8","IM_9","IM_10","IM_11","IM_12","IM_13","IM_14","IM_15","IM_16","IM_17","IM_18","IM_19","IM_20","subj_idx","friend_name","ParticipantID","Sex","Word","Word2","value","success","timeout","failed_images","failed_audio","failed_video","user_agent","responses","item_order","radio_event_ids","radio_event_times","key_event_times","mouse_event_times","straightlining","zigzagging","honeypot","view_history","response_type","key_press","avg_frame_time","center_x","center_y","correct_response","correct","identity","Image","word","condition","task_id","screen_id","time_stamp","person","valence","domain","math","status","duration","question_order","trap2_item"
"746","
   <p><div style='color:white; font-size: 25px'>您好，欢迎参加本次实验。</div></p>
   <p><div style='color:white; font-size: 25px'>为充分保障您的权利，请确保您已经知晓并同意《参与实验同意书》以及《数据公开知情同意书》。</div></p>
   <p><div style='color:white; font-size: 25px'>如果您未见过上述内容，请咨询实验员。</div></p>
   <p style='color:white; font-size: 25px'>如果您选择继续实验，则表示您已经清楚两份知情同意书的内容并同意。</p>
   <p><div style = ""color: pink;font-size:30px;"">请确保您记得day0的实验编号，您将在本次实验输入该编号，若您忘记，请咨询实验员后作答。</div></p>
   <p><div style = ""color:lightblue;font-size:25px;"">请您尽可能认真地作答，我们将依据您在各问卷和按键任务中的作答质量发放报酬。</div></p>
   <p> <div style = ""color: green""><按空格键至下页></div> </p>
   "," ","html-keyboard-response","0","748","0.0-0.0","7","7","7","7","7","5","5","5","5","5","5","2","2","2","2","2","2","2","2","5","5","5","5","5","5","4","5","5","4","8","7","8","7","8","7","7","8","8","7","7","7","7","7","6","6","1","7","7","1","7","7","7","7","7","7","7","7","7","7","7","7","7","7","7","7","7","7","7","7","7","7","7","7","7","7","7","7","7","7","598911150104510464","熊","576","Male","[""好我"",""坏我"",""好他"",""坏他""]","[""强我"",""弱我"",""强他"",""弱他""]","","","","","","","","","","","","","","","","","","","","","","","","","","","","","","","","","","","","","","",""
"","","","call-function","1","748","0.0-1.0-0.0","7","7","7","7","7","5","5","5","5","5","5","2","2","2","2","2","2","2","2","5","5","5","5","5","5","4","5","5","4","8","7","8","7","8","7","7","8","8","7","7","7","7","7","6","6","1","7","7","1","7","7","7","7","7","7","7","7","7","7","7","7","7","7","7","7","7","7","7","7","7","7","7","7","7","7","7","7","7","7","598911150104510464","熊","576","Male","[""好我"",""坏我"",""好他"",""坏他""]","[""强我"",""弱我"",""强他"",""弱他""]","","","","","","","","","","","","","","","","","","","","","","","","","","","","","","","","","","","","","","",""
"13759","","[{""name"":""Sex"",""value"":""0""},{""name"":""friend_name"",""value"":""熊""},{""name"":""ParticipantID"",""value"":""576""}]","survey-html-form","2","14508","0.0-1.0-1.0","7","7","7","7","7","5","5","5","5","5","5","2","2","2","2","2","2","2","2","5","5","5","5","5","5","4","5","5","4","8","7","8","7","8","7","7","8","8","7","7","7","7","7","6","6","1","7","7","1","7","7","7","7","7","7","7","7","7","7","7","7","7","7","7","7","7","7","7","7","7","7","7","7","7","7","7","7","7","7","598911150104510464","熊","576","Male","[""好我"",""坏我"",""好他"",""坏他""]","[""强我"",""弱我"",""强他"",""弱他""]","","","","","","","","","","","","","","","","","","","","","","","","","","","","","","","","","","","","","","",""
"","","","preload","3","14815","0.0-2.0","7","7","7","7","7","5","5","5","5","5","5","2","2","2","2","2","2","2","2","5","5","5","5","5","5","4","5","5","4","8","7","8","7","8","7","7","8","8","7","7","7","7","7","6","6","1","7","7","1","7","7","7","7","7","7","7","7","7","7","7","7","7","7","7","7","7","7","7","7","7","7","7","7","7","7","7","7","7","7","598911150104510464","熊","576","Male","[""好我"",""坏我"",""好他"",""坏他""]","[""强我"",""弱我"",""强他"",""弱他""]","","true","false","[]","[]","[]","","","","","","","","","","","","","","","","","","","","","","","","","","","","","","","","",""
"","","","fullscreen","4","15833","0.0-3.0","7","7","7","7","7","5","5","5","5","5","5","2","2","2","2","2","2","2","2","5","5","5","5","5","5","4","5","5","4","8","7","8","7","8","7","7","8","8","7","7","7","7","7","6","6","1","7","7","1","7","7","7","7","7","7","7","7","7","7","7","7","7","7","7","7","7","7","7","7","7","7","7","7","7","7","7","7","7","7","598911150104510464","熊","576","Male","[""好我"",""坏我"",""好他"",""坏他""]","[""强我"",""弱我"",""强他"",""弱他""]","","true","","","","","{}","","","","","","","","","","","","","","","","","","","","","","","","","","","","","","","",""
"5553.39999961853","","{""Q01"":""7"",""Q02"":""7"",""Q03"":""7"",""Q04"":""7"",""Q05"":""7""}","survey-template","5","21389","0.0-4.0","7","7","7","7","7","5","5","5","5","5","5","2","2","2","2","2","2","2","2","5","5","5","5","5","5","4","5","5","4","8","7","8","7","8","7","7","8","8","7","7","7","7","7","6","6","1","7","7","1","7","7","7","7","7","7","7","7","7","7","7","7","7","7","7","7","7","7","7","7","7","7","7","7","7","7","7","7","7","7","598911150104510464","熊","576","Male","[""好我"",""坏我"",""好他"",""坏他""]","[""强我"",""弱我"",""强他"",""弱他""]","","","","","","","","{""Q01"":""7"",""Q02"":""7"",""Q03"":""7"",""Q04"":""7"",""Q05"":""7""}","[0,1,2,3,4]","[""Q01"",""Q02"",""Q03"",""Q04"",""Q05""]","[1416.6000003814697,2096.7999992370605,2728.2000007629395,3424.6000003814697,4064.3999996185303]","[]","[1416.6000003814697,2096.7999992370605,2728.2000007629395,3232.5,3424.6000003814697,4064.3999996185303,5552.299999237061]","1","0","0","","","","","","","","","","","","","","","","","","","","","","",""
"6819.89999961853","","{""Q01"":""5"",""Q02"":""5"",""Q03"":""5"",""Q04"":""5"",""Q05"":""5"",""Q06"":""5""}","survey-template","6","28212","0.0-5.0","7","7","7","7","7","5","5","5","5","5","5","2","2","2","2","2","2","2","2","5","5","5","5","5","5","4","5","5","4","8","7","8","7","8","7","7","8","8","7","7","7","7","7","6","6","1","7","7","1","7","7","7","7","7","7","7","7","7","7","7","7","7","7","7","7","7","7","7","7","7","7","7","7","7","7","7","7","7","7","598911150104510464","熊","576","Male","[""好我"",""坏我"",""好他"",""坏他""]","[""强我"",""弱我"",""强他"",""弱他""]","","","","","","","","{""Q01"":""5"",""Q02"":""5"",""Q03"":""5"",""Q04"":""5"",""Q05"":""5"",""Q06"":""5""}","[0,1,2,3,4,5]","[""Q04"",""Q05"",""Q03"",""Q02"",""Q01"",""Q06""]","[1877.7999992370605,2163.3999996185303,2907.5,3691.2999992370605,4419.60000038147,6171.5]","[]","[1877.7999992370605,2163.3999996185303,2907.5,3691.2999992370605,4419.60000038147,5491.5,6171.5,6819.39999961853]","0.5","0.8","0","","","","","","","","","","","","","","","","","","","","","","",""
"12302.29999923706","","{""Q01"":""2"",""Q02"":""2"",""Q03"":""2"",""Q04"":""2"",""Q05"":""2"",""Q06"":""2"",""Q07"":""2"",""Q08"":""2""}","survey-template","7","40517","0.0-6.0","7","7","7","7","7","5","5","5","5","5","5","2","2","2","2","2","2","2","2","5","5","5","5","5","5","4","5","5","4","8","7","8","7","8","7","7","8","8","7","7","7","7","7","6","6","1","7","7","1","7","7","7","7","7","7","7","7","7","7","7","7","7","7","7","7","7","7","7","7","7","7","7","7","7","7","7","7","7","7","598911150104510464","熊","576","Male","[""好我"",""坏我"",""好他"",""坏他""]","[""强我"",""弱我"",""强他"",""弱他""]","","","","","","","","{""Q01"":""2"",""Q02"":""2"",""Q03"":""2"",""Q04"":""2"",""Q05"":""2"",""Q06"":""2"",""Q07"":""2"",""Q08"":""2""}","[0,1,2,3,4,5,6,7]","[""Q01"",""Q02"",""Q03"",""Q04"",""Q05"",""Q06"",""Q07"",""Q04"",""Q04"",""Q08""]","[1189.1999988555908,1573.6000003814697,2085.3999996185303,2557.699998855591,2861.3999996185303,3366.5,3822.1000003814697,6485.60000038147,8709.5,11837.10000038147]","[]","[1189.1999988555908,1573.6000003814697,2085.3999996185303,2373.6000003814697,2557.699998855591,2861.3999996185303,3366.5,3822.1000003814697,4413.39999961853,4797.10000038147,6485.60000038147,8709.5,11837.10000038147,12301.5]","1","0","0","","","","","","","","","","","","","","","","","","","","","","",""
"2757","","","instructions","8","43275","0.0-7.0","7","7","7","7","7","5","5","5","5","5","5","2","2","2","2","2","2","2","2","5","5","5","5","5","5","4","5","5","4","8","7","8","7","8","7","7","8","8","7","7","7","7","7","6","6","1","7","7","1","7","7","7","7","7","7","7","7","7","7","7","7","7","7","7","7","7","7","7","7","7","7","7","7","7","7","7","7","7","7","598911150104510464","熊","576","Male","[""好我"",""坏我"",""好他"",""坏他""]","[""强我"",""弱我"",""强他"",""弱他""]","","","","","","","","","","","","","","","","","[{""page_index"":0,""viewing_time"":2757}]","","","","","","","","","","","","","","","","","","","","","",""
"93080","","","instructions","9","136356","0.0-8.0-1.0-0.0","7","7","7","7","7","5","5","5","5","5","5","2","2","2","2","2","2","2","2","5","5","5","5","5","5","4","5","5","4","8","7","8","7","8","7","7","8","8","7","7","7","7","7","6","6","1","7","7","1","7","7","7","7","7","7","7","7","7","7","7","7","7","7","7","7","7","7","7","7","7","7","7","7","7","7","7","7","7","7","598911150104510464","熊","576","Male","[""好我"",""坏我"",""好他"",""坏他""]","[""强我"",""弱我"",""强他"",""弱他""]","","","","","","","","","","","","","","","","","[{""page_index"":0,""viewing_time"":35223},{""page_index"":1,""viewing_time"":56506},{""page_index"":2,""viewing_time"":742},{""page_index"":3,""viewing_time"":608}]","","","","","","","","","","","","","","","","","","","","","",""
"780","","j","psychophysics","10","138140","0.0-8.0-1.0-1.0-0.0-0.0","7","7","7","7","7","5","5","5","5","5","5","2","2","2","2","2","2","2","2","5","5","5","5","5","5","4","5","5","4","8","7","8","7","8","7","7","8","8","7","7","7","7","7","6","6","1","7","7","1","7","7","7","7","7","7","7","7","7","7","7","7","7","7","7","7","7","7","7","7","7","7","7","7","7","7","7","7","7","7","598911150104510464","熊","576","Male","[""好我"",""坏我"",""好他"",""坏他""]","[""强我"",""弱我"",""强他"",""弱他""]","","","","","","","","nonmatch","","","","","","","","","","key","j","16.65283018867908","768","428","j","true","nonmatch","img/circle.png","强他","强我","prac_ALT2_ability","practice_ability","","","","","","","","",""
"null","<span style='color:GreenYellow; font-size: 70px;'>正确! </span>","null","html-keyboard-response","11","138641","0.0-8.0-1.0-1.0-0.0-1.0","7","7","7","7","7","5","5","5","5","5","5","2","2","2","2","2","2","2","2","5","5","5","5","5","5","4","5","5","4","8","7","8","7","8","7","7","8","8","7","7","7","7","7","6","6","1","7","7","1","7","7","7","7","7","7","7","7","7","7","7","7","7","7","7","7","7","7","7","7","7","7","7","7","7","7","7","7","7","7","598911150104510464","熊","576","Male","[""好我"",""坏我"",""好他"",""坏他""]","[""强我"",""弱我"",""强他"",""弱他""]","","","","","","","","","","","","","","","","","","","","","","","","","","","","","","feedback_test","","","","","","","","",""
"489","","f","psychophysics","12","140132","0.0-8.0-1.0-1.0-0.0-0.1","7","7","7","7","7","5","5","5","5","5","5","2","2","2","2","2","2","2","2","5","5","5","5","5","5","4","5","5","4","8","7","8","7","8","7","7","8","8","7","7","7","7","7","6","6","1","7","7","1","7","7","7","7","7","7","7","7","7","7","7","7","7","7","7","7","7","7","7","7","7","7","7","7","7","7","7","7","7","7","598911150104510464","熊","576","Male","[""好我"",""坏我"",""好他"",""坏他""]","[""强我"",""弱我"",""强他"",""弱他""]","","","","","","","","match","","","","","","","","","","key","f","16.65056179775307","768","428","f","true","match","img/circle.png","强我","强我","prac_ALT2_ability","practice_ability","","","","","","","","",""
"null","<span style='color:GreenYellow; font-size: 70px;'>正确! </span>","null","html-keyboard-response","13","140632","0.0-8.0-1.0-1.0-0.0-1.1","7","7","7","7","7","5","5","5","5","5","5","2","2","2","2","2","2","2","2","5","5","5","5","5","5","4","5","5","4","8","7","8","7","8","7","7","8","8","7","7","7","7","7","6","6","1","7","7","1","7","7","7","7","7","7","7","7","7","7","7","7","7","7","7","7","7","7","7","7","7","7","7","7","7","7","7","7","7","7","598911150104510464","熊","576","Male","[""好我"",""坏我"",""好他"",""坏他""]","[""强我"",""弱我"",""强他"",""弱他""]","","","","","","","","","","","","","","","","","","","","","","","","","","","","","","feedback_test","","","","","","","","",""
"881","","f","psychophysics","14","142515","0.0-8.0-1.0-1.0-0.0-0.2","7","7","7","7","7","5","5","5","5","5","5","2","2","2","2","2","2","2","2","5","5","5","5","5","5","4","5","5","4","8","7","8","7","8","7","7","8","8","7","7","7","7","7","6","6","1","7","7","1","7","7","7","7","7","7","7","7","7","7","7","7","7","7","7","7","7","7","7","7","7","7","7","7","7","7","7","7","7","7","598911150104510464","熊","576","Male","[""好我"",""坏我"",""好他"",""坏他""]","[""强我"",""弱我"",""强他"",""弱他""]","","","","","","","","match","","","","","","","","","","key","f","16.651785714285715","768","428","f","true","match","img/trapezoid.png","弱我","弱我","prac_ALT2_ability","practice_ability","","","","","","","","",""
"null","<span style='color:GreenYellow; font-size: 70px;'>正确! </span>","null","html-keyboard-response","15","143016","0.0-8.0-1.0-1.0-0.0-1.2","7","7","7","7","7","5","5","5","5","5","5","2","2","2","2","2","2","2","2","5","5","5","5","5","5","4","5","5","4","8","7","8","7","8","7","7","8","8","7","7","7","7","7","6","6","1","7","7","1","7","7","7","7","7","7","7","7","7","7","7","7","7","7","7","7","7","7","7","7","7","7","7","7","7","7","7","7","7","7","598911150104510464","熊","576","Male","[""好我"",""坏我"",""好他"",""坏他""]","[""强我"",""弱我"",""强他"",""弱他""]","","","","","","","","","","","","","","","","","","","","","","","","","","","","","","feedback_test","","","","","","","","",""
"665","","f","psychophysics","16","144683","0.0-8.0-1.0-1.0-0.0-0.3","7","7","7","7","7","5","5","5","5","5","5","2","2","2","2","2","2","2","2","5","5","5","5","5","5","4","5","5","4","8","7","8","7","8","7","7","8","8","7","7","7","7","7","6","6","1","7","7","1","7","7","7","7","7","7","7","7","7","7","7","7","7","7","7","7","7","7","7","7","7","7","7","7","7","7","7","7","7","7","598911150104510464","熊","576","Male","[""好我"",""坏我"",""好他"",""坏他""]","[""强我"",""弱我"",""强他"",""弱他""]","","","","","","","","match","","","","","","","","","","key","f","16.65252525252531","768","428","f","true","match","img/trapezoid.png","弱我","弱我","prac_ALT2_ability","practice_ability","","","","","","","","",""
"null","<span style='color:GreenYellow; font-size: 70px;'>正确! </span>","null","html-keyboard-response","17","145184","0.0-8.0-1.0-1.0-0.0-1.3","7","7","7","7","7","5","5","5","5","5","5","2","2","2","2","2","2","2","2","5","5","5","5","5","5","4","5","5","4","8","7","8","7","8","7","7","8","8","7","7","7","7","7","6","6","1","7","7","1","7","7","7","7","7","7","7","7","7","7","7","7","7","7","7","7","7","7","7","7","7","7","7","7","7","7","7","7","7","7","598911150104510464","熊","576","Male","[""好我"",""坏我"",""好他"",""坏他""]","[""强我"",""弱我"",""强他"",""弱他""]","","","","","","","","","","","","","","","","","","","","","","","","","","","","","","feedback_test","","","","","","","","",""
"873","","j","psychophysics","18","147060","0.0-8.0-1.0-1.0-0.0-0.4","7","7","7","7","7","5","5","5","5","5","5","2","2","2","2","2","2","2","2","5","5","5","5","5","5","4","5","5","4","8","7","8","7","8","7","7","8","8","7","7","7","7","7","6","6","1","7","7","1","7","7","7","7","7","7","7","7","7","7","7","7","7","7","7","7","7","7","7","7","7","7","7","7","7","7","7","7","7","7","598911150104510464","熊","576","Male","[""好我"",""坏我"",""好他"",""坏他""]","[""强我"",""弱我"",""强他"",""弱他""]","","","","","","","","nonmatch","","","","","","","","","","key","j","16.651785714285715","768","428","j","true","nonmatch","img/pentagon.png","强我","弱他","prac_ALT2_ability","practice_ability","","","","","","","","",""
"null","<span style='color:GreenYellow; font-size: 70px;'>正确! </span>","null","html-keyboard-response","19","147561","0.0-8.0-1.0-1.0-0.0-1.4","7","7","7","7","7","5","5","5","5","5","5","2","2","2","2","2","2","2","2","5","5","5","5","5","5","4","5","5","4","8","7","8","7","8","7","7","8","8","7","7","7","7","7","6","6","1","7","7","1","7","7","7","7","7","7","7","7","7","7","7","7","7","7","7","7","7","7","7","7","7","7","7","7","7","7","7","7","7","7","598911150104510464","熊","576","Male","[""好我"",""坏我"",""好他"",""坏他""]","[""强我"",""弱我"",""强他"",""弱他""]","","","","","","","","","","","","","","","","","","","","","","","","","","","","","","feedback_test","","","","","","","","",""
"841","","j","psychophysics","20","149403","0.0-8.0-1.0-1.0-0.0-0.5","7","7","7","7","7","5","5","5","5","5","5","2","2","2","2","2","2","2","2","5","5","5","5","5","5","4","5","5","4","8","7","8","7","8","7","7","8","8","7","7","7","7","7","6","6","1","7","7","1","7","7","7","7","7","7","7","7","7","7","7","7","7","7","7","7","7","7","7","7","7","7","7","7","7","7","7","7","7","7","598911150104510464","熊","576","Male","[""好我"",""坏我"",""好他"",""坏他""]","[""强我"",""弱我"",""强他"",""弱他""]","","","","","","","","nonmatch","","","","","","","","","","key","j","16.650909090909146","768","428","j","true","nonmatch","img/diamond.png","弱他","强他","prac_ALT2_ability","practice_ability","","","","","","","","",""
"null","<span style='color:GreenYellow; font-size: 70px;'>正确! </span>","null","html-keyboard-response","21","149904","0.0-8.0-1.0-1.0-0.0-1.5","7","7","7","7","7","5","5","5","5","5","5","2","2","2","2","2","2","2","2","5","5","5","5","5","5","4","5","5","4","8","7","8","7","8","7","7","8","8","7","7","7","7","7","6","6","1","7","7","1","7","7","7","7","7","7","7","7","7","7","7","7","7","7","7","7","7","7","7","7","7","7","7","7","7","7","7","7","7","7","598911150104510464","熊","576","Male","[""好我"",""坏我"",""好他"",""坏他""]","[""强我"",""弱我"",""强他"",""弱他""]","","","","","","","","","","","","","","","","","","","","","","","","","","","","","","feedback_test","","","","","","","","",""
"913","","j","psychophysics","22","151819","0.0-8.0-1.0-1.0-0.0-0.6","7","7","7","7","7","5","5","5","5","5","5","2","2","2","2","2","2","2","2","5","5","5","5","5","5","4","5","5","4","8","7","8","7","8","7","7","8","8","7","7","7","7","7","6","6","1","7","7","1","7","7","7","7","7","7","7","7","7","7","7","7","7","7","7","7","7","7","7","7","7","7","7","7","7","7","7","7","7","7","598911150104510464","熊","576","Male","[""好我"",""坏我"",""好他"",""坏他""]","[""强我"",""弱我"",""强他"",""弱他""]","","","","","","","","nonmatch","","","","","","","","","","key","j","16.649122807017545","768","428","j","true","nonmatch","img/trapezoid.png","强我","弱我","prac_ALT2_ability","practice_ability","","","","","","","","",""
"null","<span style='color:GreenYellow; font-size: 70px;'>正确! </span>","null","html-keyboard-response","23","152321","0.0-8.0-1.0-1.0-0.0-1.6","7","7","7","7","7","5","5","5","5","5","5","2","2","2","2","2","2","2","2","5","5","5","5","5","5","4","5","5","4","8","7","8","7","8","7","7","8","8","7","7","7","7","7","6","6","1","7","7","1","7","7","7","7","7","7","7","7","7","7","7","7","7","7","7","7","7","7","7","7","7","7","7","7","7","7","7","7","7","7","598911150104510464","熊","576","Male","[""好我"",""坏我"",""好他"",""坏他""]","[""强我"",""弱我"",""强他"",""弱他""]","","","","","","","","","","","","","","","","","","","","","","","","","","","","","","feedback_test","","","","","","","","",""
"652","","f","psychophysics","24","153974","0.0-8.0-1.0-1.0-0.0-0.7","7","7","7","7","7","5","5","5","5","5","5","2","2","2","2","2","2","2","2","5","5","5","5","5","5","4","5","5","4","8","7","8","7","8","7","7","8","8","7","7","7","7","7","6","6","1","7","7","1","7","7","7","7","7","7","7","7","7","7","7","7","7","7","7","7","7","7","7","7","7","7","7","7","7","7","7","7","7","7","598911150104510464","熊","576","Male","[""好我"",""坏我"",""好他"",""坏他""]","[""强我"",""弱我"",""强他"",""弱他""]","","","","","","","","match","","","","","","","","","","key","f","16.652040816326473","768","428","f","true","match","img/diamond.png","强他","强他","prac_ALT2_ability","practice_ability","","","","","","","","",""
"null","<span style='color:GreenYellow; font-size: 70px;'>正确! </span>","null","html-keyboard-response","25","154475","0.0-8.0-1.0-1.0-0.0-1.7","7","7","7","7","7","5","5","5","5","5","5","2","2","2","2","2","2","2","2","5","5","5","5","5","5","4","5","5","4","8","7","8","7","8","7","7","8","8","7","7","7","7","7","6","6","1","7","7","1","7","7","7","7","7","7","7","7","7","7","7","7","7","7","7","7","7","7","7","7","7","7","7","7","7","7","7","7","7","7","598911150104510464","熊","576","Male","[""好我"",""坏我"",""好他"",""坏他""]","[""强我"",""弱我"",""强他"",""弱他""]","","","","","","","","","","","","","","","","","","","","","","","","","","","","","","feedback_test","","","","","","","","",""
"655","","f","psychophysics","26","156132","0.0-8.0-1.0-1.0-0.0-0.8","7","7","7","7","7","5","5","5","5","5","5","2","2","2","2","2","2","2","2","5","5","5","5","5","5","4","5","5","4","8","7","8","7","8","7","7","8","8","7","7","7","7","7","6","6","1","7","7","1","7","7","7","7","7","7","7","7","7","7","7","7","7","7","7","7","7","7","7","7","7","7","7","7","7","7","7","7","7","7","598911150104510464","熊","576","Male","[""好我"",""坏我"",""好他"",""坏他""]","[""强我"",""弱我"",""强他"",""弱他""]","","","","","","","","match","","","","","","","","","","key","f","16.651515151515152","768","428","f","true","match","img/pentagon.png","弱他","弱他","prac_ALT2_ability","practice_ability","","","","","","","","",""
"null","<span style='color:GreenYellow; font-size: 70px;'>正确! </span>","null","html-keyboard-response","27","156634","0.0-8.0-1.0-1.0-0.0-1.8","7","7","7","7","7","5","5","5","5","5","5","2","2","2","2","2","2","2","2","5","5","5","5","5","5","4","5","5","4","8","7","8","7","8","7","7","8","8","7","7","7","7","7","6","6","1","7","7","1","7","7","7","7","7","7","7","7","7","7","7","7","7","7","7","7","7","7","7","7","7","7","7","7","7","7","7","7","7","7","598911150104510464","熊","576","Male","[""好我"",""坏我"",""好他"",""坏他""]","[""强我"",""弱我"",""强他"",""弱他""]","","","","","","","","","","","","","","","","","","","","","","","","","","","","","","feedback_test","","","","","","","","",""
"728","","f","psychophysics","28","158364","0.0-8.0-1.0-1.0-0.0-0.9","7","7","7","7","7","5","5","5","5","5","5","2","2","2","2","2","2","2","2","5","5","5","5","5","5","4","5","5","4","8","7","8","7","8","7","7","8","8","7","7","7","7","7","6","6","1","7","7","1","7","7","7","7","7","7","7","7","7","7","7","7","7","7","7","7","7","7","7","7","7","7","7","7","7","7","7","7","7","7","598911150104510464","熊","576","Male","[""好我"",""坏我"",""好他"",""坏他""]","[""强我"",""弱我"",""强他"",""弱他""]","","","","","","","","match","","","","","","","","","","key","f","16.650485436893202","768","428","j","false","nonmatch","img/pentagon.png","强他","弱他","prac_ALT2_ability","practice_ability","","","","","","","","",""
"null","<span style='color:red; font-size: 70px;'>错误! </span>","null","html-keyboard-response","29","158866","0.0-8.0-1.0-1.0-0.0-1.9","7","7","7","7","7","5","5","5","5","5","5","2","2","2","2","2","2","2","2","5","5","5","5","5","5","4","5","5","4","8","7","8","7","8","7","7","8","8","7","7","7","7","7","6","6","1","7","7","1","7","7","7","7","7","7","7","7","7","7","7","7","7","7","7","7","7","7","7","7","7","7","7","7","7","7","7","7","7","7","598911150104510464","熊","576","Male","[""好我"",""坏我"",""好他"",""坏他""]","[""强我"",""弱我"",""强他"",""弱他""]","","","","","","","","","","","","","","","","","","","","","","","","","","","","","","feedback_test","","","","","","","","",""
"815","","j","psychophysics","30","160683","0.0-8.0-1.0-1.0-0.0-0.10","7","7","7","7","7","5","5","5","5","5","5","2","2","2","2","2","2","2","2","5","5","5","5","5","5","4","5","5","4","8","7","8","7","8","7","7","8","8","7","7","7","7","7","6","6","1","7","7","1","7","7","7","7","7","7","7","7","7","7","7","7","7","7","7","7","7","7","7","7","7","7","7","7","7","7","7","7","7","7","598911150104510464","熊","576","Male","[""好我"",""坏我"",""好他"",""坏他""]","[""强我"",""弱我"",""强他"",""弱他""]","","","","","","","","nonmatch","","","","","","","","","","key","j","16.65092592592582","768","428","f","false","match","img/diamond.png","强他","强他","prac_ALT2_ability","practice_ability","","","","","","","","",""
"null","<span style='color:red; font-size: 70px;'>错误! </span>","null","html-keyboard-response","31","161185","0.0-8.0-1.0-1.0-0.0-1.10","7","7","7","7","7","5","5","5","5","5","5","2","2","2","2","2","2","2","2","5","5","5","5","5","5","4","5","5","4","8","7","8","7","8","7","7","8","8","7","7","7","7","7","6","6","1","7","7","1","7","7","7","7","7","7","7","7","7","7","7","7","7","7","7","7","7","7","7","7","7","7","7","7","7","7","7","7","7","7","598911150104510464","熊","576","Male","[""好我"",""坏我"",""好他"",""坏他""]","[""强我"",""弱我"",""强他"",""弱他""]","","","","","","","","","","","","","","","","","","","","","","","","","","","","","","feedback_test","","","","","","","","",""
"592","","f","psychophysics","32","162779","0.0-8.0-1.0-1.0-0.0-0.11","7","7","7","7","7","5","5","5","5","5","5","2","2","2","2","2","2","2","2","5","5","5","5","5","5","4","5","5","4","8","7","8","7","8","7","7","8","8","7","7","7","7","7","6","6","1","7","7","1","7","7","7","7","7","7","7","7","7","7","7","7","7","7","7","7","7","7","7","7","7","7","7","7","7","7","7","7","7","7","598911150104510464","熊","576","Male","[""好我"",""坏我"",""好他"",""坏他""]","[""强我"",""弱我"",""强他"",""弱他""]","","","","","","","","match","","","","","","","","","","key","f","16.65157894736836","768","428","f","true","match","img/circle.png","强我","强我","prac_ALT2_ability","practice_ability","","","","","","","","",""
"null","<span style='color:GreenYellow; font-size: 70px;'>正确! </span>","null","html-keyboard-response","33","163280","0.0-8.0-1.0-1.0-0.0-1.11","7","7","7","7","7","5","5","5","5","5","5","2","2","2","2","2","2","2","2","5","5","5","5","5","5","4","5","5","4","8","7","8","7","8","7","7","8","8","7","7","7","7","7","6","6","1","7","7","1","7","7","7","7","7","7","7","7","7","7","7","7","7","7","7","7","7","7","7","7","7","7","7","7","7","7","7","7","7","7","598911150104510464","熊","576","Male","[""好我"",""坏我"",""好他"",""坏他""]","[""强我"",""弱我"",""强他"",""弱他""]","","","","","","","","","","","","","","","","","","","","","","","","","","","","","","feedback_test","","","","","","","","",""
"754","","f","psychophysics","34","165036","0.0-8.0-1.0-1.0-0.0-0.12","7","7","7","7","7","5","5","5","5","5","5","2","2","2","2","2","2","2","2","5","5","5","5","5","5","4","5","5","4","8","7","8","7","8","7","7","8","8","7","7","7","7","7","6","6","1","7","7","1","7","7","7","7","7","7","7","7","7","7","7","7","7","7","7","7","7","7","7","7","7","7","7","7","7","7","7","7","7","7","598911150104510464","熊","576","Male","[""好我"",""坏我"",""好他"",""坏他""]","[""强我"",""弱我"",""强他"",""弱他""]","","","","","","","","match","","","","","","","","","","key","f","16.651923076922966","768","428","f","true","match","img/diamond.png","强他","强他","prac_ALT2_ability","practice_ability","","","","","","","","",""
"null","<span style='color:GreenYellow; font-size: 70px;'>正确! </span>","null","html-keyboard-response","35","165536","0.0-8.0-1.0-1.0-0.0-1.12","7","7","7","7","7","5","5","5","5","5","5","2","2","2","2","2","2","2","2","5","5","5","5","5","5","4","5","5","4","8","7","8","7","8","7","7","8","8","7","7","7","7","7","6","6","1","7","7","1","7","7","7","7","7","7","7","7","7","7","7","7","7","7","7","7","7","7","7","7","7","7","7","7","7","7","7","7","7","7","598911150104510464","熊","576","Male","[""好我"",""坏我"",""好他"",""坏他""]","[""强我"",""弱我"",""强他"",""弱他""]","","","","","","","","","","","","","","","","","","","","","","","","","","","","","","feedback_test","","","","","","","","",""
"721","","f","psychophysics","36","167259","0.0-8.0-1.0-1.0-0.0-0.13","7","7","7","7","7","5","5","5","5","5","5","2","2","2","2","2","2","2","2","5","5","5","5","5","5","4","5","5","4","8","7","8","7","8","7","7","8","8","7","7","7","7","7","6","6","1","7","7","1","7","7","7","7","7","7","7","7","7","7","7","7","7","7","7","7","7","7","7","7","7","7","7","7","7","7","7","7","7","7","598911150104510464","熊","576","Male","[""好我"",""坏我"",""好他"",""坏他""]","[""强我"",""弱我"",""强他"",""弱他""]","","","","","","","","match","","","","","","","","","","key","f","16.64803921568633","768","428","j","false","nonmatch","img/diamond.png","强我","强他","prac_ALT2_ability","practice_ability","","","","","","","","",""
"null","<span style='color:red; font-size: 70px;'>错误! </span>","null","html-keyboard-response","37","167761","0.0-8.0-1.0-1.0-0.0-1.13","7","7","7","7","7","5","5","5","5","5","5","2","2","2","2","2","2","2","2","5","5","5","5","5","5","4","5","5","4","8","7","8","7","8","7","7","8","8","7","7","7","7","7","6","6","1","7","7","1","7","7","7","7","7","7","7","7","7","7","7","7","7","7","7","7","7","7","7","7","7","7","7","7","7","7","7","7","7","7","598911150104510464","熊","576","Male","[""好我"",""坏我"",""好他"",""坏他""]","[""强我"",""弱我"",""强他"",""弱他""]","","","","","","","","","","","","","","","","","","","","","","","","","","","","","","feedback_test","","","","","","","","",""
"819","","f","psychophysics","38","169581","0.0-8.0-1.0-1.0-0.0-0.14","7","7","7","7","7","5","5","5","5","5","5","2","2","2","2","2","2","2","2","5","5","5","5","5","5","4","5","5","4","8","7","8","7","8","7","7","8","8","7","7","7","7","7","6","6","1","7","7","1","7","7","7","7","7","7","7","7","7","7","7","7","7","7","7","7","7","7","7","7","7","7","7","7","7","7","7","7","7","7","598911150104510464","熊","576","Male","[""好我"",""坏我"",""好他"",""坏他""]","[""强我"",""弱我"",""强他"",""弱他""]","","","","","","","","match","","","","","","","","","","key","f","16.64907407407413","768","428","f","true","match","img/pentagon.png","弱他","弱他","prac_ALT2_ability","practice_ability","","","","","","","","",""
"null","<span style='color:GreenYellow; font-size: 70px;'>正确! </span>","null","html-keyboard-response","39","170083","0.0-8.0-1.0-1.0-0.0-1.14","7","7","7","7","7","5","5","5","5","5","5","2","2","2","2","2","2","2","2","5","5","5","5","5","5","4","5","5","4","8","7","8","7","8","7","7","8","8","7","7","7","7","7","6","6","1","7","7","1","7","7","7","7","7","7","7","7","7","7","7","7","7","7","7","7","7","7","7","7","7","7","7","7","7","7","7","7","7","7","598911150104510464","熊","576","Male","[""好我"",""坏我"",""好他"",""坏他""]","[""强我"",""弱我"",""强他"",""弱他""]","","","","","","","","","","","","","","","","","","","","","","","","","","","","","","feedback_test","","","","","","","","",""
"696","","j","psychophysics","40","171781","0.0-8.0-1.0-1.0-0.0-0.15","7","7","7","7","7","5","5","5","5","5","5","2","2","2","2","2","2","2","2","5","5","5","5","5","5","4","5","5","4","8","7","8","7","8","7","7","8","8","7","7","7","7","7","6","6","1","7","7","1","7","7","7","7","7","7","7","7","7","7","7","7","7","7","7","7","7","7","7","7","7","7","7","7","7","7","7","7","7","7","598911150104510464","熊","576","Male","[""好我"",""坏我"",""好他"",""坏他""]","[""强我"",""弱我"",""强他"",""弱他""]","","","","","","","","nonmatch","","","","","","","","","","key","j","16.653000000000176","768","428","j","true","nonmatch","img/pentagon.png","弱我","弱他","prac_ALT2_ability","practice_ability","","","","","","","","",""
"null","<span style='color:GreenYellow; font-size: 70px;'>正确! </span>","null","html-keyboard-response","41","172282","0.0-8.0-1.0-1.0-0.0-1.15","7","7","7","7","7","5","5","5","5","5","5","2","2","2","2","2","2","2","2","5","5","5","5","5","5","4","5","5","4","8","7","8","7","8","7","7","8","8","7","7","7","7","7","6","6","1","7","7","1","7","7","7","7","7","7","7","7","7","7","7","7","7","7","7","7","7","7","7","7","7","7","7","7","7","7","7","7","7","7","598911150104510464","熊","576","Male","[""好我"",""坏我"",""好他"",""坏他""]","[""强我"",""弱我"",""强他"",""弱他""]","","","","","","","","","","","","","","","","","","","","","","","","","","","","","","feedback_test","","","","","","","","",""
"784","","j","psychophysics","42","174068","0.0-8.0-1.0-1.0-0.0-0.16","7","7","7","7","7","5","5","5","5","5","5","2","2","2","2","2","2","2","2","5","5","5","5","5","5","4","5","5","4","8","7","8","7","8","7","7","8","8","7","7","7","7","7","6","6","1","7","7","1","7","7","7","7","7","7","7","7","7","7","7","7","7","7","7","7","7","7","7","7","7","7","7","7","7","7","7","7","7","7","598911150104510464","熊","576","Male","[""好我"",""坏我"",""好他"",""坏他""]","[""强我"",""弱我"",""强他"",""弱他""]","","","","","","","","nonmatch","","","","","","","","","","key","j","16.651886792452885","768","428","j","true","nonmatch","img/diamond.png","弱我","强他","prac_ALT2_ability","practice_ability","","","","","","","","",""
"null","<span style='color:GreenYellow; font-size: 70px;'>正确! </span>","null","html-keyboard-response","43","174570","0.0-8.0-1.0-1.0-0.0-1.16","7","7","7","7","7","5","5","5","5","5","5","2","2","2","2","2","2","2","2","5","5","5","5","5","5","4","5","5","4","8","7","8","7","8","7","7","8","8","7","7","7","7","7","6","6","1","7","7","1","7","7","7","7","7","7","7","7","7","7","7","7","7","7","7","7","7","7","7","7","7","7","7","7","7","7","7","7","7","7","598911150104510464","熊","576","Male","[""好我"",""坏我"",""好他"",""坏他""]","[""强我"",""弱我"",""强他"",""弱他""]","","","","","","","","","","","","","","","","","","","","","","","","","","","","","","feedback_test","","","","","","","","",""
"864","","j","psychophysics","44","176436","0.0-8.0-1.0-1.0-0.0-0.17","7","7","7","7","7","5","5","5","5","5","5","2","2","2","2","2","2","2","2","5","5","5","5","5","5","4","5","5","4","8","7","8","7","8","7","7","8","8","7","7","7","7","7","6","6","1","7","7","1","7","7","7","7","7","7","7","7","7","7","7","7","7","7","7","7","7","7","7","7","7","7","7","7","7","7","7","7","7","7","598911150104510464","熊","576","Male","[""好我"",""坏我"",""好他"",""坏他""]","[""强我"",""弱我"",""强他"",""弱他""]","","","","","","","","nonmatch","","","","","","","","","","key","j","16.650450450450293","768","428","j","true","nonmatch","img/circle.png","弱他","强我","prac_ALT2_ability","practice_ability","","","","","","","","",""
"null","<span style='color:GreenYellow; font-size: 70px;'>正确! </span>","null","html-keyboard-response","45","176937","0.0-8.0-1.0-1.0-0.0-1.17","7","7","7","7","7","5","5","5","5","5","5","2","2","2","2","2","2","2","2","5","5","5","5","5","5","4","5","5","4","8","7","8","7","8","7","7","8","8","7","7","7","7","7","6","6","1","7","7","1","7","7","7","7","7","7","7","7","7","7","7","7","7","7","7","7","7","7","7","7","7","7","7","7","7","7","7","7","7","7","598911150104510464","熊","576","Male","[""好我"",""坏我"",""好他"",""坏他""]","[""强我"",""弱我"",""强他"",""弱他""]","","","","","","","","","","","","","","","","","","","","","","","","","","","","","","feedback_test","","","","","","","","",""
"897","","j","psychophysics","46","178835","0.0-8.0-1.0-1.0-0.0-0.18","7","7","7","7","7","5","5","5","5","5","5","2","2","2","2","2","2","2","2","5","5","5","5","5","5","4","5","5","4","8","7","8","7","8","7","7","8","8","7","7","7","7","7","6","6","1","7","7","1","7","7","7","7","7","7","7","7","7","7","7","7","7","7","7","7","7","7","7","7","7","7","7","7","7","7","7","7","7","7","598911150104510464","熊","576","Male","[""好我"",""坏我"",""好他"",""坏他""]","[""强我"",""弱我"",""强他"",""弱他""]","","","","","","","","nonmatch","","","","","","","","","","key","j","16.652212389380633","768","428","j","true","nonmatch","img/circle.png","弱我","强我","prac_ALT2_ability","practice_ability","","","","","","","","",""
"null","<span style='color:GreenYellow; font-size: 70px;'>正确! </span>","null","html-keyboard-response","47","179337","0.0-8.0-1.0-1.0-0.0-1.18","7","7","7","7","7","5","5","5","5","5","5","2","2","2","2","2","2","2","2","5","5","5","5","5","5","4","5","5","4","8","7","8","7","8","7","7","8","8","7","7","7","7","7","6","6","1","7","7","1","7","7","7","7","7","7","7","7","7","7","7","7","7","7","7","7","7","7","7","7","7","7","7","7","7","7","7","7","7","7","598911150104510464","熊","576","Male","[""好我"",""坏我"",""好他"",""坏他""]","[""强我"",""弱我"",""强他"",""弱他""]","","","","","","","","","","","","","","","","","","","","","","","","","","","","","","feedback_test","","","","","","","","",""
"793","","f","psychophysics","48","181132","0.0-8.0-1.0-1.0-0.0-0.19","7","7","7","7","7","5","5","5","5","5","5","2","2","2","2","2","2","2","2","5","5","5","5","5","5","4","5","5","4","8","7","8","7","8","7","7","8","8","7","7","7","7","7","6","6","1","7","7","1","7","7","7","7","7","7","7","7","7","7","7","7","7","7","7","7","7","7","7","7","7","7","7","7","7","7","7","7","7","7","598911150104510464","熊","576","Male","[""好我"",""坏我"",""好他"",""坏他""]","[""强我"",""弱我"",""强他"",""弱他""]","","","","","","","","match","","","","","","","","","","key","f","16.652336448598295","768","428","f","true","match","img/pentagon.png","弱他","弱他","prac_ALT2_ability","practice_ability","","","","","","","","",""
"null","<span style='color:GreenYellow; font-size: 70px;'>正确! </span>","null","html-keyboard-response","49","181632","0.0-8.0-1.0-1.0-0.0-1.19","7","7","7","7","7","5","5","5","5","5","5","2","2","2","2","2","2","2","2","5","5","5","5","5","5","4","5","5","4","8","7","8","7","8","7","7","8","8","7","7","7","7","7","6","6","1","7","7","1","7","7","7","7","7","7","7","7","7","7","7","7","7","7","7","7","7","7","7","7","7","7","7","7","7","7","7","7","7","7","598911150104510464","熊","576","Male","[""好我"",""坏我"",""好他"",""坏他""]","[""强我"",""弱我"",""强他"",""弱他""]","","","","","","","","","","","","","","","","","","","","","","","","","","","","","","feedback_test","","","","","","","","",""
"834","","f","psychophysics","50","183468","0.0-8.0-1.0-1.0-0.0-0.20","7","7","7","7","7","5","5","5","5","5","5","2","2","2","2","2","2","2","2","5","5","5","5","5","5","4","5","5","4","8","7","8","7","8","7","7","8","8","7","7","7","7","7","6","6","1","7","7","1","7","7","7","7","7","7","7","7","7","7","7","7","7","7","7","7","7","7","7","7","7","7","7","7","7","7","7","7","7","7","598911150104510464","熊","576","Male","[""好我"",""坏我"",""好他"",""坏他""]","[""强我"",""弱我"",""强他"",""弱他""]","","","","","","","","match","","","","","","","","","","key","f","16.650458715596276","768","428","j","false","nonmatch","img/trapezoid.png","弱他","弱我","prac_ALT2_ability","practice_ability","","","","","","","","",""
"null","<span style='color:red; font-size: 70px;'>错误! </span>","null","html-keyboard-response","51","183970","0.0-8.0-1.0-1.0-0.0-1.20","7","7","7","7","7","5","5","5","5","5","5","2","2","2","2","2","2","2","2","5","5","5","5","5","5","4","5","5","4","8","7","8","7","8","7","7","8","8","7","7","7","7","7","6","6","1","7","7","1","7","7","7","7","7","7","7","7","7","7","7","7","7","7","7","7","7","7","7","7","7","7","7","7","7","7","7","7","7","7","598911150104510464","熊","576","Male","[""好我"",""坏我"",""好他"",""坏他""]","[""强我"",""弱我"",""强他"",""弱他""]","","","","","","","","","","","","","","","","","","","","","","","","","","","","","","feedback_test","","","","","","","","",""
"696","","f","psychophysics","52","185667","0.0-8.0-1.0-1.0-0.0-0.21","7","7","7","7","7","5","5","5","5","5","5","2","2","2","2","2","2","2","2","5","5","5","5","5","5","4","5","5","4","8","7","8","7","8","7","7","8","8","7","7","7","7","7","6","6","1","7","7","1","7","7","7","7","7","7","7","7","7","7","7","7","7","7","7","7","7","7","7","7","7","7","7","7","7","7","7","7","7","7","598911150104510464","熊","576","Male","[""好我"",""坏我"",""好他"",""坏他""]","[""强我"",""弱我"",""强他"",""弱他""]","","","","","","","","match","","","","","","","","","","key","f","16.65","768","428","f","true","match","img/circle.png","强我","强我","prac_ALT2_ability","practice_ability","","","","","","","","",""
"null","<span style='color:GreenYellow; font-size: 70px;'>正确! </span>","null","html-keyboard-response","53","186168","0.0-8.0-1.0-1.0-0.0-1.21","7","7","7","7","7","5","5","5","5","5","5","2","2","2","2","2","2","2","2","5","5","5","5","5","5","4","5","5","4","8","7","8","7","8","7","7","8","8","7","7","7","7","7","6","6","1","7","7","1","7","7","7","7","7","7","7","7","7","7","7","7","7","7","7","7","7","7","7","7","7","7","7","7","7","7","7","7","7","7","598911150104510464","熊","576","Male","[""好我"",""坏我"",""好他"",""坏他""]","[""强我"",""弱我"",""强他"",""弱他""]","","","","","","","","","","","","","","","","","","","","","","","","","","","","","","feedback_test","","","","","","","","",""
"658","","j","psychophysics","54","187827","0.0-8.0-1.0-1.0-0.0-0.22","7","7","7","7","7","5","5","5","5","5","5","2","2","2","2","2","2","2","2","5","5","5","5","5","5","4","5","5","4","8","7","8","7","8","7","7","8","8","7","7","7","7","7","6","6","1","7","7","1","7","7","7","7","7","7","7","7","7","7","7","7","7","7","7","7","7","7","7","7","7","7","7","7","7","7","7","7","7","7","598911150104510464","熊","576","Male","[""好我"",""坏我"",""好他"",""坏他""]","[""强我"",""弱我"",""强他"",""弱他""]","","","","","","","","nonmatch","","","","","","","","","","key","j","16.647959183673468","768","428","j","true","nonmatch","img/trapezoid.png","强他","弱我","prac_ALT2_ability","practice_ability","","","","","","","","",""
"null","<span style='color:GreenYellow; font-size: 70px;'>正确! </span>","null","html-keyboard-response","55","188330","0.0-8.0-1.0-1.0-0.0-1.22","7","7","7","7","7","5","5","5","5","5","5","2","2","2","2","2","2","2","2","5","5","5","5","5","5","4","5","5","4","8","7","8","7","8","7","7","8","8","7","7","7","7","7","6","6","1","7","7","1","7","7","7","7","7","7","7","7","7","7","7","7","7","7","7","7","7","7","7","7","7","7","7","7","7","7","7","7","7","7","598911150104510464","熊","576","Male","[""好我"",""坏我"",""好他"",""坏他""]","[""强我"",""弱我"",""强他"",""弱他""]","","","","","","","","","","","","","","","","","","","","","","","","","","","","","","feedback_test","","","","","","","","",""
"1008","","j","psychophysics","56","190340","0.0-8.0-1.0-1.0-0.0-0.23","7","7","7","7","7","5","5","5","5","5","5","2","2","2","2","2","2","2","2","5","5","5","5","5","5","4","5","5","4","8","7","8","7","8","7","7","8","8","7","7","7","7","7","6","6","1","7","7","1","7","7","7","7","7","7","7","7","7","7","7","7","7","7","7","7","7","7","7","7","7","7","7","7","7","7","7","7","7","7","598911150104510464","熊","576","Male","[""好我"",""坏我"",""好他"",""坏他""]","[""强我"",""弱我"",""强他"",""弱他""]","","","","","","","","nonmatch","","","","","","","","","","key","j","16.652499999999904","768","428","f","false","match","img/trapezoid.png","弱我","弱我","prac_ALT2_ability","practice_ability","","","","","","","","",""
"null","<span style='color:red; font-size: 70px;'>错误! </span>","null","html-keyboard-response","57","190841","0.0-8.0-1.0-1.0-0.0-1.23","7","7","7","7","7","5","5","5","5","5","5","2","2","2","2","2","2","2","2","5","5","5","5","5","5","4","5","5","4","8","7","8","7","8","7","7","8","8","7","7","7","7","7","6","6","1","7","7","1","7","7","7","7","7","7","7","7","7","7","7","7","7","7","7","7","7","7","7","7","7","7","7","7","7","7","7","7","7","7","598911150104510464","熊","576","Male","[""好我"",""坏我"",""好他"",""坏他""]","[""强我"",""弱我"",""强他"",""弱他""]","","","","","","","","","","","","","","","","","","","","","","","","","","","","","","feedback_test","","","","","","","","",""
"809","","j","psychophysics","58","192651","0.0-8.0-1.0-1.0-0.0-0.24","7","7","7","7","7","5","5","5","5","5","5","2","2","2","2","2","2","2","2","5","5","5","5","5","5","4","5","5","4","8","7","8","7","8","7","7","8","8","7","7","7","7","7","6","6","1","7","7","1","7","7","7","7","7","7","7","7","7","7","7","7","7","7","7","7","7","7","7","7","7","7","7","7","7","7","7","7","7","7","598911150104510464","熊","576","Male","[""好我"",""坏我"",""好他"",""坏他""]","[""强我"",""弱我"",""强他"",""弱他""]","","","","","","","","nonmatch","","","","","","","","","","key","j","16.65000000000011","768","428","j","true","nonmatch","img/diamond.png","弱他","强他","prac_ALT2_ability","practice_ability","","","","","","","","",""
"null","<span style='color:GreenYellow; font-size: 70px;'>正确! </span>","null","html-keyboard-response","59","193152","0.0-8.0-1.0-1.0-0.0-1.24","7","7","7","7","7","5","5","5","5","5","5","2","2","2","2","2","2","2","2","5","5","5","5","5","5","4","5","5","4","8","7","8","7","8","7","7","8","8","7","7","7","7","7","6","6","1","7","7","1","7","7","7","7","7","7","7","7","7","7","7","7","7","7","7","7","7","7","7","7","7","7","7","7","7","7","7","7","7","7","598911150104510464","熊","576","Male","[""好我"",""坏我"",""好他"",""坏他""]","[""强我"",""弱我"",""强他"",""弱他""]","","","","","","","","","","","","","","","","","","","","","","","","","","","","","","feedback_test","","","","","","","","",""
"930","","f","psychophysics","60","195083","0.0-8.0-1.0-1.0-0.0-0.25","7","7","7","7","7","5","5","5","5","5","5","2","2","2","2","2","2","2","2","5","5","5","5","5","5","4","5","5","4","8","7","8","7","8","7","7","8","8","7","7","7","7","7","6","6","1","7","7","1","7","7","7","7","7","7","7","7","7","7","7","7","7","7","7","7","7","7","7","7","7","7","7","7","7","7","7","7","7","7","598911150104510464","熊","576","Male","[""好我"",""坏我"",""好他"",""坏他""]","[""强我"",""弱我"",""强他"",""弱他""]","","","","","","","","match","","","","","","","","","","key","f","16.65130434782629","768","428","j","false","nonmatch","img/diamond.png","弱我","强他","prac_ALT2_ability","practice_ability","","","","","","","","",""
"null","<span style='color:red; font-size: 70px;'>错误! </span>","null","html-keyboard-response","61","195585","0.0-8.0-1.0-1.0-0.0-1.25","7","7","7","7","7","5","5","5","5","5","5","2","2","2","2","2","2","2","2","5","5","5","5","5","5","4","5","5","4","8","7","8","7","8","7","7","8","8","7","7","7","7","7","6","6","1","7","7","1","7","7","7","7","7","7","7","7","7","7","7","7","7","7","7","7","7","7","7","7","7","7","7","7","7","7","7","7","7","7","598911150104510464","熊","576","Male","[""好我"",""坏我"",""好他"",""坏他""]","[""强我"",""弱我"",""强他"",""弱他""]","","","","","","","","","","","","","","","","","","","","","","","","","","","","","","feedback_test","","","","","","","","",""
"1098","","j","psychophysics","62","197684","0.0-8.0-1.0-1.0-0.0-0.26","7","7","7","7","7","5","5","5","5","5","5","2","2","2","2","2","2","2","2","5","5","5","5","5","5","4","5","5","4","8","7","8","7","8","7","7","8","8","7","7","7","7","7","6","6","1","7","7","1","7","7","7","7","7","7","7","7","7","7","7","7","7","7","7","7","7","7","7","7","7","7","7","7","7","7","7","7","7","7","598911150104510464","熊","576","Male","[""好我"",""坏我"",""好他"",""坏他""]","[""强我"",""弱我"",""强他"",""弱他""]","","","","","","","","nonmatch","","","","","","","","","","key","j","16.651199999999953","768","428","j","true","nonmatch","img/pentagon.png","强我","弱他","prac_ALT2_ability","practice_ability","","","","","","","","",""
"null","<span style='color:GreenYellow; font-size: 70px;'>正确! </span>","null","html-keyboard-response","63","198186","0.0-8.0-1.0-1.0-0.0-1.26","7","7","7","7","7","5","5","5","5","5","5","2","2","2","2","2","2","2","2","5","5","5","5","5","5","4","5","5","4","8","7","8","7","8","7","7","8","8","7","7","7","7","7","6","6","1","7","7","1","7","7","7","7","7","7","7","7","7","7","7","7","7","7","7","7","7","7","7","7","7","7","7","7","7","7","7","7","7","7","598911150104510464","熊","576","Male","[""好我"",""坏我"",""好他"",""坏他""]","[""强我"",""弱我"",""强他"",""弱他""]","","","","","","","","","","","","","","","","","","","","","","","","","","","","","","feedback_test","","","","","","","","",""
"1144","","f","psychophysics","64","200332","0.0-8.0-1.0-1.0-0.0-0.27","7","7","7","7","7","5","5","5","5","5","5","2","2","2","2","2","2","2","2","5","5","5","5","5","5","4","5","5","4","8","7","8","7","8","7","7","8","8","7","7","7","7","7","6","6","1","7","7","1","7","7","7","7","7","7","7","7","7","7","7","7","7","7","7","7","7","7","7","7","7","7","7","7","7","7","7","7","7","7","598911150104510464","熊","576","Male","[""好我"",""坏我"",""好他"",""坏他""]","[""强我"",""弱我"",""强他"",""弱他""]","","","","","","","","match","","","","","","","","","","key","f","16.651562499999955","768","428","f","true","match","img/circle.png","强我","强我","prac_ALT2_ability","practice_ability","","","","","","","","",""
"null","<span style='color:GreenYellow; font-size: 70px;'>正确! </span>","null","html-keyboard-response","65","200833","0.0-8.0-1.0-1.0-0.0-1.27","7","7","7","7","7","5","5","5","5","5","5","2","2","2","2","2","2","2","2","5","5","5","5","5","5","4","5","5","4","8","7","8","7","8","7","7","8","8","7","7","7","7","7","6","6","1","7","7","1","7","7","7","7","7","7","7","7","7","7","7","7","7","7","7","7","7","7","7","7","7","7","7","7","7","7","7","7","7","7","598911150104510464","熊","576","Male","[""好我"",""坏我"",""好他"",""坏他""]","[""强我"",""弱我"",""强他"",""弱他""]","","","","","","","","","","","","","","","","","","","","","","","","","","","","","","feedback_test","","","","","","","","",""
"858","","f","psychophysics","66","202692","0.0-8.0-1.0-1.0-0.0-0.28","7","7","7","7","7","5","5","5","5","5","5","2","2","2","2","2","2","2","2","5","5","5","5","5","5","4","5","5","4","8","7","8","7","8","7","7","8","8","7","7","7","7","7","6","6","1","7","7","1","7","7","7","7","7","7","7","7","7","7","7","7","7","7","7","7","7","7","7","7","7","7","7","7","7","7","7","7","7","7","598911150104510464","熊","576","Male","[""好我"",""坏我"",""好他"",""坏他""]","[""强我"",""弱我"",""强他"",""弱他""]","","","","","","","","match","","","","","","","","","","key","f","16.651351351351245","768","428","f","true","match","img/diamond.png","强他","强他","prac_ALT2_ability","practice_ability","","","","","","","","",""
"null","<span style='color:GreenYellow; font-size: 70px;'>正确! </span>","null","html-keyboard-response","67","203194","0.0-8.0-1.0-1.0-0.0-1.28","7","7","7","7","7","5","5","5","5","5","5","2","2","2","2","2","2","2","2","5","5","5","5","5","5","4","5","5","4","8","7","8","7","8","7","7","8","8","7","7","7","7","7","6","6","1","7","7","1","7","7","7","7","7","7","7","7","7","7","7","7","7","7","7","7","7","7","7","7","7","7","7","7","7","7","7","7","7","7","598911150104510464","熊","576","Male","[""好我"",""坏我"",""好他"",""坏他""]","[""强我"",""弱我"",""强他"",""弱他""]","","","","","","","","","","","","","","","","","","","","","","","","","","","","","","feedback_test","","","","","","","","",""
"777","","j","psychophysics","68","204973","0.0-8.0-1.0-1.0-0.0-0.29","7","7","7","7","7","5","5","5","5","5","5","2","2","2","2","2","2","2","2","5","5","5","5","5","5","4","5","5","4","8","7","8","7","8","7","7","8","8","7","7","7","7","7","6","6","1","7","7","1","7","7","7","7","7","7","7","7","7","7","7","7","7","7","7","7","7","7","7","7","7","7","7","7","7","7","7","7","7","7","598911150104510464","熊","576","Male","[""好我"",""坏我"",""好他"",""坏他""]","[""强我"",""弱我"",""强他"",""弱他""]","","","","","","","","nonmatch","","","","","","","","","","key","j","16.651886792452885","768","428","j","true","nonmatch","img/circle.png","弱他","强我","prac_ALT2_ability","practice_ability","","","","","","","","",""
"null","<span style='color:GreenYellow; font-size: 70px;'>正确! </span>","null","html-keyboard-response","69","205473","0.0-8.0-1.0-1.0-0.0-1.29","7","7","7","7","7","5","5","5","5","5","5","2","2","2","2","2","2","2","2","5","5","5","5","5","5","4","5","5","4","8","7","8","7","8","7","7","8","8","7","7","7","7","7","6","6","1","7","7","1","7","7","7","7","7","7","7","7","7","7","7","7","7","7","7","7","7","7","7","7","7","7","7","7","7","7","7","7","7","7","598911150104510464","熊","576","Male","[""好我"",""坏我"",""好他"",""坏他""]","[""强我"",""弱我"",""强他"",""弱他""]","","","","","","","","","","","","","","","","","","","","","","","","","","","","","","feedback_test","","","","","","","","",""
"776","","j","psychophysics","70","207252","0.0-8.0-1.0-1.0-0.0-0.30","7","7","7","7","7","5","5","5","5","5","5","2","2","2","2","2","2","2","2","5","5","5","5","5","5","4","5","5","4","8","7","8","7","8","7","7","8","8","7","7","7","7","7","6","6","1","7","7","1","7","7","7","7","7","7","7","7","7","7","7","7","7","7","7","7","7","7","7","7","7","7","7","7","7","7","7","7","7","7","598911150104510464","熊","576","Male","[""好我"",""坏我"",""好他"",""坏他""]","[""强我"",""弱我"",""强他"",""弱他""]","","","","","","","","nonmatch","","","","","","","","","","key","j","16.65283018867908","768","428","j","true","nonmatch","img/trapezoid.png","强我","弱我","prac_ALT2_ability","practice_ability","","","","","","","","",""
"null","<span style='color:GreenYellow; font-size: 70px;'>正确! </span>","null","html-keyboard-response","71","207753","0.0-8.0-1.0-1.0-0.0-1.30","7","7","7","7","7","5","5","5","5","5","5","2","2","2","2","2","2","2","2","5","5","5","5","5","5","4","5","5","4","8","7","8","7","8","7","7","8","8","7","7","7","7","7","6","6","1","7","7","1","7","7","7","7","7","7","7","7","7","7","7","7","7","7","7","7","7","7","7","7","7","7","7","7","7","7","7","7","7","7","598911150104510464","熊","576","Male","[""好我"",""坏我"",""好他"",""坏他""]","[""强我"",""弱我"",""强他"",""弱他""]","","","","","","","","","","","","","","","","","","","","","","","","","","","","","","feedback_test","","","","","","","","",""
"698","","j","psychophysics","72","209452","0.0-8.0-1.0-1.0-0.0-0.31","7","7","7","7","7","5","5","5","5","5","5","2","2","2","2","2","2","2","2","5","5","5","5","5","5","4","5","5","4","8","7","8","7","8","7","7","8","8","7","7","7","7","7","6","6","1","7","7","1","7","7","7","7","7","7","7","7","7","7","7","7","7","7","7","7","7","7","7","7","7","7","7","7","7","7","7","7","7","7","598911150104510464","熊","576","Male","[""好我"",""坏我"",""好他"",""坏他""]","[""强我"",""弱我"",""强他"",""弱他""]","","","","","","","","nonmatch","","","","","","","","","","key","j","16.651485148515025","768","428","j","true","nonmatch","img/circle.png","弱我","强我","prac_ALT2_ability","practice_ability","","","","","","","","",""
"null","<span style='color:GreenYellow; font-size: 70px;'>正确! </span>","null","html-keyboard-response","73","209953","0.0-8.0-1.0-1.0-0.0-1.31","7","7","7","7","7","5","5","5","5","5","5","2","2","2","2","2","2","2","2","5","5","5","5","5","5","4","5","5","4","8","7","8","7","8","7","7","8","8","7","7","7","7","7","6","6","1","7","7","1","7","7","7","7","7","7","7","7","7","7","7","7","7","7","7","7","7","7","7","7","7","7","7","7","7","7","7","7","7","7","598911150104510464","熊","576","Male","[""好我"",""坏我"",""好他"",""坏他""]","[""强我"",""弱我"",""强他"",""弱他""]","","","","","","","","","","","","","","","","","","","","","","","","","","","","","","feedback_test","","","","","","","","",""
"1016","","j","psychophysics","74","211971","0.0-8.0-1.0-1.0-0.0-0.32","7","7","7","7","7","5","5","5","5","5","5","2","2","2","2","2","2","2","2","5","5","5","5","5","5","4","5","5","4","8","7","8","7","8","7","7","8","8","7","7","7","7","7","6","6","1","7","7","1","7","7","7","7","7","7","7","7","7","7","7","7","7","7","7","7","7","7","7","7","7","7","7","7","7","7","7","7","7","7","598911150104510464","熊","576","Male","[""好我"",""坏我"",""好他"",""坏他""]","[""强我"",""弱我"",""强他"",""弱他""]","","","","","","","","nonmatch","","","","","","","","","","key","j","16.651666666666763","768","428","j","true","nonmatch","img/trapezoid.png","弱他","弱我","prac_ALT2_ability","practice_ability","","","","","","","","",""
"null","<span style='color:GreenYellow; font-size: 70px;'>正确! </span>","null","html-keyboard-response","75","212473","0.0-8.0-1.0-1.0-0.0-1.32","7","7","7","7","7","5","5","5","5","5","5","2","2","2","2","2","2","2","2","5","5","5","5","5","5","4","5","5","4","8","7","8","7","8","7","7","8","8","7","7","7","7","7","6","6","1","7","7","1","7","7","7","7","7","7","7","7","7","7","7","7","7","7","7","7","7","7","7","7","7","7","7","7","7","7","7","7","7","7","598911150104510464","熊","576","Male","[""好我"",""坏我"",""好他"",""坏他""]","[""强我"",""弱我"",""强他"",""弱他""]","","","","","","","","","","","","","","","","","","","","","","","","","","","","","","feedback_test","","","","","","","","",""
"697","","j","psychophysics","76","214172","0.0-8.0-1.0-1.0-0.0-0.33","7","7","7","7","7","5","5","5","5","5","5","2","2","2","2","2","2","2","2","5","5","5","5","5","5","4","5","5","4","8","7","8","7","8","7","7","8","8","7","7","7","7","7","6","6","1","7","7","1","7","7","7","7","7","7","7","7","7","7","7","7","7","7","7","7","7","7","7","7","7","7","7","7","7","7","7","7","7","7","598911150104510464","熊","576","Male","[""好我"",""坏我"",""好他"",""坏他""]","[""强我"",""弱我"",""强他"",""弱他""]","","","","","","","","nonmatch","","","","","","","","","","key","j","16.651485148514737","768","428","f","false","match","img/trapezoid.png","弱我","弱我","prac_ALT2_ability","practice_ability","","","","","","","","",""
"null","<span style='color:red; font-size: 70px;'>错误! </span>","null","html-keyboard-response","77","214672","0.0-8.0-1.0-1.0-0.0-1.33","7","7","7","7","7","5","5","5","5","5","5","2","2","2","2","2","2","2","2","5","5","5","5","5","5","4","5","5","4","8","7","8","7","8","7","7","8","8","7","7","7","7","7","6","6","1","7","7","1","7","7","7","7","7","7","7","7","7","7","7","7","7","7","7","7","7","7","7","7","7","7","7","7","7","7","7","7","7","7","598911150104510464","熊","576","Male","[""好我"",""坏我"",""好他"",""坏他""]","[""强我"",""弱我"",""强他"",""弱他""]","","","","","","","","","","","","","","","","","","","","","","","","","","","","","","feedback_test","","","","","","","","",""
"850","","j","psychophysics","78","216523","0.0-8.0-1.0-1.0-0.0-0.34","7","7","7","7","7","5","5","5","5","5","5","2","2","2","2","2","2","2","2","5","5","5","5","5","5","4","5","5","4","8","7","8","7","8","7","7","8","8","7","7","7","7","7","6","6","1","7","7","1","7","7","7","7","7","7","7","7","7","7","7","7","7","7","7","7","7","7","7","7","7","7","7","7","7","7","7","7","7","7","598911150104510464","熊","576","Male","[""好我"",""坏我"",""好他"",""坏他""]","[""强我"",""弱我"",""强他"",""弱他""]","","","","","","","","nonmatch","","","","","","","","","","key","j","16.651351351351245","768","428","f","false","match","img/pentagon.png","弱他","弱他","prac_ALT2_ability","practice_ability","","","","","","","","",""
"null","<span style='color:red; font-size: 70px;'>错误! </span>","null","html-keyboard-response","79","217024","0.0-8.0-1.0-1.0-0.0-1.34","7","7","7","7","7","5","5","5","5","5","5","2","2","2","2","2","2","2","2","5","5","5","5","5","5","4","5","5","4","8","7","8","7","8","7","7","8","8","7","7","7","7","7","6","6","1","7","7","1","7","7","7","7","7","7","7","7","7","7","7","7","7","7","7","7","7","7","7","7","7","7","7","7","7","7","7","7","7","7","598911150104510464","熊","576","Male","[""好我"",""坏我"",""好他"",""坏他""]","[""强我"",""弱我"",""强他"",""弱他""]","","","","","","","","","","","","","","","","","","","","","","","","","","","","","","feedback_test","","","","","","","","",""
"963","","j","psychophysics","80","218989","0.0-8.0-1.0-1.0-0.0-0.35","7","7","7","7","7","5","5","5","5","5","5","2","2","2","2","2","2","2","2","5","5","5","5","5","5","4","5","5","4","8","7","8","7","8","7","7","8","8","7","7","7","7","7","6","6","1","7","7","1","7","7","7","7","7","7","7","7","7","7","7","7","7","7","7","7","7","7","7","7","7","7","7","7","7","7","7","7","7","7","598911150104510464","熊","576","Male","[""好我"",""坏我"",""好他"",""坏他""]","[""强我"",""弱我"",""强他"",""弱他""]","","","","","","","","nonmatch","","","","","","","","","","key","j","16.64786324786315","768","428","j","true","nonmatch","img/pentagon.png","强他","弱他","prac_ALT2_ability","practice_ability","","","","","","","","",""
"null","<span style='color:GreenYellow; font-size: 70px;'>正确! </span>","null","html-keyboard-response","81","219491","0.0-8.0-1.0-1.0-0.0-1.35","7","7","7","7","7","5","5","5","5","5","5","2","2","2","2","2","2","2","2","5","5","5","5","5","5","4","5","5","4","8","7","8","7","8","7","7","8","8","7","7","7","7","7","6","6","1","7","7","1","7","7","7","7","7","7","7","7","7","7","7","7","7","7","7","7","7","7","7","7","7","7","7","7","7","7","7","7","7","7","598911150104510464","熊","576","Male","[""好我"",""坏我"",""好他"",""坏他""]","[""强我"",""弱我"",""强他"",""弱他""]","","","","","","","","","","","","","","","","","","","","","","","","","","","","","","feedback_test","","","","","","","","",""
"752","","j","psychophysics","82","221244","0.0-8.0-1.0-1.0-0.0-0.36","7","7","7","7","7","5","5","5","5","5","5","2","2","2","2","2","2","2","2","5","5","5","5","5","5","4","5","5","4","8","7","8","7","8","7","7","8","8","7","7","7","7","7","6","6","1","7","7","1","7","7","7","7","7","7","7","7","7","7","7","7","7","7","7","7","7","7","7","7","7","7","7","7","7","7","7","7","7","7","598911150104510464","熊","576","Male","[""好我"",""坏我"",""好他"",""坏他""]","[""强我"",""弱我"",""强他"",""弱他""]","","","","","","","","nonmatch","","","","","","","","","","key","j","16.65096153846165","768","428","j","true","nonmatch","img/pentagon.png","弱我","弱他","prac_ALT2_ability","practice_ability","","","","","","","","",""
"null","<span style='color:GreenYellow; font-size: 70px;'>正确! </span>","null","html-keyboard-response","83","221744","0.0-8.0-1.0-1.0-0.0-1.36","7","7","7","7","7","5","5","5","5","5","5","2","2","2","2","2","2","2","2","5","5","5","5","5","5","4","5","5","4","8","7","8","7","8","7","7","8","8","7","7","7","7","7","6","6","1","7","7","1","7","7","7","7","7","7","7","7","7","7","7","7","7","7","7","7","7","7","7","7","7","7","7","7","7","7","7","7","7","7","598911150104510464","熊","576","Male","[""好我"",""坏我"",""好他"",""坏他""]","[""强我"",""弱我"",""强他"",""弱他""]","","","","","","","","","","","","","","","","","","","","","","","","","","","","","","feedback_test","","","","","","","","",""
"609","","f","psychophysics","84","223356","0.0-8.0-1.0-1.0-0.0-0.37","7","7","7","7","7","5","5","5","5","5","5","2","2","2","2","2","2","2","2","5","5","5","5","5","5","4","5","5","4","8","7","8","7","8","7","7","8","8","7","7","7","7","7","6","6","1","7","7","1","7","7","7","7","7","7","7","7","7","7","7","7","7","7","7","7","7","7","7","7","7","7","7","7","7","7","7","7","7","7","598911150104510464","熊","576","Male","[""好我"",""坏我"",""好他"",""坏他""]","[""强我"",""弱我"",""强他"",""弱他""]","","","","","","","","match","","","","","","","","","","key","f","16.651041666666668","768","428","f","true","match","img/pentagon.png","弱他","弱他","prac_ALT2_ability","practice_ability","","","","","","","","",""
"null","<span style='color:GreenYellow; font-size: 70px;'>正确! </span>","null","html-keyboard-response","85","223857","0.0-8.0-1.0-1.0-0.0-1.37","7","7","7","7","7","5","5","5","5","5","5","2","2","2","2","2","2","2","2","5","5","5","5","5","5","4","5","5","4","8","7","8","7","8","7","7","8","8","7","7","7","7","7","6","6","1","7","7","1","7","7","7","7","7","7","7","7","7","7","7","7","7","7","7","7","7","7","7","7","7","7","7","7","7","7","7","7","7","7","598911150104510464","熊","576","Male","[""好我"",""坏我"",""好他"",""坏他""]","[""强我"",""弱我"",""强他"",""弱他""]","","","","","","","","","","","","","","","","","","","","","","","","","","","","","","feedback_test","","","","","","","","",""
"881","","j","psychophysics","86","225740","0.0-8.0-1.0-1.0-0.0-0.38","7","7","7","7","7","5","5","5","5","5","5","2","2","2","2","2","2","2","2","5","5","5","5","5","5","4","5","5","4","8","7","8","7","8","7","7","8","8","7","7","7","7","7","6","6","1","7","7","1","7","7","7","7","7","7","7","7","7","7","7","7","7","7","7","7","7","7","7","7","7","7","7","7","7","7","7","7","7","7","598911150104510464","熊","576","Male","[""好我"",""坏我"",""好他"",""坏他""]","[""强我"",""弱我"",""强他"",""弱他""]","","","","","","","","nonmatch","","","","","","","","","","key","j","16.650892857142804","768","428","j","true","nonmatch","img/circle.png","强他","强我","prac_ALT2_ability","practice_ability","","","","","","","","",""
"null","<span style='color:GreenYellow; font-size: 70px;'>正确! </span>","null","html-keyboard-response","87","226241","0.0-8.0-1.0-1.0-0.0-1.38","7","7","7","7","7","5","5","5","5","5","5","2","2","2","2","2","2","2","2","5","5","5","5","5","5","4","5","5","4","8","7","8","7","8","7","7","8","8","7","7","7","7","7","6","6","1","7","7","1","7","7","7","7","7","7","7","7","7","7","7","7","7","7","7","7","7","7","7","7","7","7","7","7","7","7","7","7","7","7","598911150104510464","熊","576","Male","[""好我"",""坏我"",""好他"",""坏他""]","[""强我"",""弱我"",""强他"",""弱他""]","","","","","","","","","","","","","","","","","","","","","","","","","","","","","","feedback_test","","","","","","","","",""
"712","","j","psychophysics","88","227956","0.0-8.0-1.0-1.0-0.0-0.39","7","7","7","7","7","5","5","5","5","5","5","2","2","2","2","2","2","2","2","5","5","5","5","5","5","4","5","5","4","8","7","8","7","8","7","7","8","8","7","7","7","7","7","6","6","1","7","7","1","7","7","7","7","7","7","7","7","7","7","7","7","7","7","7","7","7","7","7","7","7","7","7","7","7","7","7","7","7","7","598911150104510464","熊","576","Male","[""好我"",""坏我"",""好他"",""坏他""]","[""强我"",""弱我"",""强他"",""弱他""]","","","","","","","","nonmatch","","","","","","","","","","key","j","16.650980392156807","768","428","j","true","nonmatch","img/diamond.png","强我","强他","prac_ALT2_ability","practice_ability","","","","","","","","",""
"null","<span style='color:GreenYellow; font-size: 70px;'>正确! </span>","null","html-keyboard-response","89","228456","0.0-8.0-1.0-1.0-0.0-1.39","7","7","7","7","7","5","5","5","5","5","5","2","2","2","2","2","2","2","2","5","5","5","5","5","5","4","5","5","4","8","7","8","7","8","7","7","8","8","7","7","7","7","7","6","6","1","7","7","1","7","7","7","7","7","7","7","7","7","7","7","7","7","7","7","7","7","7","7","7","7","7","7","7","7","7","7","7","7","7","598911150104510464","熊","576","Male","[""好我"",""坏我"",""好他"",""坏他""]","[""强我"",""弱我"",""强他"",""弱他""]","","","","","","","","","","","","","","","","","","","","","","","","","","","","","","feedback_test","","","","","","","","",""
"721","","f","psychophysics","90","230180","0.0-8.0-1.0-1.0-0.0-0.40","7","7","7","7","7","5","5","5","5","5","5","2","2","2","2","2","2","2","2","5","5","5","5","5","5","4","5","5","4","8","7","8","7","8","7","7","8","8","7","7","7","7","7","6","6","1","7","7","1","7","7","7","7","7","7","7","7","7","7","7","7","7","7","7","7","7","7","7","7","7","7","7","7","7","7","7","7","7","7","598911150104510464","熊","576","Male","[""好我"",""坏我"",""好他"",""坏他""]","[""强我"",""弱我"",""强他"",""弱他""]","","","","","","","","match","","","","","","","","","","key","f","16.650485436893202","768","428","f","true","match","img/circle.png","强我","强我","prac_ALT2_ability","practice_ability","","","","","","","","",""
"null","<span style='color:GreenYellow; font-size: 70px;'>正确! </span>","null","html-keyboard-response","91","230681","0.0-8.0-1.0-1.0-0.0-1.40","7","7","7","7","7","5","5","5","5","5","5","2","2","2","2","2","2","2","2","5","5","5","5","5","5","4","5","5","4","8","7","8","7","8","7","7","8","8","7","7","7","7","7","6","6","1","7","7","1","7","7","7","7","7","7","7","7","7","7","7","7","7","7","7","7","7","7","7","7","7","7","7","7","7","7","7","7","7","7","598911150104510464","熊","576","Male","[""好我"",""坏我"",""好他"",""坏他""]","[""强我"",""弱我"",""强他"",""弱他""]","","","","","","","","","","","","","","","","","","","","","","","","","","","","","","feedback_test","","","","","","","","",""
"568","","f","psychophysics","92","232251","0.0-8.0-1.0-1.0-0.0-0.41","7","7","7","7","7","5","5","5","5","5","5","2","2","2","2","2","2","2","2","5","5","5","5","5","5","4","5","5","4","8","7","8","7","8","7","7","8","8","7","7","7","7","7","6","6","1","7","7","1","7","7","7","7","7","7","7","7","7","7","7","7","7","7","7","7","7","7","7","7","7","7","7","7","7","7","7","7","7","7","598911150104510464","熊","576","Male","[""好我"",""坏我"",""好他"",""坏他""]","[""强我"",""弱我"",""强他"",""弱他""]","","","","","","","","match","","","","","","","","","","key","f","16.650537634408604","768","428","f","true","match","img/circle.png","强我","强我","prac_ALT2_ability","practice_ability","","","","","","","","",""
"null","<span style='color:GreenYellow; font-size: 70px;'>正确! </span>","null","html-keyboard-response","93","232753","0.0-8.0-1.0-1.0-0.0-1.41","7","7","7","7","7","5","5","5","5","5","5","2","2","2","2","2","2","2","2","5","5","5","5","5","5","4","5","5","4","8","7","8","7","8","7","7","8","8","7","7","7","7","7","6","6","1","7","7","1","7","7","7","7","7","7","7","7","7","7","7","7","7","7","7","7","7","7","7","7","7","7","7","7","7","7","7","7","7","7","598911150104510464","熊","576","Male","[""好我"",""坏我"",""好他"",""坏他""]","[""强我"",""弱我"",""强他"",""弱他""]","","","","","","","","","","","","","","","","","","","","","","","","","","","","","","feedback_test","","","","","","","","",""
"793","","f","psychophysics","94","234548","0.0-8.0-1.0-1.0-0.0-0.42","7","7","7","7","7","5","5","5","5","5","5","2","2","2","2","2","2","2","2","5","5","5","5","5","5","4","5","5","4","8","7","8","7","8","7","7","8","8","7","7","7","7","7","6","6","1","7","7","1","7","7","7","7","7","7","7","7","7","7","7","7","7","7","7","7","7","7","7","7","7","7","7","7","7","7","7","7","7","7","598911150104510464","熊","576","Male","[""好我"",""坏我"",""好他"",""坏他""]","[""强我"",""弱我"",""强他"",""弱他""]","","","","","","","","match","","","","","","","","","","key","f","16.650467289719682","768","428","f","true","match","img/pentagon.png","弱他","弱他","prac_ALT2_ability","practice_ability","","","","","","","","",""
"null","<span style='color:GreenYellow; font-size: 70px;'>正确! </span>","null","html-keyboard-response","95","235048","0.0-8.0-1.0-1.0-0.0-1.42","7","7","7","7","7","5","5","5","5","5","5","2","2","2","2","2","2","2","2","5","5","5","5","5","5","4","5","5","4","8","7","8","7","8","7","7","8","8","7","7","7","7","7","6","6","1","7","7","1","7","7","7","7","7","7","7","7","7","7","7","7","7","7","7","7","7","7","7","7","7","7","7","7","7","7","7","7","7","7","598911150104510464","熊","576","Male","[""好我"",""坏我"",""好他"",""坏他""]","[""强我"",""弱我"",""强他"",""弱他""]","","","","","","","","","","","","","","","","","","","","","","","","","","","","","","feedback_test","","","","","","","","",""
"569","","j","psychophysics","96","236620","0.0-8.0-1.0-1.0-0.0-0.43","7","7","7","7","7","5","5","5","5","5","5","2","2","2","2","2","2","2","2","5","5","5","5","5","5","4","5","5","4","8","7","8","7","8","7","7","8","8","7","7","7","7","7","6","6","1","7","7","1","7","7","7","7","7","7","7","7","7","7","7","7","7","7","7","7","7","7","7","7","7","7","7","7","7","7","7","7","7","7","598911150104510464","熊","576","Male","[""好我"",""坏我"",""好他"",""坏他""]","[""强我"",""弱我"",""强他"",""弱他""]","","","","","","","","nonmatch","","","","","","","","","","key","j","16.652688172042822","768","428","f","false","match","img/trapezoid.png","弱我","弱我","prac_ALT2_ability","practice_ability","","","","","","","","",""
"null","<span style='color:red; font-size: 70px;'>错误! </span>","null","html-keyboard-response","97","237121","0.0-8.0-1.0-1.0-0.0-1.43","7","7","7","7","7","5","5","5","5","5","5","2","2","2","2","2","2","2","2","5","5","5","5","5","5","4","5","5","4","8","7","8","7","8","7","7","8","8","7","7","7","7","7","6","6","1","7","7","1","7","7","7","7","7","7","7","7","7","7","7","7","7","7","7","7","7","7","7","7","7","7","7","7","7","7","7","7","7","7","598911150104510464","熊","576","Male","[""好我"",""坏我"",""好他"",""坏他""]","[""强我"",""弱我"",""强他"",""弱他""]","","","","","","","","","","","","","","","","","","","","","","","","","","","","","","feedback_test","","","","","","","","",""
"754","","j","psychophysics","98","238875","0.0-8.0-1.0-1.0-0.0-0.44","7","7","7","7","7","5","5","5","5","5","5","2","2","2","2","2","2","2","2","5","5","5","5","5","5","4","5","5","4","8","7","8","7","8","7","7","8","8","7","7","7","7","7","6","6","1","7","7","1","7","7","7","7","7","7","7","7","7","7","7","7","7","7","7","7","7","7","7","7","7","7","7","7","7","7","7","7","7","7","598911150104510464","熊","576","Male","[""好我"",""坏我"",""好他"",""坏他""]","[""强我"",""弱我"",""强他"",""弱他""]","","","","","","","","nonmatch","","","","","","","","","","key","j","16.651923076922966","768","428","f","false","match","img/diamond.png","强他","强他","prac_ALT2_ability","practice_ability","","","","","","","","",""
"null","<span style='color:red; font-size: 70px;'>错误! </span>","null","html-keyboard-response","99","239376","0.0-8.0-1.0-1.0-0.0-1.44","7","7","7","7","7","5","5","5","5","5","5","2","2","2","2","2","2","2","2","5","5","5","5","5","5","4","5","5","4","8","7","8","7","8","7","7","8","8","7","7","7","7","7","6","6","1","7","7","1","7","7","7","7","7","7","7","7","7","7","7","7","7","7","7","7","7","7","7","7","7","7","7","7","7","7","7","7","7","7","598911150104510464","熊","576","Male","[""好我"",""坏我"",""好他"",""坏他""]","[""强我"",""弱我"",""强他"",""弱他""]","","","","","","","","","","","","","","","","","","","","","","","","","","","","","","feedback_test","","","","","","","","",""
"474","","j","psychophysics","100","240851","0.0-8.0-1.0-1.0-0.0-0.45","7","7","7","7","7","5","5","5","5","5","5","2","2","2","2","2","2","2","2","5","5","5","5","5","5","4","5","5","4","8","7","8","7","8","7","7","8","8","7","7","7","7","7","6","6","1","7","7","1","7","7","7","7","7","7","7","7","7","7","7","7","7","7","7","7","7","7","7","7","7","7","7","7","7","7","7","7","7","7","598911150104510464","熊","576","Male","[""好我"",""坏我"",""好他"",""坏他""]","[""强我"",""弱我"",""强他"",""弱他""]","","","","","","","","nonmatch","","","","","","","","","","key","j","16.65227272727266","768","428","f","false","match","img/diamond.png","强他","强他","prac_ALT2_ability","practice_ability","","","","","","","","",""
"null","<span style='color:red; font-size: 70px;'>错误! </span>","null","html-keyboard-response","101","241353","0.0-8.0-1.0-1.0-0.0-1.45","7","7","7","7","7","5","5","5","5","5","5","2","2","2","2","2","2","2","2","5","5","5","5","5","5","4","5","5","4","8","7","8","7","8","7","7","8","8","7","7","7","7","7","6","6","1","7","7","1","7","7","7","7","7","7","7","7","7","7","7","7","7","7","7","7","7","7","7","7","7","7","7","7","7","7","7","7","7","7","598911150104510464","熊","576","Male","[""好我"",""坏我"",""好他"",""坏他""]","[""强我"",""弱我"",""强他"",""弱他""]","","","","","","","","","","","","","","","","","","","","","","","","","","","","","","feedback_test","","","","","","","","",""
"808","","f","psychophysics","102","243164","0.0-8.0-1.0-1.0-0.0-0.46","7","7","7","7","7","5","5","5","5","5","5","2","2","2","2","2","2","2","2","5","5","5","5","5","5","4","5","5","4","8","7","8","7","8","7","7","8","8","7","7","7","7","7","6","6","1","7","7","1","7","7","7","7","7","7","7","7","7","7","7","7","7","7","7","7","7","7","7","7","7","7","7","7","7","7","7","7","7","7","598911150104510464","熊","576","Male","[""好我"",""坏我"",""好他"",""坏他""]","[""强我"",""弱我"",""强他"",""弱他""]","","","","","","","","match","","","","","","","","","","key","f","16.649532710280372","768","428","f","true","match","img/trapezoid.png","弱我","弱我","prac_ALT2_ability","practice_ability","","","","","","","","",""
"null","<span style='color:GreenYellow; font-size: 70px;'>正确! </span>","null","html-keyboard-response","103","243664","0.0-8.0-1.0-1.0-0.0-1.46","7","7","7","7","7","5","5","5","5","5","5","2","2","2","2","2","2","2","2","5","5","5","5","5","5","4","5","5","4","8","7","8","7","8","7","7","8","8","7","7","7","7","7","6","6","1","7","7","1","7","7","7","7","7","7","7","7","7","7","7","7","7","7","7","7","7","7","7","7","7","7","7","7","7","7","7","7","7","7","598911150104510464","熊","576","Male","[""好我"",""坏我"",""好他"",""坏他""]","[""强我"",""弱我"",""强他"",""弱他""]","","","","","","","","","","","","","","","","","","","","","","","","","","","","","","feedback_test","","","","","","","","",""
"858","","f","psychophysics","104","245523","0.0-8.0-1.0-1.0-0.0-0.47","7","7","7","7","7","5","5","5","5","5","5","2","2","2","2","2","2","2","2","5","5","5","5","5","5","4","5","5","4","8","7","8","7","8","7","7","8","8","7","7","7","7","7","6","6","1","7","7","1","7","7","7","7","7","7","7","7","7","7","7","7","7","7","7","7","7","7","7","7","7","7","7","7","7","7","7","7","7","7","598911150104510464","熊","576","Male","[""好我"",""坏我"",""好他"",""坏他""]","[""强我"",""弱我"",""强他"",""弱他""]","","","","","","","","match","","","","","","","","","","key","f","16.641818181818234","768","428","j","false","nonmatch","img/trapezoid.png","强他","弱我","prac_ALT2_ability","practice_ability","","","","","","","","",""
"null","<span style='color:red; font-size: 70px;'>错误! </span>","null","html-keyboard-response","105","246025","0.0-8.0-1.0-1.0-0.0-1.47","7","7","7","7","7","5","5","5","5","5","5","2","2","2","2","2","2","2","2","5","5","5","5","5","5","4","5","5","4","8","7","8","7","8","7","7","8","8","7","7","7","7","7","6","6","1","7","7","1","7","7","7","7","7","7","7","7","7","7","7","7","7","7","7","7","7","7","7","7","7","7","7","7","7","7","7","7","7","7","598911150104510464","熊","576","Male","[""好我"",""坏我"",""好他"",""坏他""]","[""强我"",""弱我"",""强他"",""弱他""]","","","","","","","","","","","","","","","","","","","","","","","","","","","","","","feedback_test","","","","","","","","",""
"953","<style>.context{color:white; font-size: 35px; line-height:40px}</style>                          <div><p class='context'>您正确回答了75% 的试次。</p><p class='context'>您的平均反应时为786毫秒。</p><p class='context'>恭喜您完成练习。按空格键进入正式实验。</p><p class='footer' style='color:white;font-size: 35px; line-height:40px;'>请在进入正式实验实验之前将您的<span style='color: lightgreen;'>食指</span>放在电脑键盘的相应键位上进行按键。</p>"," ","html-keyboard-response","106","246980","0.0-8.0-1.0-2.0","7","7","7","7","7","5","5","5","5","5","5","2","2","2","2","2","2","2","2","5","5","5","5","5","5","4","5","5","4","8","7","8","7","8","7","7","8","8","7","7","7","7","7","6","6","1","7","7","1","7","7","7","7","7","7","7","7","7","7","7","7","7","7","7","7","7","7","7","7","7","7","7","7","7","7","7","7","7","7","598911150104510464","熊","576","Male","[""好我"",""坏我"",""好他"",""坏他""]","[""强我"",""弱我"",""强他"",""弱他""]","","","","","","","","","","","","","","","","","","","","","","","","","","","","","","","","","","","","","","",""
"821","
  <p style='color: white; font-size: 22px'>请您将手指放在按键上，准备进入正式的匹配任务。</p>
  <p> <div style = ""color: green""><按空格键进入下一阶段的匹配任务></div></p>
  "," ","html-keyboard-response","107","247803","0.0-8.0-1.0-3.0","7","7","7","7","7","5","5","5","5","5","5","2","2","2","2","2","2","2","2","5","5","5","5","5","5","4","5","5","4","8","7","8","7","8","7","7","8","8","7","7","7","7","7","6","6","1","7","7","1","7","7","7","7","7","7","7","7","7","7","7","7","7","7","7","7","7","7","7","7","7","7","7","7","7","7","7","7","7","7","598911150104510464","熊","576","Male","[""好我"",""坏我"",""好他"",""坏他""]","[""强我"",""弱我"",""强他"",""弱他""]","","","","","","","","","","","","","","","","","","","","","","","","","","","","","","","","","","","","","","",""
"951","","f","psychophysics","108","249756","0.0-8.0-1.0-4.0-0.0-0.0","7","7","7","7","7","5","5","5","5","5","5","2","2","2","2","2","2","2","2","5","5","5","5","5","5","4","5","5","4","8","7","8","7","8","7","7","8","8","7","7","7","7","7","6","6","1","7","7","1","7","7","7","7","7","7","7","7","7","7","7","7","7","7","7","7","7","7","7","7","7","7","7","7","7","7","7","7","7","7","598911150104510464","熊","576","Male","[""好我"",""坏我"",""好他"",""坏他""]","[""强我"",""弱我"",""强他"",""弱他""]","","","","","","","","match","","","","","","","","","","key","f","16.651724137931083","768","428","f","true","match","img/trapezoid.png","弱我","弱我","ALT2","ability","","","","","","","","",""
"null","<span style='color:GreenYellow; font-size: 70px;'>正确! </span>","null","html-keyboard-response","109","250256","0.0-8.0-1.0-4.0-0.0-1.0","7","7","7","7","7","5","5","5","5","5","5","2","2","2","2","2","2","2","2","5","5","5","5","5","5","4","5","5","4","8","7","8","7","8","7","7","8","8","7","7","7","7","7","6","6","1","7","7","1","7","7","7","7","7","7","7","7","7","7","7","7","7","7","7","7","7","7","7","7","7","7","7","7","7","7","7","7","7","7","598911150104510464","熊","576","Male","[""好我"",""坏我"",""好他"",""坏他""]","[""强我"",""弱我"",""强他"",""弱他""]","","","","","","","","","","","","","","","","","","","","","","","","","","","","","","feedback_test","","","","","","","","",""
"738","","f","psychophysics","110","251996","0.0-8.0-1.0-4.0-0.0-0.1","7","7","7","7","7","5","5","5","5","5","5","2","2","2","2","2","2","2","2","5","5","5","5","5","5","4","5","5","4","8","7","8","7","8","7","7","8","8","7","7","7","7","7","6","6","1","7","7","1","7","7","7","7","7","7","7","7","7","7","7","7","7","7","7","7","7","7","7","7","7","7","7","7","7","7","7","7","7","7","598911150104510464","熊","576","Male","[""好我"",""坏我"",""好他"",""坏他""]","[""强我"",""弱我"",""强他"",""弱他""]","","","","","","","","match","","","","","","","","","","key","f","16.646153846153677","768","428","f","true","match","img/pentagon.png","弱他","弱他","ALT2","ability","","","","","","","","",""
"null","<span style='color:GreenYellow; font-size: 70px;'>正确! </span>","null","html-keyboard-response","111","252497","0.0-8.0-1.0-4.0-0.0-1.1","7","7","7","7","7","5","5","5","5","5","5","2","2","2","2","2","2","2","2","5","5","5","5","5","5","4","5","5","4","8","7","8","7","8","7","7","8","8","7","7","7","7","7","6","6","1","7","7","1","7","7","7","7","7","7","7","7","7","7","7","7","7","7","7","7","7","7","7","7","7","7","7","7","7","7","7","7","7","7","598911150104510464","熊","576","Male","[""好我"",""坏我"",""好他"",""坏他""]","[""强我"",""弱我"",""强他"",""弱他""]","","","","","","","","","","","","","","","","","","","","","","","","","","","","","","feedback_test","","","","","","","","",""
"586","","f","psychophysics","112","254084","0.0-8.0-1.0-4.0-0.0-0.2","7","7","7","7","7","5","5","5","5","5","5","2","2","2","2","2","2","2","2","5","5","5","5","5","5","4","5","5","4","8","7","8","7","8","7","7","8","8","7","7","7","7","7","6","6","1","7","7","1","7","7","7","7","7","7","7","7","7","7","7","7","7","7","7","7","7","7","7","7","7","7","7","7","7","7","7","7","7","7","598911150104510464","熊","576","Male","[""好我"",""坏我"",""好他"",""坏他""]","[""强我"",""弱我"",""强他"",""弱他""]","","","","","","","","match","","","","","","","","","","key","f","16.654255319148938","768","428","f","true","match","img/pentagon.png","弱他","弱他","ALT2","ability","","","","","","","","",""
"null","<span style='color:GreenYellow; font-size: 70px;'>正确! </span>","null","html-keyboard-response","113","254585","0.0-8.0-1.0-4.0-0.0-1.2","7","7","7","7","7","5","5","5","5","5","5","2","2","2","2","2","2","2","2","5","5","5","5","5","5","4","5","5","4","8","7","8","7","8","7","7","8","8","7","7","7","7","7","6","6","1","7","7","1","7","7","7","7","7","7","7","7","7","7","7","7","7","7","7","7","7","7","7","7","7","7","7","7","7","7","7","7","7","7","598911150104510464","熊","576","Male","[""好我"",""坏我"",""好他"",""坏他""]","[""强我"",""弱我"",""强他"",""弱他""]","","","","","","","","","","","","","","","","","","","","","","","","","","","","","","feedback_test","","","","","","","","",""
"873","","f","psychophysics","114","256460","0.0-8.0-1.0-4.0-0.0-0.3","7","7","7","7","7","5","5","5","5","5","5","2","2","2","2","2","2","2","2","5","5","5","5","5","5","4","5","5","4","8","7","8","7","8","7","7","8","8","7","7","7","7","7","6","6","1","7","7","1","7","7","7","7","7","7","7","7","7","7","7","7","7","7","7","7","7","7","7","7","7","7","7","7","7","7","7","7","7","7","598911150104510464","熊","576","Male","[""好我"",""坏我"",""好他"",""坏他""]","[""强我"",""弱我"",""强他"",""弱他""]","","","","","","","","match","","","","","","","","","","key","f","16.650892857142804","768","428","f","true","match","img/trapezoid.png","弱我","弱我","ALT2","ability","","","","","","","","",""
"null","<span style='color:GreenYellow; font-size: 70px;'>正确! </span>","null","html-keyboard-response","115","256961","0.0-8.0-1.0-4.0-0.0-1.3","7","7","7","7","7","5","5","5","5","5","5","2","2","2","2","2","2","2","2","5","5","5","5","5","5","4","5","5","4","8","7","8","7","8","7","7","8","8","7","7","7","7","7","6","6","1","7","7","1","7","7","7","7","7","7","7","7","7","7","7","7","7","7","7","7","7","7","7","7","7","7","7","7","7","7","7","7","7","7","598911150104510464","熊","576","Male","[""好我"",""坏我"",""好他"",""坏他""]","[""强我"",""弱我"",""强他"",""弱他""]","","","","","","","","","","","","","","","","","","","","","","","","","","","","","","feedback_test","","","","","","","","",""
"866","","j","psychophysics","116","258828","0.0-8.0-1.0-4.0-0.0-0.4","7","7","7","7","7","5","5","5","5","5","5","2","2","2","2","2","2","2","2","5","5","5","5","5","5","4","5","5","4","8","7","8","7","8","7","7","8","8","7","7","7","7","7","6","6","1","7","7","1","7","7","7","7","7","7","7","7","7","7","7","7","7","7","7","7","7","7","7","7","7","7","7","7","7","7","7","7","7","7","598911150104510464","熊","576","Male","[""好我"",""坏我"",""好他"",""坏他""]","[""强我"",""弱我"",""强他"",""弱他""]","","","","","","","","nonmatch","","","","","","","","","","key","j","16.650450450450293","768","428","j","true","nonmatch","img/circle.png","弱我","强我","ALT2","ability","","","","","","","","",""
"null","<span style='color:GreenYellow; font-size: 70px;'>正确! </span>","null","html-keyboard-response","117","259330","0.0-8.0-1.0-4.0-0.0-1.4","7","7","7","7","7","5","5","5","5","5","5","2","2","2","2","2","2","2","2","5","5","5","5","5","5","4","5","5","4","8","7","8","7","8","7","7","8","8","7","7","7","7","7","6","6","1","7","7","1","7","7","7","7","7","7","7","7","7","7","7","7","7","7","7","7","7","7","7","7","7","7","7","7","7","7","7","7","7","7","598911150104510464","熊","576","Male","[""好我"",""坏我"",""好他"",""坏他""]","[""强我"",""弱我"",""强他"",""弱他""]","","","","","","","","","","","","","","","","","","","","","","","","","","","","","","feedback_test","","","","","","","","",""
"817","","f","psychophysics","118","261148","0.0-8.0-1.0-4.0-0.0-0.5","7","7","7","7","7","5","5","5","5","5","5","2","2","2","2","2","2","2","2","5","5","5","5","5","5","4","5","5","4","8","7","8","7","8","7","7","8","8","7","7","7","7","7","6","6","1","7","7","1","7","7","7","7","7","7","7","7","7","7","7","7","7","7","7","7","7","7","7","7","7","7","7","7","7","7","7","7","7","7","598911150104510464","熊","576","Male","[""好我"",""坏我"",""好他"",""坏他""]","[""强我"",""弱我"",""强他"",""弱他""]","","","","","","","","match","","","","","","","","","","key","f","16.65092592592582","768","428","j","false","nonmatch","img/diamond.png","强我","强他","ALT2","ability","","","","","","","","",""
"null","<span style='color:red; font-size: 70px;'>错误! </span>","null","html-keyboard-response","119","261649","0.0-8.0-1.0-4.0-0.0-1.5","7","7","7","7","7","5","5","5","5","5","5","2","2","2","2","2","2","2","2","5","5","5","5","5","5","4","5","5","4","8","7","8","7","8","7","7","8","8","7","7","7","7","7","6","6","1","7","7","1","7","7","7","7","7","7","7","7","7","7","7","7","7","7","7","7","7","7","7","7","7","7","7","7","7","7","7","7","7","7","598911150104510464","熊","576","Male","[""好我"",""坏我"",""好他"",""坏他""]","[""强我"",""弱我"",""强他"",""弱他""]","","","","","","","","","","","","","","","","","","","","","","","","","","","","","","feedback_test","","","","","","","","",""
"769","","f","psychophysics","120","263420","0.0-8.0-1.0-4.0-0.0-0.6","7","7","7","7","7","5","5","5","5","5","5","2","2","2","2","2","2","2","2","5","5","5","5","5","5","4","5","5","4","8","7","8","7","8","7","7","8","8","7","7","7","7","7","6","6","1","7","7","1","7","7","7","7","7","7","7","7","7","7","7","7","7","7","7","7","7","7","7","7","7","7","7","7","7","7","7","7","7","7","598911150104510464","熊","576","Male","[""好我"",""坏我"",""好他"",""坏他""]","[""强我"",""弱我"",""强他"",""弱他""]","","","","","","","","match","","","","","","","","","","key","f","16.648571428571206","768","428","j","false","nonmatch","img/trapezoid.png","强他","弱我","ALT2","ability","","","","","","","","",""
"null","<span style='color:red; font-size: 70px;'>错误! </span>","null","html-keyboard-response","121","263921","0.0-8.0-1.0-4.0-0.0-1.6","7","7","7","7","7","5","5","5","5","5","5","2","2","2","2","2","2","2","2","5","5","5","5","5","5","4","5","5","4","8","7","8","7","8","7","7","8","8","7","7","7","7","7","6","6","1","7","7","1","7","7","7","7","7","7","7","7","7","7","7","7","7","7","7","7","7","7","7","7","7","7","7","7","7","7","7","7","7","7","598911150104510464","熊","576","Male","[""好我"",""坏我"",""好他"",""坏他""]","[""强我"",""弱我"",""强他"",""弱他""]","","","","","","","","","","","","","","","","","","","","","","","","","","","","","","feedback_test","","","","","","","","",""
"1065","","f","psychophysics","122","265988","0.0-8.0-1.0-4.0-0.0-0.7","7","7","7","7","7","5","5","5","5","5","5","2","2","2","2","2","2","2","2","5","5","5","5","5","5","4","5","5","4","8","7","8","7","8","7","7","8","8","7","7","7","7","7","6","6","1","7","7","1","7","7","7","7","7","7","7","7","7","7","7","7","7","7","7","7","7","7","7","7","7","7","7","7","7","7","7","7","7","7","598911150104510464","熊","576","Male","[""好我"",""坏我"",""好他"",""坏他""]","[""强我"",""弱我"",""强他"",""弱他""]","","","","","","","","match","","","","","","","","","","key","f","16.65365853658508","768","428","f","true","match","img/pentagon.png","弱他","弱他","ALT2","ability","","","","","","","","",""
"null","<span style='color:GreenYellow; font-size: 70px;'>正确! </span>","null","html-keyboard-response","123","266489","0.0-8.0-1.0-4.0-0.0-1.7","7","7","7","7","7","5","5","5","5","5","5","2","2","2","2","2","2","2","2","5","5","5","5","5","5","4","5","5","4","8","7","8","7","8","7","7","8","8","7","7","7","7","7","6","6","1","7","7","1","7","7","7","7","7","7","7","7","7","7","7","7","7","7","7","7","7","7","7","7","7","7","7","7","7","7","7","7","7","7","598911150104510464","熊","576","Male","[""好我"",""坏我"",""好他"",""坏他""]","[""强我"",""弱我"",""强他"",""弱他""]","","","","","","","","","","","","","","","","","","","","","","","","","","","","","","feedback_test","","","","","","","","",""
"857","","f","psychophysics","124","268348","0.0-8.0-1.0-4.0-0.0-0.8","7","7","7","7","7","5","5","5","5","5","5","2","2","2","2","2","2","2","2","5","5","5","5","5","5","4","5","5","4","8","7","8","7","8","7","7","8","8","7","7","7","7","7","6","6","1","7","7","1","7","7","7","7","7","7","7","7","7","7","7","7","7","7","7","7","7","7","7","7","7","7","7","7","7","7","7","7","7","7","598911150104510464","熊","576","Male","[""好我"",""坏我"",""好他"",""坏他""]","[""强我"",""弱我"",""强他"",""弱他""]","","","","","","","","match","","","","","","","","","","key","f","16.650450450450556","768","428","f","true","match","img/circle.png","强我","强我","ALT2","ability","","","","","","","","",""
"null","<span style='color:GreenYellow; font-size: 70px;'>正确! </span>","null","html-keyboard-response","125","268849","0.0-8.0-1.0-4.0-0.0-1.8","7","7","7","7","7","5","5","5","5","5","5","2","2","2","2","2","2","2","2","5","5","5","5","5","5","4","5","5","4","8","7","8","7","8","7","7","8","8","7","7","7","7","7","6","6","1","7","7","1","7","7","7","7","7","7","7","7","7","7","7","7","7","7","7","7","7","7","7","7","7","7","7","7","7","7","7","7","7","7","598911150104510464","熊","576","Male","[""好我"",""坏我"",""好他"",""坏他""]","[""强我"",""弱我"",""强他"",""弱他""]","","","","","","","","","","","","","","","","","","","","","","","","","","","","","","feedback_test","","","","","","","","",""
"841","","f","psychophysics","126","270692","0.0-8.0-1.0-4.0-0.0-0.9","7","7","7","7","7","5","5","5","5","5","5","2","2","2","2","2","2","2","2","5","5","5","5","5","5","4","5","5","4","8","7","8","7","8","7","7","8","8","7","7","7","7","7","6","6","1","7","7","1","7","7","7","7","7","7","7","7","7","7","7","7","7","7","7","7","7","7","7","7","7","7","7","7","7","7","7","7","7","7","598911150104510464","熊","576","Male","[""好我"",""坏我"",""好他"",""坏他""]","[""强我"",""弱我"",""强他"",""弱他""]","","","","","","","","match","","","","","","","","","","key","f","16.65090909090888","768","428","j","false","nonmatch","img/pentagon.png","强他","弱他","ALT2","ability","","","","","","","","",""
"null","<span style='color:red; font-size: 70px;'>错误! </span>","null","html-keyboard-response","127","271193","0.0-8.0-1.0-4.0-0.0-1.9","7","7","7","7","7","5","5","5","5","5","5","2","2","2","2","2","2","2","2","5","5","5","5","5","5","4","5","5","4","8","7","8","7","8","7","7","8","8","7","7","7","7","7","6","6","1","7","7","1","7","7","7","7","7","7","7","7","7","7","7","7","7","7","7","7","7","7","7","7","7","7","7","7","7","7","7","7","7","7","598911150104510464","熊","576","Male","[""好我"",""坏我"",""好他"",""坏他""]","[""强我"",""弱我"",""强他"",""弱他""]","","","","","","","","","","","","","","","","","","","","","","","","","","","","","","feedback_test","","","","","","","","",""
"793","","f","psychophysics","128","272988","0.0-8.0-1.0-4.0-0.0-0.10","7","7","7","7","7","5","5","5","5","5","5","2","2","2","2","2","2","2","2","5","5","5","5","5","5","4","5","5","4","8","7","8","7","8","7","7","8","8","7","7","7","7","7","6","6","1","7","7","1","7","7","7","7","7","7","7","7","7","7","7","7","7","7","7","7","7","7","7","7","7","7","7","7","7","7","7","7","7","7","598911150104510464","熊","576","Male","[""好我"",""坏我"",""好他"",""坏他""]","[""强我"",""弱我"",""强他"",""弱他""]","","","","","","","","match","","","","","","","","","","key","f","16.6532710280376","768","428","f","true","match","img/circle.png","强我","强我","ALT2","ability","","","","","","","","",""
"null","<span style='color:GreenYellow; font-size: 70px;'>正确! </span>","null","html-keyboard-response","129","273489","0.0-8.0-1.0-4.0-0.0-1.10","7","7","7","7","7","5","5","5","5","5","5","2","2","2","2","2","2","2","2","5","5","5","5","5","5","4","5","5","4","8","7","8","7","8","7","7","8","8","7","7","7","7","7","6","6","1","7","7","1","7","7","7","7","7","7","7","7","7","7","7","7","7","7","7","7","7","7","7","7","7","7","7","7","7","7","7","7","7","7","598911150104510464","熊","576","Male","[""好我"",""坏我"",""好他"",""坏他""]","[""强我"",""弱我"",""强他"",""弱他""]","","","","","","","","","","","","","","","","","","","","","","","","","","","","","","feedback_test","","","","","","","","",""
"745","","j","psychophysics","130","275236","0.0-8.0-1.0-4.0-0.0-0.11","7","7","7","7","7","5","5","5","5","5","5","2","2","2","2","2","2","2","2","5","5","5","5","5","5","4","5","5","4","8","7","8","7","8","7","7","8","8","7","7","7","7","7","6","6","1","7","7","1","7","7","7","7","7","7","7","7","7","7","7","7","7","7","7","7","7","7","7","7","7","7","7","7","7","7","7","7","7","7","598911150104510464","熊","576","Male","[""好我"",""坏我"",""好他"",""坏他""]","[""强我"",""弱我"",""强他"",""弱他""]","","","","","","","","nonmatch","","","","","","","","","","key","j","16.64807692307715","768","428","j","true","nonmatch","img/pentagon.png","强我","弱他","ALT2","ability","","","","","","","","",""
"null","<span style='color:GreenYellow; font-size: 70px;'>正确! </span>","null","html-keyboard-response","131","275737","0.0-8.0-1.0-4.0-0.0-1.11","7","7","7","7","7","5","5","5","5","5","5","2","2","2","2","2","2","2","2","5","5","5","5","5","5","4","5","5","4","8","7","8","7","8","7","7","8","8","7","7","7","7","7","6","6","1","7","7","1","7","7","7","7","7","7","7","7","7","7","7","7","7","7","7","7","7","7","7","7","7","7","7","7","7","7","7","7","7","7","598911150104510464","熊","576","Male","[""好我"",""坏我"",""好他"",""坏他""]","[""强我"",""弱我"",""强他"",""弱他""]","","","","","","","","","","","","","","","","","","","","","","","","","","","","","","feedback_test","","","","","","","","",""
"842","","j","psychophysics","132","277581","0.0-8.0-1.0-4.0-0.0-0.12","7","7","7","7","7","5","5","5","5","5","5","2","2","2","2","2","2","2","2","5","5","5","5","5","5","4","5","5","4","8","7","8","7","8","7","7","8","8","7","7","7","7","7","6","6","1","7","7","1","7","7","7","7","7","7","7","7","7","7","7","7","7","7","7","7","7","7","7","7","7","7","7","7","7","7","7","7","7","7","598911150104510464","熊","576","Male","[""好我"",""坏我"",""好他"",""坏他""]","[""强我"",""弱我"",""强他"",""弱他""]","","","","","","","","nonmatch","","","","","","","","","","key","j","16.648623853211117","768","428","j","true","nonmatch","img/diamond.png","弱他","强他","ALT2","ability","","","","","","","","",""
"null","<span style='color:GreenYellow; font-size: 70px;'>正确! </span>","null","html-keyboard-response","133","278083","0.0-8.0-1.0-4.0-0.0-1.12","7","7","7","7","7","5","5","5","5","5","5","2","2","2","2","2","2","2","2","5","5","5","5","5","5","4","5","5","4","8","7","8","7","8","7","7","8","8","7","7","7","7","7","6","6","1","7","7","1","7","7","7","7","7","7","7","7","7","7","7","7","7","7","7","7","7","7","7","7","7","7","7","7","7","7","7","7","7","7","598911150104510464","熊","576","Male","[""好我"",""坏我"",""好他"",""坏他""]","[""强我"",""弱我"",""强他"",""弱他""]","","","","","","","","","","","","","","","","","","","","","","","","","","","","","","feedback_test","","","","","","","","",""
"961","","f","psychophysics","134","280044","0.0-8.0-1.0-4.0-0.0-0.13","7","7","7","7","7","5","5","5","5","5","5","2","2","2","2","2","2","2","2","5","5","5","5","5","5","4","5","5","4","8","7","8","7","8","7","7","8","8","7","7","7","7","7","6","6","1","7","7","1","7","7","7","7","7","7","7","7","7","7","7","7","7","7","7","7","7","7","7","7","7","7","7","7","7","7","7","7","7","7","598911150104510464","熊","576","Male","[""好我"",""坏我"",""好他"",""坏他""]","[""强我"",""弱我"",""强他"",""弱他""]","","","","","","","","match","","","","","","","","","","key","f","16.64741379310375","768","428","f","true","match","img/diamond.png","强他","强他","ALT2","ability","","","","","","","","",""
"null","<span style='color:GreenYellow; font-size: 70px;'>正确! </span>","null","html-keyboard-response","135","280545","0.0-8.0-1.0-4.0-0.0-1.13","7","7","7","7","7","5","5","5","5","5","5","2","2","2","2","2","2","2","2","5","5","5","5","5","5","4","5","5","4","8","7","8","7","8","7","7","8","8","7","7","7","7","7","6","6","1","7","7","1","7","7","7","7","7","7","7","7","7","7","7","7","7","7","7","7","7","7","7","7","7","7","7","7","7","7","7","7","7","7","598911150104510464","熊","576","Male","[""好我"",""坏我"",""好他"",""坏他""]","[""强我"",""弱我"",""强他"",""弱他""]","","","","","","","","","","","","","","","","","","","","","","","","","","","","","","feedback_test","","","","","","","","",""
"690","","j","psychophysics","136","282236","0.0-8.0-1.0-4.0-0.0-0.14","7","7","7","7","7","5","5","5","5","5","5","2","2","2","2","2","2","2","2","5","5","5","5","5","5","4","5","5","4","8","7","8","7","8","7","7","8","8","7","7","7","7","7","6","6","1","7","7","1","7","7","7","7","7","7","7","7","7","7","7","7","7","7","7","7","7","7","7","7","7","7","7","7","7","7","7","7","7","7","598911150104510464","熊","576","Male","[""好我"",""坏我"",""好他"",""坏他""]","[""强我"",""弱我"",""强他"",""弱他""]","","","","","","","","nonmatch","","","","","","","","","","key","j","16.651485148515313","768","428","j","true","nonmatch","img/trapezoid.png","弱他","弱我","ALT2","ability","","","","","","","","",""
"null","<span style='color:GreenYellow; font-size: 70px;'>正确! </span>","null","html-keyboard-response","137","282738","0.0-8.0-1.0-4.0-0.0-1.14","7","7","7","7","7","5","5","5","5","5","5","2","2","2","2","2","2","2","2","5","5","5","5","5","5","4","5","5","4","8","7","8","7","8","7","7","8","8","7","7","7","7","7","6","6","1","7","7","1","7","7","7","7","7","7","7","7","7","7","7","7","7","7","7","7","7","7","7","7","7","7","7","7","7","7","7","7","7","7","598911150104510464","熊","576","Male","[""好我"",""坏我"",""好他"",""坏他""]","[""强我"",""弱我"",""强他"",""弱他""]","","","","","","","","","","","","","","","","","","","","","","","","","","","","","","feedback_test","","","","","","","","",""
"657","","j","psychophysics","138","284396","0.0-8.0-1.0-4.0-0.0-0.15","7","7","7","7","7","5","5","5","5","5","5","2","2","2","2","2","2","2","2","5","5","5","5","5","5","4","5","5","4","8","7","8","7","8","7","7","8","8","7","7","7","7","7","6","6","1","7","7","1","7","7","7","7","7","7","7","7","7","7","7","7","7","7","7","7","7","7","7","7","7","7","7","7","7","7","7","7","7","7","598911150104510464","熊","576","Male","[""好我"",""坏我"",""好他"",""坏他""]","[""强我"",""弱我"",""强他"",""弱他""]","","","","","","","","nonmatch","","","","","","","","","","key","j","16.649494949494834","768","428","j","true","nonmatch","img/circle.png","弱他","强我","ALT2","ability","","","","","","","","",""
