"rt","stimulus","response","trial_type","trial_index","time_elapsed","internal_node_id","swb_1","swb_2","swb_3","swb_4","swb_5","LOT_1","LOT_2","LOT_3","LOT_4","LOT_5","LOT_6","IPC_1","IPC_2","IPC_3","IPC_4","IPC_5","IPC_6","IPC_7","IPC_8","MorIden_1","MorIden_2","MorIden_3","MorIden_4","MorIden_5","MorIden_6","MorIden_7","MorIden_8","MorIden_9","MorIden_10","moralSeImag_1","moralSeImag_2","moralSeImag_3","moralSeImag_4","moralSeImag_5","moralSeImag_6","moralSeImag_7","moralSeImag_8","moralSeImag_9","sde_1","sde_2","sde_3","sde_4","sde_5","sde_6","sde_7","sde_8","sde_9","sde_10","trap2","sde_11","sde_12","sde_13","sde_14","sde_15","sde_16","sde_17","sde_18","sde_19","sde_20","IM_1","IM_2","IM_3","IM_4","IM_5","IM_6","IM_7","IM_8","IM_9","IM_10","IM_11","IM_12","IM_13","IM_14","IM_15","IM_16","IM_17","IM_18","IM_19","IM_20","subj_idx","friend_name","ParticipantID","Sex","Word","Word2","value","success","timeout","failed_images","failed_audio","failed_video","user_agent","responses","item_order","radio_event_ids","radio_event_times","key_event_times","mouse_event_times","straightlining","zigzagging","honeypot","view_history","response_type","key_press","avg_frame_time","center_x","center_y","correct_response","correct","identity","Image","word","condition","task_id","screen_id","time_stamp","person","valence","domain","math","status","duration","question_order","trap2_item"
"3704","
   <p><div style='color:white; font-size: 25px'>您好，欢迎参加本次实验。</div></p>
   <p><div style='color:white; font-size: 25px'>为充分保障您的权利，请确保您已经知晓并同意《参与实验同意书》以及《数据公开知情同意书》。</div></p>
   <p><div style='color:white; font-size: 25px'>如果您未见过上述内容，请咨询实验员。</div></p>
   <p style='color:white; font-size: 25px'>如果您选择继续实验，则表示您已经清楚两份知情同意书的内容并同意。</p>
   <p><div style = ""color: pink;font-size:30px;"">请确保您记得day0的实验编号，您将在本次实验输入该编号，若您忘记，请咨询实验员后作答。</div></p>
   <p><div style = ""color:lightblue;font-size:25px;"">请您尽可能认真地作答，我们将依据您在各问卷和按键任务中的作答质量发放报酬。</div></p>
   <p> <div style = ""color: green""><按空格键至下页></div> </p>
   "," ","html-keyboard-response","0","3706","0.0-0.0","3","3","2","3","2","4","3","2","4","4","4","0","0","-1","0","-1","-1","0","0","4","4","5","4","4","4","4","4","4","3","6","7","6","8","5","6","7","7","7","4","3","2","4","4","3","4","3","3","3","1","4","3","5","3","4","4","4","3","2","4","4","4","3","6","3","7","4","5","5","6","5","5","5","6","5","5","4","5","3","4","757590139374669825","孙","403","Female","[""坏她"",""好我"",""好她"",""坏我""]","[""弱她"",""强我"",""强她"",""弱我""]","","","","","","","","","","","","","","","","","","","","","","","","","","","","","","","","","","","","","","",""
"","","","call-function","1","3707","0.0-1.0-0.0","3","3","2","3","2","4","3","2","4","4","4","0","0","-1","0","-1","-1","0","0","4","4","5","4","4","4","4","4","4","3","6","7","6","8","5","6","7","7","7","4","3","2","4","4","3","4","3","3","3","1","4","3","5","3","4","4","4","3","2","4","4","4","3","6","3","7","4","5","5","6","5","5","5","6","5","5","4","5","3","4","757590139374669825","孙","403","Female","[""坏她"",""好我"",""好她"",""坏我""]","[""弱她"",""强我"",""强她"",""弱我""]","","","","","","","","","","","","","","","","","","","","","","","","","","","","","","","","","","","","","","",""
"14015","","[{""name"":""Sex"",""value"":""1""},{""name"":""friend_name"",""value"":""孙""},{""name"":""ParticipantID"",""value"":""403""}]","survey-html-form","2","17722","0.0-1.0-1.0","3","3","2","3","2","4","3","2","4","4","4","0","0","-1","0","-1","-1","0","0","4","4","5","4","4","4","4","4","4","3","6","7","6","8","5","6","7","7","7","4","3","2","4","4","3","4","3","3","3","1","4","3","5","3","4","4","4","3","2","4","4","4","3","6","3","7","4","5","5","6","5","5","5","6","5","5","4","5","3","4","757590139374669825","孙","403","Female","[""坏她"",""好我"",""好她"",""坏我""]","[""弱她"",""强我"",""强她"",""弱我""]","","","","","","","","","","","","","","","","","","","","","","","","","","","","","","","","","","","","","","",""
"","","","preload","3","29576","0.0-2.0","3","3","2","3","2","4","3","2","4","4","4","0","0","-1","0","-1","-1","0","0","4","4","5","4","4","4","4","4","4","3","6","7","6","8","5","6","7","7","7","4","3","2","4","4","3","4","3","3","3","1","4","3","5","3","4","4","4","3","2","4","4","4","3","6","3","7","4","5","5","6","5","5","5","6","5","5","4","5","3","4","757590139374669825","孙","403","Female","[""坏她"",""好我"",""好她"",""坏我""]","[""弱她"",""强我"",""强她"",""弱我""]","","true","false","[]","[]","[]","","","","","","","","","","","","","","","","","","","","","","","","","","","","","","","","",""
"","","","fullscreen","4","45370","0.0-3.0","3","3","2","3","2","4","3","2","4","4","4","0","0","-1","0","-1","-1","0","0","4","4","5","4","4","4","4","4","4","3","6","7","6","8","5","6","7","7","7","4","3","2","4","4","3","4","3","3","3","1","4","3","5","3","4","4","4","3","2","4","4","4","3","6","3","7","4","5","5","6","5","5","5","6","5","5","4","5","3","4","757590139374669825","孙","403","Female","[""坏她"",""好我"",""好她"",""坏我""]","[""弱她"",""强我"",""强她"",""弱我""]","","true","","","","","{}","","","","","","","","","","","","","","","","","","","","","","","","","","","","","","","",""
"45142.59999999963","","{""Q01"":""3"",""Q02"":""3"",""Q03"":""2"",""Q04"":""3"",""Q05"":""2""}","survey-template","5","90514","0.0-4.0","3","3","2","3","2","4","3","2","4","4","4","0","0","-1","0","-1","-1","0","0","4","4","5","4","4","4","4","4","4","3","6","7","6","8","5","6","7","7","7","4","3","2","4","4","3","4","3","3","3","1","4","3","5","3","4","4","4","3","2","4","4","4","3","6","3","7","4","5","5","6","5","5","5","6","5","5","4","5","3","4","757590139374669825","孙","403","Female","[""坏她"",""好我"",""好她"",""坏我""]","[""弱她"",""强我"",""强她"",""弱我""]","","","","","","","","{""Q01"":""3"",""Q02"":""3"",""Q03"":""2"",""Q04"":""3"",""Q05"":""2""}","[0,1,2,3,4]","[""Q01"",""Q02"",""Q03"",""Q05"",""Q04""]","[34245.799999999814,35549.699999999255,37605.699999999255,39814.199999999255,40518.799999999814]","[]","[34245.799999999814,35549.699999999255,37605.699999999255,38878,39814.199999999255,40518.799999999814,45141.89999999944]","0.6","0.75","0","","","","","","","","","","","","","","","","","","","","","","",""
"14836.400000000373","","{""Q01"":""4"",""Q02"":""3"",""Q03"":""2"",""Q04"":""4"",""Q05"":""4"",""Q06"":""4""}","survey-template","6","105354","0.0-5.0","3","3","2","3","2","4","3","2","4","4","4","0","0","-1","0","-1","-1","0","0","4","4","5","4","4","4","4","4","4","3","6","7","6","8","5","6","7","7","7","4","3","2","4","4","3","4","3","3","3","1","4","3","5","3","4","4","4","3","2","4","4","4","3","6","3","7","4","5","5","6","5","5","5","6","5","5","4","5","3","4","757590139374669825","孙","403","Female","[""坏她"",""好我"",""好她"",""坏我""]","[""弱她"",""强我"",""强她"",""弱我""]","","","","","","","","{""Q01"":""4"",""Q02"":""3"",""Q03"":""2"",""Q04"":""4"",""Q05"":""4"",""Q06"":""4""}","[0,1,2,3,4,5]","[""Q01"",""Q02"",""Q03"",""Q04"",""Q05"",""Q06""]","[2171.7000000001863,6787.5,9299.599999999627,11988.700000000186,13100.200000000186,14155.599999999627]","[]","[2171.7000000001863,6787.5,9299.599999999627,10443.900000000373,11523.599999999627,11988.700000000186,12635.599999999627,13100.200000000186,14155.599999999627,14835.900000000373]","0.5","0.4","0","","","","","","","","","","","","","","","","","","","","","","",""
"13391.299999999814","","{""Q01"":""0"",""Q02"":""0"",""Q03"":""-1"",""Q04"":""0"",""Q05"":""-1"",""Q06"":""-1"",""Q07"":""0"",""Q08"":""0""}","survey-template","7","118746","0.0-6.0","3","3","2","3","2","4","3","2","4","4","4","0","0","-1","0","-1","-1","0","0","4","4","5","4","4","4","4","4","4","3","6","7","6","8","5","6","7","7","7","4","3","2","4","4","3","4","3","3","3","1","4","3","5","3","4","4","4","3","2","4","4","4","3","6","3","7","4","5","5","6","5","5","5","6","5","5","4","5","3","4","757590139374669825","孙","403","Female","[""坏她"",""好我"",""好她"",""坏我""]","[""弱她"",""强我"",""强她"",""弱我""]","","","","","","","","{""Q01"":""0"",""Q02"":""0"",""Q03"":""-1"",""Q04"":""0"",""Q05"":""-1"",""Q06"":""-1"",""Q07"":""0"",""Q08"":""0""}","[0,1,2,3,4,5,6,7]","[""Q01"",""Q02"",""Q03"",""Q04"",""Q05"",""Q06"",""Q07"",""Q08""]","[1756.2999999998137,2884.2999999998137,4364.299999999814,7156.9000000003725,8012,9380.299999999814,10988.299999999814,12676.200000000186]","[]","[1756.2999999998137,2884.2999999998137,4364.299999999814,6124.4000000003725,7156.9000000003725,8012,9380.299999999814,10988.299999999814,12052,12676.200000000186,13388.200000000186]","0.625","0.5714285714285714","0","","","","","","","","","","","","","","","","","","","","","","",""
"28676","","","instructions","8","147424","0.0-7.0","3","3","2","3","2","4","3","2","4","4","4","0","0","-1","0","-1","-1","0","0","4","4","5","4","4","4","4","4","4","3","6","7","6","8","5","6","7","7","7","4","3","2","4","4","3","4","3","3","3","1","4","3","5","3","4","4","4","3","2","4","4","4","3","6","3","7","4","5","5","6","5","5","5","6","5","5","4","5","3","4","757590139374669825","孙","403","Female","[""坏她"",""好我"",""好她"",""坏我""]","[""弱她"",""强我"",""强她"",""弱我""]","","","","","","","","","","","","","","","","","[{""page_index"":0,""viewing_time"":28676}]","","","","","","","","","","","","","","","","","","","","","",""
"121391","","","instructions","9","268813","0.0-8.0-1.0-0.0","3","3","2","3","2","4","3","2","4","4","4","0","0","-1","0","-1","-1","0","0","4","4","5","4","4","4","4","4","4","3","6","7","6","8","5","6","7","7","7","4","3","2","4","4","3","4","3","3","3","1","4","3","5","3","4","4","4","3","2","4","4","4","3","6","3","7","4","5","5","6","5","5","5","6","5","5","4","5","3","4","757590139374669825","孙","403","Female","[""坏她"",""好我"",""好她"",""坏我""]","[""弱她"",""强我"",""强她"",""弱我""]","","","","","","","","","","","","","","","","","[{""page_index"":0,""viewing_time"":3838},{""page_index"":1,""viewing_time"":115088},{""page_index"":2,""viewing_time"":1224},{""page_index"":3,""viewing_time"":1241}]","","","","","","","","","","","","","","","","","","","","","",""
"1007","","f","psychophysics","10","270827","0.0-8.0-1.0-1.0-0.0-0.0","3","3","2","3","2","4","3","2","4","4","4","0","0","-1","0","-1","-1","0","0","4","4","5","4","4","4","4","4","4","3","6","7","6","8","5","6","7","7","7","4","3","2","4","4","3","4","3","3","3","1","4","3","5","3","4","4","4","3","2","4","4","4","3","6","3","7","4","5","5","6","5","5","5","6","5","5","4","5","3","4","757590139374669825","孙","403","Female","[""坏她"",""好我"",""好她"",""坏我""]","[""弱她"",""强我"",""强她"",""弱我""]","","","","","","","","nonmatch","","","","","","","","","","key","f","16.68348739495767","960","536","j","false","match","img/ellipse.png","弱她","弱她","prac_ALT2_ability","practice_ability","","","","","","","","",""
"null","<span style='color:red; font-size: 70px;'>错误! </span>","null","html-keyboard-response","11","271331","0.0-8.0-1.0-1.0-0.0-1.0","3","3","2","3","2","4","3","2","4","4","4","0","0","-1","0","-1","-1","0","0","4","4","5","4","4","4","4","4","4","3","6","7","6","8","5","6","7","7","7","4","3","2","4","4","3","4","3","3","3","1","4","3","5","3","4","4","4","3","2","4","4","4","3","6","3","7","4","5","5","6","5","5","5","6","5","5","4","5","3","4","757590139374669825","孙","403","Female","[""坏她"",""好我"",""好她"",""坏我""]","[""弱她"",""强我"",""强她"",""弱我""]","","","","","","","","","","","","","","","","","","","","","","","","","","","","","","feedback_test","","","","","","","","",""
"870","","f","psychophysics","12","273203","0.0-8.0-1.0-1.0-0.0-0.1","3","3","2","3","2","4","3","2","4","4","4","0","0","-1","0","-1","-1","0","0","4","4","5","4","4","4","4","4","4","3","6","7","6","8","5","6","7","7","7","4","3","2","4","4","3","4","3","3","3","1","4","3","5","3","4","4","4","3","2","4","4","4","3","6","3","7","4","5","5","6","5","5","5","6","5","5","4","5","3","4","757590139374669825","孙","403","Female","[""坏她"",""好我"",""好她"",""坏我""]","[""弱她"",""强我"",""强她"",""弱我""]","","","","","","","","nonmatch","","","","","","","","","","key","f","16.68418018018034","960","536","f","true","nonmatch","img/diamond.png","弱她","强我","prac_ALT2_ability","practice_ability","","","","","","","","",""
"null","<span style='color:GreenYellow; font-size: 70px;'>正确! </span>","null","html-keyboard-response","13","273708","0.0-8.0-1.0-1.0-0.0-1.1","3","3","2","3","2","4","3","2","4","4","4","0","0","-1","0","-1","-1","0","0","4","4","5","4","4","4","4","4","4","3","6","7","6","8","5","6","7","7","7","4","3","2","4","4","3","4","3","3","3","1","4","3","5","3","4","4","4","3","2","4","4","4","3","6","3","7","4","5","5","6","5","5","5","6","5","5","4","5","3","4","757590139374669825","孙","403","Female","[""坏她"",""好我"",""好她"",""坏我""]","[""弱她"",""强我"",""强她"",""弱我""]","","","","","","","","","","","","","","","","","","","","","","","","","","","","","","feedback_test","","","","","","","","",""
"728","","f","psychophysics","14","275443","0.0-8.0-1.0-1.0-0.0-0.2","3","3","2","3","2","4","3","2","4","4","4","0","0","-1","0","-1","-1","0","0","4","4","5","4","4","4","4","4","4","3","6","7","6","8","5","6","7","7","7","4","3","2","4","4","3","4","3","3","3","1","4","3","5","3","4","4","4","3","2","4","4","4","3","6","3","7","4","5","5","6","5","5","5","6","5","5","4","5","3","4","757590139374669825","孙","403","Female","[""坏她"",""好我"",""好她"",""坏我""]","[""弱她"",""强我"",""强她"",""弱我""]","","","","","","","","nonmatch","","","","","","","","","","key","f","16.684320388349946","960","536","f","true","nonmatch","img/ellipse.png","强我","弱她","prac_ALT2_ability","practice_ability","","","","","","","","",""
"null","<span style='color:GreenYellow; font-size: 70px;'>正确! </span>","null","html-keyboard-response","15","275948","0.0-8.0-1.0-1.0-0.0-1.2","3","3","2","3","2","4","3","2","4","4","4","0","0","-1","0","-1","-1","0","0","4","4","5","4","4","4","4","4","4","3","6","7","6","8","5","6","7","7","7","4","3","2","4","4","3","4","3","3","3","1","4","3","5","3","4","4","4","3","2","4","4","4","3","6","3","7","4","5","5","6","5","5","5","6","5","5","4","5","3","4","757590139374669825","孙","403","Female","[""坏她"",""好我"",""好她"",""坏我""]","[""弱她"",""强我"",""强她"",""弱我""]","","","","","","","","","","","","","","","","","","","","","","","","","","","","","","feedback_test","","","","","","","","",""
"875","","f","psychophysics","16","277827","0.0-8.0-1.0-1.0-0.0-0.3","3","3","2","3","2","4","3","2","4","4","4","0","0","-1","0","-1","-1","0","0","4","4","5","4","4","4","4","4","4","3","6","7","6","8","5","6","7","7","7","4","3","2","4","4","3","4","3","3","3","1","4","3","5","3","4","4","4","3","2","4","4","4","3","6","3","7","4","5","5","6","5","5","5","6","5","5","4","5","3","4","757590139374669825","孙","403","Female","[""坏她"",""好我"",""好她"",""坏我""]","[""弱她"",""强我"",""强她"",""弱我""]","","","","","","","","nonmatch","","","","","","","","","","key","f","16.684017857143253","960","536","f","true","nonmatch","img/pentagon.png","弱她","弱我","prac_ALT2_ability","practice_ability","","","","","","","","",""
"null","<span style='color:GreenYellow; font-size: 70px;'>正确! </span>","null","html-keyboard-response","17","278332","0.0-8.0-1.0-1.0-0.0-1.3","3","3","2","3","2","4","3","2","4","4","4","0","0","-1","0","-1","-1","0","0","4","4","5","4","4","4","4","4","4","3","6","7","6","8","5","6","7","7","7","4","3","2","4","4","3","4","3","3","3","1","4","3","5","3","4","4","4","3","2","4","4","4","3","6","3","7","4","5","5","6","5","5","5","6","5","5","4","5","3","4","757590139374669825","孙","403","Female","[""坏她"",""好我"",""好她"",""坏我""]","[""弱她"",""强我"",""强她"",""弱我""]","","","","","","","","","","","","","","","","","","","","","","","","","","","","","","feedback_test","","","","","","","","",""
"1033","","j","psychophysics","18","280371","0.0-8.0-1.0-1.0-0.0-0.4","3","3","2","3","2","4","3","2","4","4","4","0","0","-1","0","-1","-1","0","0","4","4","5","4","4","4","4","4","4","3","6","7","6","8","5","6","7","7","7","4","3","2","4","4","3","4","3","3","3","1","4","3","5","3","4","4","4","3","2","4","4","4","3","6","3","7","4","5","5","6","5","5","5","6","5","5","4","5","3","4","757590139374669825","孙","403","Female","[""坏她"",""好我"",""好她"",""坏我""]","[""弱她"",""强我"",""强她"",""弱我""]","","","","","","","","match","","","","","","","","","","key","j","16.684214876033366","960","536","j","true","match","img/diamond.png","强我","强我","prac_ALT2_ability","practice_ability","","","","","","","","",""
"null","<span style='color:GreenYellow; font-size: 70px;'>正确! </span>","null","html-keyboard-response","19","280875","0.0-8.0-1.0-1.0-0.0-1.4","3","3","2","3","2","4","3","2","4","4","4","0","0","-1","0","-1","-1","0","0","4","4","5","4","4","4","4","4","4","3","6","7","6","8","5","6","7","7","7","4","3","2","4","4","3","4","3","3","3","1","4","3","5","3","4","4","4","3","2","4","4","4","3","6","3","7","4","5","5","6","5","5","5","6","5","5","4","5","3","4","757590139374669825","孙","403","Female","[""坏她"",""好我"",""好她"",""坏我""]","[""弱她"",""强我"",""强她"",""弱我""]","","","","","","","","","","","","","","","","","","","","","","","","","","","","","","feedback_test","","","","","","","","",""
"1071","","j","psychophysics","20","282955","0.0-8.0-1.0-1.0-0.0-0.5","3","3","2","3","2","4","3","2","4","4","4","0","0","-1","0","-1","-1","0","0","4","4","5","4","4","4","4","4","4","3","6","7","6","8","5","6","7","7","7","4","3","2","4","4","3","4","3","3","3","1","4","3","5","3","4","4","4","3","2","4","4","4","3","6","3","7","4","5","5","6","5","5","5","6","5","5","4","5","3","4","757590139374669825","孙","403","Female","[""坏她"",""好我"",""好她"",""坏我""]","[""弱她"",""强我"",""强她"",""弱我""]","","","","","","","","match","","","","","","","","","","key","j","16.683178861788758","960","536","f","false","nonmatch","img/pentagon.png","强她","弱我","prac_ALT2_ability","practice_ability","","","","","","","","",""
"null","<span style='color:red; font-size: 70px;'>错误! </span>","null","html-keyboard-response","21","283459","0.0-8.0-1.0-1.0-0.0-1.5","3","3","2","3","2","4","3","2","4","4","4","0","0","-1","0","-1","-1","0","0","4","4","5","4","4","4","4","4","4","3","6","7","6","8","5","6","7","7","7","4","3","2","4","4","3","4","3","3","3","1","4","3","5","3","4","4","4","3","2","4","4","4","3","6","3","7","4","5","5","6","5","5","5","6","5","5","4","5","3","4","757590139374669825","孙","403","Female","[""坏她"",""好我"",""好她"",""坏我""]","[""弱她"",""强我"",""强她"",""弱我""]","","","","","","","","","","","","","","","","","","","","","","","","","","","","","","feedback_test","","","","","","","","",""
"615","","j","psychophysics","22","285075","0.0-8.0-1.0-1.0-0.0-0.6","3","3","2","3","2","4","3","2","4","4","4","0","0","-1","0","-1","-1","0","0","4","4","5","4","4","4","4","4","4","3","6","7","6","8","5","6","7","7","7","4","3","2","4","4","3","4","3","3","3","1","4","3","5","3","4","4","4","3","2","4","4","4","3","6","3","7","4","5","5","6","5","5","5","6","5","5","4","5","3","4","757590139374669825","孙","403","Female","[""坏她"",""好我"",""好她"",""坏我""]","[""弱她"",""强我"",""强她"",""弱我""]","","","","","","","","match","","","","","","","","","","key","j","16.68252631578913","960","536","j","true","match","img/square.png","强她","强她","prac_ALT2_ability","practice_ability","","","","","","","","",""
"null","<span style='color:GreenYellow; font-size: 70px;'>正确! </span>","null","html-keyboard-response","23","285579","0.0-8.0-1.0-1.0-0.0-1.6","3","3","2","3","2","4","3","2","4","4","4","0","0","-1","0","-1","-1","0","0","4","4","5","4","4","4","4","4","4","3","6","7","6","8","5","6","7","7","7","4","3","2","4","4","3","4","3","3","3","1","4","3","5","3","4","4","4","3","2","4","4","4","3","6","3","7","4","5","5","6","5","5","5","6","5","5","4","5","3","4","757590139374669825","孙","403","Female","[""坏她"",""好我"",""好她"",""坏我""]","[""弱她"",""强我"",""强她"",""弱我""]","","","","","","","","","","","","","","","","","","","","","","","","","","","","","","feedback_test","","","","","","","","",""
"919","","j","psychophysics","24","287507","0.0-8.0-1.0-1.0-0.0-0.7","3","3","2","3","2","4","3","2","4","4","4","0","0","-1","0","-1","-1","0","0","4","4","5","4","4","4","4","4","4","3","6","7","6","8","5","6","7","7","7","4","3","2","4","4","3","4","3","3","3","1","4","3","5","3","4","4","4","3","2","4","4","4","3","6","3","7","4","5","5","6","5","5","5","6","5","5","4","5","3","4","757590139374669825","孙","403","Female","[""坏她"",""好我"",""好她"",""坏我""]","[""弱她"",""强我"",""强她"",""弱我""]","","","","","","","","match","","","","","","","","","","key","j","16.682912280701363","960","536","j","true","match","img/pentagon.png","弱我","弱我","prac_ALT2_ability","practice_ability","","","","","","","","",""
"null","<span style='color:GreenYellow; font-size: 70px;'>正确! </span>","null","html-keyboard-response","25","288011","0.0-8.0-1.0-1.0-0.0-1.7","3","3","2","3","2","4","3","2","4","4","4","0","0","-1","0","-1","-1","0","0","4","4","5","4","4","4","4","4","4","3","6","7","6","8","5","6","7","7","7","4","3","2","4","4","3","4","3","3","3","1","4","3","5","3","4","4","4","3","2","4","4","4","3","6","3","7","4","5","5","6","5","5","5","6","5","5","4","5","3","4","757590139374669825","孙","403","Female","[""坏她"",""好我"",""好她"",""坏我""]","[""弱她"",""强我"",""强她"",""弱我""]","","","","","","","","","","","","","","","","","","","","","","","","","","","","","","feedback_test","","","","","","","","",""
"null","","null","psychophysics","26","290216","0.0-8.0-1.0-1.0-0.0-0.8","3","3","2","3","2","4","3","2","4","4","4","0","0","-1","0","-1","-1","0","0","4","4","5","4","4","4","4","4","4","3","6","7","6","8","5","6","7","7","7","4","3","2","4","4","3","4","3","3","3","1","4","3","5","3","4","4","4","3","2","4","4","4","3","6","3","7","4","5","5","6","5","5","5","6","5","5","4","5","3","4","757590139374669825","孙","403","Female","[""坏她"",""好我"",""好她"",""坏我""]","[""弱她"",""强我"",""强她"",""弱我""]","","","","","","","","null","","","","","","","","","","key","null","16.683740458014878","960","536","f","false","nonmatch","img/square.png","弱她","强她","prac_ALT2_ability","practice_ability","","","","","","","","",""
"null","<span class='add_' style='color:yellow; font-size: 70px;'> 太慢! </span>","null","html-keyboard-response","27","290724","0.0-8.0-1.0-1.0-0.0-1.8","3","3","2","3","2","4","3","2","4","4","4","0","0","-1","0","-1","-1","0","0","4","4","5","4","4","4","4","4","4","3","6","7","6","8","5","6","7","7","7","4","3","2","4","4","3","4","3","3","3","1","4","3","5","3","4","4","4","3","2","4","4","4","3","6","3","7","4","5","5","6","5","5","5","6","5","5","4","5","3","4","757590139374669825","孙","403","Female","[""坏她"",""好我"",""好她"",""坏我""]","[""弱她"",""强我"",""强她"",""弱我""]","","","","","","","","","","","","","","","","","","","","","","","","","","","","","","feedback_test","","","","","","","","",""
"1079","","j","psychophysics","28","292811","0.0-8.0-1.0-1.0-0.0-0.9","3","3","2","3","2","4","3","2","4","4","4","0","0","-1","0","-1","-1","0","0","4","4","5","4","4","4","4","4","4","3","6","7","6","8","5","6","7","7","7","4","3","2","4","4","3","4","3","3","3","1","4","3","5","3","4","4","4","3","2","4","4","4","3","6","3","7","4","5","5","6","5","5","5","6","5","5","4","5","3","4","757590139374669825","孙","403","Female","[""坏她"",""好我"",""好她"",""坏我""]","[""弱她"",""强我"",""强她"",""弱我""]","","","","","","","","match","","","","","","","","","","key","j","16.683467741935484","960","536","f","false","nonmatch","img/square.png","强我","强她","prac_ALT2_ability","practice_ability","","","","","","","","",""
"null","<span style='color:red; font-size: 70px;'>错误! </span>","null","html-keyboard-response","29","293315","0.0-8.0-1.0-1.0-0.0-1.9","3","3","2","3","2","4","3","2","4","4","4","0","0","-1","0","-1","-1","0","0","4","4","5","4","4","4","4","4","4","3","6","7","6","8","5","6","7","7","7","4","3","2","4","4","3","4","3","3","3","1","4","3","5","3","4","4","4","3","2","4","4","4","3","6","3","7","4","5","5","6","5","5","5","6","5","5","4","5","3","4","757590139374669825","孙","403","Female","[""坏她"",""好我"",""好她"",""坏我""]","[""弱她"",""强我"",""强她"",""弱我""]","","","","","","","","","","","","","","","","","","","","","","","","","","","","","","feedback_test","","","","","","","","",""
"1083","","j","psychophysics","30","295403","0.0-8.0-1.0-1.0-0.0-0.10","3","3","2","3","2","4","3","2","4","4","4","0","0","-1","0","-1","-1","0","0","4","4","5","4","4","4","4","4","4","3","6","7","6","8","5","6","7","7","7","4","3","2","4","4","3","4","3","3","3","1","4","3","5","3","4","4","4","3","2","4","4","4","3","6","3","7","4","5","5","6","5","5","5","6","5","5","4","5","3","4","757590139374669825","孙","403","Female","[""坏她"",""好我"",""好她"",""坏我""]","[""弱她"",""强我"",""强她"",""弱我""]","","","","","","","","match","","","","","","","","","","key","j","16.68367741935447","960","536","j","true","match","img/ellipse.png","弱她","弱她","prac_ALT2_ability","practice_ability","","","","","","","","",""
"null","<span style='color:GreenYellow; font-size: 70px;'>正确! </span>","null","html-keyboard-response","31","295908","0.0-8.0-1.0-1.0-0.0-1.10","3","3","2","3","2","4","3","2","4","4","4","0","0","-1","0","-1","-1","0","0","4","4","5","4","4","4","4","4","4","3","6","7","6","8","5","6","7","7","7","4","3","2","4","4","3","4","3","3","3","1","4","3","5","3","4","4","4","3","2","4","4","4","3","6","3","7","4","5","5","6","5","5","5","6","5","5","4","5","3","4","757590139374669825","孙","403","Female","[""坏她"",""好我"",""好她"",""坏我""]","[""弱她"",""强我"",""强她"",""弱我""]","","","","","","","","","","","","","","","","","","","","","","","","","","","","","","feedback_test","","","","","","","","",""
"1063","","j","psychophysics","32","297979","0.0-8.0-1.0-1.0-0.0-0.11","3","3","2","3","2","4","3","2","4","4","4","0","0","-1","0","-1","-1","0","0","4","4","5","4","4","4","4","4","4","3","6","7","6","8","5","6","7","7","7","4","3","2","4","4","3","4","3","3","3","1","4","3","5","3","4","4","4","3","2","4","4","4","3","6","3","7","4","5","5","6","5","5","5","6","5","5","4","5","3","4","757590139374669825","孙","403","Female","[""坏她"",""好我"",""好她"",""坏我""]","[""弱她"",""强我"",""强她"",""弱我""]","","","","","","","","match","","","","","","","","","","key","j","16.682691056910727","960","536","j","true","match","img/diamond.png","强我","强我","prac_ALT2_ability","practice_ability","","","","","","","","",""
"null","<span style='color:GreenYellow; font-size: 70px;'>正确! </span>","null","html-keyboard-response","33","298483","0.0-8.0-1.0-1.0-0.0-1.11","3","3","2","3","2","4","3","2","4","4","4","0","0","-1","0","-1","-1","0","0","4","4","5","4","4","4","4","4","4","3","6","7","6","8","5","6","7","7","7","4","3","2","4","4","3","4","3","3","3","1","4","3","5","3","4","4","4","3","2","4","4","4","3","6","3","7","4","5","5","6","5","5","5","6","5","5","4","5","3","4","757590139374669825","孙","403","Female","[""坏她"",""好我"",""好她"",""坏我""]","[""弱她"",""强我"",""强她"",""弱我""]","","","","","","","","","","","","","","","","","","","","","","","","","","","","","","feedback_test","","","","","","","","",""
"1104","","f","psychophysics","34","300595","0.0-8.0-1.0-1.0-0.0-0.12","3","3","2","3","2","4","3","2","4","4","4","0","0","-1","0","-1","-1","0","0","4","4","5","4","4","4","4","4","4","3","6","7","6","8","5","6","7","7","7","4","3","2","4","4","3","4","3","3","3","1","4","3","5","3","4","4","4","3","2","4","4","4","3","6","3","7","4","5","5","6","5","5","5","6","5","5","4","5","3","4","757590139374669825","孙","403","Female","[""坏她"",""好我"",""好她"",""坏我""]","[""弱她"",""强我"",""强她"",""弱我""]","","","","","","","","nonmatch","","","","","","","","","","key","f","16.683079365079127","960","536","f","true","nonmatch","img/ellipse.png","弱我","弱她","prac_ALT2_ability","practice_ability","","","","","","","","",""
"null","<span style='color:GreenYellow; font-size: 70px;'>正确! </span>","null","html-keyboard-response","35","301100","0.0-8.0-1.0-1.0-0.0-1.12","3","3","2","3","2","4","3","2","4","4","4","0","0","-1","0","-1","-1","0","0","4","4","5","4","4","4","4","4","4","3","6","7","6","8","5","6","7","7","7","4","3","2","4","4","3","4","3","3","3","1","4","3","5","3","4","4","4","3","2","4","4","4","3","6","3","7","4","5","5","6","5","5","5","6","5","5","4","5","3","4","757590139374669825","孙","403","Female","[""坏她"",""好我"",""好她"",""坏我""]","[""弱她"",""强我"",""强她"",""弱我""]","","","","","","","","","","","","","","","","","","","","","","","","","","","","","","feedback_test","","","","","","","","",""
"1095","","f","psychophysics","36","303203","0.0-8.0-1.0-1.0-0.0-0.13","3","3","2","3","2","4","3","2","4","4","4","0","0","-1","0","-1","-1","0","0","4","4","5","4","4","4","4","4","4","3","6","7","6","8","5","6","7","7","7","4","3","2","4","4","3","4","3","3","3","1","4","3","5","3","4","4","4","3","2","4","4","4","3","6","3","7","4","5","5","6","5","5","5","6","5","5","4","5","3","4","757590139374669825","孙","403","Female","[""坏她"",""好我"",""好她"",""坏我""]","[""弱她"",""强我"",""强她"",""弱我""]","","","","","","","","nonmatch","","","","","","","","","","key","f","16.683391999999994","960","536","j","false","match","img/diamond.png","强我","强我","prac_ALT2_ability","practice_ability","","","","","","","","",""
"null","<span style='color:red; font-size: 70px;'>错误! </span>","null","html-keyboard-response","37","303707","0.0-8.0-1.0-1.0-0.0-1.13","3","3","2","3","2","4","3","2","4","4","4","0","0","-1","0","-1","-1","0","0","4","4","5","4","4","4","4","4","4","3","6","7","6","8","5","6","7","7","7","4","3","2","4","4","3","4","3","3","3","1","4","3","5","3","4","4","4","3","2","4","4","4","3","6","3","7","4","5","5","6","5","5","5","6","5","5","4","5","3","4","757590139374669825","孙","403","Female","[""坏她"",""好我"",""好她"",""坏我""]","[""弱她"",""强我"",""强她"",""弱我""]","","","","","","","","","","","","","","","","","","","","","","","","","","","","","","feedback_test","","","","","","","","",""
"null","","null","psychophysics","38","305915","0.0-8.0-1.0-1.0-0.0-0.14","3","3","2","3","2","4","3","2","4","4","4","0","0","-1","0","-1","-1","0","0","4","4","5","4","4","4","4","4","4","3","6","7","6","8","5","6","7","7","7","4","3","2","4","4","3","4","3","3","3","1","4","3","5","3","4","4","4","3","2","4","4","4","3","6","3","7","4","5","5","6","5","5","5","6","5","5","4","5","3","4","757590139374669825","孙","403","Female","[""坏她"",""好我"",""好她"",""坏我""]","[""弱她"",""强我"",""强她"",""弱我""]","","","","","","","","null","","","","","","","","","","key","null","16.68424427480915","960","536","f","false","nonmatch","img/ellipse.png","强她","弱她","prac_ALT2_ability","practice_ability","","","","","","","","",""
"null","<span class='add_' style='color:yellow; font-size: 70px;'> 太慢! </span>","null","html-keyboard-response","39","306419","0.0-8.0-1.0-1.0-0.0-1.14","3","3","2","3","2","4","3","2","4","4","4","0","0","-1","0","-1","-1","0","0","4","4","5","4","4","4","4","4","4","3","6","7","6","8","5","6","7","7","7","4","3","2","4","4","3","4","3","3","3","1","4","3","5","3","4","4","4","3","2","4","4","4","3","6","3","7","4","5","5","6","5","5","5","6","5","5","4","5","3","4","757590139374669825","孙","403","Female","[""坏她"",""好我"",""好她"",""坏我""]","[""弱她"",""强我"",""强她"",""弱我""]","","","","","","","","","","","","","","","","","","","","","","","","","","","","","","feedback_test","","","","","","","","",""
"920","","f","psychophysics","40","308347","0.0-8.0-1.0-1.0-0.0-0.15","3","3","2","3","2","4","3","2","4","4","4","0","0","-1","0","-1","-1","0","0","4","4","5","4","4","4","4","4","4","3","6","7","6","8","5","6","7","7","7","4","3","2","4","4","3","4","3","3","3","1","4","3","5","3","4","4","4","3","2","4","4","4","3","6","3","7","4","5","5","6","5","5","5","6","5","5","4","5","3","4","757590139374669825","孙","403","Female","[""坏她"",""好我"",""好她"",""坏我""]","[""弱她"",""强我"",""强她"",""弱我""]","","","","","","","","nonmatch","","","","","","","","","","key","f","16.68446491228104","960","536","j","false","match","img/pentagon.png","弱我","弱我","prac_ALT2_ability","practice_ability","","","","","","","","",""
"null","<span style='color:red; font-size: 70px;'>错误! </span>","null","html-keyboard-response","41","308852","0.0-8.0-1.0-1.0-0.0-1.15","3","3","2","3","2","4","3","2","4","4","4","0","0","-1","0","-1","-1","0","0","4","4","5","4","4","4","4","4","4","3","6","7","6","8","5","6","7","7","7","4","3","2","4","4","3","4","3","3","3","1","4","3","5","3","4","4","4","3","2","4","4","4","3","6","3","7","4","5","5","6","5","5","5","6","5","5","4","5","3","4","757590139374669825","孙","403","Female","[""坏她"",""好我"",""好她"",""坏我""]","[""弱她"",""强我"",""强她"",""弱我""]","","","","","","","","","","","","","","","","","","","","","","","","","","","","","","feedback_test","","","","","","","","",""
"791","","f","psychophysics","42","310643","0.0-8.0-1.0-1.0-0.0-0.16","3","3","2","3","2","4","3","2","4","4","4","0","0","-1","0","-1","-1","0","0","4","4","5","4","4","4","4","4","4","3","6","7","6","8","5","6","7","7","7","4","3","2","4","4","3","4","3","3","3","1","4","3","5","3","4","4","4","3","2","4","4","4","3","6","3","7","4","5","5","6","5","5","5","6","5","5","4","5","3","4","757590139374669825","孙","403","Female","[""坏她"",""好我"",""好她"",""坏我""]","[""弱她"",""强我"",""强她"",""弱我""]","","","","","","","","nonmatch","","","","","","","","","","key","f","16.68285849056633","960","536","f","true","nonmatch","img/square.png","弱我","强她","prac_ALT2_ability","practice_ability","","","","","","","","",""
"null","<span style='color:GreenYellow; font-size: 70px;'>正确! </span>","null","html-keyboard-response","43","311148","0.0-8.0-1.0-1.0-0.0-1.16","3","3","2","3","2","4","3","2","4","4","4","0","0","-1","0","-1","-1","0","0","4","4","5","4","4","4","4","4","4","3","6","7","6","8","5","6","7","7","7","4","3","2","4","4","3","4","3","3","3","1","4","3","5","3","4","4","4","3","2","4","4","4","3","6","3","7","4","5","5","6","5","5","5","6","5","5","4","5","3","4","757590139374669825","孙","403","Female","[""坏她"",""好我"",""好她"",""坏我""]","[""弱她"",""强我"",""强她"",""弱我""]","","","","","","","","","","","","","","","","","","","","","","","","","","","","","","feedback_test","","","","","","","","",""
"753","","f","psychophysics","44","312907","0.0-8.0-1.0-1.0-0.0-0.17","3","3","2","3","2","4","3","2","4","4","4","0","0","-1","0","-1","-1","0","0","4","4","5","4","4","4","4","4","4","3","6","7","6","8","5","6","7","7","7","4","3","2","4","4","3","4","3","3","3","1","4","3","5","3","4","4","4","3","2","4","4","4","3","6","3","7","4","5","5","6","5","5","5","6","5","5","4","5","3","4","757590139374669825","孙","403","Female","[""坏她"",""好我"",""好她"",""坏我""]","[""弱她"",""强我"",""强她"",""弱我""]","","","","","","","","nonmatch","","","","","","","","","","key","f","16.68390476190474","960","536","f","true","nonmatch","img/diamond.png","强她","强我","prac_ALT2_ability","practice_ability","","","","","","","","",""
"null","<span style='color:GreenYellow; font-size: 70px;'>正确! </span>","null","html-keyboard-response","45","313412","0.0-8.0-1.0-1.0-0.0-1.17","3","3","2","3","2","4","3","2","4","4","4","0","0","-1","0","-1","-1","0","0","4","4","5","4","4","4","4","4","4","3","6","7","6","8","5","6","7","7","7","4","3","2","4","4","3","4","3","3","3","1","4","3","5","3","4","4","4","3","2","4","4","4","3","6","3","7","4","5","5","6","5","5","5","6","5","5","4","5","3","4","757590139374669825","孙","403","Female","[""坏她"",""好我"",""好她"",""坏我""]","[""弱她"",""强我"",""强她"",""弱我""]","","","","","","","","","","","","","","","","","","","","","","","","","","","","","","feedback_test","","","","","","","","",""
"760","","f","psychophysics","46","315179","0.0-8.0-1.0-1.0-0.0-0.18","3","3","2","3","2","4","3","2","4","4","4","0","0","-1","0","-1","-1","0","0","4","4","5","4","4","4","4","4","4","3","6","7","6","8","5","6","7","7","7","4","3","2","4","4","3","4","3","3","3","1","4","3","5","3","4","4","4","3","2","4","4","4","3","6","3","7","4","5","5","6","5","5","5","6","5","5","4","5","3","4","757590139374669825","孙","403","Female","[""坏她"",""好我"",""好她"",""坏我""]","[""弱她"",""强我"",""强她"",""弱我""]","","","","","","","","nonmatch","","","","","","","","","","key","f","16.6838666666665","960","536","f","true","nonmatch","img/diamond.png","弱我","强我","prac_ALT2_ability","practice_ability","","","","","","","","",""
"null","<span style='color:GreenYellow; font-size: 70px;'>正确! </span>","null","html-keyboard-response","47","315685","0.0-8.0-1.0-1.0-0.0-1.18","3","3","2","3","2","4","3","2","4","4","4","0","0","-1","0","-1","-1","0","0","4","4","5","4","4","4","4","4","4","3","6","7","6","8","5","6","7","7","7","4","3","2","4","4","3","4","3","3","3","1","4","3","5","3","4","4","4","3","2","4","4","4","3","6","3","7","4","5","5","6","5","5","5","6","5","5","4","5","3","4","757590139374669825","孙","403","Female","[""坏她"",""好我"",""好她"",""坏我""]","[""弱她"",""强我"",""强她"",""弱我""]","","","","","","","","","","","","","","","","","","","","","","","","","","","","","","feedback_test","","","","","","","","",""
"720","","j","psychophysics","48","317411","0.0-8.0-1.0-1.0-0.0-0.19","3","3","2","3","2","4","3","2","4","4","4","0","0","-1","0","-1","-1","0","0","4","4","5","4","4","4","4","4","4","3","6","7","6","8","5","6","7","7","7","4","3","2","4","4","3","4","3","3","3","1","4","3","5","3","4","4","4","3","2","4","4","4","3","6","3","7","4","5","5","6","5","5","5","6","5","5","4","5","3","4","757590139374669825","孙","403","Female","[""坏她"",""好我"",""好她"",""坏我""]","[""弱她"",""强我"",""强她"",""弱我""]","","","","","","","","match","","","","","","","","","","key","j","16.68273786407753","960","536","j","true","match","img/pentagon.png","弱我","弱我","prac_ALT2_ability","practice_ability","","","","","","","","",""
"null","<span style='color:GreenYellow; font-size: 70px;'>正确! </span>","null","html-keyboard-response","49","317915","0.0-8.0-1.0-1.0-0.0-1.19","3","3","2","3","2","4","3","2","4","4","4","0","0","-1","0","-1","-1","0","0","4","4","5","4","4","4","4","4","4","3","6","7","6","8","5","6","7","7","7","4","3","2","4","4","3","4","3","3","3","1","4","3","5","3","4","4","4","3","2","4","4","4","3","6","3","7","4","5","5","6","5","5","5","6","5","5","4","5","3","4","757590139374669825","孙","403","Female","[""坏她"",""好我"",""好她"",""坏我""]","[""弱她"",""强我"",""强她"",""弱我""]","","","","","","","","","","","","","","","","","","","","","","","","","","","","","","feedback_test","","","","","","","","",""
"703","","f","psychophysics","50","319627","0.0-8.0-1.0-1.0-0.0-0.20","3","3","2","3","2","4","3","2","4","4","4","0","0","-1","0","-1","-1","0","0","4","4","5","4","4","4","4","4","4","3","6","7","6","8","5","6","7","7","7","4","3","2","4","4","3","4","3","3","3","1","4","3","5","3","4","4","4","3","2","4","4","4","3","6","3","7","4","5","5","6","5","5","5","6","5","5","4","5","3","4","757590139374669825","孙","403","Female","[""坏她"",""好我"",""好她"",""坏我""]","[""弱她"",""强我"",""强她"",""弱我""]","","","","","","","","nonmatch","","","","","","","","","","key","f","16.68297029702952","960","536","f","true","nonmatch","img/pentagon.png","强我","弱我","prac_ALT2_ability","practice_ability","","","","","","","","",""
"null","<span style='color:GreenYellow; font-size: 70px;'>正确! </span>","null","html-keyboard-response","51","320131","0.0-8.0-1.0-1.0-0.0-1.20","3","3","2","3","2","4","3","2","4","4","4","0","0","-1","0","-1","-1","0","0","4","4","5","4","4","4","4","4","4","3","6","7","6","8","5","6","7","7","7","4","3","2","4","4","3","4","3","3","3","1","4","3","5","3","4","4","4","3","2","4","4","4","3","6","3","7","4","5","5","6","5","5","5","6","5","5","4","5","3","4","757590139374669825","孙","403","Female","[""坏她"",""好我"",""好她"",""坏我""]","[""弱她"",""强我"",""强她"",""弱我""]","","","","","","","","","","","","","","","","","","","","","","","","","","","","","","feedback_test","","","","","","","","",""
"751","","f","psychophysics","52","321891","0.0-8.0-1.0-1.0-0.0-0.21","3","3","2","3","2","4","3","2","4","4","4","0","0","-1","0","-1","-1","0","0","4","4","5","4","4","4","4","4","4","3","6","7","6","8","5","6","7","7","7","4","3","2","4","4","3","4","3","3","3","1","4","3","5","3","4","4","4","3","2","4","4","4","3","6","3","7","4","5","5","6","5","5","5","6","5","5","4","5","3","4","757590139374669825","孙","403","Female","[""坏她"",""好我"",""好她"",""坏我""]","[""弱她"",""强我"",""强她"",""弱我""]","","","","","","","","nonmatch","","","","","","","","","","key","f","16.68262500000016","960","536","j","false","match","img/square.png","强她","强她","prac_ALT2_ability","practice_ability","","","","","","","","",""
"null","<span style='color:red; font-size: 70px;'>错误! </span>","null","html-keyboard-response","53","322395","0.0-8.0-1.0-1.0-0.0-1.21","3","3","2","3","2","4","3","2","4","4","4","0","0","-1","0","-1","-1","0","0","4","4","5","4","4","4","4","4","4","3","6","7","6","8","5","6","7","7","7","4","3","2","4","4","3","4","3","3","3","1","4","3","5","3","4","4","4","3","2","4","4","4","3","6","3","7","4","5","5","6","5","5","5","6","5","5","4","5","3","4","757590139374669825","孙","403","Female","[""坏她"",""好我"",""好她"",""坏我""]","[""弱她"",""强我"",""强她"",""弱我""]","","","","","","","","","","","","","","","","","","","","","","","","","","","","","","feedback_test","","","","","","","","",""
"567","","j","psychophysics","54","323979","0.0-8.0-1.0-1.0-0.0-0.22","3","3","2","3","2","4","3","2","4","4","4","0","0","-1","0","-1","-1","0","0","4","4","5","4","4","4","4","4","4","3","6","7","6","8","5","6","7","7","7","4","3","2","4","4","3","4","3","3","3","1","4","3","5","3","4","4","4","3","2","4","4","4","3","6","3","7","4","5","5","6","5","5","5","6","5","5","4","5","3","4","757590139374669825","孙","403","Female","[""坏她"",""好我"",""好她"",""坏我""]","[""弱她"",""强我"",""强她"",""弱我""]","","","","","","","","match","","","","","","","","","","key","j","16.684361702127834","960","536","j","true","match","img/square.png","强她","强她","prac_ALT2_ability","practice_ability","","","","","","","","",""
"null","<span style='color:GreenYellow; font-size: 70px;'>正确! </span>","null","html-keyboard-response","55","324485","0.0-8.0-1.0-1.0-0.0-1.22","3","3","2","3","2","4","3","2","4","4","4","0","0","-1","0","-1","-1","0","0","4","4","5","4","4","4","4","4","4","3","6","7","6","8","5","6","7","7","7","4","3","2","4","4","3","4","3","3","3","1","4","3","5","3","4","4","4","3","2","4","4","4","3","6","3","7","4","5","5","6","5","5","5","6","5","5","4","5","3","4","757590139374669825","孙","403","Female","[""坏她"",""好我"",""好她"",""坏我""]","[""弱她"",""强我"",""强她"",""弱我""]","","","","","","","","","","","","","","","","","","","","","","","","","","","","","","feedback_test","","","","","","","","",""
"856","","f","psychophysics","56","326347","0.0-8.0-1.0-1.0-0.0-0.23","3","3","2","3","2","4","3","2","4","4","4","0","0","-1","0","-1","-1","0","0","4","4","5","4","4","4","4","4","4","3","6","7","6","8","5","6","7","7","7","4","3","2","4","4","3","4","3","3","3","1","4","3","5","3","4","4","4","3","2","4","4","4","3","6","3","7","4","5","5","6","5","5","5","6","5","5","4","5","3","4","757590139374669825","孙","403","Female","[""坏她"",""好我"",""好她"",""坏我""]","[""弱她"",""强我"",""强她"",""弱我""]","","","","","","","","nonmatch","","","","","","","","","","key","f","16.68266363636358","960","536","j","false","match","img/ellipse.png","弱她","弱她","prac_ALT2_ability","practice_ability","","","","","","","","",""
"null","<span style='color:red; font-size: 70px;'>错误! </span>","null","html-keyboard-response","57","326852","0.0-8.0-1.0-1.0-0.0-1.23","3","3","2","3","2","4","3","2","4","4","4","0","0","-1","0","-1","-1","0","0","4","4","5","4","4","4","4","4","4","3","6","7","6","8","5","6","7","7","7","4","3","2","4","4","3","4","3","3","3","1","4","3","5","3","4","4","4","3","2","4","4","4","3","6","3","7","4","5","5","6","5","5","5","6","5","5","4","5","3","4","757590139374669825","孙","403","Female","[""坏她"",""好我"",""好她"",""坏我""]","[""弱她"",""强我"",""强她"",""弱我""]","","","","","","","","","","","","","","","","","","","","","","","","","","","","","","feedback_test","","","","","","","","",""
"661","","j","psychophysics","58","328515","0.0-8.0-1.0-1.0-0.0-0.24","3","3","2","3","2","4","3","2","4","4","4","0","0","-1","0","-1","-1","0","0","4","4","5","4","4","4","4","4","4","3","6","7","6","8","5","6","7","7","7","4","3","2","4","4","3","4","3","3","3","1","4","3","5","3","4","4","4","3","2","4","4","4","3","6","3","7","4","5","5","6","5","5","5","6","5","5","4","5","3","4","757590139374669825","孙","403","Female","[""坏她"",""好我"",""好她"",""坏我""]","[""弱她"",""强我"",""强她"",""弱我""]","","","","","","","","match","","","","","","","","","","key","j","16.684020408163114","960","536","j","true","match","img/ellipse.png","弱她","弱她","prac_ALT2_ability","practice_ability","","","","","","","","",""
"null","<span style='color:GreenYellow; font-size: 70px;'>正确! </span>","null","html-keyboard-response","59","329019","0.0-8.0-1.0-1.0-0.0-1.24","3","3","2","3","2","4","3","2","4","4","4","0","0","-1","0","-1","-1","0","0","4","4","5","4","4","4","4","4","4","3","6","7","6","8","5","6","7","7","7","4","3","2","4","4","3","4","3","3","3","1","4","3","5","3","4","4","4","3","2","4","4","4","3","6","3","7","4","5","5","6","5","5","5","6","5","5","4","5","3","4","757590139374669825","孙","403","Female","[""坏她"",""好我"",""好她"",""坏我""]","[""弱她"",""强我"",""强她"",""弱我""]","","","","","","","","","","","","","","","","","","","","","","","","","","","","","","feedback_test","","","","","","","","",""
"877","","j","psychophysics","60","330897","0.0-8.0-1.0-1.0-0.0-0.25","3","3","2","3","2","4","3","2","4","4","4","0","0","-1","0","-1","-1","0","0","4","4","5","4","4","4","4","4","4","3","6","7","6","8","5","6","7","7","7","4","3","2","4","4","3","4","3","3","3","1","4","3","5","3","4","4","4","3","2","4","4","4","3","6","3","7","4","5","5","6","5","5","5","6","5","5","4","5","3","4","757590139374669825","孙","403","Female","[""坏她"",""好我"",""好她"",""坏我""]","[""弱她"",""强我"",""强她"",""弱我""]","","","","","","","","match","","","","","","","","","","key","j","16.683866071428515","960","536","j","true","match","img/diamond.png","强我","强我","prac_ALT2_ability","practice_ability","","","","","","","","",""
"null","<span style='color:GreenYellow; font-size: 70px;'>正确! </span>","null","html-keyboard-response","61","331401","0.0-8.0-1.0-1.0-0.0-1.25","3","3","2","3","2","4","3","2","4","4","4","0","0","-1","0","-1","-1","0","0","4","4","5","4","4","4","4","4","4","3","6","7","6","8","5","6","7","7","7","4","3","2","4","4","3","4","3","3","3","1","4","3","5","3","4","4","4","3","2","4","4","4","3","6","3","7","4","5","5","6","5","5","5","6","5","5","4","5","3","4","757590139374669825","孙","403","Female","[""坏她"",""好我"",""好她"",""坏我""]","[""弱她"",""强我"",""强她"",""弱我""]","","","","","","","","","","","","","","","","","","","","","","","","","","","","","","feedback_test","","","","","","","","",""
"747","","f","psychophysics","62","333152","0.0-8.0-1.0-1.0-0.0-0.26","3","3","2","3","2","4","3","2","4","4","4","0","0","-1","0","-1","-1","0","0","4","4","5","4","4","4","4","4","4","3","6","7","6","8","5","6","7","7","7","4","3","2","4","4","3","4","3","3","3","1","4","3","5","3","4","4","4","3","2","4","4","4","3","6","3","7","4","5","5","6","5","5","5","6","5","5","4","5","3","4","757590139374669825","孙","403","Female","[""坏她"",""好我"",""好她"",""坏我""]","[""弱她"",""强我"",""强她"",""弱我""]","","","","","","","","nonmatch","","","","","","","","","","key","f","16.68408653846116","960","536","f","true","nonmatch","img/ellipse.png","强我","弱她","prac_ALT2_ability","practice_ability","","","","","","","","",""
"null","<span style='color:GreenYellow; font-size: 70px;'>正确! </span>","null","html-keyboard-response","63","333657","0.0-8.0-1.0-1.0-0.0-1.26","3","3","2","3","2","4","3","2","4","4","4","0","0","-1","0","-1","-1","0","0","4","4","5","4","4","4","4","4","4","3","6","7","6","8","5","6","7","7","7","4","3","2","4","4","3","4","3","3","3","1","4","3","5","3","4","4","4","3","2","4","4","4","3","6","3","7","4","5","5","6","5","5","5","6","5","5","4","5","3","4","757590139374669825","孙","403","Female","[""坏她"",""好我"",""好她"",""坏我""]","[""弱她"",""强我"",""强她"",""弱我""]","","","","","","","","","","","","","","","","","","","","","","","","","","","","","","feedback_test","","","","","","","","",""
"863","","f","psychophysics","64","335520","0.0-8.0-1.0-1.0-0.0-0.27","3","3","2","3","2","4","3","2","4","4","4","0","0","-1","0","-1","-1","0","0","4","4","5","4","4","4","4","4","4","3","6","7","6","8","5","6","7","7","7","4","3","2","4","4","3","4","3","3","3","1","4","3","5","3","4","4","4","3","2","4","4","4","3","6","3","7","4","5","5","6","5","5","5","6","5","5","4","5","3","4","757590139374669825","孙","403","Female","[""坏她"",""好我"",""好她"",""坏我""]","[""弱她"",""强我"",""强她"",""弱我""]","","","","","","","","nonmatch","","","","","","","","","","key","f","16.683627272726948","960","536","f","true","nonmatch","img/square.png","弱我","强她","prac_ALT2_ability","practice_ability","","","","","","","","",""
"null","<span style='color:GreenYellow; font-size: 70px;'>正确! </span>","null","html-keyboard-response","65","336025","0.0-8.0-1.0-1.0-0.0-1.27","3","3","2","3","2","4","3","2","4","4","4","0","0","-1","0","-1","-1","0","0","4","4","5","4","4","4","4","4","4","3","6","7","6","8","5","6","7","7","7","4","3","2","4","4","3","4","3","3","3","1","4","3","5","3","4","4","4","3","2","4","4","4","3","6","3","7","4","5","5","6","5","5","5","6","5","5","4","5","3","4","757590139374669825","孙","403","Female","[""坏她"",""好我"",""好她"",""坏我""]","[""弱她"",""强我"",""强她"",""弱我""]","","","","","","","","","","","","","","","","","","","","","","","","","","","","","","feedback_test","","","","","","","","",""
"942","","f","psychophysics","66","337969","0.0-8.0-1.0-1.0-0.0-0.28","3","3","2","3","2","4","3","2","4","4","4","0","0","-1","0","-1","-1","0","0","4","4","5","4","4","4","4","4","4","3","6","7","6","8","5","6","7","7","7","4","3","2","4","4","3","4","3","3","3","1","4","3","5","3","4","4","4","3","2","4","4","4","3","6","3","7","4","5","5","6","5","5","5","6","5","5","4","5","3","4","757590139374669825","孙","403","Female","[""坏她"",""好我"",""好她"",""坏我""]","[""弱她"",""强我"",""强她"",""弱我""]","","","","","","","","nonmatch","","","","","","","","","","key","f","16.55244347826102","960","536","f","true","nonmatch","img/diamond.png","弱她","强我","prac_ALT2_ability","practice_ability","","","","","","","","",""
"null","<span style='color:GreenYellow; font-size: 70px;'>正确! </span>","null","html-keyboard-response","67","338473","0.0-8.0-1.0-1.0-0.0-1.28","3","3","2","3","2","4","3","2","4","4","4","0","0","-1","0","-1","-1","0","0","4","4","5","4","4","4","4","4","4","3","6","7","6","8","5","6","7","7","7","4","3","2","4","4","3","4","3","3","3","1","4","3","5","3","4","4","4","3","2","4","4","4","3","6","3","7","4","5","5","6","5","5","5","6","5","5","4","5","3","4","757590139374669825","孙","403","Female","[""坏她"",""好我"",""好她"",""坏我""]","[""弱她"",""强我"",""强她"",""弱我""]","","","","","","","","","","","","","","","","","","","","","","","","","","","","","","feedback_test","","","","","","","","",""
"825","","f","psychophysics","68","340304","0.0-8.0-1.0-1.0-0.0-0.29","3","3","2","3","2","4","3","2","4","4","4","0","0","-1","0","-1","-1","0","0","4","4","5","4","4","4","4","4","4","3","6","7","6","8","5","6","7","7","7","4","3","2","4","4","3","4","3","3","3","1","4","3","5","3","4","4","4","3","2","4","4","4","3","6","3","7","4","5","5","6","5","5","5","6","5","5","4","5","3","4","757590139374669825","孙","403","Female","[""坏她"",""好我"",""好她"",""坏我""]","[""弱她"",""强我"",""强她"",""弱我""]","","","","","","","","nonmatch","","","","","","","","","","key","f","16.68376146788963","960","536","f","true","nonmatch","img/diamond.png","强她","强我","prac_ALT2_ability","practice_ability","","","","","","","","",""
"null","<span style='color:GreenYellow; font-size: 70px;'>正确! </span>","null","html-keyboard-response","69","340809","0.0-8.0-1.0-1.0-0.0-1.29","3","3","2","3","2","4","3","2","4","4","4","0","0","-1","0","-1","-1","0","0","4","4","5","4","4","4","4","4","4","3","6","7","6","8","5","6","7","7","7","4","3","2","4","4","3","4","3","3","3","1","4","3","5","3","4","4","4","3","2","4","4","4","3","6","3","7","4","5","5","6","5","5","5","6","5","5","4","5","3","4","757590139374669825","孙","403","Female","[""坏她"",""好我"",""好她"",""坏我""]","[""弱她"",""强我"",""强她"",""弱我""]","","","","","","","","","","","","","","","","","","","","","","","","","","","","","","feedback_test","","","","","","","","",""
"850","","f","psychophysics","70","342665","0.0-8.0-1.0-1.0-0.0-0.30","3","3","2","3","2","4","3","2","4","4","4","0","0","-1","0","-1","-1","0","0","4","4","5","4","4","4","4","4","4","3","6","7","6","8","5","6","7","7","7","4","3","2","4","4","3","4","3","3","3","1","4","3","5","3","4","4","4","3","2","4","4","4","3","6","3","7","4","5","5","6","5","5","5","6","5","5","4","5","3","4","757590139374669825","孙","403","Female","[""坏她"",""好我"",""好她"",""坏我""]","[""弱她"",""强我"",""强她"",""弱我""]","","","","","","","","nonmatch","","","","","","","","","","key","f","16.683727272727463","960","536","j","false","match","img/pentagon.png","弱我","弱我","prac_ALT2_ability","practice_ability","","","","","","","","",""
"null","<span style='color:red; font-size: 70px;'>错误! </span>","null","html-keyboard-response","71","343174","0.0-8.0-1.0-1.0-0.0-1.30","3","3","2","3","2","4","3","2","4","4","4","0","0","-1","0","-1","-1","0","0","4","4","5","4","4","4","4","4","4","3","6","7","6","8","5","6","7","7","7","4","3","2","4","4","3","4","3","3","3","1","4","3","5","3","4","4","4","3","2","4","4","4","3","6","3","7","4","5","5","6","5","5","5","6","5","5","4","5","3","4","757590139374669825","孙","403","Female","[""坏她"",""好我"",""好她"",""坏我""]","[""弱她"",""强我"",""强她"",""弱我""]","","","","","","","","","","","","","","","","","","","","","","","","","","","","","","feedback_test","","","","","","","","",""
"793","","f","psychophysics","72","344970","0.0-8.0-1.0-1.0-0.0-0.31","3","3","2","3","2","4","3","2","4","4","4","0","0","-1","0","-1","-1","0","0","4","4","5","4","4","4","4","4","4","3","6","7","6","8","5","6","7","7","7","4","3","2","4","4","3","4","3","3","3","1","4","3","5","3","4","4","4","3","2","4","4","4","3","6","3","7","4","5","5","6","5","5","5","6","5","5","4","5","3","4","757590139374669825","孙","403","Female","[""坏她"",""好我"",""好她"",""坏我""]","[""弱她"",""强我"",""强她"",""弱我""]","","","","","","","","nonmatch","","","","","","","","","","key","f","16.68278504672915","960","536","j","false","match","img/diamond.png","强我","强我","prac_ALT2_ability","practice_ability","","","","","","","","",""
"null","<span style='color:red; font-size: 70px;'>错误! </span>","null","html-keyboard-response","73","345473","0.0-8.0-1.0-1.0-0.0-1.31","3","3","2","3","2","4","3","2","4","4","4","0","0","-1","0","-1","-1","0","0","4","4","5","4","4","4","4","4","4","3","6","7","6","8","5","6","7","7","7","4","3","2","4","4","3","4","3","3","3","1","4","3","5","3","4","4","4","3","2","4","4","4","3","6","3","7","4","5","5","6","5","5","5","6","5","5","4","5","3","4","757590139374669825","孙","403","Female","[""坏她"",""好我"",""好她"",""坏我""]","[""弱她"",""强我"",""强她"",""弱我""]","","","","","","","","","","","","","","","","","","","","","","","","","","","","","","feedback_test","","","","","","","","",""
"847","","j","psychophysics","74","347328","0.0-8.0-1.0-1.0-0.0-0.32","3","3","2","3","2","4","3","2","4","4","4","0","0","-1","0","-1","-1","0","0","4","4","5","4","4","4","4","4","4","3","6","7","6","8","5","6","7","7","7","4","3","2","4","4","3","4","3","3","3","1","4","3","5","3","4","4","4","3","2","4","4","4","3","6","3","7","4","5","5","6","5","5","5","6","5","5","4","5","3","4","757590139374669825","孙","403","Female","[""坏她"",""好我"",""好她"",""坏我""]","[""弱她"",""强我"",""强她"",""弱我""]","","","","","","","","match","","","","","","","","","","key","j","16.683336363636506","960","536","j","true","match","img/square.png","强她","强她","prac_ALT2_ability","practice_ability","","","","","","","","",""
"null","<span style='color:GreenYellow; font-size: 70px;'>正确! </span>","null","html-keyboard-response","75","347834","0.0-8.0-1.0-1.0-0.0-1.32","3","3","2","3","2","4","3","2","4","4","4","0","0","-1","0","-1","-1","0","0","4","4","5","4","4","4","4","4","4","3","6","7","6","8","5","6","7","7","7","4","3","2","4","4","3","4","3","3","3","1","4","3","5","3","4","4","4","3","2","4","4","4","3","6","3","7","4","5","5","6","5","5","5","6","5","5","4","5","3","4","757590139374669825","孙","403","Female","[""坏她"",""好我"",""好她"",""坏我""]","[""弱她"",""强我"",""强她"",""弱我""]","","","","","","","","","","","","","","","","","","","","","","","","","","","","","","feedback_test","","","","","","","","",""
"1019","","j","psychophysics","76","349857","0.0-8.0-1.0-1.0-0.0-0.33","3","3","2","3","2","4","3","2","4","4","4","0","0","-1","0","-1","-1","0","0","4","4","5","4","4","4","4","4","4","3","6","7","6","8","5","6","7","7","7","4","3","2","4","4","3","4","3","3","3","1","4","3","5","3","4","4","4","3","2","4","4","4","3","6","3","7","4","5","5","6","5","5","5","6","5","5","4","5","3","4","757590139374669825","孙","403","Female","[""坏她"",""好我"",""好她"",""坏我""]","[""弱她"",""强我"",""强她"",""弱我""]","","","","","","","","match","","","","","","","","","","key","j","16.68361157024797","960","536","f","false","nonmatch","img/diamond.png","弱我","强我","prac_ALT2_ability","practice_ability","","","","","","","","",""
"null","<span style='color:red; font-size: 70px;'>错误! </span>","null","html-keyboard-response","77","350362","0.0-8.0-1.0-1.0-0.0-1.33","3","3","2","3","2","4","3","2","4","4","4","0","0","-1","0","-1","-1","0","0","4","4","5","4","4","4","4","4","4","3","6","7","6","8","5","6","7","7","7","4","3","2","4","4","3","4","3","3","3","1","4","3","5","3","4","4","4","3","2","4","4","4","3","6","3","7","4","5","5","6","5","5","5","6","5","5","4","5","3","4","757590139374669825","孙","403","Female","[""坏她"",""好我"",""好她"",""坏我""]","[""弱她"",""强我"",""强她"",""弱我""]","","","","","","","","","","","","","","","","","","","","","","","","","","","","","","feedback_test","","","","","","","","",""
"895","","j","psychophysics","78","352264","0.0-8.0-1.0-1.0-0.0-0.34","3","3","2","3","2","4","3","2","4","4","4","0","0","-1","0","-1","-1","0","0","4","4","5","4","4","4","4","4","4","3","6","7","6","8","5","6","7","7","7","4","3","2","4","4","3","4","3","3","3","1","4","3","5","3","4","4","4","3","2","4","4","4","3","6","3","7","4","5","5","6","5","5","5","6","5","5","4","5","3","4","757590139374669825","孙","403","Female","[""坏她"",""好我"",""好她"",""坏我""]","[""弱她"",""强我"",""强她"",""弱我""]","","","","","","","","match","","","","","","","","","","key","j","16.684132743363097","960","536","j","true","match","img/ellipse.png","弱她","弱她","prac_ALT2_ability","practice_ability","","","","","","","","",""
"null","<span style='color:GreenYellow; font-size: 70px;'>正确! </span>","null","html-keyboard-response","79","352769","0.0-8.0-1.0-1.0-0.0-1.34","3","3","2","3","2","4","3","2","4","4","4","0","0","-1","0","-1","-1","0","0","4","4","5","4","4","4","4","4","4","3","6","7","6","8","5","6","7","7","7","4","3","2","4","4","3","4","3","3","3","1","4","3","5","3","4","4","4","3","2","4","4","4","3","6","3","7","4","5","5","6","5","5","5","6","5","5","4","5","3","4","757590139374669825","孙","403","Female","[""坏她"",""好我"",""好她"",""坏我""]","[""弱她"",""强我"",""强她"",""弱我""]","","","","","","","","","","","","","","","","","","","","","","","","","","","","","","feedback_test","","","","","","","","",""
"704","","f","psychophysics","80","354481","0.0-8.0-1.0-1.0-0.0-0.35","3","3","2","3","2","4","3","2","4","4","4","0","0","-1","0","-1","-1","0","0","4","4","5","4","4","4","4","4","4","3","6","7","6","8","5","6","7","7","7","4","3","2","4","4","3","4","3","3","3","1","4","3","5","3","4","4","4","3","2","4","4","4","3","6","3","7","4","5","5","6","5","5","5","6","5","5","4","5","3","4","757590139374669825","孙","403","Female","[""坏她"",""好我"",""好她"",""坏我""]","[""弱她"",""强我"",""强她"",""弱我""]","","","","","","","","nonmatch","","","","","","","","","","key","f","16.683637254901672","960","536","f","true","nonmatch","img/pentagon.png","弱她","弱我","prac_ALT2_ability","practice_ability","","","","","","","","",""
"null","<span style='color:GreenYellow; font-size: 70px;'>正确! </span>","null","html-keyboard-response","81","354985","0.0-8.0-1.0-1.0-0.0-1.35","3","3","2","3","2","4","3","2","4","4","4","0","0","-1","0","-1","-1","0","0","4","4","5","4","4","4","4","4","4","3","6","7","6","8","5","6","7","7","7","4","3","2","4","4","3","4","3","3","3","1","4","3","5","3","4","4","4","3","2","4","4","4","3","6","3","7","4","5","5","6","5","5","5","6","5","5","4","5","3","4","757590139374669825","孙","403","Female","[""坏她"",""好我"",""好她"",""坏我""]","[""弱她"",""强我"",""强她"",""弱我""]","","","","","","","","","","","","","","","","","","","","","","","","","","","","","","feedback_test","","","","","","","","",""
"656","","f","psychophysics","82","356649","0.0-8.0-1.0-1.0-0.0-0.36","3","3","2","3","2","4","3","2","4","4","4","0","0","-1","0","-1","-1","0","0","4","4","5","4","4","4","4","4","4","3","6","7","6","8","5","6","7","7","7","4","3","2","4","4","3","4","3","3","3","1","4","3","5","3","4","4","4","3","2","4","4","4","3","6","3","7","4","5","5","6","5","5","5","6","5","5","4","5","3","4","757590139374669825","孙","403","Female","[""坏她"",""好我"",""好她"",""坏我""]","[""弱她"",""强我"",""强她"",""弱我""]","","","","","","","","nonmatch","","","","","","","","","","key","f","16.68318181818191","960","536","j","false","match","img/square.png","强她","强她","prac_ALT2_ability","practice_ability","","","","","","","","",""
"null","<span style='color:red; font-size: 70px;'>错误! </span>","null","html-keyboard-response","83","357153","0.0-8.0-1.0-1.0-0.0-1.36","3","3","2","3","2","4","3","2","4","4","4","0","0","-1","0","-1","-1","0","0","4","4","5","4","4","4","4","4","4","3","6","7","6","8","5","6","7","7","7","4","3","2","4","4","3","4","3","3","3","1","4","3","5","3","4","4","4","3","2","4","4","4","3","6","3","7","4","5","5","6","5","5","5","6","5","5","4","5","3","4","757590139374669825","孙","403","Female","[""坏她"",""好我"",""好她"",""坏我""]","[""弱她"",""强我"",""强她"",""弱我""]","","","","","","","","","","","","","","","","","","","","","","","","","","","","","","feedback_test","","","","","","","","",""
"847","","f","psychophysics","84","359009","0.0-8.0-1.0-1.0-0.0-0.37","3","3","2","3","2","4","3","2","4","4","4","0","0","-1","0","-1","-1","0","0","4","4","5","4","4","4","4","4","4","3","6","7","6","8","5","6","7","7","7","4","3","2","4","4","3","4","3","3","3","1","4","3","5","3","4","4","4","3","2","4","4","4","3","6","3","7","4","5","5","6","5","5","5","6","5","5","4","5","3","4","757590139374669825","孙","403","Female","[""坏她"",""好我"",""好她"",""坏我""]","[""弱她"",""强我"",""强她"",""弱我""]","","","","","","","","nonmatch","","","","","","","","","","key","f","16.684536363636354","960","536","j","false","match","img/pentagon.png","弱我","弱我","prac_ALT2_ability","practice_ability","","","","","","","","",""
"null","<span style='color:red; font-size: 70px;'>错误! </span>","null","html-keyboard-response","85","359513","0.0-8.0-1.0-1.0-0.0-1.37","3","3","2","3","2","4","3","2","4","4","4","0","0","-1","0","-1","-1","0","0","4","4","5","4","4","4","4","4","4","3","6","7","6","8","5","6","7","7","7","4","3","2","4","4","3","4","3","3","3","1","4","3","5","3","4","4","4","3","2","4","4","4","3","6","3","7","4","5","5","6","5","5","5","6","5","5","4","5","3","4","757590139374669825","孙","403","Female","[""坏她"",""好我"",""好她"",""坏我""]","[""弱她"",""强我"",""强她"",""弱我""]","","","","","","","","","","","","","","","","","","","","","","","","","","","","","","feedback_test","","","","","","","","",""
"836","","j","psychophysics","86","361353","0.0-8.0-1.0-1.0-0.0-0.38","3","3","2","3","2","4","3","2","4","4","4","0","0","-1","0","-1","-1","0","0","4","4","5","4","4","4","4","4","4","3","6","7","6","8","5","6","7","7","7","4","3","2","4","4","3","4","3","3","3","1","4","3","5","3","4","4","4","3","2","4","4","4","3","6","3","7","4","5","5","6","5","5","5","6","5","5","4","5","3","4","757590139374669825","孙","403","Female","[""坏她"",""好我"",""好她"",""坏我""]","[""弱她"",""强我"",""强她"",""弱我""]","","","","","","","","match","","","","","","","","","","key","j","16.684372727272883","960","536","j","true","match","img/ellipse.png","弱她","弱她","prac_ALT2_ability","practice_ability","","","","","","","","",""
"null","<span style='color:GreenYellow; font-size: 70px;'>正确! </span>","null","html-keyboard-response","87","361857","0.0-8.0-1.0-1.0-0.0-1.38","3","3","2","3","2","4","3","2","4","4","4","0","0","-1","0","-1","-1","0","0","4","4","5","4","4","4","4","4","4","3","6","7","6","8","5","6","7","7","7","4","3","2","4","4","3","4","3","3","3","1","4","3","5","3","4","4","4","3","2","4","4","4","3","6","3","7","4","5","5","6","5","5","5","6","5","5","4","5","3","4","757590139374669825","孙","403","Female","[""坏她"",""好我"",""好她"",""坏我""]","[""弱她"",""强我"",""强她"",""弱我""]","","","","","","","","","","","","","","","","","","","","","","","","","","","","","","feedback_test","","","","","","","","",""
"831","","j","psychophysics","88","363696","0.0-8.0-1.0-1.0-0.0-0.39","3","3","2","3","2","4","3","2","4","4","4","0","0","-1","0","-1","-1","0","0","4","4","5","4","4","4","4","4","4","3","6","7","6","8","5","6","7","7","7","4","3","2","4","4","3","4","3","3","3","1","4","3","5","3","4","4","4","3","2","4","4","4","3","6","3","7","4","5","5","6","5","5","5","6","5","5","4","5","3","4","757590139374669825","孙","403","Female","[""坏她"",""好我"",""好她"",""坏我""]","[""弱她"",""强我"",""强她"",""弱我""]","","","","","","","","match","","","","","","","","","","key","j","16.683018348623524","960","536","f","false","nonmatch","img/pentagon.png","强我","弱我","prac_ALT2_ability","practice_ability","","","","","","","","",""
"null","<span style='color:red; font-size: 70px;'>错误! </span>","null","html-keyboard-response","89","364201","0.0-8.0-1.0-1.0-0.0-1.39","3","3","2","3","2","4","3","2","4","4","4","0","0","-1","0","-1","-1","0","0","4","4","5","4","4","4","4","4","4","3","6","7","6","8","5","6","7","7","7","4","3","2","4","4","3","4","3","3","3","1","4","3","5","3","4","4","4","3","2","4","4","4","3","6","3","7","4","5","5","6","5","5","5","6","5","5","4","5","3","4","757590139374669825","孙","403","Female","[""坏她"",""好我"",""好她"",""坏我""]","[""弱她"",""强我"",""强她"",""弱我""]","","","","","","","","","","","","","","","","","","","","","","","","","","","","","","feedback_test","","","","","","","","",""
"1044","","j","psychophysics","90","366248","0.0-8.0-1.0-1.0-0.0-0.40","3","3","2","3","2","4","3","2","4","4","4","0","0","-1","0","-1","-1","0","0","4","4","5","4","4","4","4","4","4","3","6","7","6","8","5","6","7","7","7","4","3","2","4","4","3","4","3","3","3","1","4","3","5","3","4","4","4","3","2","4","4","4","3","6","3","7","4","5","5","6","5","5","5","6","5","5","4","5","3","4","757590139374669825","孙","403","Female","[""坏她"",""好我"",""好她"",""坏我""]","[""弱她"",""强我"",""强她"",""弱我""]","","","","","","","","match","","","","","","","","","","key","j","16.68406557377054","960","536","j","true","match","img/pentagon.png","弱我","弱我","prac_ALT2_ability","practice_ability","","","","","","","","",""
"null","<span style='color:GreenYellow; font-size: 70px;'>正确! </span>","null","html-keyboard-response","91","366754","0.0-8.0-1.0-1.0-0.0-1.40","3","3","2","3","2","4","3","2","4","4","4","0","0","-1","0","-1","-1","0","0","4","4","5","4","4","4","4","4","4","3","6","7","6","8","5","6","7","7","7","4","3","2","4","4","3","4","3","3","3","1","4","3","5","3","4","4","4","3","2","4","4","4","3","6","3","7","4","5","5","6","5","5","5","6","5","5","4","5","3","4","757590139374669825","孙","403","Female","[""坏她"",""好我"",""好她"",""坏我""]","[""弱她"",""强我"",""强她"",""弱我""]","","","","","","","","","","","","","","","","","","","","","","","","","","","","","","feedback_test","","","","","","","","",""
"811","","j","psychophysics","92","368569","0.0-8.0-1.0-1.0-0.0-0.41","3","3","2","3","2","4","3","2","4","4","4","0","0","-1","0","-1","-1","0","0","4","4","5","4","4","4","4","4","4","3","6","7","6","8","5","6","7","7","7","4","3","2","4","4","3","4","3","3","3","1","4","3","5","3","4","4","4","3","2","4","4","4","3","6","3","7","4","5","5","6","5","5","5","6","5","5","4","5","3","4","757590139374669825","孙","403","Female","[""坏她"",""好我"",""好她"",""坏我""]","[""弱她"",""强我"",""强她"",""弱我""]","","","","","","","","match","","","","","","","","","","key","j","16.684277777777794","960","536","j","true","match","img/square.png","强她","强她","prac_ALT2_ability","practice_ability","","","","","","","","",""
"null","<span style='color:GreenYellow; font-size: 70px;'>正确! </span>","null","html-keyboard-response","93","369073","0.0-8.0-1.0-1.0-0.0-1.41","3","3","2","3","2","4","3","2","4","4","4","0","0","-1","0","-1","-1","0","0","4","4","5","4","4","4","4","4","4","3","6","7","6","8","5","6","7","7","7","4","3","2","4","4","3","4","3","3","3","1","4","3","5","3","4","4","4","3","2","4","4","4","3","6","3","7","4","5","5","6","5","5","5","6","5","5","4","5","3","4","757590139374669825","孙","403","Female","[""坏她"",""好我"",""好她"",""坏我""]","[""弱她"",""强我"",""强她"",""弱我""]","","","","","","","","","","","","","","","","","","","","","","","","","","","","","","feedback_test","","","","","","","","",""
"868","","f","psychophysics","94","370945","0.0-8.0-1.0-1.0-0.0-0.42","3","3","2","3","2","4","3","2","4","4","4","0","0","-1","0","-1","-1","0","0","4","4","5","4","4","4","4","4","4","3","6","7","6","8","5","6","7","7","7","4","3","2","4","4","3","4","3","3","3","1","4","3","5","3","4","4","4","3","2","4","4","4","3","6","3","7","4","5","5","6","5","5","5","6","5","5","4","5","3","4","757590139374669825","孙","403","Female","[""坏她"",""好我"",""好她"",""坏我""]","[""弱她"",""强我"",""强她"",""弱我""]","","","","","","","","nonmatch","","","","","","","","","","key","f","16.684241071428655","960","536","f","true","nonmatch","img/pentagon.png","强她","弱我","prac_ALT2_ability","practice_ability","","","","","","","","",""
"null","<span style='color:GreenYellow; font-size: 70px;'>正确! </span>","null","html-keyboard-response","95","371449","0.0-8.0-1.0-1.0-0.0-1.42","3","3","2","3","2","4","3","2","4","4","4","0","0","-1","0","-1","-1","0","0","4","4","5","4","4","4","4","4","4","3","6","7","6","8","5","6","7","7","7","4","3","2","4","4","3","4","3","3","3","1","4","3","5","3","4","4","4","3","2","4","4","4","3","6","3","7","4","5","5","6","5","5","5","6","5","5","4","5","3","4","757590139374669825","孙","403","Female","[""坏她"",""好我"",""好她"",""坏我""]","[""弱她"",""强我"",""强她"",""弱我""]","","","","","","","","","","","","","","","","","","","","","","","","","","","","","","feedback_test","","","","","","","","",""
"943","","j","psychophysics","96","373401","0.0-8.0-1.0-1.0-0.0-0.43","3","3","2","3","2","4","3","2","4","4","4","0","0","-1","0","-1","-1","0","0","4","4","5","4","4","4","4","4","4","3","6","7","6","8","5","6","7","7","7","4","3","2","4","4","3","4","3","3","3","1","4","3","5","3","4","4","4","3","2","4","4","4","3","6","3","7","4","5","5","6","5","5","5","6","5","5","4","5","3","4","757590139374669825","孙","403","Female","[""坏她"",""好我"",""好她"",""坏我""]","[""弱她"",""强我"",""强她"",""弱我""]","","","","","","","","match","","","","","","","","","","key","j","16.683724137931332","960","536","f","false","nonmatch","img/ellipse.png","弱我","弱她","prac_ALT2_ability","practice_ability","","","","","","","","",""
"null","<span style='color:red; font-size: 70px;'>错误! </span>","null","html-keyboard-response","97","373905","0.0-8.0-1.0-1.0-0.0-1.43","3","3","2","3","2","4","3","2","4","4","4","0","0","-1","0","-1","-1","0","0","4","4","5","4","4","4","4","4","4","3","6","7","6","8","5","6","7","7","7","4","3","2","4","4","3","4","3","3","3","1","4","3","5","3","4","4","4","3","2","4","4","4","3","6","3","7","4","5","5","6","5","5","5","6","5","5","4","5","3","4","757590139374669825","孙","403","Female","[""坏她"",""好我"",""好她"",""坏我""]","[""弱她"",""强我"",""强她"",""弱我""]","","","","","","","","","","","","","","","","","","","","","","","","","","","","","","feedback_test","","","","","","","","",""
"776","","f","psychophysics","98","375688","0.0-8.0-1.0-1.0-0.0-0.44","3","3","2","3","2","4","3","2","4","4","4","0","0","-1","0","-1","-1","0","0","4","4","5","4","4","4","4","4","4","3","6","7","6","8","5","6","7","7","7","4","3","2","4","4","3","4","3","3","3","1","4","3","5","3","4","4","4","3","2","4","4","4","3","6","3","7","4","5","5","6","5","5","5","6","5","5","4","5","3","4","757590139374669825","孙","403","Female","[""坏她"",""好我"",""好她"",""坏我""]","[""弱她"",""强我"",""强她"",""弱我""]","","","","","","","","nonmatch","","","","","","","","","","key","f","16.68312264150964","960","536","j","false","match","img/diamond.png","强我","强我","prac_ALT2_ability","practice_ability","","","","","","","","",""
"null","<span style='color:red; font-size: 70px;'>错误! </span>","null","html-keyboard-response","99","376193","0.0-8.0-1.0-1.0-0.0-1.44","3","3","2","3","2","4","3","2","4","4","4","0","0","-1","0","-1","-1","0","0","4","4","5","4","4","4","4","4","4","3","6","7","6","8","5","6","7","7","7","4","3","2","4","4","3","4","3","3","3","1","4","3","5","3","4","4","4","3","2","4","4","4","3","6","3","7","4","5","5","6","5","5","5","6","5","5","4","5","3","4","757590139374669825","孙","403","Female","[""坏她"",""好我"",""好她"",""坏我""]","[""弱她"",""强我"",""强她"",""弱我""]","","","","","","","","","","","","","","","","","","","","","","","","","","","","","","feedback_test","","","","","","","","",""
"832","","f","psychophysics","100","378032","0.0-8.0-1.0-1.0-0.0-0.45","3","3","2","3","2","4","3","2","4","4","4","0","0","-1","0","-1","-1","0","0","4","4","5","4","4","4","4","4","4","3","6","7","6","8","5","6","7","7","7","4","3","2","4","4","3","4","3","3","3","1","4","3","5","3","4","4","4","3","2","4","4","4","3","6","3","7","4","5","5","6","5","5","5","6","5","5","4","5","3","4","757590139374669825","孙","403","Female","[""坏她"",""好我"",""好她"",""坏我""]","[""弱她"",""强我"",""强她"",""弱我""]","","","","","","","","nonmatch","","","","","","","","","","key","f","16.683229357798247","960","536","f","true","nonmatch","img/square.png","强我","强她","prac_ALT2_ability","practice_ability","","","","","","","","",""
"null","<span style='color:GreenYellow; font-size: 70px;'>正确! </span>","null","html-keyboard-response","101","378538","0.0-8.0-1.0-1.0-0.0-1.45","3","3","2","3","2","4","3","2","4","4","4","0","0","-1","0","-1","-1","0","0","4","4","5","4","4","4","4","4","4","3","6","7","6","8","5","6","7","7","7","4","3","2","4","4","3","4","3","3","3","1","4","3","5","3","4","4","4","3","2","4","4","4","3","6","3","7","4","5","5","6","5","5","5","6","5","5","4","5","3","4","757590139374669825","孙","403","Female","[""坏她"",""好我"",""好她"",""坏我""]","[""弱她"",""强我"",""强她"",""弱我""]","","","","","","","","","","","","","","","","","","","","","","","","","","","","","","feedback_test","","","","","","","","",""
"744","","f","psychophysics","102","380289","0.0-8.0-1.0-1.0-0.0-0.46","3","3","2","3","2","4","3","2","4","4","4","0","0","-1","0","-1","-1","0","0","4","4","5","4","4","4","4","4","4","3","6","7","6","8","5","6","7","7","7","4","3","2","4","4","3","4","3","3","3","1","4","3","5","3","4","4","4","3","2","4","4","4","3","6","3","7","4","5","5","6","5","5","5","6","5","5","4","5","3","4","757590139374669825","孙","403","Female","[""坏她"",""好我"",""好她"",""坏我""]","[""弱她"",""强我"",""强她"",""弱我""]","","","","","","","","nonmatch","","","","","","","","","","key","f","16.683596153846548","960","536","f","true","nonmatch","img/square.png","弱她","强她","prac_ALT2_ability","practice_ability","","","","","","","","",""
"null","<span style='color:GreenYellow; font-size: 70px;'>正确! </span>","null","html-keyboard-response","103","380794","0.0-8.0-1.0-1.0-0.0-1.46","3","3","2","3","2","4","3","2","4","4","4","0","0","-1","0","-1","-1","0","0","4","4","5","4","4","4","4","4","4","3","6","7","6","8","5","6","7","7","7","4","3","2","4","4","3","4","3","3","3","1","4","3","5","3","4","4","4","3","2","4","4","4","3","6","3","7","4","5","5","6","5","5","5","6","5","5","4","5","3","4","757590139374669825","孙","403","Female","[""坏她"",""好我"",""好她"",""坏我""]","[""弱她"",""强我"",""强她"",""弱我""]","","","","","","","","","","","","","","","","","","","","","","","","","","","","","","feedback_test","","","","","","","","",""
"679","","f","psychophysics","104","382481","0.0-8.0-1.0-1.0-0.0-0.47","3","3","2","3","2","4","3","2","4","4","4","0","0","-1","0","-1","-1","0","0","4","4","5","4","4","4","4","4","4","3","6","7","6","8","5","6","7","7","7","4","3","2","4","4","3","4","3","3","3","1","4","3","5","3","4","4","4","3","2","4","4","4","3","6","3","7","4","5","5","6","5","5","5","6","5","5","4","5","3","4","757590139374669825","孙","403","Female","[""坏她"",""好我"",""好她"",""坏我""]","[""弱她"",""强我"",""强她"",""弱我""]","","","","","","","","nonmatch","","","","","","","","","","key","f","16.683889999999664","960","536","f","true","nonmatch","img/ellipse.png","强她","弱她","prac_ALT2_ability","practice_ability","","","","","","","","",""
"null","<span style='color:GreenYellow; font-size: 70px;'>正确! </span>","null","html-keyboard-response","105","382986","0.0-8.0-1.0-1.0-0.0-1.47","3","3","2","3","2","4","3","2","4","4","4","0","0","-1","0","-1","-1","0","0","4","4","5","4","4","4","4","4","4","3","6","7","6","8","5","6","7","7","7","4","3","2","4","4","3","4","3","3","3","1","4","3","5","3","4","4","4","3","2","4","4","4","3","6","3","7","4","5","5","6","5","5","5","6","5","5","4","5","3","4","757590139374669825","孙","403","Female","[""坏她"",""好我"",""好她"",""坏我""]","[""弱她"",""强我"",""强她"",""弱我""]","","","","","","","","","","","","","","","","","","","","","","","","","","","","","","feedback_test","","","","","","","","",""
"949","<style>.context{color:white; font-size: 35px; line-height:40px}</style>                          <div><p class='context'>您正确回答了65% 的试次。</p><p class='context'>您的平均反应时为831毫秒。</p><p class='context'>恭喜您完成练习。按空格键进入正式实验。</p><p class='footer' style='color:white;font-size: 35px; line-height:40px;'>请在进入正式实验实验之前将您的<span style='color: lightgreen;'>食指</span>放在电脑键盘的相应键位上进行按键。</p>"," ","html-keyboard-response","106","383937","0.0-8.0-1.0-2.0","3","3","2","3","2","4","3","2","4","4","4","0","0","-1","0","-1","-1","0","0","4","4","5","4","4","4","4","4","4","3","6","7","6","8","5","6","7","7","7","4","3","2","4","4","3","4","3","3","3","1","4","3","5","3","4","4","4","3","2","4","4","4","3","6","3","7","4","5","5","6","5","5","5","6","5","5","4","5","3","4","757590139374669825","孙","403","Female","[""坏她"",""好我"",""好她"",""坏我""]","[""弱她"",""强我"",""强她"",""弱我""]","","","","","","","","","","","","","","","","","","","","","","","","","","","","","","","","","","","","","","",""
"613","
  <p style='color: white; font-size: 22px'>请您将手指放在按键上，准备进入正式的匹配任务。</p>
  <p> <div style = ""color: green""><按空格键进入下一阶段的匹配任务></div></p>
  "," ","html-keyboard-response","107","384553","0.0-8.0-1.0-3.0","3","3","2","3","2","4","3","2","4","4","4","0","0","-1","0","-1","-1","0","0","4","4","5","4","4","4","4","4","4","3","6","7","6","8","5","6","7","7","7","4","3","2","4","4","3","4","3","3","3","1","4","3","5","3","4","4","4","3","2","4","4","4","3","6","3","7","4","5","5","6","5","5","5","6","5","5","4","5","3","4","757590139374669825","孙","403","Female","[""坏她"",""好我"",""好她"",""坏我""]","[""弱她"",""强我"",""强她"",""弱我""]","","","","","","","","","","","","","","","","","","","","","","","","","","","","","","","","","","","","","","",""
"730","","f","psychophysics","108","386289","0.0-8.0-1.0-4.0-0.0-0.0","3","3","2","3","2","4","3","2","4","4","4","0","0","-1","0","-1","-1","0","0","4","4","5","4","4","4","4","4","4","3","6","7","6","8","5","6","7","7","7","4","3","2","4","4","3","4","3","3","3","1","4","3","5","3","4","4","4","3","2","4","4","4","3","6","3","7","4","5","5","6","5","5","5","6","5","5","4","5","3","4","757590139374669825","孙","403","Female","[""坏她"",""好我"",""好她"",""坏我""]","[""弱她"",""强我"",""强她"",""弱我""]","","","","","","","","nonmatch","","","","","","","","","","key","f","16.684281553397774","960","536","f","true","nonmatch","img/ellipse.png","强我","弱她","ALT2","ability","","","","","","","","",""
"null","<span style='color:GreenYellow; font-size: 70px;'>正确! </span>","null","html-keyboard-response","109","386794","0.0-8.0-1.0-4.0-0.0-1.0","3","3","2","3","2","4","3","2","4","4","4","0","0","-1","0","-1","-1","0","0","4","4","5","4","4","4","4","4","4","3","6","7","6","8","5","6","7","7","7","4","3","2","4","4","3","4","3","3","3","1","4","3","5","3","4","4","4","3","2","4","4","4","3","6","3","7","4","5","5","6","5","5","5","6","5","5","4","5","3","4","757590139374669825","孙","403","Female","[""坏她"",""好我"",""好她"",""坏我""]","[""弱她"",""强我"",""强她"",""弱我""]","","","","","","","","","","","","","","","","","","","","","","","","","","","","","","feedback_test","","","","","","","","",""
"950","","f","psychophysics","110","388745","0.0-8.0-1.0-4.0-0.0-0.1","3","3","2","3","2","4","3","2","4","4","4","0","0","-1","0","-1","-1","0","0","4","4","5","4","4","4","4","4","4","3","6","7","6","8","5","6","7","7","7","4","3","2","4","4","3","4","3","3","3","1","4","3","5","3","4","4","4","3","2","4","4","4","3","6","3","7","4","5","5","6","5","5","5","6","5","5","4","5","3","4","757590139374669825","孙","403","Female","[""坏她"",""好我"",""好她"",""坏我""]","[""弱她"",""强我"",""强她"",""弱我""]","","","","","","","","nonmatch","","","","","","","","","","key","f","16.683130434782587","960","536","f","true","nonmatch","img/square.png","弱我","强她","ALT2","ability","","","","","","","","",""
"null","<span style='color:GreenYellow; font-size: 70px;'>正确! </span>","null","html-keyboard-response","111","389249","0.0-8.0-1.0-4.0-0.0-1.1","3","3","2","3","2","4","3","2","4","4","4","0","0","-1","0","-1","-1","0","0","4","4","5","4","4","4","4","4","4","3","6","7","6","8","5","6","7","7","7","4","3","2","4","4","3","4","3","3","3","1","4","3","5","3","4","4","4","3","2","4","4","4","3","6","3","7","4","5","5","6","5","5","5","6","5","5","4","5","3","4","757590139374669825","孙","403","Female","[""坏她"",""好我"",""好她"",""坏我""]","[""弱她"",""强我"",""强她"",""弱我""]","","","","","","","","","","","","","","","","","","","","","","","","","","","","","","feedback_test","","","","","","","","",""
"863","","j","psychophysics","112","391119","0.0-8.0-1.0-4.0-0.0-0.2","3","3","2","3","2","4","3","2","4","4","4","0","0","-1","0","-1","-1","0","0","4","4","5","4","4","4","4","4","4","3","6","7","6","8","5","6","7","7","7","4","3","2","4","4","3","4","3","3","3","1","4","3","5","3","4","4","4","3","2","4","4","4","3","6","3","7","4","5","5","6","5","5","5","6","5","5","4","5","3","4","757590139374669825","孙","403","Female","[""坏她"",""好我"",""好她"",""坏我""]","[""弱她"",""强我"",""强她"",""弱我""]","","","","","","","","match","","","","","","","","","","key","j","16.68247747747752","960","536","j","true","match","img/pentagon.png","弱我","弱我","ALT2","ability","","","","","","","","",""
"null","<span style='color:GreenYellow; font-size: 70px;'>正确! </span>","null","html-keyboard-response","113","391624","0.0-8.0-1.0-4.0-0.0-1.2","3","3","2","3","2","4","3","2","4","4","4","0","0","-1","0","-1","-1","0","0","4","4","5","4","4","4","4","4","4","3","6","7","6","8","5","6","7","7","7","4","3","2","4","4","3","4","3","3","3","1","4","3","5","3","4","4","4","3","2","4","4","4","3","6","3","7","4","5","5","6","5","5","5","6","5","5","4","5","3","4","757590139374669825","孙","403","Female","[""坏她"",""好我"",""好她"",""坏我""]","[""弱她"",""强我"",""强她"",""弱我""]","","","","","","","","","","","","","","","","","","","","","","","","","","","","","","feedback_test","","","","","","","","",""
"704","","f","psychophysics","114","393335","0.0-8.0-1.0-4.0-0.0-0.3","3","3","2","3","2","4","3","2","4","4","4","0","0","-1","0","-1","-1","0","0","4","4","5","4","4","4","4","4","4","3","6","7","6","8","5","6","7","7","7","4","3","2","4","4","3","4","3","3","3","1","4","3","5","3","4","4","4","3","2","4","4","4","3","6","3","7","4","5","5","6","5","5","5","6","5","5","4","5","3","4","757590139374669825","孙","403","Female","[""坏她"",""好我"",""好她"",""坏我""]","[""弱她"",""强我"",""强她"",""弱我""]","","","","","","","","nonmatch","","","","","","","","","","key","f","16.68336274509784","960","536","f","true","nonmatch","img/diamond.png","弱她","强我","ALT2","ability","","","","","","","","",""
"null","<span style='color:GreenYellow; font-size: 70px;'>正确! </span>","null","html-keyboard-response","115","393840","0.0-8.0-1.0-4.0-0.0-1.3","3","3","2","3","2","4","3","2","4","4","4","0","0","-1","0","-1","-1","0","0","4","4","5","4","4","4","4","4","4","3","6","7","6","8","5","6","7","7","7","4","3","2","4","4","3","4","3","3","3","1","4","3","5","3","4","4","4","3","2","4","4","4","3","6","3","7","4","5","5","6","5","5","5","6","5","5","4","5","3","4","757590139374669825","孙","403","Female","[""坏她"",""好我"",""好她"",""坏我""]","[""弱她"",""强我"",""强她"",""弱我""]","","","","","","","","","","","","","","","","","","","","","","","","","","","","","","feedback_test","","","","","","","","",""
"703","","f","psychophysics","116","395551","0.0-8.0-1.0-4.0-0.0-0.4","3","3","2","3","2","4","3","2","4","4","4","0","0","-1","0","-1","-1","0","0","4","4","5","4","4","4","4","4","4","3","6","7","6","8","5","6","7","7","7","4","3","2","4","4","3","4","3","3","3","1","4","3","5","3","4","4","4","3","2","4","4","4","3","6","3","7","4","5","5","6","5","5","5","6","5","5","4","5","3","4","757590139374669825","孙","403","Female","[""坏她"",""好我"",""好她"",""坏我""]","[""弱她"",""强我"",""强她"",""弱我""]","","","","","","","","nonmatch","","","","","","","","","","key","f","16.683176470588318","960","536","f","true","nonmatch","img/pentagon.png","弱她","弱我","ALT2","ability","","","","","","","","",""
"null","<span style='color:GreenYellow; font-size: 70px;'>正确! </span>","null","html-keyboard-response","117","396055","0.0-8.0-1.0-4.0-0.0-1.4","3","3","2","3","2","4","3","2","4","4","4","0","0","-1","0","-1","-1","0","0","4","4","5","4","4","4","4","4","4","3","6","7","6","8","5","6","7","7","7","4","3","2","4","4","3","4","3","3","3","1","4","3","5","3","4","4","4","3","2","4","4","4","3","6","3","7","4","5","5","6","5","5","5","6","5","5","4","5","3","4","757590139374669825","孙","403","Female","[""坏她"",""好我"",""好她"",""坏我""]","[""弱她"",""强我"",""强她"",""弱我""]","","","","","","","","","","","","","","","","","","","","","","","","","","","","","","feedback_test","","","","","","","","",""
"615","","j","psychophysics","118","397679","0.0-8.0-1.0-4.0-0.0-0.5","3","3","2","3","2","4","3","2","4","4","4","0","0","-1","0","-1","-1","0","0","4","4","5","4","4","4","4","4","4","3","6","7","6","8","5","6","7","7","7","4","3","2","4","4","3","4","3","3","3","1","4","3","5","3","4","4","4","3","2","4","4","4","3","6","3","7","4","5","5","6","5","5","5","6","5","5","4","5","3","4","757590139374669825","孙","403","Female","[""坏她"",""好我"",""好她"",""坏我""]","[""弱她"",""强我"",""强她"",""弱我""]","","","","","","","","match","","","","","","","","","","key","j","16.683302083333427","960","536","j","true","match","img/ellipse.png","弱她","弱她","ALT2","ability","","","","","","","","",""
"null","<span style='color:GreenYellow; font-size: 70px;'>正确! </span>","null","html-keyboard-response","119","398184","0.0-8.0-1.0-4.0-0.0-1.5","3","3","2","3","2","4","3","2","4","4","4","0","0","-1","0","-1","-1","0","0","4","4","5","4","4","4","4","4","4","3","6","7","6","8","5","6","7","7","7","4","3","2","4","4","3","4","3","3","3","1","4","3","5","3","4","4","4","3","2","4","4","4","3","6","3","7","4","5","5","6","5","5","5","6","5","5","4","5","3","4","757590139374669825","孙","403","Female","[""坏她"",""好我"",""好她"",""坏我""]","[""弱她"",""强我"",""强她"",""弱我""]","","","","","","","","","","","","","","","","","","","","","","","","","","","","","","feedback_test","","","","","","","","",""
"740","","f","psychophysics","120","399927","0.0-8.0-1.0-4.0-0.0-0.6","3","3","2","3","2","4","3","2","4","4","4","0","0","-1","0","-1","-1","0","0","4","4","5","4","4","4","4","4","4","3","6","7","6","8","5","6","7","7","7","4","3","2","4","4","3","4","3","3","3","1","4","3","5","3","4","4","4","3","2","4","4","4","3","6","3","7","4","5","5","6","5","5","5","6","5","5","4","5","3","4","757590139374669825","孙","403","Female","[""坏她"",""好我"",""好她"",""坏我""]","[""弱她"",""强我"",""强她"",""弱我""]","","","","","","","","nonmatch","","","","","","","","","","key","f","16.683259615384696","960","536","j","false","match","img/square.png","强她","强她","ALT2","ability","","","","","","","","",""
"null","<span style='color:red; font-size: 70px;'>错误! </span>","null","html-keyboard-response","121","400432","0.0-8.0-1.0-4.0-0.0-1.6","3","3","2","3","2","4","3","2","4","4","4","0","0","-1","0","-1","-1","0","0","4","4","5","4","4","4","4","4","4","3","6","7","6","8","5","6","7","7","7","4","3","2","4","4","3","4","3","3","3","1","4","3","5","3","4","4","4","3","2","4","4","4","3","6","3","7","4","5","5","6","5","5","5","6","5","5","4","5","3","4","757590139374669825","孙","403","Female","[""坏她"",""好我"",""好她"",""坏我""]","[""弱她"",""强我"",""强她"",""弱我""]","","","","","","","","","","","","","","","","","","","","","","","","","","","","","","feedback_test","","","","","","","","",""
"816","","f","psychophysics","122","402255","0.0-8.0-1.0-4.0-0.0-0.7","3","3","2","3","2","4","3","2","4","4","4","0","0","-1","0","-1","-1","0","0","4","4","5","4","4","4","4","4","4","3","6","7","6","8","5","6","7","7","7","4","3","2","4","4","3","4","3","3","3","1","4","3","5","3","4","4","4","3","2","4","4","4","3","6","3","7","4","5","5","6","5","5","5","6","5","5","4","5","3","4","757590139374669825","孙","403","Female","[""坏她"",""好我"",""好她"",""坏我""]","[""弱她"",""强我"",""强她"",""弱我""]","","","","","","","","nonmatch","","","","","","","","","","key","f","16.683203703703906","960","536","j","false","match","img/ellipse.png","弱她","弱她","ALT2","ability","","","","","","","","",""
"null","<span style='color:red; font-size: 70px;'>错误! </span>","null","html-keyboard-response","123","402761","0.0-8.0-1.0-4.0-0.0-1.7","3","3","2","3","2","4","3","2","4","4","4","0","0","-1","0","-1","-1","0","0","4","4","5","4","4","4","4","4","4","3","6","7","6","8","5","6","7","7","7","4","3","2","4","4","3","4","3","3","3","1","4","3","5","3","4","4","4","3","2","4","4","4","3","6","3","7","4","5","5","6","5","5","5","6","5","5","4","5","3","4","757590139374669825","孙","403","Female","[""坏她"",""好我"",""好她"",""坏我""]","[""弱她"",""强我"",""强她"",""弱我""]","","","","","","","","","","","","","","","","","","","","","","","","","","","","","","feedback_test","","","","","","","","",""
"911","","j","psychophysics","124","404679","0.0-8.0-1.0-4.0-0.0-0.8","3","3","2","3","2","4","3","2","4","4","4","0","0","-1","0","-1","-1","0","0","4","4","5","4","4","4","4","4","4","3","6","7","6","8","5","6","7","7","7","4","3","2","4","4","3","4","3","3","3","1","4","3","5","3","4","4","4","3","2","4","4","4","3","6","3","7","4","5","5","6","5","5","5","6","5","5","4","5","3","4","757590139374669825","孙","403","Female","[""坏她"",""好我"",""好她"",""坏我""]","[""弱她"",""强我"",""强她"",""弱我""]","","","","","","","","match","","","","","","","","","","key","j","16.683666666666873","960","536","j","true","match","img/pentagon.png","弱我","弱我","ALT2","ability","","","","","","","","",""
"null","<span style='color:GreenYellow; font-size: 70px;'>正确! </span>","null","html-keyboard-response","125","405184","0.0-8.0-1.0-4.0-0.0-1.8","3","3","2","3","2","4","3","2","4","4","4","0","0","-1","0","-1","-1","0","0","4","4","5","4","4","4","4","4","4","3","6","7","6","8","5","6","7","7","7","4","3","2","4","4","3","4","3","3","3","1","4","3","5","3","4","4","4","3","2","4","4","4","3","6","3","7","4","5","5","6","5","5","5","6","5","5","4","5","3","4","757590139374669825","孙","403","Female","[""坏她"",""好我"",""好她"",""坏我""]","[""弱她"",""强我"",""强她"",""弱我""]","","","","","","","","","","","","","","","","","","","","","","","","","","","","","","feedback_test","","","","","","","","",""
"711","","f","psychophysics","126","406903","0.0-8.0-1.0-4.0-0.0-0.9","3","3","2","3","2","4","3","2","4","4","4","0","0","-1","0","-1","-1","0","0","4","4","5","4","4","4","4","4","4","3","6","7","6","8","5","6","7","7","7","4","3","2","4","4","3","4","3","3","3","1","4","3","5","3","4","4","4","3","2","4","4","4","3","6","3","7","4","5","5","6","5","5","5","6","5","5","4","5","3","4","757590139374669825","孙","403","Female","[""坏她"",""好我"",""好她"",""坏我""]","[""弱她"",""强我"",""强她"",""弱我""]","","","","","","","","nonmatch","","","","","","","","","","key","f","16.683872549019654","960","536","f","true","nonmatch","img/pentagon.png","强她","弱我","ALT2","ability","","","","","","","","",""
"null","<span style='color:GreenYellow; font-size: 70px;'>正确! </span>","null","html-keyboard-response","127","407408","0.0-8.0-1.0-4.0-0.0-1.9","3","3","2","3","2","4","3","2","4","4","4","0","0","-1","0","-1","-1","0","0","4","4","5","4","4","4","4","4","4","3","6","7","6","8","5","6","7","7","7","4","3","2","4","4","3","4","3","3","3","1","4","3","5","3","4","4","4","3","2","4","4","4","3","6","3","7","4","5","5","6","5","5","5","6","5","5","4","5","3","4","757590139374669825","孙","403","Female","[""坏她"",""好我"",""好她"",""坏我""]","[""弱她"",""强我"",""强她"",""弱我""]","","","","","","","","","","","","","","","","","","","","","","","","","","","","","","feedback_test","","","","","","","","",""
"882","","j","psychophysics","128","409295","0.0-8.0-1.0-4.0-0.0-0.10","3","3","2","3","2","4","3","2","4","4","4","0","0","-1","0","-1","-1","0","0","4","4","5","4","4","4","4","4","4","3","6","7","6","8","5","6","7","7","7","4","3","2","4","4","3","4","3","3","3","1","4","3","5","3","4","4","4","3","2","4","4","4","3","6","3","7","4","5","5","6","5","5","5","6","5","5","4","5","3","4","757590139374669825","孙","403","Female","[""坏她"",""好我"",""好她"",""坏我""]","[""弱她"",""强我"",""强她"",""弱我""]","","","","","","","","match","","","","","","","","","","key","j","16.684267857143173","960","536","f","false","nonmatch","img/ellipse.png","弱我","弱她","ALT2","ability","","","","","","","","",""
"null","<span style='color:red; font-size: 70px;'>错误! </span>","null","html-keyboard-response","129","409800","0.0-8.0-1.0-4.0-0.0-1.10","3","3","2","3","2","4","3","2","4","4","4","0","0","-1","0","-1","-1","0","0","4","4","5","4","4","4","4","4","4","3","6","7","6","8","5","6","7","7","7","4","3","2","4","4","3","4","3","3","3","1","4","3","5","3","4","4","4","3","2","4","4","4","3","6","3","7","4","5","5","6","5","5","5","6","5","5","4","5","3","4","757590139374669825","孙","403","Female","[""坏她"",""好我"",""好她"",""坏我""]","[""弱她"",""强我"",""强她"",""弱我""]","","","","","","","","","","","","","","","","","","","","","","","","","","","","","","feedback_test","","","","","","","","",""
"943","","j","psychophysics","130","411751","0.0-8.0-1.0-4.0-0.0-0.11","3","3","2","3","2","4","3","2","4","4","4","0","0","-1","0","-1","-1","0","0","4","4","5","4","4","4","4","4","4","3","6","7","6","8","5","6","7","7","7","4","3","2","4","4","3","4","3","3","3","1","4","3","5","3","4","4","4","3","2","4","4","4","3","6","3","7","4","5","5","6","5","5","5","6","5","5","4","5","3","4","757590139374669825","孙","403","Female","[""坏她"",""好我"",""好她"",""坏我""]","[""弱她"",""强我"",""强她"",""弱我""]","","","","","","","","match","","","","","","","","","","key","j","16.682620689655245","960","536","f","false","nonmatch","img/diamond.png","强她","强我","ALT2","ability","","","","","","","","",""
"null","<span style='color:red; font-size: 70px;'>错误! </span>","null","html-keyboard-response","131","412256","0.0-8.0-1.0-4.0-0.0-1.11","3","3","2","3","2","4","3","2","4","4","4","0","0","-1","0","-1","-1","0","0","4","4","5","4","4","4","4","4","4","3","6","7","6","8","5","6","7","7","7","4","3","2","4","4","3","4","3","3","3","1","4","3","5","3","4","4","4","3","2","4","4","4","3","6","3","7","4","5","5","6","5","5","5","6","5","5","4","5","3","4","757590139374669825","孙","403","Female","[""坏她"",""好我"",""好她"",""坏我""]","[""弱她"",""强我"",""强她"",""弱我""]","","","","","","","","","","","","","","","","","","","","","","","","","","","","","","feedback_test","","","","","","","","",""
"703","","j","psychophysics","132","413967","0.0-8.0-1.0-4.0-0.0-0.12","3","3","2","3","2","4","3","2","4","4","4","0","0","-1","0","-1","-1","0","0","4","4","5","4","4","4","4","4","4","3","6","7","6","8","5","6","7","7","7","4","3","2","4","4","3","4","3","3","3","1","4","3","5","3","4","4","4","3","2","4","4","4","3","6","3","7","4","5","5","6","5","5","5","6","5","5","4","5","3","4","757590139374669825","孙","403","Female","[""坏她"",""好我"",""好她"",""坏我""]","[""弱她"",""强我"",""强她"",""弱我""]","","","","","","","","match","","","","","","","","","","key","j","16.683000000000074","960","536","f","false","nonmatch","img/ellipse.png","强她","弱她","ALT2","ability","","","","","","","","",""
"null","<span style='color:red; font-size: 70px;'>错误! </span>","null","html-keyboard-response","133","414472","0.0-8.0-1.0-4.0-0.0-1.12","3","3","2","3","2","4","3","2","4","4","4","0","0","-1","0","-1","-1","0","0","4","4","5","4","4","4","4","4","4","3","6","7","6","8","5","6","7","7","7","4","3","2","4","4","3","4","3","3","3","1","4","3","5","3","4","4","4","3","2","4","4","4","3","6","3","7","4","5","5","6","5","5","5","6","5","5","4","5","3","4","757590139374669825","孙","403","Female","[""坏她"",""好我"",""好她"",""坏我""]","[""弱她"",""强我"",""强她"",""弱我""]","","","","","","","","","","","","","","","","","","","","","","","","","","","","","","feedback_test","","","","","","","","",""
"743","","f","psychophysics","134","416224","0.0-8.0-1.0-4.0-0.0-0.13","3","3","2","3","2","4","3","2","4","4","4","0","0","-1","0","-1","-1","0","0","4","4","5","4","4","4","4","4","4","3","6","7","6","8","5","6","7","7","7","4","3","2","4","4","3","4","3","3","3","1","4","3","5","3","4","4","4","3","2","4","4","4","3","6","3","7","4","5","5","6","5","5","5","6","5","5","4","5","3","4","757590139374669825","孙","403","Female","[""坏她"",""好我"",""好她"",""坏我""]","[""弱她"",""强我"",""强她"",""弱我""]","","","","","","","","nonmatch","","","","","","","","","","key","f","16.68294230769243","960","536","j","false","match","img/diamond.png","强我","强我","ALT2","ability","","","","","","","","",""
"null","<span style='color:red; font-size: 70px;'>错误! </span>","null","html-keyboard-response","135","416729","0.0-8.0-1.0-4.0-0.0-1.13","3","3","2","3","2","4","3","2","4","4","4","0","0","-1","0","-1","-1","0","0","4","4","5","4","4","4","4","4","4","3","6","7","6","8","5","6","7","7","7","4","3","2","4","4","3","4","3","3","3","1","4","3","5","3","4","4","4","3","2","4","4","4","3","6","3","7","4","5","5","6","5","5","5","6","5","5","4","5","3","4","757590139374669825","孙","403","Female","[""坏她"",""好我"",""好她"",""坏我""]","[""弱她"",""强我"",""强她"",""弱我""]","","","","","","","","","","","","","","","","","","","","","","","","","","","","","","feedback_test","","","","","","","","",""
"1072","","j","psychophysics","136","418807","0.0-8.0-1.0-4.0-0.0-0.14","3","3","2","3","2","4","3","2","4","4","4","0","0","-1","0","-1","-1","0","0","4","4","5","4","4","4","4","4","4","3","6","7","6","8","5","6","7","7","7","4","3","2","4","4","3","4","3","3","3","1","4","3","5","3","4","4","4","3","2","4","4","4","3","6","3","7","4","5","5","6","5","5","5","6","5","5","4","5","3","4","757590139374669825","孙","403","Female","[""坏她"",""好我"",""好她"",""坏我""]","[""弱她"",""强我"",""强她"",""弱我""]","","","","","","","","match","","","","","","","","","","key","j","16.683693548387495","960","536","j","true","match","img/square.png","强她","强她","ALT2","ability","","","","","","","","",""
"null","<span style='color:GreenYellow; font-size: 70px;'>正确! </span>","null","html-keyboard-response","137","419316","0.0-8.0-1.0-4.0-0.0-1.14","3","3","2","3","2","4","3","2","4","4","4","0","0","-1","0","-1","-1","0","0","4","4","5","4","4","4","4","4","4","3","6","7","6","8","5","6","7","7","7","4","3","2","4","4","3","4","3","3","3","1","4","3","5","3","4","4","4","3","2","4","4","4","3","6","3","7","4","5","5","6","5","5","5","6","5","5","4","5","3","4","757590139374669825","孙","403","Female","[""坏她"",""好我"",""好她"",""坏我""]","[""弱她"",""强我"",""强她"",""弱我""]","","","","","","","","","","","","","","","","","","","","","","","","","","","","","","feedback_test","","","","","","","","",""
