"rt","stimulus","response","trial_type","trial_index","time_elapsed","internal_node_id","swb_1","swb_2","swb_3","swb_4","swb_5","LOT_1","LOT_2","LOT_3","LOT_4","LOT_5","LOT_6","IPC_1","IPC_2","IPC_3","IPC_4","IPC_5","IPC_6","IPC_7","IPC_8","MorIden_1","MorIden_2","MorIden_3","MorIden_4","MorIden_5","MorIden_6","MorIden_7","MorIden_8","MorIden_9","MorIden_10","moralSeImag_1","moralSeImag_2","moralSeImag_3","moralSeImag_4","moralSeImag_5","moralSeImag_6","moralSeImag_7","moralSeImag_8","moralSeImag_9","sde_1","sde_2","sde_3","sde_4","sde_5","sde_6","sde_7","sde_8","sde_9","sde_10","trap2","sde_11","sde_12","sde_13","sde_14","sde_15","sde_16","sde_17","sde_18","sde_19","sde_20","IM_1","IM_2","IM_3","IM_4","IM_5","IM_6","IM_7","IM_8","IM_9","IM_10","IM_11","IM_12","IM_13","IM_14","IM_15","IM_16","IM_17","IM_18","IM_19","IM_20","subj_idx","friend_name","ParticipantID","Sex","Word","Word2","value","success","timeout","failed_images","failed_audio","failed_video","user_agent","responses","item_order","radio_event_ids","radio_event_times","key_event_times","mouse_event_times","straightlining","zigzagging","honeypot","task_id","screen_id","time_stamp","response_type","key_press","avg_frame_time","center_x","center_y","person","word","valence","domain","math","correct_response","correct","status","view_history","identity","duration","Image","condition","question_order","trap2_item"
"18143","
   <p><div style='color:white; font-size: 25px'>您好，欢迎参加本次实验。</div></p>
   <p><div style='color:white; font-size: 25px'>为充分保障您的权利，请确保您已经知晓并同意《参与实验同意书》以及《数据公开知情同意书》。</div></p>
   <p><div style='color:white; font-size: 25px'>如果您未见过上述内容，请咨询实验员。</div></p>
   <p style='color:white; font-size: 25px'>如果您选择继续实验，则表示您已经清楚两份知情同意书的内容并同意。</p>
   <p><div style = ""color: pink;font-size:30px;"">请确保您记得day0的实验编号，您将在本次实验输入该编号，若您忘记，请咨询实验员后作答。</div></p>
   <p><div style = ""color:lightblue;font-size:25px;"">请您尽可能认真地作答，我们将依据您在各问卷和按键任务中的作答质量发放报酬。</div></p>
   <p> <div style = ""color: green""><按空格键至下页></div> </p>
   "," ","html-keyboard-response","0","18148","0.0-0.0","3","3","3","3","3","4","4","4","4","4","4","1","1","-1","1","-1","1","1","1","4","4","4","4","4","4","4","4","4","4","4","4","5","5","3","4","4","5","5","5","3","5","3","5","3","5","3","3","3","1","3","3","5","3","3","5","5","6","3","5","3","3","3","3","3","5","3","5","6","5","6","5","3","5","3","5","3","5","3","5","650407062907387904","赵","637","Female","[""好她"",""好我"",""坏她"",""坏我""]","[""强她"",""强我"",""弱她"",""弱我""]","","","","","","","","","","","","","","","","","","","","","","","","","","","","","","","","","","","","","","",""
"","","","call-function","1","18151","0.0-1.0-0.0","3","3","3","3","3","4","4","4","4","4","4","1","1","-1","1","-1","1","1","1","4","4","4","4","4","4","4","4","4","4","4","4","5","5","3","4","4","5","5","5","3","5","3","5","3","5","3","3","3","1","3","3","5","3","3","5","5","6","3","5","3","3","3","3","3","5","3","5","6","5","6","5","3","5","3","5","3","5","3","5","650407062907387904","赵","637","Female","[""好她"",""好我"",""坏她"",""坏我""]","[""强她"",""强我"",""弱她"",""弱我""]","","","","","","","","","","","","","","","","","","","","","","","","","","","","","","","","","","","","","","",""
"31458","","[{""name"":""Sex"",""value"":""1""},{""name"":""friend_name"",""value"":""赵""},{""name"":""ParticipantID"",""value"":""637""}]","survey-html-form","2","49611","0.0-1.0-1.0","3","3","3","3","3","4","4","4","4","4","4","1","1","-1","1","-1","1","1","1","4","4","4","4","4","4","4","4","4","4","4","4","5","5","3","4","4","5","5","5","3","5","3","5","3","5","3","3","3","1","3","3","5","3","3","5","5","6","3","5","3","3","3","3","3","5","3","5","6","5","6","5","3","5","3","5","3","5","3","5","650407062907387904","赵","637","Female","[""好她"",""好我"",""坏她"",""坏我""]","[""强她"",""强我"",""弱她"",""弱我""]","","","","","","","","","","","","","","","","","","","","","","","","","","","","","","","","","","","","","","",""
"","","","preload","3","50681","0.0-2.0","3","3","3","3","3","4","4","4","4","4","4","1","1","-1","1","-1","1","1","1","4","4","4","4","4","4","4","4","4","4","4","4","5","5","3","4","4","5","5","5","3","5","3","5","3","5","3","3","3","1","3","3","5","3","3","5","5","6","3","5","3","3","3","3","3","5","3","5","6","5","6","5","3","5","3","5","3","5","3","5","650407062907387904","赵","637","Female","[""好她"",""好我"",""坏她"",""坏我""]","[""强她"",""强我"",""弱她"",""弱我""]","","true","false","[]","[]","[]","","","","","","","","","","","","","","","","","","","","","","","","","","","","","","","","",""
"","","","fullscreen","4","55437","0.0-3.0","3","3","3","3","3","4","4","4","4","4","4","1","1","-1","1","-1","1","1","1","4","4","4","4","4","4","4","4","4","4","4","4","5","5","3","4","4","5","5","5","3","5","3","5","3","5","3","3","3","1","3","3","5","3","3","5","5","6","3","5","3","3","3","3","3","5","3","5","6","5","6","5","3","5","3","5","3","5","3","5","650407062907387904","赵","637","Female","[""好她"",""好我"",""坏她"",""坏我""]","[""强她"",""强我"",""弱她"",""弱我""]","","true","","","","","{}","","","","","","","","","","","","","","","","","","","","","","","","","","","","","","","",""
"13195.800000071526","","{""Q01"":""3"",""Q02"":""3"",""Q03"":""3"",""Q04"":""3"",""Q05"":""3""}","survey-template","5","68637","0.0-4.0","3","3","3","3","3","4","4","4","4","4","4","1","1","-1","1","-1","1","1","1","4","4","4","4","4","4","4","4","4","4","4","4","5","5","3","4","4","5","5","5","3","5","3","5","3","5","3","3","3","1","3","3","5","3","3","5","5","6","3","5","3","3","3","3","3","5","3","5","6","5","6","5","3","5","3","5","3","5","3","5","650407062907387904","赵","637","Female","[""好她"",""好我"",""坏她"",""坏我""]","[""强她"",""强我"",""弱她"",""弱我""]","","","","","","","","{""Q01"":""3"",""Q02"":""3"",""Q03"":""3"",""Q04"":""3"",""Q05"":""3""}","[0,1,2,3,4]","[""Q01"",""Q02"",""Q03"",""Q04"",""Q05""]","[2765,7022,8273.600000023842,10498.700000047684,11807.800000071526]","[]","[2765,4843.5,6252.600000023842,7022,8273.600000023842,9785.5,10498.700000047684,11807.800000071526,13193.899999976158]","1","0","0","","","","","","","","","","","","","","","","","","","","","","",""
"19274.899999976158","","{""Q01"":""4"",""Q02"":""4"",""Q03"":""4"",""Q04"":""4"",""Q05"":""4"",""Q06"":""4""}","survey-template","6","87922","0.0-5.0","3","3","3","3","3","4","4","4","4","4","4","1","1","-1","1","-1","1","1","1","4","4","4","4","4","4","4","4","4","4","4","4","5","5","3","4","4","5","5","5","3","5","3","5","3","5","3","3","3","1","3","3","5","3","3","5","5","6","3","5","3","3","3","3","3","5","3","5","6","5","6","5","3","5","3","5","3","5","3","5","650407062907387904","赵","637","Female","[""好她"",""好我"",""坏她"",""坏我""]","[""强她"",""强我"",""弱她"",""弱我""]","","","","","","","","{""Q01"":""4"",""Q02"":""4"",""Q03"":""4"",""Q04"":""4"",""Q05"":""4"",""Q06"":""4""}","[0,1,2,3,4,5]","[""Q01"",""Q02"",""Q03"",""Q04"",""Q05"",""Q06""]","[2215.1999999284744,4757.699999928474,6391.899999976158,8643.099999904633,11826.799999952316,14826.599999904633]","[]","[2215.1999999284744,4757.699999928474,6391.899999976158,8643.099999904633,9873,11826.799999952316,13556.699999928474,14826.599999904633,19273.099999904633]","0.5","0","0","","","","","","","","","","","","","","","","","","","","","","",""
"36567.60000002384","","{""Q01"":""1"",""Q02"":""1"",""Q03"":""-1"",""Q04"":""1"",""Q05"":""-1"",""Q06"":""1"",""Q07"":""1"",""Q08"":""1""}","survey-template","7","124502","0.0-6.0","3","3","3","3","3","4","4","4","4","4","4","1","1","-1","1","-1","1","1","1","4","4","4","4","4","4","4","4","4","4","4","4","5","5","3","4","4","5","5","5","3","5","3","5","3","5","3","3","3","1","3","3","5","3","3","5","5","6","3","5","3","3","3","3","3","5","3","5","6","5","6","5","3","5","3","5","3","5","3","5","650407062907387904","赵","637","Female","[""好她"",""好我"",""坏她"",""坏我""]","[""强她"",""强我"",""弱她"",""弱我""]","","","","","","","","{""Q01"":""1"",""Q02"":""1"",""Q03"":""-1"",""Q04"":""1"",""Q05"":""-1"",""Q06"":""1"",""Q07"":""1"",""Q08"":""1""}","[0,1,2,3,4,5,6,7]","[""Q01"",""Q02"",""Q03"",""Q04"",""Q05"",""Q06"",""Q07"",""Q08""]","[5538.199999928474,6877,8671,11237.399999976158,17330,19165.100000023842,24583.600000023842,25834.199999928474]","[]","[4084,5538.199999928474,6877,8671,11237.399999976158,12599.299999952316,14225.399999976158,15027.100000023842,16305,17330,19165.100000023842,23655.100000023842,24583.600000023842,25834.199999928474,36565.5]","0.75","0","0","","","","","","","","","","","","","","","","","","","","","","",""
"4494","
    <p><div style='color:white;font-size:35px; line-height:20px;'>词汇评估任务</div></p><br>
    <p><div style='color:white;font-size:25px; line-height:20px;'>请再次回忆该亲密的朋友，你们至少2年前就认识了，并且最近2年经常见面。</div></p>
    <p><div style='color:white;font-size:25px; line-height:20px;'>在本实验中，您将会看到一些形容词。</div></p>
    <p><div style='color:yellow;font-size:25px; line-height:20px;'>您的任务是判断这些形容词是否符合对您自己或您的朋友的描述。</div></p><p style='font-size:35px'>符合按<span style=""color:lightgreen""> j 键</span>，不符合按<span style=""color:red""> f 键</span></p>","0","html-button-response","8","129003","0.0-7.0-0.0","3","3","3","3","3","4","4","4","4","4","4","1","1","-1","1","-1","1","1","1","4","4","4","4","4","4","4","4","4","4","4","4","5","5","3","4","4","5","5","5","3","5","3","5","3","5","3","3","3","1","3","3","5","3","3","5","5","6","3","5","3","3","3","3","3","5","3","5","6","5","6","5","3","5","3","5","3","5","3","5","650407062907387904","赵","637","Female","[""好她"",""好我"",""坏她"",""坏我""]","[""强她"",""强我"",""弱她"",""弱我""]","","","","","","","","","","","","","","","","","SRET_EW","EW_instructions","Sun Jan 07 2024 21:04:10 GMT+0800 (中国标准时间)","","","","","","","","","","","","","","","","","","","",""
"1835","","j","psychophysics","9","131845","0.0-7.0-1.0-0.0","3","3","3","3","3","4","4","4","4","4","4","1","1","-1","1","-1","1","1","1","4","4","4","4","4","4","4","4","4","4","4","4","5","5","3","4","4","5","5","5","3","5","3","5","3","5","3","3","3","1","3","3","5","3","3","5","5","6","3","5","3","3","3","3","3","5","3","5","6","5","6","5","3","5","3","5","3","5","3","5","650407062907387904","赵","637","Female","[""好她"",""好我"",""坏她"",""坏我""]","[""强她"",""强我"",""弱她"",""弱我""]","","","","","","","","yes","","","","","","","","","SRET_EW","EW_practice","","key","j","15.562087912087849","1024.4999694675216","571.4999829679732","朋友","徇私","Negative","morality","","","","","","","","","","",""
"1684","","f","psychophysics","10","134533","0.0-7.0-1.0-0.1","3","3","3","3","3","4","4","4","4","4","4","1","1","-1","1","-1","1","1","1","4","4","4","4","4","4","4","4","4","4","4","4","5","5","3","4","4","5","5","5","3","5","3","5","3","5","3","3","3","1","3","3","5","3","3","5","5","6","3","5","3","3","3","3","3","5","3","5","6","5","6","5","3","5","3","5","3","5","3","5","650407062907387904","赵","637","Female","[""好她"",""好我"",""坏她"",""坏我""]","[""强她"",""强我"",""弱她"",""弱我""]","","","","","","","","no","","","","","","","","","SRET_EW","EW_practice","","key","f","15.625146198830375","1024.4999694675216","571.4999829679732","自己","严谨","Positive","ability","","","","","","","","","","",""
"1388","","f","psychophysics","11","136924","0.0-7.0-1.0-0.2","3","3","3","3","3","4","4","4","4","4","4","1","1","-1","1","-1","1","1","1","4","4","4","4","4","4","4","4","4","4","4","4","5","5","3","4","4","5","5","5","3","5","3","5","3","5","3","3","3","1","3","3","5","3","3","5","5","6","3","5","3","3","3","3","3","5","3","5","6","5","6","5","3","5","3","5","3","5","3","5","650407062907387904","赵","637","Female","[""好她"",""好我"",""坏她"",""坏我""]","[""强她"",""强我"",""弱她"",""弱我""]","","","","","","","","no","","","","","","","","","SRET_EW","EW_practice","","key","f","15.727814569536385","1024.4999694675216","571.4999829679732","朋友","忠实","Positive","morality","","","","","","","","","","",""
"1611","","j","psychophysics","12","139537","0.0-7.0-1.0-0.3","3","3","3","3","3","4","4","4","4","4","4","1","1","-1","1","-1","1","1","1","4","4","4","4","4","4","4","4","4","4","4","4","5","5","3","4","4","5","5","5","3","5","3","5","3","5","3","3","3","1","3","3","5","3","3","5","5","6","3","5","3","3","3","3","3","5","3","5","6","5","6","5","3","5","3","5","3","5","3","5","650407062907387904","赵","637","Female","[""好她"",""好我"",""坏她"",""坏我""]","[""强她"",""强我"",""弱她"",""弱我""]","","","","","","","","yes","","","","","","","","","SRET_EW","EW_practice","","key","j","15.624698795180617","1024.4999694675216","571.4999829679732","自己","刻板","Negative","ability","","","","","","","","","","",""
"2030","
    <p><div style='color:white;font-size:35px; line-height:20px;'>请您再次阅读实验要求</div></p><br>
    <p><div style='color:white;font-size:25px; line-height:20px;'>请回忆某一个亲密的朋友，你们至少2年前就认识了，并且最近2年经常见面。</div></p>
    <p><div style='color:white;font-size:25px; line-height:20px;'>在本实验中，您将会看到一些形容词。</div></p>
    <p><div style='color:yellow;font-size:25px; line-height:20px;'>您的任务是判断这些形容词是否符合对您自己或您的朋友的描述。</div></p>
    <p><div class='footer' style='font-size:25px; line-height:20px;'>如果对本实验还有不清楚之处，请立即向实验员咨询。</p><p style='font-size:25px; line-height:20px;'>如果您明白了规则：</p><p style='font-size:22px; line-height:20px;'>请按 继续 进入正式实验</p>
    </div>
    <p style='font-size:35px'>符合按<span style=""color:lightgreen""> j 键</span>，不符合按<span style=""color:red""> f 键</span></p>","0","html-button-response","13","141569","0.0-7.0-2.0","3","3","3","3","3","4","4","4","4","4","4","1","1","-1","1","-1","1","1","1","4","4","4","4","4","4","4","4","4","4","4","4","5","5","3","4","4","5","5","5","3","5","3","5","3","5","3","3","3","1","3","3","5","3","3","5","5","6","3","5","3","3","3","3","3","5","3","5","6","5","6","5","3","5","3","5","3","5","3","5","650407062907387904","赵","637","Female","[""好她"",""好我"",""坏她"",""坏我""]","[""强她"",""强我"",""弱她"",""弱我""]","","","","","","","","","","","","","","","","","SRET_EW","prac_instructions","Sun Jan 07 2024 21:04:10 GMT+0800 (中国标准时间)","","","","","","","","","","","","","","","","","","","",""
"1296","","j","psychophysics","14","143867","0.0-7.0-3.0-0.0","3","3","3","3","3","4","4","4","4","4","4","1","1","-1","1","-1","1","1","1","4","4","4","4","4","4","4","4","4","4","4","4","5","5","3","4","4","5","5","5","3","5","3","5","3","5","3","3","3","1","3","3","5","3","3","5","5","6","3","5","3","3","3","3","3","5","3","5","6","5","6","5","3","5","3","5","3","5","3","5","650407062907387904","赵","637","Female","[""好她"",""好我"",""坏她"",""坏我""]","[""强她"",""强我"",""弱她"",""弱我""]","","","","","","","","yes","","","","","","","","","SRET","EW_formal","","key","j","15.576190476190556","1024.4999694675216","571.4999829679732","朋友","务实","Positive","ability","","","","","","","","","","",""
"1431","","f","psychophysics","15","146300","0.0-7.0-3.0-0.1","3","3","3","3","3","4","4","4","4","4","4","1","1","-1","1","-1","1","1","1","4","4","4","4","4","4","4","4","4","4","4","4","5","5","3","4","4","5","5","5","3","5","3","5","3","5","3","3","3","1","3","3","5","3","3","5","5","6","3","5","3","3","3","3","3","5","3","5","6","5","6","5","3","5","3","5","3","5","3","5","650407062907387904","赵","637","Female","[""好她"",""好我"",""坏她"",""坏我""]","[""强她"",""强我"",""弱她"",""弱我""]","","","","","","","","no","","","","","","","","","SRET","EW_formal","","key","f","15.624516129032182","1024.4999694675216","571.4999829679732","自己","说谎","Negative","morality","","","","","","","","","","",""
"1463","","j","psychophysics","16","148767","0.0-7.0-3.0-0.2","3","3","3","3","3","4","4","4","4","4","4","1","1","-1","1","-1","1","1","1","4","4","4","4","4","4","4","4","4","4","4","4","5","5","3","4","4","5","5","5","3","5","3","5","3","5","3","3","3","1","3","3","5","3","3","5","5","6","3","5","3","3","3","3","3","5","3","5","6","5","6","5","3","5","3","5","3","5","3","5","650407062907387904","赵","637","Female","[""好她"",""好我"",""坏她"",""坏我""]","[""强她"",""强我"",""弱她"",""弱我""]","","","","","","","","yes","","","","","","","","","SRET","EW_formal","","key","j","15.624203821656051","1024.4999694675216","571.4999829679732","朋友","迷糊","Negative","ability","","","","","","","","","","",""
"1112","","f","psychophysics","17","150881","0.0-7.0-3.0-0.3","3","3","3","3","3","4","4","4","4","4","4","1","1","-1","1","-1","1","1","1","4","4","4","4","4","4","4","4","4","4","4","4","5","5","3","4","4","5","5","5","3","5","3","5","3","5","3","3","3","1","3","3","5","3","3","5","5","6","3","5","3","3","3","3","3","5","3","5","6","5","6","5","3","5","3","5","3","5","3","5","650407062907387904","赵","637","Female","[""好她"",""好我"",""坏她"",""坏我""]","[""强她"",""强我"",""弱她"",""弱我""]","","","","","","","","no","","","","","","","","","SRET","EW_formal","","key","f","15.624626865671729","1024.4999694675216","571.4999829679732","自己","坚贞","Positive","morality","","","","","","","","","","",""
"1744","","f","psychophysics","18","153626","0.0-7.0-3.0-0.4","3","3","3","3","3","4","4","4","4","4","4","1","1","-1","1","-1","1","1","1","4","4","4","4","4","4","4","4","4","4","4","4","5","5","3","4","4","5","5","5","3","5","3","5","3","5","3","3","3","1","3","3","5","3","3","5","5","6","3","5","3","3","3","3","3","5","3","5","6","5","6","5","3","5","3","5","3","5","3","5","650407062907387904","赵","637","Female","[""好她"",""好我"",""坏她"",""坏我""]","[""强她"",""强我"",""弱她"",""弱我""]","","","","","","","","no","","","","","","","","","SRET","EW_formal","","key","f","15.62514285714299","1024.4999694675216","571.4999829679732","自己","奸诈","Negative","morality","","","","","","","","","","",""
"908","","j","psychophysics","19","155537","0.0-7.0-3.0-0.5","3","3","3","3","3","4","4","4","4","4","4","1","1","-1","1","-1","1","1","1","4","4","4","4","4","4","4","4","4","4","4","4","5","5","3","4","4","5","5","5","3","5","3","5","3","5","3","3","3","1","3","3","5","3","3","5","5","6","3","5","3","3","3","3","3","5","3","5","6","5","6","5","3","5","3","5","3","5","3","5","650407062907387904","赵","637","Female","[""好她"",""好我"",""坏她"",""坏我""]","[""强她"",""强我"",""弱她"",""弱我""]","","","","","","","","yes","","","","","","","","","SRET","EW_formal","","key","j","15.6247933884298","1024.4999694675216","571.4999829679732","朋友","好心","Positive","morality","","","","","","","","","","",""
"1198","","f","psychophysics","20","157737","0.0-7.0-3.0-0.6","3","3","3","3","3","4","4","4","4","4","4","1","1","-1","1","-1","1","1","1","4","4","4","4","4","4","4","4","4","4","4","4","5","5","3","4","4","5","5","5","3","5","3","5","3","5","3","3","3","1","3","3","5","3","3","5","5","6","3","5","3","3","3","3","3","5","3","5","6","5","6","5","3","5","3","5","3","5","3","5","650407062907387904","赵","637","Female","[""好她"",""好我"",""坏她"",""坏我""]","[""强她"",""强我"",""弱她"",""弱我""]","","","","","","","","no","","","","","","","","","SRET","EW_formal","","key","f","15.625","1024.4999694675216","571.4999829679732","朋友","马虎","Negative","ability","","","","","","","","","","",""
"1247","","j","psychophysics","21","159986","0.0-7.0-3.0-0.7","3","3","3","3","3","4","4","4","4","4","4","1","1","-1","1","-1","1","1","1","4","4","4","4","4","4","4","4","4","4","4","4","5","5","3","4","4","5","5","5","3","5","3","5","3","5","3","3","3","1","3","3","5","3","3","5","5","6","3","5","3","3","3","3","3","5","3","5","6","5","6","5","3","5","3","5","3","5","3","5","650407062907387904","赵","637","Female","[""好她"",""好我"",""坏她"",""坏我""]","[""强她"",""强我"",""弱她"",""弱我""]","","","","","","","","yes","","","","","","","","","SRET","EW_formal","","key","j","15.625174825174785","1024.4999694675216","571.4999829679732","自己","勤奋","Positive","ability","","","","","","","","","","",""
"858","","f","psychophysics","22","161846","0.0-7.0-3.0-0.8","3","3","3","3","3","4","4","4","4","4","4","1","1","-1","1","-1","1","1","1","4","4","4","4","4","4","4","4","4","4","4","4","5","5","3","4","4","5","5","5","3","5","3","5","3","5","3","3","3","1","3","3","5","3","3","5","5","6","3","5","3","3","3","3","3","5","3","5","6","5","6","5","3","5","3","5","3","5","3","5","650407062907387904","赵","637","Female","[""好她"",""好我"",""坏她"",""坏我""]","[""强她"",""强我"",""弱她"",""弱我""]","","","","","","","","no","","","","","","","","","SRET","EW_formal","","key","f","15.62542372881346","1024.4999694675216","571.4999829679732","朋友","弱智","Negative","ability","","","","","","","","","","",""
"1186","","f","psychophysics","23","164034","0.0-7.0-3.0-0.9","3","3","3","3","3","4","4","4","4","4","4","1","1","-1","1","-1","1","1","1","4","4","4","4","4","4","4","4","4","4","4","4","5","5","3","4","4","5","5","5","3","5","3","5","3","5","3","3","3","1","3","3","5","3","3","5","5","6","3","5","3","3","3","3","3","5","3","5","6","5","6","5","3","5","3","5","3","5","3","5","650407062907387904","赵","637","Female","[""好她"",""好我"",""坏她"",""坏我""]","[""强她"",""强我"",""弱她"",""弱我""]","","","","","","","","no","","","","","","","","","SRET","EW_formal","","key","f","15.624460431654592","1024.4999694675216","571.4999829679732","自己","盲目","Negative","ability","","","","","","","","","","",""
"959","","f","psychophysics","24","165994","0.0-7.0-3.0-0.10","3","3","3","3","3","4","4","4","4","4","4","1","1","-1","1","-1","1","1","1","4","4","4","4","4","4","4","4","4","4","4","4","5","5","3","4","4","5","5","5","3","5","3","5","3","5","3","3","3","1","3","3","5","3","3","5","5","6","3","5","3","3","3","3","3","5","3","5","6","5","6","5","3","5","3","5","3","5","3","5","650407062907387904","赵","637","Female","[""好她"",""好我"",""坏她"",""坏我""]","[""强她"",""强我"",""弱她"",""弱我""]","","","","","","","","no","","","","","","","","","SRET","EW_formal","","key","f","15.625","1024.4999694675216","571.4999829679732","朋友","黑心","Negative","morality","","","","","","","","","","",""
"1070","","f","psychophysics","25","168065","0.0-7.0-3.0-0.11","3","3","3","3","3","4","4","4","4","4","4","1","1","-1","1","-1","1","1","1","4","4","4","4","4","4","4","4","4","4","4","4","5","5","3","4","4","5","5","5","3","5","3","5","3","5","3","3","3","1","3","3","5","3","3","5","5","6","3","5","3","3","3","3","3","5","3","5","6","5","6","5","3","5","3","5","3","5","3","5","650407062907387904","赵","637","Female","[""好她"",""好我"",""坏她"",""坏我""]","[""强她"",""强我"",""弱她"",""弱我""]","","","","","","","","no","","","","","","","","","SRET","EW_formal","","key","f","15.625","1024.4999694675216","571.4999829679732","自己","奸险","Negative","morality","","","","","","","","","","",""
"1389","","j","psychophysics","26","170457","0.0-7.0-3.0-0.12","3","3","3","3","3","4","4","4","4","4","4","1","1","-1","1","-1","1","1","1","4","4","4","4","4","4","4","4","4","4","4","4","5","5","3","4","4","5","5","5","3","5","3","5","3","5","3","3","3","1","3","3","5","3","3","5","5","6","3","5","3","3","3","3","3","5","3","5","6","5","6","5","3","5","3","5","3","5","3","5","650407062907387904","赵","637","Female","[""好她"",""好我"",""坏她"",""坏我""]","[""强她"",""强我"",""弱她"",""弱我""]","","","","","","","","yes","","","","","","","","","SRET","EW_formal","","key","j","15.625","1024.4999694675216","571.4999829679732","自己","刻苦","Positive","ability","","","","","","","","","","",""
"927","","f","psychophysics","27","172386","0.0-7.0-3.0-0.13","3","3","3","3","3","4","4","4","4","4","4","1","1","-1","1","-1","1","1","1","4","4","4","4","4","4","4","4","4","4","4","4","5","5","3","4","4","5","5","5","3","5","3","5","3","5","3","3","3","1","3","3","5","3","3","5","5","6","3","5","3","3","3","3","3","5","3","5","6","5","6","5","3","5","3","5","3","5","3","5","650407062907387904","赵","637","Female","[""好她"",""好我"",""坏她"",""坏我""]","[""强她"",""强我"",""弱她"",""弱我""]","","","","","","","","no","","","","","","","","","SRET","EW_formal","","key","f","15.625409836065717","1024.4999694675216","571.4999829679732","朋友","缺德","Negative","morality","","","","","","","","","","",""
"1190","","f","psychophysics","28","174582","0.0-7.0-3.0-0.14","3","3","3","3","3","4","4","4","4","4","4","1","1","-1","1","-1","1","1","1","4","4","4","4","4","4","4","4","4","4","4","4","5","5","3","4","4","5","5","5","3","5","3","5","3","5","3","3","3","1","3","3","5","3","3","5","5","6","3","5","3","3","3","3","3","5","3","5","6","5","6","5","3","5","3","5","3","5","3","5","650407062907387904","赵","637","Female","[""好她"",""好我"",""坏她"",""坏我""]","[""强她"",""强我"",""弱她"",""弱我""]","","","","","","","","no","","","","","","","","","SRET","EW_formal","","key","f","15.625","1024.4999694675216","571.4999829679732","朋友","逞强","Negative","ability","","","","","","","","","","",""
"906","","j","psychophysics","29","176489","0.0-7.0-3.0-0.15","3","3","3","3","3","4","4","4","4","4","4","1","1","-1","1","-1","1","1","1","4","4","4","4","4","4","4","4","4","4","4","4","5","5","3","4","4","5","5","5","3","5","3","5","3","5","3","3","3","1","3","3","5","3","3","5","5","6","3","5","3","3","3","3","3","5","3","5","6","5","6","5","3","5","3","5","3","5","3","5","650407062907387904","赵","637","Female","[""好她"",""好我"",""坏她"",""坏我""]","[""强她"",""强我"",""弱她"",""弱我""]","","","","","","","","yes","","","","","","","","","SRET","EW_formal","","key","j","15.6247933884298","1024.4999694675216","571.4999829679732","自己","文明","Positive","morality","","","","","","","","","","",""
"1018","","f","psychophysics","30","178508","0.0-7.0-3.0-0.16","3","3","3","3","3","4","4","4","4","4","4","1","1","-1","1","-1","1","1","1","4","4","4","4","4","4","4","4","4","4","4","4","5","5","3","4","4","5","5","5","3","5","3","5","3","5","3","3","3","1","3","3","5","3","3","5","5","6","3","5","3","3","3","3","3","5","3","5","6","5","6","5","3","5","3","5","3","5","3","5","650407062907387904","赵","637","Female","[""好她"",""好我"",""坏她"",""坏我""]","[""强她"",""强我"",""弱她"",""弱我""]","","","","","","","","no","","","","","","","","","SRET","EW_formal","","key","f","15.625781250000045","1024.4999694675216","571.4999829679732","朋友","畏难","Negative","ability","","","","","","","","","","",""
"1123","","j","psychophysics","31","180633","0.0-7.0-3.0-0.17","3","3","3","3","3","4","4","4","4","4","4","1","1","-1","1","-1","1","1","1","4","4","4","4","4","4","4","4","4","4","4","4","5","5","3","4","4","5","5","5","3","5","3","5","3","5","3","3","3","1","3","3","5","3","3","5","5","6","3","5","3","3","3","3","3","5","3","5","6","5","6","5","3","5","3","5","3","5","3","5","650407062907387904","赵","637","Female","[""好她"",""好我"",""坏她"",""坏我""]","[""强她"",""强我"",""弱她"",""弱我""]","","","","","","","","yes","","","","","","","","","SRET","EW_formal","","key","j","15.741044776119534","1024.4999694675216","571.4999829679732","朋友","慷慨","Positive","morality","","","","","","","","","","",""
"1164","","j","psychophysics","32","182799","0.0-7.0-3.0-0.18","3","3","3","3","3","4","4","4","4","4","4","1","1","-1","1","-1","1","1","1","4","4","4","4","4","4","4","4","4","4","4","4","5","5","3","4","4","5","5","5","3","5","3","5","3","5","3","3","3","1","3","3","5","3","3","5","5","6","3","5","3","3","3","3","3","5","3","5","6","5","6","5","3","5","3","5","3","5","3","5","650407062907387904","赵","637","Female","[""好她"",""好我"",""坏她"",""坏我""]","[""强她"",""强我"",""弱她"",""弱我""]","","","","","","","","yes","","","","","","","","","SRET","EW_formal","","key","j","15.625362318840706","1024.4999694675216","571.4999829679732","自己","自律","Positive","ability","","","","","","","","","","",""
"1488","","j","psychophysics","33","185290","0.0-7.0-3.0-0.19","3","3","3","3","3","4","4","4","4","4","4","1","1","-1","1","-1","1","1","1","4","4","4","4","4","4","4","4","4","4","4","4","5","5","3","4","4","5","5","5","3","5","3","5","3","5","3","3","3","1","3","3","5","3","3","5","5","6","3","5","3","3","3","3","3","5","3","5","6","5","6","5","3","5","3","5","3","5","3","5","650407062907387904","赵","637","Female","[""好她"",""好我"",""坏她"",""坏我""]","[""强她"",""强我"",""弱她"",""弱我""]","","","","","","","","yes","","","","","","","","","SRET","EW_formal","","key","j","15.624683544303688","1024.4999694675216","571.4999829679732","自己","粗心","Negative","ability","","","","","","","","","","",""
"1638","","f","psychophysics","34","187929","0.0-7.0-3.0-0.20","3","3","3","3","3","4","4","4","4","4","4","1","1","-1","1","-1","1","1","1","4","4","4","4","4","4","4","4","4","4","4","4","5","5","3","4","4","5","5","5","3","5","3","5","3","5","3","3","3","1","3","3","5","3","3","5","5","6","3","5","3","3","3","3","3","5","3","5","6","5","6","5","3","5","3","5","3","5","3","5","650407062907387904","赵","637","Female","[""好她"",""好我"",""坏她"",""坏我""]","[""强她"",""强我"",""弱她"",""弱我""]","","","","","","","","no","","","","","","","","","SRET","EW_formal","","key","f","15.625","1024.4999694675216","571.4999829679732","朋友","迟钝","Negative","ability","","","","","","","","","","",""
"1406","","f","psychophysics","35","190337","0.0-7.0-3.0-0.21","3","3","3","3","3","4","4","4","4","4","4","1","1","-1","1","-1","1","1","1","4","4","4","4","4","4","4","4","4","4","4","4","5","5","3","4","4","5","5","5","3","5","3","5","3","5","3","3","3","1","3","3","5","3","3","5","5","6","3","5","3","3","3","3","3","5","3","5","6","5","6","5","3","5","3","5","3","5","3","5","650407062907387904","赵","637","Female","[""好她"",""好我"",""坏她"",""坏我""]","[""强她"",""强我"",""弱她"",""弱我""]","","","","","","","","no","","","","","","","","","SRET","EW_formal","","key","f","15.625490196078317","1024.4999694675216","571.4999829679732","自己","博识","Positive","ability","","","","","","","","","","",""
"1638","","j","psychophysics","36","192977","0.0-7.0-3.0-0.22","3","3","3","3","3","4","4","4","4","4","4","1","1","-1","1","-1","1","1","1","4","4","4","4","4","4","4","4","4","4","4","4","5","5","3","4","4","5","5","5","3","5","3","5","3","5","3","3","3","1","3","3","5","3","3","5","5","6","3","5","3","3","3","3","3","5","3","5","6","5","6","5","3","5","3","5","3","5","3","5","650407062907387904","赵","637","Female","[""好她"",""好我"",""坏她"",""坏我""]","[""强她"",""强我"",""弱她"",""弱我""]","","","","","","","","yes","","","","","","","","","SRET","EW_formal","","key","j","15.625","1024.4999694675216","571.4999829679732","朋友","果决","Positive","ability","","","","","","","","","","",""
"1244","","f","psychophysics","37","195223","0.0-7.0-3.0-0.23","3","3","3","3","3","4","4","4","4","4","4","1","1","-1","1","-1","1","1","1","4","4","4","4","4","4","4","4","4","4","4","4","5","5","3","4","4","5","5","5","3","5","3","5","3","5","3","3","3","1","3","3","5","3","3","5","5","6","3","5","3","3","3","3","3","5","3","5","6","5","6","5","3","5","3","5","3","5","3","5","650407062907387904","赵","637","Female","[""好她"",""好我"",""坏她"",""坏我""]","[""强她"",""强我"",""弱她"",""弱我""]","","","","","","","","no","","","","","","","","","SRET","EW_formal","","key","f","15.625174825174785","1024.4999694675216","571.4999829679732","自己","淡泊","Positive","morality","","","","","","","","","","",""
"1082","","j","psychophysics","38","197307","0.0-7.0-3.0-0.24","3","3","3","3","3","4","4","4","4","4","4","1","1","-1","1","-1","1","1","1","4","4","4","4","4","4","4","4","4","4","4","4","5","5","3","4","4","5","5","5","3","5","3","5","3","5","3","3","3","1","3","3","5","3","3","5","5","6","3","5","3","3","3","3","3","5","3","5","6","5","6","5","3","5","3","5","3","5","3","5","650407062907387904","赵","637","Female","[""好她"",""好我"",""坏她"",""坏我""]","[""强她"",""强我"",""弱她"",""弱我""]","","","","","","","","yes","","","","","","","","","SRET","EW_formal","","key","j","15.625","1024.4999694675216","571.4999829679732","自己","智慧","Positive","ability","","","","","","","","","","",""
"1023","","f","psychophysics","39","199337","0.0-7.0-3.0-0.25","3","3","3","3","3","4","4","4","4","4","4","1","1","-1","1","-1","1","1","1","4","4","4","4","4","4","4","4","4","4","4","4","5","5","3","4","4","5","5","5","3","5","3","5","3","5","3","3","3","1","3","3","5","3","3","5","5","6","3","5","3","3","3","3","3","5","3","5","6","5","6","5","3","5","3","5","3","5","3","5","650407062907387904","赵","637","Female","[""好她"",""好我"",""坏她"",""坏我""]","[""强她"",""强我"",""弱她"",""弱我""]","","","","","","","","no","","","","","","","","","SRET","EW_formal","","key","f","15.625581395348702","1024.4999694675216","571.4999829679732","自己","驽钝","Negative","ability","","","","","","","","","","",""
"967","","f","psychophysics","40","201305","0.0-7.0-3.0-0.26","3","3","3","3","3","4","4","4","4","4","4","1","1","-1","1","-1","1","1","1","4","4","4","4","4","4","4","4","4","4","4","4","5","5","3","4","4","5","5","5","3","5","3","5","3","5","3","3","3","1","3","3","5","3","3","5","5","6","3","5","3","3","3","3","3","5","3","5","6","5","6","5","3","5","3","5","3","5","3","5","650407062907387904","赵","637","Female","[""好她"",""好我"",""坏她"",""坏我""]","[""强她"",""强我"",""弱她"",""弱我""]","","","","","","","","no","","","","","","","","","SRET","EW_formal","","key","f","15.625600000000093","1024.4999694675216","571.4999829679732","自己","狡诈","Negative","morality","","","","","","","","","","",""
"929","","j","psychophysics","41","203236","0.0-7.0-3.0-0.27","3","3","3","3","3","4","4","4","4","4","4","1","1","-1","1","-1","1","1","1","4","4","4","4","4","4","4","4","4","4","4","4","5","5","3","4","4","5","5","5","3","5","3","5","3","5","3","3","3","1","3","3","5","3","3","5","5","6","3","5","3","3","3","3","3","5","3","5","6","5","6","5","3","5","3","5","3","5","3","5","650407062907387904","赵","637","Female","[""好她"",""好我"",""坏她"",""坏我""]","[""强她"",""强我"",""弱她"",""弱我""]","","","","","","","","yes","","","","","","","","","SRET","EW_formal","","key","j","15.625203252032472","1024.4999694675216","571.4999829679732","自己","正气","Positive","morality","","","","","","","","","","",""
"1187","","j","psychophysics","42","205427","0.0-7.0-3.0-0.28","3","3","3","3","3","4","4","4","4","4","4","1","1","-1","1","-1","1","1","1","4","4","4","4","4","4","4","4","4","4","4","4","5","5","3","4","4","5","5","5","3","5","3","5","3","5","3","3","3","1","3","3","5","3","3","5","5","6","3","5","3","3","3","3","3","5","3","5","6","5","6","5","3","5","3","5","3","5","3","5","650407062907387904","赵","637","Female","[""好她"",""好我"",""坏她"",""坏我""]","[""强她"",""强我"",""弱她"",""弱我""]","","","","","","","","yes","","","","","","","","","SRET","EW_formal","","key","j","15.624460431654592","1024.4999694675216","571.4999829679732","朋友","高尚","Positive","morality","","","","","","","","","","",""
"1309","","f","psychophysics","43","207737","0.0-7.0-3.0-0.29","3","3","3","3","3","4","4","4","4","4","4","1","1","-1","1","-1","1","1","1","4","4","4","4","4","4","4","4","4","4","4","4","5","5","3","4","4","5","5","5","3","5","3","5","3","5","3","3","3","1","3","3","5","3","3","5","5","6","3","5","3","3","3","3","3","5","3","5","6","5","6","5","3","5","3","5","3","5","3","5","650407062907387904","赵","637","Female","[""好她"",""好我"",""坏她"",""坏我""]","[""强她"",""强我"",""弱她"",""弱我""]","","","","","","","","no","","","","","","","","","SRET","EW_formal","","key","f","15.624489795918288","1024.4999694675216","571.4999829679732","朋友","逞能","Negative","ability","","","","","","","","","","",""
"950","","j","psychophysics","44","209689","0.0-7.0-3.0-0.30","3","3","3","3","3","4","4","4","4","4","4","1","1","-1","1","-1","1","1","1","4","4","4","4","4","4","4","4","4","4","4","4","5","5","3","4","4","5","5","5","3","5","3","5","3","5","3","3","3","1","3","3","5","3","3","5","5","6","3","5","3","3","3","3","3","5","3","5","6","5","6","5","3","5","3","5","3","5","3","5","650407062907387904","赵","637","Female","[""好她"",""好我"",""坏她"",""坏我""]","[""强她"",""强我"",""弱她"",""弱我""]","","","","","","","","yes","","","","","","","","","SRET","EW_formal","","key","j","15.62580645161295","1024.4999694675216","571.4999829679732","朋友","稳健","Positive","ability","","","","","","","","","","",""
"1317","","f","psychophysics","45","212009","0.0-7.0-3.0-0.31","3","3","3","3","3","4","4","4","4","4","4","1","1","-1","1","-1","1","1","1","4","4","4","4","4","4","4","4","4","4","4","4","5","5","3","4","4","5","5","5","3","5","3","5","3","5","3","3","3","1","3","3","5","3","3","5","5","6","3","5","3","3","3","3","3","5","3","5","6","5","6","5","3","5","3","5","3","5","3","5","650407062907387904","赵","637","Female","[""好她"",""好我"",""坏她"",""坏我""]","[""强她"",""强我"",""弱她"",""弱我""]","","","","","","","","no","","","","","","","","","SRET","EW_formal","","key","f","15.624489795918485","1024.4999694675216","571.4999829679732","自己","新手","Negative","ability","","","","","","","","","","",""
"1240","","f","psychophysics","46","214250","0.0-7.0-3.0-0.32","3","3","3","3","3","4","4","4","4","4","4","1","1","-1","1","-1","1","1","1","4","4","4","4","4","4","4","4","4","4","4","4","5","5","3","4","4","5","5","5","3","5","3","5","3","5","3","3","3","1","3","3","5","3","3","5","5","6","3","5","3","3","3","3","3","5","3","5","6","5","6","5","3","5","3","5","3","5","3","5","650407062907387904","赵","637","Female","[""好她"",""好我"",""坏她"",""坏我""]","[""强她"",""强我"",""弱她"",""弱我""]","","","","","","","","no","","","","","","","","","SRET","EW_formal","","key","f","15.625174825174987","1024.4999694675216","571.4999829679732","朋友","差生","Negative","ability","","","","","","","","","","",""
"1173","","f","psychophysics","47","216425","0.0-7.0-3.0-0.33","3","3","3","3","3","4","4","4","4","4","4","1","1","-1","1","-1","1","1","1","4","4","4","4","4","4","4","4","4","4","4","4","5","5","3","4","4","5","5","5","3","5","3","5","3","5","3","3","3","1","3","3","5","3","3","5","5","6","3","5","3","3","3","3","3","5","3","5","6","5","6","5","3","5","3","5","3","5","3","5","650407062907387904","赵","637","Female","[""好她"",""好我"",""坏她"",""坏我""]","[""强她"",""强我"",""弱她"",""弱我""]","","","","","","","","no","","","","","","","","","SRET","EW_formal","","key","f","15.624637681159504","1024.4999694675216","571.4999829679732","朋友","罪恶","Negative","morality","","","","","","","","","","",""
"871","","j","psychophysics","48","218299","0.0-7.0-3.0-0.34","3","3","3","3","3","4","4","4","4","4","4","1","1","-1","1","-1","1","1","1","4","4","4","4","4","4","4","4","4","4","4","4","5","5","3","4","4","5","5","5","3","5","3","5","3","5","3","3","3","1","3","3","5","3","3","5","5","6","3","5","3","3","3","3","3","5","3","5","6","5","6","5","3","5","3","5","3","5","3","5","650407062907387904","赵","637","Female","[""好她"",""好我"",""坏她"",""坏我""]","[""强她"",""强我"",""弱她"",""弱我""]","","","","","","","","yes","","","","","","","","","SRET","EW_formal","","key","j","15.624369747899062","1024.4999694675216","571.4999829679732","朋友","侠义","Positive","morality","","","","","","","","","","",""
"1077","","j","psychophysics","49","220378","0.0-7.0-3.0-0.35","3","3","3","3","3","4","4","4","4","4","4","1","1","-1","1","-1","1","1","1","4","4","4","4","4","4","4","4","4","4","4","4","5","5","3","4","4","5","5","5","3","5","3","5","3","5","3","3","3","1","3","3","5","3","3","5","5","6","3","5","3","3","3","3","3","5","3","5","6","5","6","5","3","5","3","5","3","5","3","5","650407062907387904","赵","637","Female","[""好她"",""好我"",""坏她"",""坏我""]","[""强她"",""强我"",""弱她"",""弱我""]","","","","","","","","yes","","","","","","","","","SRET","EW_formal","","key","j","15.625","1024.4999694675216","571.4999829679732","自己","守时","Positive","morality","","","","","","","","","","",""
"911","","j","psychophysics","50","222290","0.0-7.0-3.0-0.36","3","3","3","3","3","4","4","4","4","4","4","1","1","-1","1","-1","1","1","1","4","4","4","4","4","4","4","4","4","4","4","4","5","5","3","4","4","5","5","5","3","5","3","5","3","5","3","3","3","1","3","3","5","3","3","5","5","6","3","5","3","3","3","3","3","5","3","5","6","5","6","5","3","5","3","5","3","5","3","5","650407062907387904","赵","637","Female","[""好她"",""好我"",""坏她"",""坏我""]","[""强她"",""强我"",""弱她"",""弱我""]","","","","","","","","yes","","","","","","","","","SRET","EW_formal","","key","j","15.6247933884298","1024.4999694675216","571.4999829679732","自己","善良","Positive","morality","","","","","","","","","","",""
"818","","f","psychophysics","51","224110","0.0-7.0-3.0-0.37","3","3","3","3","3","4","4","4","4","4","4","1","1","-1","1","-1","1","1","1","4","4","4","4","4","4","4","4","4","4","4","4","5","5","3","4","4","5","5","5","3","5","3","5","3","5","3","3","3","1","3","3","5","3","3","5","5","6","3","5","3","3","3","3","3","5","3","5","6","5","6","5","3","5","3","5","3","5","3","5","650407062907387904","赵","637","Female","[""好她"",""好我"",""坏她"",""坏我""]","[""强她"",""强我"",""弱她"",""弱我""]","","","","","","","","no","","","","","","","","","SRET","EW_formal","","key","f","15.625862068965567","1024.4999694675216","571.4999829679732","自己","迂拙","Negative","ability","","","","","","","","","","",""
"818","","f","psychophysics","52","225930","0.0-7.0-3.0-0.38","3","3","3","3","3","4","4","4","4","4","4","1","1","-1","1","-1","1","1","1","4","4","4","4","4","4","4","4","4","4","4","4","5","5","3","4","4","5","5","5","3","5","3","5","3","5","3","3","3","1","3","3","5","3","3","5","5","6","3","5","3","3","3","3","3","5","3","5","6","5","6","5","3","5","3","5","3","5","3","5","650407062907387904","赵","637","Female","[""好她"",""好我"",""坏她"",""坏我""]","[""强她"",""强我"",""弱她"",""弱我""]","","","","","","","","no","","","","","","","","","SRET","EW_formal","","key","f","15.625217391304297","1024.4999694675216","571.4999829679732","自己","刻薄","Negative","morality","","","","","","","","","","",""
"837","","j","psychophysics","53","227768","0.0-7.0-3.0-0.39","3","3","3","3","3","4","4","4","4","4","4","1","1","-1","1","-1","1","1","1","4","4","4","4","4","4","4","4","4","4","4","4","5","5","3","4","4","5","5","5","3","5","3","5","3","5","3","3","3","1","3","3","5","3","3","5","5","6","3","5","3","3","3","3","3","5","3","5","6","5","6","5","3","5","3","5","3","5","3","5","650407062907387904","赵","637","Female","[""好她"",""好我"",""坏她"",""坏我""]","[""强她"",""强我"",""弱她"",""弱我""]","","","","","","","","yes","","","","","","","","","SRET","EW_formal","","key","j","15.624786324786125","1024.4999694675216","571.4999829679732","自己","孝顺","Positive","morality","","","","","","","","","","",""
"1089","","j","psychophysics","54","229859","0.0-7.0-3.0-0.40","3","3","3","3","3","4","4","4","4","4","4","1","1","-1","1","-1","1","1","1","4","4","4","4","4","4","4","4","4","4","4","4","5","5","3","4","4","5","5","5","3","5","3","5","3","5","3","3","3","1","3","3","5","3","3","5","5","6","3","5","3","3","3","3","3","5","3","5","6","5","6","5","3","5","3","5","3","5","3","5","650407062907387904","赵","637","Female","[""好她"",""好我"",""坏她"",""坏我""]","[""强她"",""强我"",""弱她"",""弱我""]","","","","","","","","yes","","","","","","","","","SRET","EW_formal","","key","j","15.624812030075232","1024.4999694675216","571.4999829679732","朋友","懂行","Positive","ability","","","","","","","","","","",""
"918","","j","psychophysics","55","231784","0.0-7.0-3.0-0.41","3","3","3","3","3","4","4","4","4","4","4","1","1","-1","1","-1","1","1","1","4","4","4","4","4","4","4","4","4","4","4","4","5","5","3","4","4","5","5","5","3","5","3","5","3","5","3","3","3","1","3","3","5","3","3","5","5","6","3","5","3","3","3","3","3","5","3","5","6","5","6","5","3","5","3","5","3","5","3","5","650407062907387904","赵","637","Female","[""好她"",""好我"",""坏她"",""坏我""]","[""强她"",""强我"",""弱她"",""弱我""]","","","","","","","","yes","","","","","","","","","SRET","EW_formal","","key","j","15.625409836065478","1024.4999694675216","571.4999829679732","朋友","谦逊","Positive","morality","","","","","","","","","","",""
"959","","j","psychophysics","56","233745","0.0-7.0-3.0-0.42","3","3","3","3","3","4","4","4","4","4","4","1","1","-1","1","-1","1","1","1","4","4","4","4","4","4","4","4","4","4","4","4","5","5","3","4","4","5","5","5","3","5","3","5","3","5","3","3","3","1","3","3","5","3","3","5","5","6","3","5","3","3","3","3","3","5","3","5","6","5","6","5","3","5","3","5","3","5","3","5","650407062907387904","赵","637","Female","[""好她"",""好我"",""坏她"",""坏我""]","[""强她"",""强我"",""弱她"",""弱我""]","","","","","","","","yes","","","","","","","","","SRET","EW_formal","","key","j","15.62580645161295","1024.4999694675216","571.4999829679732","朋友","专注","Positive","ability","","","","","","","","","","",""
"938","","f","psychophysics","57","235688","0.0-7.0-3.0-0.43","3","3","3","3","3","4","4","4","4","4","4","1","1","-1","1","-1","1","1","1","4","4","4","4","4","4","4","4","4","4","4","4","5","5","3","4","4","5","5","5","3","5","3","5","3","5","3","3","3","1","3","3","5","3","3","5","5","6","3","5","3","3","3","3","3","5","3","5","6","5","6","5","3","5","3","5","3","5","3","5","650407062907387904","赵","637","Female","[""好她"",""好我"",""坏她"",""坏我""]","[""强她"",""强我"",""弱她"",""弱我""]","","","","","","","","no","","","","","","","","","SRET","EW_formal","","key","f","15.625","1024.4999694675216","571.4999829679732","自己","恶劣","Negative","morality","","","","","","","","","","",""
"922","","f","psychophysics","58","237612","0.0-7.0-3.0-0.44","3","3","3","3","3","4","4","4","4","4","4","1","1","-1","1","-1","1","1","1","4","4","4","4","4","4","4","4","4","4","4","4","5","5","3","4","4","5","5","5","3","5","3","5","3","5","3","3","3","1","3","3","5","3","3","5","5","6","3","5","3","3","3","3","3","5","3","5","6","5","6","5","3","5","3","5","3","5","3","5","650407062907387904","赵","637","Female","[""好她"",""好我"",""坏她"",""坏我""]","[""强她"",""强我"",""弱她"",""弱我""]","","","","","","","","no","","","","","","","","","SRET","EW_formal","","key","f","15.625409836065478","1024.4999694675216","571.4999829679732","自己","无能","Negative","ability","","","","","","","","","","",""
"918","","j","psychophysics","59","239532","0.0-7.0-3.0-0.45","3","3","3","3","3","4","4","4","4","4","4","1","1","-1","1","-1","1","1","1","4","4","4","4","4","4","4","4","4","4","4","4","5","5","3","4","4","5","5","5","3","5","3","5","3","5","3","3","3","1","3","3","5","3","3","5","5","6","3","5","3","3","3","3","3","5","3","5","6","5","6","5","3","5","3","5","3","5","3","5","650407062907387904","赵","637","Female","[""好她"",""好我"",""坏她"",""坏我""]","[""强她"",""强我"",""弱她"",""弱我""]","","","","","","","","yes","","","","","","","","","SRET","EW_formal","","key","j","15.624590163934283","1024.4999694675216","571.4999829679732","自己","聪明","Positive","ability","","","","","","","","","","",""
"955","","f","psychophysics","60","241488","0.0-7.0-3.0-0.46","3","3","3","3","3","4","4","4","4","4","4","1","1","-1","1","-1","1","1","1","4","4","4","4","4","4","4","4","4","4","4","4","5","5","3","4","4","5","5","5","3","5","3","5","3","5","3","3","3","1","3","3","5","3","3","5","5","6","3","5","3","3","3","3","3","5","3","5","6","5","6","5","3","5","3","5","3","5","3","5","650407062907387904","赵","637","Female","[""好她"",""好我"",""坏她"",""坏我""]","[""强她"",""强我"",""弱她"",""弱我""]","","","","","","","","no","","","","","","","","","SRET","EW_formal","","key","f","15.625","1024.4999694675216","571.4999829679732","朋友","慈悲","Positive","morality","","","","","","","","","","",""
"1030","","j","psychophysics","61","243522","0.0-7.0-3.0-0.47","3","3","3","3","3","4","4","4","4","4","4","1","1","-1","1","-1","1","1","1","4","4","4","4","4","4","4","4","4","4","4","4","5","5","3","4","4","5","5","5","3","5","3","5","3","5","3","3","3","1","3","3","5","3","3","5","5","6","3","5","3","3","3","3","3","5","3","5","6","5","6","5","3","5","3","5","3","5","3","5","650407062907387904","赵","637","Female","[""好她"",""好我"",""坏她"",""坏我""]","[""强她"",""强我"",""弱她"",""弱我""]","","","","","","","","yes","","","","","","","","","SRET","EW_formal","","key","j","15.624806201550207","1024.4999694675216","571.4999829679732","自己","顶事","Positive","ability","","","","","","","","","","",""
"1213","","j","psychophysics","62","245737","0.0-7.0-3.0-0.48","3","3","3","3","3","4","4","4","4","4","4","1","1","-1","1","-1","1","1","1","4","4","4","4","4","4","4","4","4","4","4","4","5","5","3","4","4","5","5","5","3","5","3","5","3","5","3","3","3","1","3","3","5","3","3","5","5","6","3","5","3","3","3","3","3","5","3","5","6","5","6","5","3","5","3","5","3","5","3","5","650407062907387904","赵","637","Female","[""好她"",""好我"",""坏她"",""坏我""]","[""强她"",""强我"",""弱她"",""弱我""]","","","","","","","","yes","","","","","","","","","SRET","EW_formal","","key","j","15.624822695035503","1024.4999694675216","571.4999829679732","朋友","爱国","Positive","morality","","","","","","","","","","",""
"997","","f","psychophysics","63","247737","0.0-7.0-3.0-0.49","3","3","3","3","3","4","4","4","4","4","4","1","1","-1","1","-1","1","1","1","4","4","4","4","4","4","4","4","4","4","4","4","5","5","3","4","4","5","5","5","3","5","3","5","3","5","3","3","3","1","3","3","5","3","3","5","5","6","3","5","3","3","3","3","3","5","3","5","6","5","6","5","3","5","3","5","3","5","3","5","650407062907387904","赵","637","Female","[""好她"",""好我"",""坏她"",""坏我""]","[""强她"",""强我"",""弱她"",""弱我""]","","","","","","","","no","","","","","","","","","SRET","EW_formal","","key","f","15.625196850393655","1024.4999694675216","571.4999829679732","朋友","不仁","Negative","morality","","","","","","","","","","",""
"941","","f","psychophysics","64","249681","0.0-7.0-3.0-0.50","3","3","3","3","3","4","4","4","4","4","4","1","1","-1","1","-1","1","1","1","4","4","4","4","4","4","4","4","4","4","4","4","5","5","3","4","4","5","5","5","3","5","3","5","3","5","3","3","3","1","3","3","5","3","3","5","5","6","3","5","3","3","3","3","3","5","3","5","6","5","6","5","3","5","3","5","3","5","3","5","650407062907387904","赵","637","Female","[""好她"",""好我"",""坏她"",""坏我""]","[""强她"",""强我"",""弱她"",""弱我""]","","","","","","","","no","","","","","","","","","SRET","EW_formal","","key","f","15.625203252032472","1024.4999694675216","571.4999829679732","朋友","不端","Negative","morality","","","","","","","","","","",""
"1070","","f","psychophysics","65","251753","0.0-7.0-3.0-0.51","3","3","3","3","3","4","4","4","4","4","4","1","1","-1","1","-1","1","1","1","4","4","4","4","4","4","4","4","4","4","4","4","5","5","3","4","4","5","5","5","3","5","3","5","3","5","3","3","3","1","3","3","5","3","3","5","5","6","3","5","3","3","3","3","3","5","3","5","6","5","6","5","3","5","3","5","3","5","3","5","650407062907387904","赵","637","Female","[""好她"",""好我"",""坏她"",""坏我""]","[""强她"",""强我"",""弱她"",""弱我""]","","","","","","","","no","","","","","","","","","SRET","EW_formal","","key","f","15.62424242424238","1024.4999694675216","571.4999829679732","朋友","无知","Negative","ability","","","","","","","","","","",""
"878","","f","psychophysics","66","253633","0.0-7.0-3.0-0.52","3","3","3","3","3","4","4","4","4","4","4","1","1","-1","1","-1","1","1","1","4","4","4","4","4","4","4","4","4","4","4","4","5","5","3","4","4","5","5","5","3","5","3","5","3","5","3","3","3","1","3","3","5","3","3","5","5","6","3","5","3","3","3","3","3","5","3","5","6","5","6","5","3","5","3","5","3","5","3","5","650407062907387904","赵","637","Female","[""好她"",""好我"",""坏她"",""坏我""]","[""强她"",""强我"",""弱她"",""弱我""]","","","","","","","","no","","","","","","","","","SRET","EW_formal","","key","f","15.625210084033808","1024.4999694675216","571.4999829679732","朋友","昏庸","Negative","ability","","","","","","","","","","",""
"820","","j","psychophysics","67","255454","0.0-7.0-3.0-0.53","3","3","3","3","3","4","4","4","4","4","4","1","1","-1","1","-1","1","1","1","4","4","4","4","4","4","4","4","4","4","4","4","5","5","3","4","4","5","5","5","3","5","3","5","3","5","3","3","3","1","3","3","5","3","3","5","5","6","3","5","3","3","3","3","3","5","3","5","6","5","6","5","3","5","3","5","3","5","3","5","650407062907387904","赵","637","Female","[""好她"",""好我"",""坏她"",""坏我""]","[""强她"",""强我"",""弱她"",""弱我""]","","","","","","","","yes","","","","","","","","","SRET","EW_formal","","key","j","15.625862068965317","1024.4999694675216","571.4999829679732","自己","礼貌","Positive","morality","","","","","","","","","","",""
"1256","","j","psychophysics","68","257713","0.0-7.0-3.0-0.54","3","3","3","3","3","4","4","4","4","4","4","1","1","-1","1","-1","1","1","1","4","4","4","4","4","4","4","4","4","4","4","4","5","5","3","4","4","5","5","5","3","5","3","5","3","5","3","3","3","1","3","3","5","3","3","5","5","6","3","5","3","3","3","3","3","5","3","5","6","5","6","5","3","5","3","5","3","5","3","5","650407062907387904","赵","637","Female","[""好她"",""好我"",""坏她"",""坏我""]","[""强她"",""强我"",""弱她"",""弱我""]","","","","","","","","yes","","","","","","","","","SRET","EW_formal","","key","j","15.625174825174785","1024.4999694675216","571.4999829679732","朋友","宽容","Positive","morality","","","","","","","","","","",""
"1354","","f","psychophysics","69","260073","0.0-7.0-3.0-0.55","3","3","3","3","3","4","4","4","4","4","4","1","1","-1","1","-1","1","1","1","4","4","4","4","4","4","4","4","4","4","4","4","5","5","3","4","4","5","5","5","3","5","3","5","3","5","3","3","3","1","3","3","5","3","3","5","5","6","3","5","3","3","3","3","3","5","3","5","6","5","6","5","3","5","3","5","3","5","3","5","650407062907387904","赵","637","Female","[""好她"",""好我"",""坏她"",""坏我""]","[""强她"",""强我"",""弱她"",""弱我""]","","","","","","","","no","","","","","","","","","SRET","EW_formal","","key","f","15.62466666666655","1024.4999694675216","571.4999829679732","自己","高明","Positive","ability","","","","","","","","","","",""
"1045","","f","psychophysics","70","262126","0.0-7.0-3.0-0.56","3","3","3","3","3","4","4","4","4","4","4","1","1","-1","1","-1","1","1","1","4","4","4","4","4","4","4","4","4","4","4","4","5","5","3","4","4","5","5","5","3","5","3","5","3","5","3","3","3","1","3","3","5","3","3","5","5","6","3","5","3","3","3","3","3","5","3","5","6","5","6","5","3","5","3","5","3","5","3","5","650407062907387904","赵","637","Female","[""好她"",""好我"",""坏她"",""坏我""]","[""强她"",""强我"",""弱她"",""弱我""]","","","","","","","","no","","","","","","","","","SRET","EW_formal","","key","f","15.624427480915942","1024.4999694675216","571.4999829679732","朋友","失信","Negative","morality","","","","","","","","","","",""
"857","","j","psychophysics","71","263986","0.0-7.0-3.0-0.57","3","3","3","3","3","4","4","4","4","4","4","1","1","-1","1","-1","1","1","1","4","4","4","4","4","4","4","4","4","4","4","4","5","5","3","4","4","5","5","5","3","5","3","5","3","5","3","3","3","1","3","3","5","3","3","5","5","6","3","5","3","3","3","3","3","5","3","5","6","5","6","5","3","5","3","5","3","5","3","5","650407062907387904","赵","637","Female","[""好她"",""好我"",""坏她"",""坏我""]","[""强她"",""强我"",""弱她"",""弱我""]","","","","","","","","yes","","","","","","","","","SRET","EW_formal","","key","j","15.62457627118654","1024.4999694675216","571.4999829679732","朋友","远见","Positive","ability","","","","","","","","","","",""
"974","","j","psychophysics","72","265962","0.0-7.0-3.0-0.58","3","3","3","3","3","4","4","4","4","4","4","1","1","-1","1","-1","1","1","1","4","4","4","4","4","4","4","4","4","4","4","4","5","5","3","4","4","5","5","5","3","5","3","5","3","5","3","3","3","1","3","3","5","3","3","5","5","6","3","5","3","3","3","3","3","5","3","5","6","5","6","5","3","5","3","5","3","5","3","5","650407062907387904","赵","637","Female","[""好她"",""好我"",""坏她"",""坏我""]","[""强她"",""强我"",""弱她"",""弱我""]","","","","","","","","yes","","","","","","","","","SRET","EW_formal","","key","j","15.624799999999814","1024.4999694675216","571.4999829679732","朋友","独立","Positive","ability","","","","","","","","","","",""
"1118","","j","psychophysics","73","268081","0.0-7.0-3.0-0.59","3","3","3","3","3","4","4","4","4","4","4","1","1","-1","1","-1","1","1","1","4","4","4","4","4","4","4","4","4","4","4","4","5","5","3","4","4","5","5","5","3","5","3","5","3","5","3","3","3","1","3","3","5","3","3","5","5","6","3","5","3","3","3","3","3","5","3","5","6","5","6","5","3","5","3","5","3","5","3","5","650407062907387904","赵","637","Female","[""好她"",""好我"",""坏她"",""坏我""]","[""强她"",""强我"",""弱她"",""弱我""]","","","","","","","","yes","","","","","","","","","SRET","EW_formal","","key","j","15.625185185184927","1024.4999694675216","571.4999829679732","朋友","周到","Positive","ability","","","","","","","","","","",""
"792","","f","psychophysics","74","269876","0.0-7.0-3.0-0.60","3","3","3","3","3","4","4","4","4","4","4","1","1","-1","1","-1","1","1","1","4","4","4","4","4","4","4","4","4","4","4","4","5","5","3","4","4","5","5","5","3","5","3","5","3","5","3","3","3","1","3","3","5","3","3","5","5","6","3","5","3","3","3","3","3","5","3","5","6","5","6","5","3","5","3","5","3","5","3","5","650407062907387904","赵","637","Female","[""好她"",""好我"",""坏她"",""坏我""]","[""强她"",""强我"",""弱她"",""弱我""]","","","","","","","","no","","","","","","","","","SRET","EW_formal","","key","f","15.625438596491126","1024.4999694675216","571.4999829679732","自己","歹毒","Negative","morality","","","","","","","","","","",""
"1249","","f","psychophysics","75","272126","0.0-7.0-3.0-0.61","3","3","3","3","3","4","4","4","4","4","4","1","1","-1","1","-1","1","1","1","4","4","4","4","4","4","4","4","4","4","4","4","5","5","3","4","4","5","5","5","3","5","3","5","3","5","3","3","3","1","3","3","5","3","3","5","5","6","3","5","3","3","3","3","3","5","3","5","6","5","6","5","3","5","3","5","3","5","3","5","650407062907387904","赵","637","Female","[""好她"",""好我"",""坏她"",""坏我""]","[""强她"",""强我"",""弱她"",""弱我""]","","","","","","","","no","","","","","","","","","SRET","EW_formal","","key","f","15.624475524475443","1024.4999694675216","571.4999829679732","朋友","龌龊","Negative","morality","","","","","","","","","","",""
"921","","f","psychophysics","76","274049","0.0-7.0-3.0-0.62","3","3","3","3","3","4","4","4","4","4","4","1","1","-1","1","-1","1","1","1","4","4","4","4","4","4","4","4","4","4","4","4","5","5","3","4","4","5","5","5","3","5","3","5","3","5","3","3","3","1","3","3","5","3","3","5","5","6","3","5","3","3","3","3","3","5","3","5","6","5","6","5","3","5","3","5","3","5","3","5","650407062907387904","赵","637","Female","[""好她"",""好我"",""坏她"",""坏我""]","[""强她"",""强我"",""弱她"",""弱我""]","","","","","","","","no","","","","","","","","","SRET","EW_formal","","key","f","15.624590163934522","1024.4999694675216","571.4999829679732","自己","无耻","Negative","morality","","","","","","","","","","",""
"842","","f","psychophysics","77","275893","0.0-7.0-3.0-0.63","3","3","3","3","3","4","4","4","4","4","4","1","1","-1","1","-1","1","1","1","4","4","4","4","4","4","4","4","4","4","4","4","5","5","3","4","4","5","5","5","3","5","3","5","3","5","3","3","3","1","3","3","5","3","3","5","5","6","3","5","3","3","3","3","3","5","3","5","6","5","6","5","3","5","3","5","3","5","3","5","650407062907387904","赵","637","Female","[""好她"",""好我"",""坏她"",""坏我""]","[""强她"",""强我"",""弱她"",""弱我""]","","","","","","","","no","","","","","","","","","SRET","EW_formal","","key","f","15.623931623931623","1024.4999694675216","571.4999829679732","朋友","虚假","Negative","morality","","","","","","","","","","",""
"780","","j","psychophysics","78","277675","0.0-7.0-3.0-0.64","3","3","3","3","3","4","4","4","4","4","4","1","1","-1","1","-1","1","1","1","4","4","4","4","4","4","4","4","4","4","4","4","5","5","3","4","4","5","5","5","3","5","3","5","3","5","3","3","3","1","3","3","5","3","3","5","5","6","3","5","3","3","3","3","3","5","3","5","6","5","6","5","3","5","3","5","3","5","3","5","650407062907387904","赵","637","Female","[""好她"",""好我"",""坏她"",""坏我""]","[""强她"",""强我"",""弱她"",""弱我""]","","","","","","","","yes","","","","","","","","","SRET","EW_formal","","key","j","15.62477876106174","1024.4999694675216","571.4999829679732","朋友","义气","Positive","morality","","","","","","","","","","",""
"781","","j","psychophysics","79","279457","0.0-7.0-3.0-0.65","3","3","3","3","3","4","4","4","4","4","4","1","1","-1","1","-1","1","1","1","4","4","4","4","4","4","4","4","4","4","4","4","5","5","3","4","4","5","5","5","3","5","3","5","3","5","3","3","3","1","3","3","5","3","3","5","5","6","3","5","3","3","3","3","3","5","3","5","6","5","6","5","3","5","3","5","3","5","3","5","650407062907387904","赵","637","Female","[""好她"",""好我"",""坏她"",""坏我""]","[""强她"",""强我"",""弱她"",""弱我""]","","","","","","","","yes","","","","","","","","","SRET","EW_formal","","key","j","15.62477876106174","1024.4999694675216","571.4999829679732","朋友","果断","Positive","ability","","","","","","","","","","",""
"777","","f","psychophysics","80","281237","0.0-7.0-3.0-0.66","3","3","3","3","3","4","4","4","4","4","4","1","1","-1","1","-1","1","1","1","4","4","4","4","4","4","4","4","4","4","4","4","5","5","3","4","4","5","5","5","3","5","3","5","3","5","3","3","3","1","3","3","5","3","3","5","5","6","3","5","3","3","3","3","3","5","3","5","6","5","6","5","3","5","3","5","3","5","3","5","650407062907387904","赵","637","Female","[""好她"",""好我"",""坏她"",""坏我""]","[""强她"",""强我"",""弱她"",""弱我""]","","","","","","","","no","","","","","","","","","SRET","EW_formal","","key","f","15.625663716813747","1024.4999694675216","571.4999829679732","自己","虚伪","Negative","morality","","","","","","","","","","",""
"983","","j","psychophysics","81","283222","0.0-7.0-3.0-0.67","3","3","3","3","3","4","4","4","4","4","4","1","1","-1","1","-1","1","1","1","4","4","4","4","4","4","4","4","4","4","4","4","5","5","3","4","4","5","5","5","3","5","3","5","3","5","3","3","3","1","3","3","5","3","3","5","5","6","3","5","3","3","3","3","3","5","3","5","6","5","6","5","3","5","3","5","3","5","3","5","650407062907387904","赵","637","Female","[""好她"",""好我"",""坏她"",""坏我""]","[""强她"",""强我"",""弱她"",""弱我""]","","","","","","","","yes","","","","","","","","","SRET","EW_formal","","key","j","15.625396825397194","1024.4999694675216","571.4999829679732","朋友","阴毒","Negative","morality","","","","","","","","","","",""
"841","","f","psychophysics","82","285065","0.0-7.0-3.0-0.68","3","3","3","3","3","4","4","4","4","4","4","1","1","-1","1","-1","1","1","1","4","4","4","4","4","4","4","4","4","4","4","4","5","5","3","4","4","5","5","5","3","5","3","5","3","5","3","3","3","1","3","3","5","3","3","5","5","6","3","5","3","3","3","3","3","5","3","5","6","5","6","5","3","5","3","5","3","5","3","5","650407062907387904","赵","637","Female","[""好她"",""好我"",""坏她"",""坏我""]","[""强她"",""强我"",""弱她"",""弱我""]","","","","","","","","no","","","","","","","","","SRET","EW_formal","","key","f","15.623931623931623","1024.4999694675216","571.4999829679732","朋友","短视","Negative","ability","","","","","","","","","","",""
"1280","","f","psychophysics","83","287347","0.0-7.0-3.0-0.69","3","3","3","3","3","4","4","4","4","4","4","1","1","-1","1","-1","1","1","1","4","4","4","4","4","4","4","4","4","4","4","4","5","5","3","4","4","5","5","5","3","5","3","5","3","5","3","3","3","1","3","3","5","3","3","5","5","6","3","5","3","3","3","3","3","5","3","5","6","5","6","5","3","5","3","5","3","5","3","5","650407062907387904","赵","637","Female","[""好她"",""好我"",""坏她"",""坏我""]","[""强她"",""强我"",""弱她"",""弱我""]","","","","","","","","no","","","","","","","","","SRET","EW_formal","","key","f","15.624827586207138","1024.4999694675216","571.4999829679732","自己","才尽","Negative","ability","","","","","","","","","","",""
"908","","j","psychophysics","84","289258","0.0-7.0-3.0-0.70","3","3","3","3","3","4","4","4","4","4","4","1","1","-1","1","-1","1","1","1","4","4","4","4","4","4","4","4","4","4","4","4","5","5","3","4","4","5","5","5","3","5","3","5","3","5","3","3","3","1","3","3","5","3","3","5","5","6","3","5","3","3","3","3","3","5","3","5","6","5","6","5","3","5","3","5","3","5","3","5","650407062907387904","赵","637","Female","[""好她"",""好我"",""坏她"",""坏我""]","[""强她"",""强我"",""弱她"",""弱我""]","","","","","","","","yes","","","","","","","","","SRET","EW_formal","","key","j","15.62479338842956","1024.4999694675216","571.4999829679732","自己","奉献","Positive","morality","","","","","","","","","","",""
"1056","","j","psychophysics","85","291315","0.0-7.0-3.0-0.71","3","3","3","3","3","4","4","4","4","4","4","1","1","-1","1","-1","1","1","1","4","4","4","4","4","4","4","4","4","4","4","4","5","5","3","4","4","5","5","5","3","5","3","5","3","5","3","3","3","1","3","3","5","3","3","5","5","6","3","5","3","3","3","3","3","5","3","5","6","5","6","5","3","5","3","5","3","5","3","5","650407062907387904","赵","637","Female","[""好她"",""好我"",""坏她"",""坏我""]","[""强她"",""强我"",""弱她"",""弱我""]","","","","","","","","yes","","","","","","","","","SRET","EW_formal","","key","j","15.624427480915942","1024.4999694675216","571.4999829679732","自己","高效","Positive","ability","","","","","","","","","","",""
"841","","f","psychophysics","86","293159","0.0-7.0-3.0-0.72","3","3","3","3","3","4","4","4","4","4","4","1","1","-1","1","-1","1","1","1","4","4","4","4","4","4","4","4","4","4","4","4","5","5","3","4","4","5","5","5","3","5","3","5","3","5","3","3","3","1","3","3","5","3","3","5","5","6","3","5","3","3","3","3","3","5","3","5","6","5","6","5","3","5","3","5","3","5","3","5","650407062907387904","赵","637","Female","[""好她"",""好我"",""坏她"",""坏我""]","[""强她"",""强我"",""弱她"",""弱我""]","","","","","","","","no","","","","","","","","","SRET","EW_formal","","key","f","15.624786324786623","1024.4999694675216","571.4999829679732","自己","不良","Negative","morality","","","","","","","","","","",""
"1009","","j","psychophysics","87","295177","0.0-7.0-3.0-0.73","3","3","3","3","3","4","4","4","4","4","4","1","1","-1","1","-1","1","1","1","4","4","4","4","4","4","4","4","4","4","4","4","5","5","3","4","4","5","5","5","3","5","3","5","3","5","3","3","3","1","3","3","5","3","3","5","5","6","3","5","3","3","3","3","3","5","3","5","6","5","6","5","3","5","3","5","3","5","3","5","650407062907387904","赵","637","Female","[""好她"",""好我"",""坏她"",""坏我""]","[""强她"",""强我"",""弱她"",""弱我""]","","","","","","","","yes","","","","","","","","","SRET","EW_formal","","key","j","15.625","1024.4999694675216","571.4999829679732","朋友","娴熟","Positive","ability","","","","","","","","","","",""
"816","","f","psychophysics","88","296994","0.0-7.0-3.0-0.74","3","3","3","3","3","4","4","4","4","4","4","1","1","-1","1","-1","1","1","1","4","4","4","4","4","4","4","4","4","4","4","4","5","5","3","4","4","5","5","5","3","5","3","5","3","5","3","3","3","1","3","3","5","3","3","5","5","6","3","5","3","3","3","3","3","5","3","5","6","5","6","5","3","5","3","5","3","5","3","5","650407062907387904","赵","637","Female","[""好她"",""好我"",""坏她"",""坏我""]","[""强她"",""强我"",""弱她"",""弱我""]","","","","","","","","no","","","","","","","","","SRET","EW_formal","","key","f","15.624347826086856","1024.4999694675216","571.4999829679732","自己","拙笨","Negative","ability","","","","","","","","","","",""
"950","","f","psychophysics","89","298946","0.0-7.0-3.0-0.75","3","3","3","3","3","4","4","4","4","4","4","1","1","-1","1","-1","1","1","1","4","4","4","4","4","4","4","4","4","4","4","4","5","5","3","4","4","5","5","5","3","5","3","5","3","5","3","3","3","1","3","3","5","3","3","5","5","6","3","5","3","3","3","3","3","5","3","5","6","5","6","5","3","5","3","5","3","5","3","5","650407062907387904","赵","637","Female","[""好她"",""好我"",""坏她"",""坏我""]","[""强她"",""强我"",""弱她"",""弱我""]","","","","","","","","no","","","","","","","","","SRET","EW_formal","","key","f","15.625","1024.4999694675216","571.4999829679732","自己","混账","Negative","morality","","","","","","","","","","",""
"814","","j","psychophysics","90","300761","0.0-7.0-3.0-0.76","3","3","3","3","3","4","4","4","4","4","4","1","1","-1","1","-1","1","1","1","4","4","4","4","4","4","4","4","4","4","4","4","5","5","3","4","4","5","5","5","3","5","3","5","3","5","3","3","3","1","3","3","5","3","3","5","5","6","3","5","3","3","3","3","3","5","3","5","6","5","6","5","3","5","3","5","3","5","3","5","650407062907387904","赵","637","Female","[""好她"",""好我"",""坏她"",""坏我""]","[""强她"",""强我"",""弱她"",""弱我""]","","","","","","","","yes","","","","","","","","","SRET","EW_formal","","key","j","15.626086956521739","1024.4999694675216","571.4999829679732","自己","廉正","Positive","morality","","","","","","","","","","",""
"1027","","f","psychophysics","91","302794","0.0-7.0-3.0-0.77","3","3","3","3","3","4","4","4","4","4","4","1","1","-1","1","-1","1","1","1","4","4","4","4","4","4","4","4","4","4","4","4","5","5","3","4","4","5","5","5","3","5","3","5","3","5","3","3","3","1","3","3","5","3","3","5","5","6","3","5","3","3","3","3","3","5","3","5","6","5","6","5","3","5","3","5","3","5","3","5","650407062907387904","赵","637","Female","[""好她"",""好我"",""坏她"",""坏我""]","[""强她"",""强我"",""弱她"",""弱我""]","","","","","","","","no","","","","","","","","","SRET","EW_formal","","key","f","15.624806201550658","1024.4999694675216","571.4999829679732","自己","博学","Positive","ability","","","","","","","","","","",""
"1443","","j","psychophysics","92","305241","0.0-7.0-3.0-0.78","3","3","3","3","3","4","4","4","4","4","4","1","1","-1","1","-1","1","1","1","4","4","4","4","4","4","4","4","4","4","4","4","5","5","3","4","4","5","5","5","3","5","3","5","3","5","3","3","3","1","3","3","5","3","3","5","5","6","3","5","3","3","3","3","3","5","3","5","6","5","6","5","3","5","3","5","3","5","3","5","650407062907387904","赵","637","Female","[""好她"",""好我"",""坏她"",""坏我""]","[""强她"",""强我"",""弱她"",""弱我""]","","","","","","","","yes","","","","","","","","","SRET","EW_formal","","key","j","15.625","1024.4999694675216","571.4999829679732","朋友","全才","Positive","ability","","","","","","","","","","",""
"1039","","j","psychophysics","93","307283","0.0-7.0-3.0-0.79","3","3","3","3","3","4","4","4","4","4","4","1","1","-1","1","-1","1","1","1","4","4","4","4","4","4","4","4","4","4","4","4","5","5","3","4","4","5","5","5","3","5","3","5","3","5","3","3","3","1","3","3","5","3","3","5","5","6","3","5","3","3","3","3","3","5","3","5","6","5","6","5","3","5","3","5","3","5","3","5","650407062907387904","赵","637","Female","[""好她"",""好我"",""坏她"",""坏我""]","[""强她"",""强我"",""弱她"",""弱我""]","","","","","","","","yes","","","","","","","","","SRET","EW_formal","","key","j","15.625384615384974","1024.4999694675216","571.4999829679732","自己","忠义","Positive","morality","","","","","","","","","","",""
"1283","","j","psychophysics","94","309569","0.0-7.0-3.0-0.80","3","3","3","3","3","4","4","4","4","4","4","1","1","-1","1","-1","1","1","1","4","4","4","4","4","4","4","4","4","4","4","4","5","5","3","4","4","5","5","5","3","5","3","5","3","5","3","3","3","1","3","3","5","3","3","5","5","6","3","5","3","3","3","3","3","5","3","5","6","5","6","5","3","5","3","5","3","5","3","5","650407062907387904","赵","637","Female","[""好她"",""好我"",""坏她"",""坏我""]","[""强她"",""强我"",""弱她"",""弱我""]","","","","","","","","yes","","","","","","","","","SRET","EW_formal","","key","j","15.625517241379391","1024.4999694675216","571.4999829679732","自己","业余","Negative","ability","","","","","","","","","","",""
"822","","f","psychophysics","95","311394","0.0-7.0-3.0-0.81","3","3","3","3","3","4","4","4","4","4","4","1","1","-1","1","-1","1","1","1","4","4","4","4","4","4","4","4","4","4","4","4","5","5","3","4","4","5","5","5","3","5","3","5","3","5","3","3","3","1","3","3","5","3","3","5","5","6","3","5","3","3","3","3","3","5","3","5","6","5","6","5","3","5","3","5","3","5","3","5","650407062907387904","赵","637","Female","[""好她"",""好我"",""坏她"",""坏我""]","[""强她"",""强我"",""弱她"",""弱我""]","","","","","","","","no","","","","","","","","","SRET","EW_formal","","key","f","15.625","1024.4999694675216","571.4999829679732","自己","短浅","Negative","ability","","","","","","","","","","",""
"1027","","j","psychophysics","96","313423","0.0-7.0-3.0-0.82","3","3","3","3","3","4","4","4","4","4","4","1","1","-1","1","-1","1","1","1","4","4","4","4","4","4","4","4","4","4","4","4","5","5","3","4","4","5","5","5","3","5","3","5","3","5","3","3","3","1","3","3","5","3","3","5","5","6","3","5","3","3","3","3","3","5","3","5","6","5","6","5","3","5","3","5","3","5","3","5","650407062907387904","赵","637","Female","[""好她"",""好我"",""坏她"",""坏我""]","[""强她"",""强我"",""弱她"",""弱我""]","","","","","","","","yes","","","","","","","","","SRET","EW_formal","","key","j","15.624806201550207","1024.4999694675216","571.4999829679732","朋友","守法","Positive","morality","","","","","","","","","","",""
"927","","f","psychophysics","97","315354","0.0-7.0-3.0-0.83","3","3","3","3","3","4","4","4","4","4","4","1","1","-1","1","-1","1","1","1","4","4","4","4","4","4","4","4","4","4","4","4","5","5","3","4","4","5","5","5","3","5","3","5","3","5","3","3","3","1","3","3","5","3","3","5","5","6","3","5","3","3","3","3","3","5","3","5","6","5","6","5","3","5","3","5","3","5","3","5","650407062907387904","赵","637","Female","[""好她"",""好我"",""坏她"",""坏我""]","[""强她"",""强我"",""弱她"",""弱我""]","","","","","","","","no","","","","","","","","","SRET","EW_formal","","key","f","15.624590163934522","1024.4999694675216","571.4999829679732","朋友","贪污","Negative","morality","","","","","","","","","","",""
"975","","f","psychophysics","98","317330","0.0-7.0-3.0-0.84","3","3","3","3","3","4","4","4","4","4","4","1","1","-1","1","-1","1","1","1","4","4","4","4","4","4","4","4","4","4","4","4","5","5","3","4","4","5","5","5","3","5","3","5","3","5","3","3","3","1","3","3","5","3","3","5","5","6","3","5","3","3","3","3","3","5","3","5","6","5","6","5","3","5","3","5","3","5","3","5","650407062907387904","赵","637","Female","[""好她"",""好我"",""坏她"",""坏我""]","[""强她"",""强我"",""弱她"",""弱我""]","","","","","","","","no","","","","","","","","","SRET","EW_formal","","key","f","15.625396825396733","1024.4999694675216","571.4999829679732","朋友","低俗","Negative","morality","","","","","","","","","","",""
"958","","j","psychophysics","99","319289","0.0-7.0-3.0-0.85","3","3","3","3","3","4","4","4","4","4","4","1","1","-1","1","-1","1","1","1","4","4","4","4","4","4","4","4","4","4","4","4","5","5","3","4","4","5","5","5","3","5","3","5","3","5","3","3","3","1","3","3","5","3","3","5","5","6","3","5","3","3","3","3","3","5","3","5","6","5","6","5","3","5","3","5","3","5","3","5","650407062907387904","赵","637","Female","[""好她"",""好我"",""坏她"",""坏我""]","[""强她"",""强我"",""弱她"",""弱我""]","","","","","","","","yes","","","","","","","","","SRET","EW_formal","","key","j","15.625","1024.4999694675216","571.4999829679732","朋友","素养","Positive","morality","","","","","","","","","","",""
"1062","","j","psychophysics","100","321354","0.0-7.0-3.0-0.86","3","3","3","3","3","4","4","4","4","4","4","1","1","-1","1","-1","1","1","1","4","4","4","4","4","4","4","4","4","4","4","4","5","5","3","4","4","5","5","5","3","5","3","5","3","5","3","3","3","1","3","3","5","3","3","5","5","6","3","5","3","3","3","3","3","5","3","5","6","5","6","5","3","5","3","5","3","5","3","5","650407062907387904","赵","637","Female","[""好她"",""好我"",""坏她"",""坏我""]","[""强她"",""强我"",""弱她"",""弱我""]","","","","","","","","yes","","","","","","","","","SRET","EW_formal","","key","j","15.625190839694834","1024.4999694675216","571.4999829679732","自己","缓慢","Negative","ability","","","","","","","","","","",""
"959","","j","psychophysics","101","323321","0.0-7.0-3.0-0.87","3","3","3","3","3","4","4","4","4","4","4","1","1","-1","1","-1","1","1","1","4","4","4","4","4","4","4","4","4","4","4","4","5","5","3","4","4","5","5","5","3","5","3","5","3","5","3","3","3","1","3","3","5","3","3","5","5","6","3","5","3","3","3","3","3","5","3","5","6","5","6","5","3","5","3","5","3","5","3","5","650407062907387904","赵","637","Female","[""好她"",""好我"",""坏她"",""坏我""]","[""强她"",""强我"",""弱她"",""弱我""]","","","","","","","","yes","","","","","","","","","SRET","EW_formal","","key","j","15.625600000000093","1024.4999694675216","571.4999829679732","自己","主见","Positive","ability","","","","","","","","","","",""
"2562","
    <p><div style='color:white;font-size:35px; line-height:20px;'>计算任务</div></p><br>
    <p><div style='color:red;font-size:25px; line-height:20px;'>接下来，您将看到一些四则运算题，<b>请从键盘选择 0-9 进行反应。</b></div></p>
    <p><div style='color:red;font-size:25px; line-height:20px;'>请尽可能快地进行计算，计算的速度和正确率将影响报酬的发放。</div></p>
    <p><div class='footer' style='color:white;font-size:25px; line-height:20px;'>如果对本实验还有不清楚之处，请立即向实验员咨询。</p><p style='color:white;font-size:25px; line-height:20px;'>如果您明白了规则：</p><p style='color:white;font-size:22px; line-height:20px;'>请按 继续 进入练习</p>
    </div>
    ","0","html-button-response","102","325886","0.0-7.0-4.0","3","3","3","3","3","4","4","4","4","4","4","1","1","-1","1","-1","1","1","1","4","4","4","4","4","4","4","4","4","4","4","4","5","5","3","4","4","5","5","5","3","5","3","5","3","5","3","3","3","1","3","3","5","3","3","5","5","6","3","5","3","3","3","3","3","5","3","5","6","5","6","5","3","5","3","5","3","5","3","5","650407062907387904","赵","637","Female","[""好她"",""好我"",""坏她"",""坏我""]","[""强她"",""强我"",""弱她"",""弱我""]","","","","","","","","","","","","","","","","","SRET_math","math_instructions","Sun Jan 07 2024 21:04:10 GMT+0800 (中国标准时间)","","","","","","","","","","","","","","","","","","","",""
"2164","","8","psychophysics","103","328058","0.0-7.0-5.0-0.0","3","3","3","3","3","4","4","4","4","4","4","1","1","-1","1","-1","1","1","1","4","4","4","4","4","4","4","4","4","4","4","4","5","5","3","4","4","5","5","5","3","5","3","5","3","5","3","3","3","1","3","3","5","3","3","5","5","6","3","5","3","3","3","3","3","5","3","5","6","5","6","5","3","5","3","5","3","5","3","5","650407062907387904","赵","637","Female","[""好她"",""好我"",""坏她"",""坏我""]","[""强她"",""强我"",""弱她"",""弱我""]","","","","","","","","8","","","","","","","","","SRET","SRET_math_calculate","","key","8","15.557553956834532","1024.4999694675216","571.4999829679732","","","","","12-12= ?","0","0","","","","","","","",""
"2202","","4","psychophysics","104","330267","0.0-7.0-5.0-0.1","3","3","3","3","3","4","4","4","4","4","4","1","1","-1","1","-1","1","1","1","4","4","4","4","4","4","4","4","4","4","4","4","5","5","3","4","4","5","5","5","3","5","3","5","3","5","3","3","3","1","3","3","5","3","3","5","5","6","3","5","3","3","3","3","3","5","3","5","6","5","6","5","3","5","3","5","3","5","3","5","650407062907387904","赵","637","Female","[""好她"",""好我"",""坏她"",""坏我""]","[""强她"",""强我"",""弱她"",""弱我""]","","","","","","","","4","","","","","","","","","SRET","SRET_math_calculate","","key","4","15.624113475177305","1024.4999694675216","571.4999829679732","","","","","8-4= ?","4","1","","","","","","","",""
"2016","","6","psychophysics","105","332289","0.0-7.0-5.0-0.2","3","3","3","3","3","4","4","4","4","4","4","1","1","-1","1","-1","1","1","1","4","4","4","4","4","4","4","4","4","4","4","4","5","5","3","4","4","5","5","5","3","5","3","5","3","5","3","3","3","1","3","3","5","3","3","5","5","6","3","5","3","3","3","3","3","5","3","5","6","5","6","5","3","5","3","5","3","5","3","5","650407062907387904","赵","637","Female","[""好她"",""好我"",""坏她"",""坏我""]","[""强她"",""强我"",""弱她"",""弱我""]","","","","","","","","6","","","","","","","","","SRET","SRET_math_calculate","","key","6","15.625","1024.4999694675216","571.4999829679732","","","","","4+2= ?","6","1","","","","","","","",""
"2032","","2","psychophysics","106","334330","0.0-7.0-5.0-0.3","3","3","3","3","3","4","4","4","4","4","4","1","1","-1","1","-1","1","1","1","4","4","4","4","4","4","4","4","4","4","4","4","5","5","3","4","4","5","5","5","3","5","3","5","3","5","3","3","3","1","3","3","5","3","3","5","5","6","3","5","3","3","3","3","3","5","3","5","6","5","6","5","3","5","3","5","3","5","3","5","650407062907387904","赵","637","Female","[""好她"",""好我"",""坏她"",""坏我""]","[""强她"",""强我"",""弱她"",""弱我""]","","","","","","","","2","","","","","","","","","SRET","SRET_math_calculate","","key","2","15.624615384615474","1024.4999694675216","571.4999829679732","","","","","9-7= ?","2","1","","","","","","","",""
"2916","","5","psychophysics","107","337253","0.0-7.0-5.0-0.4","3","3","3","3","3","4","4","4","4","4","4","1","1","-1","1","-1","1","1","1","4","4","4","4","4","4","4","4","4","4","4","4","5","5","3","4","4","5","5","5","3","5","3","5","3","5","3","3","3","1","3","3","5","3","3","5","5","6","3","5","3","3","3","3","3","5","3","5","6","5","6","5","3","5","3","5","3","5","3","5","650407062907387904","赵","637","Female","[""好她"",""好我"",""坏她"",""坏我""]","[""强她"",""强我"",""弱她"",""弱我""]","","","","","","","","5","","","","","","","","","SRET","SRET_math_calculate","","key","5","15.625268817204239","1024.4999694675216","571.4999829679732","","","","","12-7= ?","5","1","","","","","","","",""
"2274","","8","psychophysics","108","339532","0.0-7.0-5.0-0.5","3","3","3","3","3","4","4","4","4","4","4","1","1","-1","1","-1","1","1","1","4","4","4","4","4","4","4","4","4","4","4","4","5","5","3","4","4","5","5","5","3","5","3","5","3","5","3","3","3","1","3","3","5","3","3","5","5","6","3","5","3","3","3","3","3","5","3","5","6","5","6","5","3","5","3","5","3","5","3","5","650407062907387904","赵","637","Female","[""好她"",""好我"",""坏她"",""坏我""]","[""强她"",""强我"",""弱她"",""弱我""]","","","","","","","","8","","","","","","","","","SRET","SRET_math_calculate","","key","8","15.624827586207138","1024.4999694675216","571.4999829679732","","","","","7+2= ?","9","0","","","","","","","",""
"2699","","6","psychophysics","109","342237","0.0-7.0-5.0-0.6","3","3","3","3","3","4","4","4","4","4","4","1","1","-1","1","-1","1","1","1","4","4","4","4","4","4","4","4","4","4","4","4","5","5","3","4","4","5","5","5","3","5","3","5","3","5","3","3","3","1","3","3","5","3","3","5","5","6","3","5","3","3","3","3","3","5","3","5","6","5","6","5","3","5","3","5","3","5","3","5","650407062907387904","赵","637","Female","[""好她"",""好我"",""坏她"",""坏我""]","[""强她"",""强我"",""弱她"",""弱我""]","","","","","","","","6","","","","","","","","","SRET","SRET_math_calculate","","key","6","15.625","1024.4999694675216","571.4999829679732","","","","","2+4= ?","6","1","","","","","","","",""
"2573","","2","psychophysics","110","344814","0.0-7.0-5.0-0.7","3","3","3","3","3","4","4","4","4","4","4","1","1","-1","1","-1","1","1","1","4","4","4","4","4","4","4","4","4","4","4","4","5","5","3","4","4","5","5","5","3","5","3","5","3","5","3","3","3","1","3","3","5","3","3","5","5","6","3","5","3","3","3","3","3","5","3","5","6","5","6","5","3","5","3","5","3","5","3","5","650407062907387904","赵","637","Female","[""好她"",""好我"",""坏她"",""坏我""]","[""强她"",""强我"",""弱她"",""弱我""]","","","","","","","","2","","","","","","","","","SRET","SRET_math_calculate","","key","2","15.625","1024.4999694675216","571.4999829679732","","","","","90/45= ?","2","1","","","","","","","",""
"2456","","8","psychophysics","111","347274","0.0-7.0-5.0-0.8","3","3","3","3","3","4","4","4","4","4","4","1","1","-1","1","-1","1","1","1","4","4","4","4","4","4","4","4","4","4","4","4","5","5","3","4","4","5","5","5","3","5","3","5","3","5","3","3","3","1","3","3","5","3","3","5","5","6","3","5","3","3","3","3","3","5","3","5","6","5","6","5","3","5","3","5","3","5","3","5","650407062907387904","赵","637","Female","[""好她"",""好我"",""坏她"",""坏我""]","[""强她"",""强我"",""弱她"",""弱我""]","","","","","","","","8","","","","","","","","","SRET","SRET_math_calculate","","key","8","15.625","1024.4999694675216","571.4999829679732","","","","","3+5= ?","8","1","","","","","","","",""
"1880","","2","psychophysics","112","349161","0.0-7.0-5.0-0.9","3","3","3","3","3","4","4","4","4","4","4","1","1","-1","1","-1","1","1","1","4","4","4","4","4","4","4","4","4","4","4","4","5","5","3","4","4","5","5","5","3","5","3","5","3","5","3","3","3","1","3","3","5","3","3","5","5","6","3","5","3","3","3","3","3","5","3","5","6","5","6","5","3","5","3","5","3","5","3","5","650407062907387904","赵","637","Female","[""好她"",""好我"",""坏她"",""坏我""]","[""强她"",""强我"",""弱她"",""弱我""]","","","","","","","","2","","","","","","","","","SRET","SRET_math_calculate","","key","2","15.625","1024.4999694675216","571.4999829679732","","","","","1+1= ?","2","1","","","","","","","",""
"2532","","0","psychophysics","113","351697","0.0-7.0-5.0-0.10","3","3","3","3","3","4","4","4","4","4","4","1","1","-1","1","-1","1","1","1","4","4","4","4","4","4","4","4","4","4","4","4","5","5","3","4","4","5","5","5","3","5","3","5","3","5","3","3","3","1","3","3","5","3","3","5","5","6","3","5","3","3","3","3","3","5","3","5","6","5","6","5","3","5","3","5","3","5","3","5","650407062907387904","赵","637","Female","[""好她"",""好我"",""坏她"",""坏我""]","[""强她"",""强我"",""弱她"",""弱我""]","","","","","","","","0","","","","","","","","","SRET","SRET_math_calculate","","key","0","15.625465838509388","1024.4999694675216","571.4999829679732","","","","","22-22= ?","0","1","","","","","","","",""
"2031","","5","psychophysics","114","353737","0.0-7.0-5.0-0.11","3","3","3","3","3","4","4","4","4","4","4","1","1","-1","1","-1","1","1","1","4","4","4","4","4","4","4","4","4","4","4","4","5","5","3","4","4","5","5","5","3","5","3","5","3","5","3","3","3","1","3","3","5","3","3","5","5","6","3","5","3","3","3","3","3","5","3","5","6","5","6","5","3","5","3","5","3","5","3","5","650407062907387904","赵","637","Female","[""好她"",""好我"",""坏她"",""坏我""]","[""强她"",""强我"",""弱她"",""弱我""]","","","","","","","","5","","","","","","","","","SRET","SRET_math_calculate","","key","5","15.624615384615474","1024.4999694675216","571.4999829679732","","","","","3+2= ?","5","1","","","","","","","",""
"2042","","3","psychophysics","115","355785","0.0-7.0-5.0-0.12","3","3","3","3","3","4","4","4","4","4","4","1","1","-1","1","-1","1","1","1","4","4","4","4","4","4","4","4","4","4","4","4","5","5","3","4","4","5","5","5","3","5","3","5","3","5","3","3","3","1","3","3","5","3","3","5","5","6","3","5","3","3","3","3","3","5","3","5","6","5","6","5","3","5","3","5","3","5","3","5","650407062907387904","赵","637","Female","[""好她"",""好我"",""坏她"",""坏我""]","[""强她"",""强我"",""弱她"",""弱我""]","","","","","","","","3","","","","","","","","","SRET","SRET_math_calculate","","key","3","15.624615384615474","1024.4999694675216","571.4999829679732","","","","","2+1= ?","3","1","","","","","","","",""
"2883","","5","psychophysics","116","358674","0.0-7.0-5.0-0.13","3","3","3","3","3","4","4","4","4","4","4","1","1","-1","1","-1","1","1","1","4","4","4","4","4","4","4","4","4","4","4","4","5","5","3","4","4","5","5","5","3","5","3","5","3","5","3","3","3","1","3","3","5","3","3","5","5","6","3","5","3","3","3","3","3","5","3","5","6","5","6","5","3","5","3","5","3","5","3","5","650407062907387904","赵","637","Female","[""好她"",""好我"",""坏她"",""坏我""]","[""强她"",""强我"",""弱她"",""弱我""]","","","","","","","","5","","","","","","","","","SRET","SRET_math_calculate","","key","5","15.625","1024.4999694675216","571.4999829679732","","","","","14-9= ?","5","1","","","","","","","",""
"2019","","5","psychophysics","117","360698","0.0-7.0-5.0-0.14","3","3","3","3","3","4","4","4","4","4","4","1","1","-1","1","-1","1","1","1","4","4","4","4","4","4","4","4","4","4","4","4","5","5","3","4","4","5","5","5","3","5","3","5","3","5","3","3","3","1","3","3","5","3","3","5","5","6","3","5","3","3","3","3","3","5","3","5","6","5","6","5","3","5","3","5","3","5","3","5","650407062907387904","赵","637","Female","[""好她"",""好我"",""坏她"",""坏我""]","[""强她"",""强我"",""弱她"",""弱我""]","","","","","","","","5","","","","","","","","","SRET","SRET_math_calculate","","key","5","15.624218749999727","1024.4999694675216","571.4999829679732","","","","","10-5= ?","5","1","","","","","","","",""
"2193","","7","psychophysics","118","362897","0.0-7.0-5.0-0.15","3","3","3","3","3","4","4","4","4","4","4","1","1","-1","1","-1","1","1","1","4","4","4","4","4","4","4","4","4","4","4","4","5","5","3","4","4","5","5","5","3","5","3","5","3","5","3","3","3","1","3","3","5","3","3","5","5","6","3","5","3","3","3","3","3","5","3","5","6","5","6","5","3","5","3","5","3","5","3","5","650407062907387904","赵","637","Female","[""好她"",""好我"",""坏她"",""坏我""]","[""强她"",""强我"",""弱她"",""弱我""]","","","","","","","","7","","","","","","","","","SRET","SRET_math_calculate","","key","7","15.62428571428588","1024.4999694675216","571.4999829679732","","","","","12-5= ?","7","1","","","","","","","",""
"2468","","0","psychophysics","119","365369","0.0-7.0-5.0-0.16","3","3","3","3","3","4","4","4","4","4","4","1","1","-1","1","-1","1","1","1","4","4","4","4","4","4","4","4","4","4","4","4","5","5","3","4","4","5","5","5","3","5","3","5","3","5","3","3","3","1","3","3","5","3","3","5","5","6","3","5","3","3","3","3","3","5","3","5","6","5","6","5","3","5","3","5","3","5","3","5","650407062907387904","赵","637","Female","[""好她"",""好我"",""坏她"",""坏我""]","[""强她"",""强我"",""弱她"",""弱我""]","","","","","","","","0","","","","","","","","","SRET","SRET_math_calculate","","key","0","15.624840764331061","1024.4999694675216","571.4999829679732","","","","","9-9= ?","0","1","","","","","","","",""
"2314","","3","psychophysics","120","367691","0.0-7.0-5.0-0.17","3","3","3","3","3","4","4","4","4","4","4","1","1","-1","1","-1","1","1","1","4","4","4","4","4","4","4","4","4","4","4","4","5","5","3","4","4","5","5","5","3","5","3","5","3","5","3","3","3","1","3","3","5","3","3","5","5","6","3","5","3","3","3","3","3","5","3","5","6","5","6","5","3","5","3","5","3","5","3","5","650407062907387904","赵","637","Female","[""好她"",""好我"",""坏她"",""坏我""]","[""强她"",""强我"",""弱她"",""弱我""]","","","","","","","","3","","","","","","","","","SRET","SRET_math_calculate","","key","3","15.625675675675911","1024.4999694675216","571.4999829679732","","","","","6/2= ?","3","1","","","","","","","",""
"2057","","2","psychophysics","121","369753","0.0-7.0-5.0-0.18","3","3","3","3","3","4","4","4","4","4","4","1","1","-1","1","-1","1","1","1","4","4","4","4","4","4","4","4","4","4","4","4","5","5","3","4","4","5","5","5","3","5","3","5","3","5","3","3","3","1","3","3","5","3","3","5","5","6","3","5","3","3","3","3","3","5","3","5","6","5","6","5","3","5","3","5","3","5","3","5","650407062907387904","赵","637","Female","[""好她"",""好我"",""坏她"",""坏我""]","[""强她"",""强我"",""弱她"",""弱我""]","","","","","","","","2","","","","","","","","","SRET","SRET_math_calculate","","key","2","15.62519083969439","1024.4999694675216","571.4999829679732","","","","","8/4= ?","2","1","","","","","","","",""
"2324","","3","psychophysics","122","372081","0.0-7.0-5.0-0.19","3","3","3","3","3","4","4","4","4","4","4","1","1","-1","1","-1","1","1","1","4","4","4","4","4","4","4","4","4","4","4","4","5","5","3","4","4","5","5","5","3","5","3","5","3","5","3","3","3","1","3","3","5","3","3","5","5","6","3","5","3","3","3","3","3","5","3","5","6","5","6","5","3","5","3","5","3","5","3","5","650407062907387904","赵","637","Female","[""好她"",""好我"",""坏她"",""坏我""]","[""强她"",""强我"",""弱她"",""弱我""]","","","","","","","","3","","","","","","","","","SRET","SRET_math_calculate","","key","3","15.625","1024.4999694675216","571.4999829679732","","","","","21/7=  ?","3","1","","","","","","","",""
"2988","","1","psychophysics","123","375074","0.0-7.0-5.0-0.20","3","3","3","3","3","4","4","4","4","4","4","1","1","-1","1","-1","1","1","1","4","4","4","4","4","4","4","4","4","4","4","4","5","5","3","4","4","5","5","5","3","5","3","5","3","5","3","3","3","1","3","3","5","3","3","5","5","6","3","5","3","3","3","3","3","5","3","5","6","5","6","5","3","5","3","5","3","5","3","5","650407062907387904","赵","637","Female","[""好她"",""好我"",""坏她"",""坏我""]","[""强她"",""强我"",""弱她"",""弱我""]","","","","","","","","1","","","","","","","","","SRET","SRET_math_calculate","","key","1","15.625263157894675","1024.4999694675216","571.4999829679732","","","","","9-8= ?","1","1","","","","","","","",""
"2303","","9","psychophysics","124","377385","0.0-7.0-5.0-0.21","3","3","3","3","3","4","4","4","4","4","4","1","1","-1","1","-1","1","1","1","4","4","4","4","4","4","4","4","4","4","4","4","5","5","3","4","4","5","5","5","3","5","3","5","3","5","3","3","3","1","3","3","5","3","3","5","5","6","3","5","3","3","3","3","3","5","3","5","6","5","6","5","3","5","3","5","3","5","3","5","650407062907387904","赵","637","Female","[""好她"",""好我"",""坏她"",""坏我""]","[""强她"",""强我"",""弱她"",""弱我""]","","","","","","","","9","","","","","","","","","SRET","SRET_math_calculate","","key","9","15.624489795918288","1024.4999694675216","571.4999829679732","","","","","3+6= ?","9","1","","","","","","","",""
"1936","","9","psychophysics","125","379329","0.0-7.0-5.0-0.22","3","3","3","3","3","4","4","4","4","4","4","1","1","-1","1","-1","1","1","1","4","4","4","4","4","4","4","4","4","4","4","4","5","5","3","4","4","5","5","5","3","5","3","5","3","5","3","3","3","1","3","3","5","3","3","5","5","6","3","5","3","3","3","3","3","5","3","5","6","5","6","5","3","5","3","5","3","5","3","5","650407062907387904","赵","637","Female","[""好她"",""好我"",""坏她"",""坏我""]","[""强她"",""强我"",""弱她"",""弱我""]","","","","","","","","9","","","","","","","","","SRET","SRET_math_calculate","","key","9","15.625","1024.4999694675216","571.4999829679732","","","","","2+7= ?","9","1","","","","","","","",""
"2432","","2","psychophysics","126","381766","0.0-7.0-5.0-0.23","3","3","3","3","3","4","4","4","4","4","4","1","1","-1","1","-1","1","1","1","4","4","4","4","4","4","4","4","4","4","4","4","5","5","3","4","4","5","5","5","3","5","3","5","3","5","3","3","3","1","3","3","5","3","3","5","5","6","3","5","3","3","3","3","3","5","3","5","6","5","6","5","3","5","3","5","3","5","3","5","650407062907387904","赵","637","Female","[""好她"",""好我"",""坏她"",""坏我""]","[""强她"",""强我"",""弱她"",""弱我""]","","","","","","","","2","","","","","","","","","SRET","SRET_math_calculate","","key","2","15.624516129032182","1024.4999694675216","571.4999829679732","","","","","5-3= ?","2","1","","","","","","","",""
"2077","","3","psychophysics","127","383848","0.0-7.0-5.0-0.24","3","3","3","3","3","4","4","4","4","4","4","1","1","-1","1","-1","1","1","1","4","4","4","4","4","4","4","4","4","4","4","4","5","5","3","4","4","5","5","5","3","5","3","5","3","5","3","3","3","1","3","3","5","3","3","5","5","6","3","5","3","3","3","3","3","5","3","5","6","5","6","5","3","5","3","5","3","5","3","5","650407062907387904","赵","637","Female","[""好她"",""好我"",""坏她"",""坏我""]","[""强她"",""强我"",""弱她"",""弱我""]","","","","","","","","3","","","","","","","","","SRET","SRET_math_calculate","","key","3","15.625","1024.4999694675216","571.4999829679732","","","","","11-8= ?","3","1","","","","","","","",""
"2164","","4","psychophysics","128","386017","0.0-7.0-5.0-0.25","3","3","3","3","3","4","4","4","4","4","4","1","1","-1","1","-1","1","1","1","4","4","4","4","4","4","4","4","4","4","4","4","5","5","3","4","4","5","5","5","3","5","3","5","3","5","3","3","3","1","3","3","5","3","3","5","5","6","3","5","3","3","3","3","3","5","3","5","6","5","6","5","3","5","3","5","3","5","3","5","650407062907387904","赵","637","Female","[""好她"",""好我"",""坏她"",""坏我""]","[""强她"",""强我"",""弱她"",""弱我""]","","","","","","","","4","","","","","","","","","SRET","SRET_math_calculate","","key","4","15.625362318840496","1024.4999694675216","571.4999829679732","","","","","9-5= ?","4","1","","","","","","","",""
"2872","","5","psychophysics","129","388896","0.0-7.0-5.0-0.26","3","3","3","3","3","4","4","4","4","4","4","1","1","-1","1","-1","1","1","1","4","4","4","4","4","4","4","4","4","4","4","4","5","5","3","4","4","5","5","5","3","5","3","5","3","5","3","3","3","1","3","3","5","3","3","5","5","6","3","5","3","3","3","3","3","5","3","5","6","5","6","5","3","5","3","5","3","5","3","5","650407062907387904","赵","637","Female","[""好她"",""好我"",""坏她"",""坏我""]","[""强她"",""强我"",""弱她"",""弱我""]","","","","","","","","5","","","","","","","","","SRET","SRET_math_calculate","","key","5","15.625136612021667","1024.4999694675216","571.4999829679732","","","","","5/1= ?","5","1","","","","","","","",""
"2308","","8","psychophysics","130","391208","0.0-7.0-5.0-0.27","3","3","3","3","3","4","4","4","4","4","4","1","1","-1","1","-1","1","1","1","4","4","4","4","4","4","4","4","4","4","4","4","5","5","3","4","4","5","5","5","3","5","3","5","3","5","3","3","3","1","3","3","5","3","3","5","5","6","3","5","3","3","3","3","3","5","3","5","6","5","6","5","3","5","3","5","3","5","3","5","650407062907387904","赵","637","Female","[""好她"",""好我"",""坏她"",""坏我""]","[""强她"",""强我"",""弱她"",""弱我""]","","","","","","","","8","","","","","","","","","SRET","SRET_math_calculate","","key","8","15.624489795918288","1024.4999694675216","571.4999829679732","","","","","1+7= ?","8","1","","","","","","","",""
"5796","","8","psychophysics","131","397009","0.0-7.0-5.0-0.28","3","3","3","3","3","4","4","4","4","4","4","1","1","-1","1","-1","1","1","1","4","4","4","4","4","4","4","4","4","4","4","4","5","5","3","4","4","5","5","5","3","5","3","5","3","5","3","3","3","1","3","3","5","3","3","5","5","6","3","5","3","3","3","3","3","5","3","5","6","5","6","5","3","5","3","5","3","5","3","5","650407062907387904","赵","637","Female","[""好她"",""好我"",""坏她"",""坏我""]","[""强她"",""强我"",""弱她"",""弱我""]","","","","","","","","8","","","","","","","","","SRET","SRET_math_calculate","","key","8","15.625135135135103","1024.4999694675216","571.4999829679732","","","","","56/7= ?","8","1","","","","","","","",""
"2552","","0","psychophysics","132","399568","0.0-7.0-5.0-0.29","3","3","3","3","3","4","4","4","4","4","4","1","1","-1","1","-1","1","1","1","4","4","4","4","4","4","4","4","4","4","4","4","5","5","3","4","4","5","5","5","3","5","3","5","3","5","3","3","3","1","3","3","5","3","3","5","5","6","3","5","3","3","3","3","3","5","3","5","6","5","6","5","3","5","3","5","3","5","3","5","650407062907387904","赵","637","Female","[""好她"",""好我"",""坏她"",""坏我""]","[""强她"",""强我"",""弱她"",""弱我""]","","","","","","","","0","","","","","","","","","SRET","SRET_math_calculate","","key","0","15.624539877300542","1024.4999694675216","571.4999829679732","","","","","5*0= ?","0","1","","","","","","","",""
"3333","","7","psychophysics","133","402907","0.0-7.0-5.0-0.30","3","3","3","3","3","4","4","4","4","4","4","1","1","-1","1","-1","1","1","1","4","4","4","4","4","4","4","4","4","4","4","4","5","5","3","4","4","5","5","5","3","5","3","5","3","5","3","3","3","1","3","3","5","3","3","5","5","6","3","5","3","3","3","3","3","5","3","5","6","5","6","5","3","5","3","5","3","5","3","5","650407062907387904","赵","637","Female","[""好她"",""好我"",""坏她"",""坏我""]","[""强她"",""强我"",""弱她"",""弱我""]","","","","","","","","7","","","","","","","","","SRET","SRET_math_calculate","","key","7","15.624882629108145","1024.4999694675216","571.4999829679732","","","","","11-4= ?","7","1","","","","","","","",""
"2329","","5","psychophysics","134","405240","0.0-7.0-5.0-0.31","3","3","3","3","3","4","4","4","4","4","4","1","1","-1","1","-1","1","1","1","4","4","4","4","4","4","4","4","4","4","4","4","5","5","3","4","4","5","5","5","3","5","3","5","3","5","3","3","3","1","3","3","5","3","3","5","5","6","3","5","3","3","3","3","3","5","3","5","6","5","6","5","3","5","3","5","3","5","3","5","650407062907387904","赵","637","Female","[""好她"",""好我"",""坏她"",""坏我""]","[""强她"",""强我"",""弱她"",""弱我""]","","","","","","","","5","","","","","","","","","SRET","SRET_math_calculate","","key","5","15.625","1024.4999694675216","571.4999829679732","","","","","4+1= ?","5","1","","","","","","","",""
"2161","","2","psychophysics","135","407409","0.0-7.0-5.0-0.32","3","3","3","3","3","4","4","4","4","4","4","1","1","-1","1","-1","1","1","1","4","4","4","4","4","4","4","4","4","4","4","4","5","5","3","4","4","5","5","5","3","5","3","5","3","5","3","3","3","1","3","3","5","3","3","5","5","6","3","5","3","3","3","3","3","5","3","5","6","5","6","5","3","5","3","5","3","5","3","5","650407062907387904","赵","637","Female","[""好她"",""好我"",""坏她"",""坏我""]","[""强她"",""强我"",""弱她"",""弱我""]","","","","","","","","2","","","","","","","","","SRET","SRET_math_calculate","","key","2","15.624637681159504","1024.4999694675216","571.4999829679732","","","","","19-17= ?","2","1","","","","","","","",""
"2825","","5","psychophysics","136","410240","0.0-7.0-5.0-0.33","3","3","3","3","3","4","4","4","4","4","4","1","1","-1","1","-1","1","1","1","4","4","4","4","4","4","4","4","4","4","4","4","5","5","3","4","4","5","5","5","3","5","3","5","3","5","3","3","3","1","3","3","5","3","3","5","5","6","3","5","3","3","3","3","3","5","3","5","6","5","6","5","3","5","3","5","3","5","3","5","650407062907387904","赵","637","Female","[""好她"",""好我"",""坏她"",""坏我""]","[""强她"",""强我"",""弱她"",""弱我""]","","","","","","","","5","","","","","","","","","SRET","SRET_math_calculate","","key","5","15.625","1024.4999694675216","571.4999829679732","","","","","16-11= ?","5","1","","","","","","","",""
"2646","","6","psychophysics","137","412892","0.0-7.0-5.0-0.34","3","3","3","3","3","4","4","4","4","4","4","1","1","-1","1","-1","1","1","1","4","4","4","4","4","4","4","4","4","4","4","4","5","5","3","4","4","5","5","5","3","5","3","5","3","5","3","3","3","1","3","3","5","3","3","5","5","6","3","5","3","3","3","3","3","5","3","5","6","5","6","5","3","5","3","5","3","5","3","5","650407062907387904","赵","637","Female","[""好她"",""好我"",""坏她"",""坏我""]","[""强她"",""强我"",""弱她"",""弱我""]","","","","","","","","6","","","","","","","","","SRET","SRET_math_calculate","","key","6","15.625443786982318","1024.4999694675216","571.4999829679732","","","","","11-5= ?","6","1","","","","","","","",""
