"rt","stimulus","response","trial_type","trial_index","time_elapsed","internal_node_id","swb_1","swb_2","swb_3","swb_4","swb_5","LOT_1","LOT_2","LOT_3","LOT_4","LOT_5","LOT_6","IPC_1","IPC_2","IPC_3","IPC_4","IPC_5","IPC_6","IPC_7","IPC_8","MorIden_1","MorIden_2","MorIden_3","MorIden_4","MorIden_5","MorIden_6","MorIden_7","MorIden_8","MorIden_9","MorIden_10","moralSeImag_1","moralSeImag_2","moralSeImag_3","moralSeImag_4","moralSeImag_5","moralSeImag_6","moralSeImag_7","moralSeImag_8","moralSeImag_9","sde_1","sde_2","sde_3","sde_4","sde_5","sde_6","sde_7","sde_8","sde_9","sde_10","trap2","sde_11","sde_12","sde_13","sde_14","sde_15","sde_16","sde_17","sde_18","sde_19","sde_20","IM_1","IM_2","IM_3","IM_4","IM_5","IM_6","IM_7","IM_8","IM_9","IM_10","IM_11","IM_12","IM_13","IM_14","IM_15","IM_16","IM_17","IM_18","IM_19","IM_20","subj_idx","friend_name","ParticipantID","Sex","Word","Word2","value","success","timeout","failed_images","failed_audio","failed_video","user_agent","responses","item_order","radio_event_ids","radio_event_times","key_event_times","mouse_event_times","straightlining","zigzagging","honeypot","view_history","response_type","key_press","avg_frame_time","center_x","center_y","correct_response","correct","identity","Image","word","condition","task_id","screen_id","time_stamp","person","valence","domain","math","status","duration","question_order","trap2_item"
"3744","
   <p><div style='color:white; font-size: 25px'>您好，欢迎参加本次实验。</div></p>
   <p><div style='color:white; font-size: 25px'>为充分保障您的权利，请确保您已经知晓并同意《参与实验同意书》以及《数据公开知情同意书》。</div></p>
   <p><div style='color:white; font-size: 25px'>如果您未见过上述内容，请咨询实验员。</div></p>
   <p style='color:white; font-size: 25px'>如果您选择继续实验，则表示您已经清楚两份知情同意书的内容并同意。</p>
   <p><div style = ""color: pink;font-size:30px;"">请确保您记得day0的实验编号，您将在本次实验输入该编号，若您忘记，请咨询实验员后作答。</div></p>
   <p><div style = ""color:lightblue;font-size:25px;"">请您尽可能认真地作答，我们将依据您在各问卷和按键任务中的作答质量发放报酬。</div></p>
   <p> <div style = ""color: green""><按空格键至下页></div> </p>
   "," ","html-keyboard-response","0","3749","0.0-0.0","3","3","3","3","2","5","3","3","4","4","5","1","0","-1","1","-1","-1","1","-1","5","5","3","2","4","4","4","4","3","3","6","8","6","7","7","6","7","6","7","5","2","4","3","5","3","5","2","3","2","1","4","3","6","5","4","4","4","4","3","5","3","4","5","6","4","4","5","5","5","5","7","5","6","3","2","4","2","5","3","5","794660896956882945","陈","538","Female","[""坏我"",""坏她"",""好我"",""好她""]","[""弱我"",""弱她"",""强我"",""强她""]","","","","","","","","","","","","","","","","","","","","","","","","","","","","","","","","","","","","","","",""
"","","","call-function","1","3751","0.0-1.0-0.0","3","3","3","3","2","5","3","3","4","4","5","1","0","-1","1","-1","-1","1","-1","5","5","3","2","4","4","4","4","3","3","6","8","6","7","7","6","7","6","7","5","2","4","3","5","3","5","2","3","2","1","4","3","6","5","4","4","4","4","3","5","3","4","5","6","4","4","5","5","5","5","7","5","6","3","2","4","2","5","3","5","794660896956882945","陈","538","Female","[""坏我"",""坏她"",""好我"",""好她""]","[""弱我"",""弱她"",""强我"",""强她""]","","","","","","","","","","","","","","","","","","","","","","","","","","","","","","","","","","","","","","",""
"42782","","[{""name"":""Sex"",""value"":""1""},{""name"":""friend_name"",""value"":""陈""},{""name"":""ParticipantID"",""value"":""538""}]","survey-html-form","2","46536","0.0-1.0-1.0","3","3","3","3","2","5","3","3","4","4","5","1","0","-1","1","-1","-1","1","-1","5","5","3","2","4","4","4","4","3","3","6","8","6","7","7","6","7","6","7","5","2","4","3","5","3","5","2","3","2","1","4","3","6","5","4","4","4","4","3","5","3","4","5","6","4","4","5","5","5","5","7","5","6","3","2","4","2","5","3","5","794660896956882945","陈","538","Female","[""坏我"",""坏她"",""好我"",""好她""]","[""弱我"",""弱她"",""强我"",""强她""]","","","","","","","","","","","","","","","","","","","","","","","","","","","","","","","","","","","","","","",""
"","","","preload","3","47091","0.0-2.0","3","3","3","3","2","5","3","3","4","4","5","1","0","-1","1","-1","-1","1","-1","5","5","3","2","4","4","4","4","3","3","6","8","6","7","7","6","7","6","7","5","2","4","3","5","3","5","2","3","2","1","4","3","6","5","4","4","4","4","3","5","3","4","5","6","4","4","5","5","5","5","7","5","6","3","2","4","2","5","3","5","794660896956882945","陈","538","Female","[""坏我"",""坏她"",""好我"",""好她""]","[""弱我"",""弱她"",""强我"",""强她""]","","true","false","[]","[]","[]","","","","","","","","","","","","","","","","","","","","","","","","","","","","","","","","",""
"","","","fullscreen","4","49159","0.0-3.0","3","3","3","3","2","5","3","3","4","4","5","1","0","-1","1","-1","-1","1","-1","5","5","3","2","4","4","4","4","3","3","6","8","6","7","7","6","7","6","7","5","2","4","3","5","3","5","2","3","2","1","4","3","6","5","4","4","4","4","3","5","3","4","5","6","4","4","5","5","5","5","7","5","6","3","2","4","2","5","3","5","794660896956882945","陈","538","Female","[""坏我"",""坏她"",""好我"",""好她""]","[""弱我"",""弱她"",""强我"",""强她""]","","true","","","","","{}","","","","","","","","","","","","","","","","","","","","","","","","","","","","","","","",""
"14445.800000011921","","{""Q01"":""3"",""Q02"":""3"",""Q03"":""3"",""Q04"":""3"",""Q05"":""2""}","survey-template","5","63608","0.0-4.0","3","3","3","3","2","5","3","3","4","4","5","1","0","-1","1","-1","-1","1","-1","5","5","3","2","4","4","4","4","3","3","6","8","6","7","7","6","7","6","7","5","2","4","3","5","3","5","2","3","2","1","4","3","6","5","4","4","4","4","3","5","3","4","5","6","4","4","5","5","5","5","7","5","6","3","2","4","2","5","3","5","794660896956882945","陈","538","Female","[""坏我"",""坏她"",""好我"",""好她""]","[""弱我"",""弱她"",""强我"",""强她""]","","","","","","","","{""Q01"":""3"",""Q02"":""3"",""Q03"":""3"",""Q04"":""3"",""Q05"":""2""}","[0,1,2,3,4]","[""Q01"",""Q02"",""Q03"",""Q04"",""Q05""]","[4789.9000000059605,7557,8690.300000011921,11386.5,13239.09999999404]","[]","[4789.9000000059605,5832.4000000059605,7557,8690.300000011921,9844.59999999404,11386.5,13239.09999999404,14442.5]","0.8","0.25","0","","","","","","","","","","","","","","","","","","","","","","",""
"28803.90000000596","","{""Q01"":""5"",""Q02"":""3"",""Q03"":""3"",""Q04"":""4"",""Q05"":""4"",""Q06"":""5""}","survey-template","6","92417","0.0-5.0","3","3","3","3","2","5","3","3","4","4","5","1","0","-1","1","-1","-1","1","-1","5","5","3","2","4","4","4","4","3","3","6","8","6","7","7","6","7","6","7","5","2","4","3","5","3","5","2","3","2","1","4","3","6","5","4","4","4","4","3","5","3","4","5","6","4","4","5","5","5","5","7","5","6","3","2","4","2","5","3","5","794660896956882945","陈","538","Female","[""坏我"",""坏她"",""好我"",""好她""]","[""弱我"",""弱她"",""强我"",""强她""]","","","","","","","","{""Q01"":""5"",""Q02"":""3"",""Q03"":""3"",""Q04"":""4"",""Q05"":""4"",""Q06"":""5""}","[0,1,2,3,4,5]","[""Q01"",""Q01"",""Q02"",""Q03"",""Q04"",""Q05"",""Q06""]","[2819.699999988079,4216.9000000059605,10916.59999999404,12548.699999988079,15194.799999982119,23152.59999999404,27503.09999999404]","[]","[2819.699999988079,4216.9000000059605,10916.59999999404,12548.699999988079,15194.799999982119,17474.69999998808,21965.59999999404,22183.59999999404,23152.59999999404,24936.19999998808,26509,27503.09999999404,28798.90000000596]","0.3333333333333333","0.2","0","","","","","","","","","","","","","","","","","","","","","","",""
"24685.19999998808","","{""Q01"":""1"",""Q02"":""0"",""Q03"":""-1"",""Q04"":""1"",""Q05"":""-1"",""Q06"":""-1"",""Q07"":""1"",""Q08"":""-1""}","survey-template","7","117107","0.0-6.0","3","3","3","3","2","5","3","3","4","4","5","1","0","-1","1","-1","-1","1","-1","5","5","3","2","4","4","4","4","3","3","6","8","6","7","7","6","7","6","7","5","2","4","3","5","3","5","2","3","2","1","4","3","6","5","4","4","4","4","3","5","3","4","5","6","4","4","5","5","5","5","7","5","6","3","2","4","2","5","3","5","794660896956882945","陈","538","Female","[""坏我"",""坏她"",""好我"",""好她""]","[""弱我"",""弱她"",""强我"",""强她""]","","","","","","","","{""Q01"":""1"",""Q02"":""0"",""Q03"":""-1"",""Q04"":""1"",""Q05"":""-1"",""Q06"":""-1"",""Q07"":""1"",""Q08"":""-1""}","[0,1,2,3,4,5,6,7]","[""Q01"",""Q02"",""Q02"",""Q03"",""Q04"",""Q04"",""Q05"",""Q06"",""Q07"",""Q08"",""Q08"",""Q08""]","[3072.5,4513.199999988079,6048.300000011921,8001.5999999940395,10208.90000000596,12160.09999999404,13871.09999999404,17567.69999998808,18897.69999998808,20167.09999999404,21767.80000001192,23348.5]","[]","[3072.5,4513.199999988079,6048.300000011921,7065.300000011921,8001.5999999940395,10208.90000000596,12160.09999999404,13871.09999999404,15954.40000000596,17567.69999998808,18897.69999998808,20167.09999999404,20887.69999998808,21767.80000001192,23348.5,24679.5]","0.5","0.2857142857142857","0","","","","","","","","","","","","","","","","","","","","","","",""
"26434","","","instructions","8","143544","0.0-7.0","3","3","3","3","2","5","3","3","4","4","5","1","0","-1","1","-1","-1","1","-1","5","5","3","2","4","4","4","4","3","3","6","8","6","7","7","6","7","6","7","5","2","4","3","5","3","5","2","3","2","1","4","3","6","5","4","4","4","4","3","5","3","4","5","6","4","4","5","5","5","5","7","5","6","3","2","4","2","5","3","5","794660896956882945","陈","538","Female","[""坏我"",""坏她"",""好我"",""好她""]","[""弱我"",""弱她"",""强我"",""强她""]","","","","","","","","","","","","","","","","","[{""page_index"":0,""viewing_time"":26434}]","","","","","","","","","","","","","","","","","","","","","",""
"80619","","","instructions","9","224167","0.0-8.0-0.0-0.0","3","3","3","3","2","5","3","3","4","4","5","1","0","-1","1","-1","-1","1","-1","5","5","3","2","4","4","4","4","3","3","6","8","6","7","7","6","7","6","7","5","2","4","3","5","3","5","2","3","2","1","4","3","6","5","4","4","4","4","3","5","3","4","5","6","4","4","5","5","5","5","7","5","6","3","2","4","2","5","3","5","794660896956882945","陈","538","Female","[""坏我"",""坏她"",""好我"",""好她""]","[""弱我"",""弱她"",""强我"",""强她""]","","","","","","","","","","","","","","","","","[{""page_index"":0,""viewing_time"":11885},{""page_index"":1,""viewing_time"":62935},{""page_index"":2,""viewing_time"":3459},{""page_index"":3,""viewing_time"":2339}]","","","","","","","","","","","","","","","","","","","","","",""
"584","","j","psychophysics","10","225763","0.0-8.0-0.0-1.0-0.0-0.0","3","3","3","3","2","5","3","3","4","4","5","1","0","-1","1","-1","-1","1","-1","5","5","3","2","4","4","4","4","3","3","6","8","6","7","7","6","7","6","7","5","2","4","3","5","3","5","2","3","2","1","4","3","6","5","4","4","4","4","3","5","3","4","5","6","4","4","5","5","5","5","7","5","6","3","2","4","2","5","3","5","794660896956882945","陈","538","Female","[""坏我"",""坏她"",""好我"",""好她""]","[""弱我"",""弱她"",""强我"",""强她""]","","","","","","","","nonmatch","","","","","","","","","","key","j","16.48936170212766","768","476","f","false","match","img/pentagon.png","好她","好她","prac_ALT2_moral","practice_moral","","","","","","","","",""
"null","<span style='color:red; font-size: 70px;'>错误! </span>","null","html-keyboard-response","11","226272","0.0-8.0-0.0-1.0-0.0-1.0","3","3","3","3","2","5","3","3","4","4","5","1","0","-1","1","-1","-1","1","-1","5","5","3","2","4","4","4","4","3","3","6","8","6","7","7","6","7","6","7","5","2","4","3","5","3","5","2","3","2","1","4","3","6","5","4","4","4","4","3","5","3","4","5","6","4","4","5","5","5","5","7","5","6","3","2","4","2","5","3","5","794660896956882945","陈","538","Female","[""坏我"",""坏她"",""好我"",""好她""]","[""弱我"",""弱她"",""强我"",""强她""]","","","","","","","","","","","","","","","","","","","","","","","","","","","","","","feedback_test","","","","","","","","",""
"737","","f","psychophysics","12","228017","0.0-8.0-0.0-1.0-0.0-0.1","3","3","3","3","2","5","3","3","4","4","5","1","0","-1","1","-1","-1","1","-1","5","5","3","2","4","4","4","4","3","3","6","8","6","7","7","6","7","6","7","5","2","4","3","5","3","5","2","3","2","1","4","3","6","5","4","4","4","4","3","5","3","4","5","6","4","4","5","5","5","5","7","5","6","3","2","4","2","5","3","5","794660896956882945","陈","538","Female","[""坏我"",""坏她"",""好我"",""好她""]","[""弱我"",""弱她"",""强我"",""强她""]","","","","","","","","match","","","","","","","","","","key","f","16.98737864077653","768","476","j","false","nonmatch","img/square.png","坏她","坏我","prac_ALT2_moral","practice_moral","","","","","","","","",""
"null","<span style='color:red; font-size: 70px;'>错误! </span>","null","html-keyboard-response","13","228526","0.0-8.0-0.0-1.0-0.0-1.1","3","3","3","3","2","5","3","3","4","4","5","1","0","-1","1","-1","-1","1","-1","5","5","3","2","4","4","4","4","3","3","6","8","6","7","7","6","7","6","7","5","2","4","3","5","3","5","2","3","2","1","4","3","6","5","4","4","4","4","3","5","3","4","5","6","4","4","5","5","5","5","7","5","6","3","2","4","2","5","3","5","794660896956882945","陈","538","Female","[""坏我"",""坏她"",""好我"",""好她""]","[""弱我"",""弱她"",""强我"",""强她""]","","","","","","","","","","","","","","","","","","","","","","","","","","","","","","feedback_test","","","","","","","","",""
"665","","f","psychophysics","14","230220","0.0-8.0-0.0-1.0-0.0-0.2","3","3","3","3","2","5","3","3","4","4","5","1","0","-1","1","-1","-1","1","-1","5","5","3","2","4","4","4","4","3","3","6","8","6","7","7","6","7","6","7","5","2","4","3","5","3","5","2","3","2","1","4","3","6","5","4","4","4","4","3","5","3","4","5","6","4","4","5","5","5","5","7","5","6","3","2","4","2","5","3","5","794660896956882945","陈","538","Female","[""坏我"",""坏她"",""好我"",""好她""]","[""弱我"",""弱她"",""强我"",""强她""]","","","","","","","","match","","","","","","","","","","key","f","16.670408163265424","768","476","f","true","match","img/triangle.png","坏她","坏她","prac_ALT2_moral","practice_moral","","","","","","","","",""
"null","<span style='color:GreenYellow; font-size: 70px;'>正确! </span>","null","html-keyboard-response","15","230729","0.0-8.0-0.0-1.0-0.0-1.2","3","3","3","3","2","5","3","3","4","4","5","1","0","-1","1","-1","-1","1","-1","5","5","3","2","4","4","4","4","3","3","6","8","6","7","7","6","7","6","7","5","2","4","3","5","3","5","2","3","2","1","4","3","6","5","4","4","4","4","3","5","3","4","5","6","4","4","5","5","5","5","7","5","6","3","2","4","2","5","3","5","794660896956882945","陈","538","Female","[""坏我"",""坏她"",""好我"",""好她""]","[""弱我"",""弱她"",""强我"",""强她""]","","","","","","","","","","","","","","","","","","","","","","","","","","","","","","feedback_test","","","","","","","","",""
"579","","j","psychophysics","16","232312","0.0-8.0-0.0-1.0-0.0-0.3","3","3","3","3","2","5","3","3","4","4","5","1","0","-1","1","-1","-1","1","-1","5","5","3","2","4","4","4","4","3","3","6","8","6","7","7","6","7","6","7","5","2","4","3","5","3","5","2","3","2","1","4","3","6","5","4","4","4","4","3","5","3","4","5","6","4","4","5","5","5","5","7","5","6","3","2","4","2","5","3","5","794660896956882945","陈","538","Female","[""坏我"",""坏她"",""好我"",""好她""]","[""弱我"",""弱她"",""强我"",""强她""]","","","","","","","","nonmatch","","","","","","","","","","key","j","16.666666666666668","768","476","j","true","nonmatch","img/pentagon.png","坏我","好她","prac_ALT2_moral","practice_moral","","","","","","","","",""
"null","<span style='color:GreenYellow; font-size: 70px;'>正确! </span>","null","html-keyboard-response","17","232818","0.0-8.0-0.0-1.0-0.0-1.3","3","3","3","3","2","5","3","3","4","4","5","1","0","-1","1","-1","-1","1","-1","5","5","3","2","4","4","4","4","3","3","6","8","6","7","7","6","7","6","7","5","2","4","3","5","3","5","2","3","2","1","4","3","6","5","4","4","4","4","3","5","3","4","5","6","4","4","5","5","5","5","7","5","6","3","2","4","2","5","3","5","794660896956882945","陈","538","Female","[""坏我"",""坏她"",""好我"",""好她""]","[""弱我"",""弱她"",""强我"",""强她""]","","","","","","","","","","","","","","","","","","","","","","","","","","","","","","feedback_test","","","","","","","","",""
"641","","j","psychophysics","18","234466","0.0-8.0-0.0-1.0-0.0-0.4","3","3","3","3","2","5","3","3","4","4","5","1","0","-1","1","-1","-1","1","-1","5","5","3","2","4","4","4","4","3","3","6","8","6","7","7","6","7","6","7","5","2","4","3","5","3","5","2","3","2","1","4","3","6","5","4","4","4","4","3","5","3","4","5","6","4","4","5","5","5","5","7","5","6","3","2","4","2","5","3","5","794660896956882945","陈","538","Female","[""坏我"",""坏她"",""好我"",""好她""]","[""弱我"",""弱她"",""强我"",""强她""]","","","","","","","","nonmatch","","","","","","","","","","key","j","17.19062499999988","768","476","j","true","nonmatch","img/circle.png","坏她","好我","prac_ALT2_moral","practice_moral","","","","","","","","",""
"null","<span style='color:GreenYellow; font-size: 70px;'>正确! </span>","null","html-keyboard-response","19","234974","0.0-8.0-0.0-1.0-0.0-1.4","3","3","3","3","2","5","3","3","4","4","5","1","0","-1","1","-1","-1","1","-1","5","5","3","2","4","4","4","4","3","3","6","8","6","7","7","6","7","6","7","5","2","4","3","5","3","5","2","3","2","1","4","3","6","5","4","4","4","4","3","5","3","4","5","6","4","4","5","5","5","5","7","5","6","3","2","4","2","5","3","5","794660896956882945","陈","538","Female","[""坏我"",""坏她"",""好我"",""好她""]","[""弱我"",""弱她"",""强我"",""强她""]","","","","","","","","","","","","","","","","","","","","","","","","","","","","","","feedback_test","","","","","","","","",""
"1004","","j","psychophysics","20","237007","0.0-8.0-0.0-1.0-0.0-0.5","3","3","3","3","2","5","3","3","4","4","5","1","0","-1","1","-1","-1","1","-1","5","5","3","2","4","4","4","4","3","3","6","8","6","7","7","6","7","6","7","5","2","4","3","5","3","5","2","3","2","1","4","3","6","5","4","4","4","4","3","5","3","4","5","6","4","4","5","5","5","5","7","5","6","3","2","4","2","5","3","5","794660896956882945","陈","538","Female","[""坏我"",""坏她"",""好我"",""好她""]","[""弱我"",""弱她"",""强我"",""强她""]","","","","","","","","nonmatch","","","","","","","","","","key","j","16.63728813559307","768","476","j","true","nonmatch","img/pentagon.png","坏她","好她","prac_ALT2_moral","practice_moral","","","","","","","","",""
"null","<span style='color:GreenYellow; font-size: 70px;'>正确! </span>","null","html-keyboard-response","21","237517","0.0-8.0-0.0-1.0-0.0-1.5","3","3","3","3","2","5","3","3","4","4","5","1","0","-1","1","-1","-1","1","-1","5","5","3","2","4","4","4","4","3","3","6","8","6","7","7","6","7","6","7","5","2","4","3","5","3","5","2","3","2","1","4","3","6","5","4","4","4","4","3","5","3","4","5","6","4","4","5","5","5","5","7","5","6","3","2","4","2","5","3","5","794660896956882945","陈","538","Female","[""坏我"",""坏她"",""好我"",""好她""]","[""弱我"",""弱她"",""强我"",""强她""]","","","","","","","","","","","","","","","","","","","","","","","","","","","","","","feedback_test","","","","","","","","",""
"865","","j","psychophysics","22","239387","0.0-8.0-0.0-1.0-0.0-0.6","3","3","3","3","2","5","3","3","4","4","5","1","0","-1","1","-1","-1","1","-1","5","5","3","2","4","4","4","4","3","3","6","8","6","7","7","6","7","6","7","5","2","4","3","5","3","5","2","3","2","1","4","3","6","5","4","4","4","4","3","5","3","4","5","6","4","4","5","5","5","5","7","5","6","3","2","4","2","5","3","5","794660896956882945","陈","538","Female","[""坏我"",""坏她"",""好我"",""好她""]","[""弱我"",""弱她"",""强我"",""强她""]","","","","","","","","nonmatch","","","","","","","","","","key","j","16.74727272727257","768","476","j","true","nonmatch","img/triangle.png","好我","坏她","prac_ALT2_moral","practice_moral","","","","","","","","",""
"null","<span style='color:GreenYellow; font-size: 70px;'>正确! </span>","null","html-keyboard-response","23","239889","0.0-8.0-0.0-1.0-0.0-1.6","3","3","3","3","2","5","3","3","4","4","5","1","0","-1","1","-1","-1","1","-1","5","5","3","2","4","4","4","4","3","3","6","8","6","7","7","6","7","6","7","5","2","4","3","5","3","5","2","3","2","1","4","3","6","5","4","4","4","4","3","5","3","4","5","6","4","4","5","5","5","5","7","5","6","3","2","4","2","5","3","5","794660896956882945","陈","538","Female","[""坏我"",""坏她"",""好我"",""好她""]","[""弱我"",""弱她"",""强我"",""强她""]","","","","","","","","","","","","","","","","","","","","","","","","","","","","","","feedback_test","","","","","","","","",""
"1034","","f","psychophysics","24","241932","0.0-8.0-0.0-1.0-0.0-0.7","3","3","3","3","2","5","3","3","4","4","5","1","0","-1","1","-1","-1","1","-1","5","5","3","2","4","4","4","4","3","3","6","8","6","7","7","6","7","6","7","5","2","4","3","5","3","5","2","3","2","1","4","3","6","5","4","4","4","4","3","5","3","4","5","6","4","4","5","5","5","5","7","5","6","3","2","4","2","5","3","5","794660896956882945","陈","538","Female","[""坏我"",""坏她"",""好我"",""好她""]","[""弱我"",""弱她"",""强我"",""强她""]","","","","","","","","match","","","","","","","","","","key","f","16.802459016393396","768","476","f","true","match","img/square.png","坏我","坏我","prac_ALT2_moral","practice_moral","","","","","","","","",""
"null","<span style='color:GreenYellow; font-size: 70px;'>正确! </span>","null","html-keyboard-response","25","242441","0.0-8.0-0.0-1.0-0.0-1.7","3","3","3","3","2","5","3","3","4","4","5","1","0","-1","1","-1","-1","1","-1","5","5","3","2","4","4","4","4","3","3","6","8","6","7","7","6","7","6","7","5","2","4","3","5","3","5","2","3","2","1","4","3","6","5","4","4","4","4","3","5","3","4","5","6","4","4","5","5","5","5","7","5","6","3","2","4","2","5","3","5","794660896956882945","陈","538","Female","[""坏我"",""坏她"",""好我"",""好她""]","[""弱我"",""弱她"",""强我"",""强她""]","","","","","","","","","","","","","","","","","","","","","","","","","","","","","","feedback_test","","","","","","","","",""
"1178","","j","psychophysics","26","244624","0.0-8.0-0.0-1.0-0.0-0.8","3","3","3","3","2","5","3","3","4","4","5","1","0","-1","1","-1","-1","1","-1","5","5","3","2","4","4","4","4","3","3","6","8","6","7","7","6","7","6","7","5","2","4","3","5","3","5","2","3","2","1","4","3","6","5","4","4","4","4","3","5","3","4","5","6","4","4","5","5","5","5","7","5","6","3","2","4","2","5","3","5","794660896956882945","陈","538","Female","[""坏我"",""坏她"",""好我"",""好她""]","[""弱我"",""弱她"",""强我"",""强她""]","","","","","","","","nonmatch","","","","","","","","","","key","j","16.796093749999955","768","476","f","false","match","img/pentagon.png","好她","好她","prac_ALT2_moral","practice_moral","","","","","","","","",""
"null","<span style='color:red; font-size: 70px;'>错误! </span>","null","html-keyboard-response","27","245128","0.0-8.0-0.0-1.0-0.0-1.8","3","3","3","3","2","5","3","3","4","4","5","1","0","-1","1","-1","-1","1","-1","5","5","3","2","4","4","4","4","3","3","6","8","6","7","7","6","7","6","7","5","2","4","3","5","3","5","2","3","2","1","4","3","6","5","4","4","4","4","3","5","3","4","5","6","4","4","5","5","5","5","7","5","6","3","2","4","2","5","3","5","794660896956882945","陈","538","Female","[""坏我"",""坏她"",""好我"",""好她""]","[""弱我"",""弱她"",""强我"",""强她""]","","","","","","","","","","","","","","","","","","","","","","","","","","","","","","feedback_test","","","","","","","","",""
"755","","f","psychophysics","28","246885","0.0-8.0-0.0-1.0-0.0-0.9","3","3","3","3","2","5","3","3","4","4","5","1","0","-1","1","-1","-1","1","-1","5","5","3","2","4","4","4","4","3","3","6","8","6","7","7","6","7","6","7","5","2","4","3","5","3","5","2","3","2","1","4","3","6","5","4","4","4","4","3","5","3","4","5","6","4","4","5","5","5","5","7","5","6","3","2","4","2","5","3","5","794660896956882945","陈","538","Female","[""坏我"",""坏她"",""好我"",""好她""]","[""弱我"",""弱她"",""强我"",""强她""]","","","","","","","","match","","","","","","","","","","key","f","16.825000000000166","768","476","f","true","match","img/circle.png","好我","好我","prac_ALT2_moral","practice_moral","","","","","","","","",""
"null","<span style='color:GreenYellow; font-size: 70px;'>正确! </span>","null","html-keyboard-response","29","247403","0.0-8.0-0.0-1.0-0.0-1.9","3","3","3","3","2","5","3","3","4","4","5","1","0","-1","1","-1","-1","1","-1","5","5","3","2","4","4","4","4","3","3","6","8","6","7","7","6","7","6","7","5","2","4","3","5","3","5","2","3","2","1","4","3","6","5","4","4","4","4","3","5","3","4","5","6","4","4","5","5","5","5","7","5","6","3","2","4","2","5","3","5","794660896956882945","陈","538","Female","[""坏我"",""坏她"",""好我"",""好她""]","[""弱我"",""弱她"",""强我"",""强她""]","","","","","","","","","","","","","","","","","","","","","","","","","","","","","","feedback_test","","","","","","","","",""
"940","","j","psychophysics","30","249363","0.0-8.0-0.0-1.0-0.0-0.10","3","3","3","3","2","5","3","3","4","4","5","1","0","-1","1","-1","-1","1","-1","5","5","3","2","4","4","4","4","3","3","6","8","6","7","7","6","7","6","7","5","2","4","3","5","3","5","2","3","2","1","4","3","6","5","4","4","4","4","3","5","3","4","5","6","4","4","5","5","5","5","7","5","6","3","2","4","2","5","3","5","794660896956882945","陈","538","Female","[""坏我"",""坏她"",""好我"",""好她""]","[""弱我"",""弱她"",""强我"",""强她""]","","","","","","","","nonmatch","","","","","","","","","","key","j","16.956521739130434","768","476","j","true","nonmatch","img/triangle.png","坏我","坏她","prac_ALT2_moral","practice_moral","","","","","","","","",""
"null","<span style='color:GreenYellow; font-size: 70px;'>正确! </span>","null","html-keyboard-response","31","249868","0.0-8.0-0.0-1.0-0.0-1.10","3","3","3","3","2","5","3","3","4","4","5","1","0","-1","1","-1","-1","1","-1","5","5","3","2","4","4","4","4","3","3","6","8","6","7","7","6","7","6","7","5","2","4","3","5","3","5","2","3","2","1","4","3","6","5","4","4","4","4","3","5","3","4","5","6","4","4","5","5","5","5","7","5","6","3","2","4","2","5","3","5","794660896956882945","陈","538","Female","[""坏我"",""坏她"",""好我"",""好她""]","[""弱我"",""弱她"",""强我"",""强她""]","","","","","","","","","","","","","","","","","","","","","","","","","","","","","","feedback_test","","","","","","","","",""
"1142","","f","psychophysics","32","252018","0.0-8.0-0.0-1.0-0.0-0.11","3","3","3","3","2","5","3","3","4","4","5","1","0","-1","1","-1","-1","1","-1","5","5","3","2","4","4","4","4","3","3","6","8","6","7","7","6","7","6","7","5","2","4","3","5","3","5","2","3","2","1","4","3","6","5","4","4","4","4","3","5","3","4","5","6","4","4","5","5","5","5","7","5","6","3","2","4","2","5","3","5","794660896956882945","陈","538","Female","[""坏我"",""坏她"",""好我"",""好她""]","[""弱我"",""弱她"",""强我"",""强她""]","","","","","","","","match","","","","","","","","","","key","f","16.93095238095252","768","476","j","false","nonmatch","img/pentagon.png","好我","好她","prac_ALT2_moral","practice_moral","","","","","","","","",""
"null","<span style='color:red; font-size: 70px;'>错误! </span>","null","html-keyboard-response","33","252526","0.0-8.0-0.0-1.0-0.0-1.11","3","3","3","3","2","5","3","3","4","4","5","1","0","-1","1","-1","-1","1","-1","5","5","3","2","4","4","4","4","3","3","6","8","6","7","7","6","7","6","7","5","2","4","3","5","3","5","2","3","2","1","4","3","6","5","4","4","4","4","3","5","3","4","5","6","4","4","5","5","5","5","7","5","6","3","2","4","2","5","3","5","794660896956882945","陈","538","Female","[""坏我"",""坏她"",""好我"",""好她""]","[""弱我"",""弱她"",""强我"",""强她""]","","","","","","","","","","","","","","","","","","","","","","","","","","","","","","feedback_test","","","","","","","","",""
"665","","f","psychophysics","34","254195","0.0-8.0-0.0-1.0-0.0-0.12","3","3","3","3","2","5","3","3","4","4","5","1","0","-1","1","-1","-1","1","-1","5","5","3","2","4","4","4","4","3","3","6","8","6","7","7","6","7","6","7","5","2","4","3","5","3","5","2","3","2","1","4","3","6","5","4","4","4","4","3","5","3","4","5","6","4","4","5","5","5","5","7","5","6","3","2","4","2","5","3","5","794660896956882945","陈","538","Female","[""坏我"",""坏她"",""好我"",""好她""]","[""弱我"",""弱她"",""强我"",""强她""]","","","","","","","","match","","","","","","","","","","key","f","16.8391752577319","768","476","f","true","match","img/circle.png","好我","好我","prac_ALT2_moral","practice_moral","","","","","","","","",""
"null","<span style='color:GreenYellow; font-size: 70px;'>正确! </span>","null","html-keyboard-response","35","254728","0.0-8.0-0.0-1.0-0.0-1.12","3","3","3","3","2","5","3","3","4","4","5","1","0","-1","1","-1","-1","1","-1","5","5","3","2","4","4","4","4","3","3","6","8","6","7","7","6","7","6","7","5","2","4","3","5","3","5","2","3","2","1","4","3","6","5","4","4","4","4","3","5","3","4","5","6","4","4","5","5","5","5","7","5","6","3","2","4","2","5","3","5","794660896956882945","陈","538","Female","[""坏我"",""坏她"",""好我"",""好她""]","[""弱我"",""弱她"",""强我"",""强她""]","","","","","","","","","","","","","","","","","","","","","","","","","","","","","","feedback_test","","","","","","","","",""
"648","","j","psychophysics","36","256395","0.0-8.0-0.0-1.0-0.0-0.13","3","3","3","3","2","5","3","3","4","4","5","1","0","-1","1","-1","-1","1","-1","5","5","3","2","4","4","4","4","3","3","6","8","6","7","7","6","7","6","7","5","2","4","3","5","3","5","2","3","2","1","4","3","6","5","4","4","4","4","3","5","3","4","5","6","4","4","5","5","5","5","7","5","6","3","2","4","2","5","3","5","794660896956882945","陈","538","Female","[""坏我"",""坏她"",""好我"",""好她""]","[""弱我"",""弱她"",""强我"",""强她""]","","","","","","","","nonmatch","","","","","","","","","","key","j","16.592857142857202","768","476","j","true","nonmatch","img/circle.png","好她","好我","prac_ALT2_moral","practice_moral","","","","","","","","",""
"null","<span style='color:GreenYellow; font-size: 70px;'>正确! </span>","null","html-keyboard-response","37","256903","0.0-8.0-0.0-1.0-0.0-1.13","3","3","3","3","2","5","3","3","4","4","5","1","0","-1","1","-1","-1","1","-1","5","5","3","2","4","4","4","4","3","3","6","8","6","7","7","6","7","6","7","5","2","4","3","5","3","5","2","3","2","1","4","3","6","5","4","4","4","4","3","5","3","4","5","6","4","4","5","5","5","5","7","5","6","3","2","4","2","5","3","5","794660896956882945","陈","538","Female","[""坏我"",""坏她"",""好我"",""好她""]","[""弱我"",""弱她"",""强我"",""强她""]","","","","","","","","","","","","","","","","","","","","","","","","","","","","","","feedback_test","","","","","","","","",""
"818","","j","psychophysics","38","258723","0.0-8.0-0.0-1.0-0.0-0.14","3","3","3","3","2","5","3","3","4","4","5","1","0","-1","1","-1","-1","1","-1","5","5","3","2","4","4","4","4","3","3","6","8","6","7","7","6","7","6","7","5","2","4","3","5","3","5","2","3","2","1","4","3","6","5","4","4","4","4","3","5","3","4","5","6","4","4","5","5","5","5","7","5","6","3","2","4","2","5","3","5","794660896956882945","陈","538","Female","[""坏我"",""坏她"",""好我"",""好她""]","[""弱我"",""弱她"",""强我"",""强她""]","","","","","","","","nonmatch","","","","","","","","","","key","j","16.980188679245227","768","476","j","true","nonmatch","img/triangle.png","好她","坏她","prac_ALT2_moral","practice_moral","","","","","","","","",""
"null","<span style='color:GreenYellow; font-size: 70px;'>正确! </span>","null","html-keyboard-response","39","259226","0.0-8.0-0.0-1.0-0.0-1.14","3","3","3","3","2","5","3","3","4","4","5","1","0","-1","1","-1","-1","1","-1","5","5","3","2","4","4","4","4","3","3","6","8","6","7","7","6","7","6","7","5","2","4","3","5","3","5","2","3","2","1","4","3","6","5","4","4","4","4","3","5","3","4","5","6","4","4","5","5","5","5","7","5","6","3","2","4","2","5","3","5","794660896956882945","陈","538","Female","[""坏我"",""坏她"",""好我"",""好她""]","[""弱我"",""弱她"",""强我"",""强她""]","","","","","","","","","","","","","","","","","","","","","","","","","","","","","","feedback_test","","","","","","","","",""
"872","","j","psychophysics","40","261102","0.0-8.0-0.0-1.0-0.0-0.15","3","3","3","3","2","5","3","3","4","4","5","1","0","-1","1","-1","-1","1","-1","5","5","3","2","4","4","4","4","3","3","6","8","6","7","7","6","7","6","7","5","2","4","3","5","3","5","2","3","2","1","4","3","6","5","4","4","4","4","3","5","3","4","5","6","4","4","5","5","5","5","7","5","6","3","2","4","2","5","3","5","794660896956882945","陈","538","Female","[""坏我"",""坏她"",""好我"",""好她""]","[""弱我"",""弱她"",""强我"",""强她""]","","","","","","","","nonmatch","","","","","","","","","","key","j","16.52053571428587","768","476","j","true","nonmatch","img/square.png","好我","坏我","prac_ALT2_moral","practice_moral","","","","","","","","",""
"null","<span style='color:GreenYellow; font-size: 70px;'>正确! </span>","null","html-keyboard-response","41","261622","0.0-8.0-0.0-1.0-0.0-1.15","3","3","3","3","2","5","3","3","4","4","5","1","0","-1","1","-1","-1","1","-1","5","5","3","2","4","4","4","4","3","3","6","8","6","7","7","6","7","6","7","5","2","4","3","5","3","5","2","3","2","1","4","3","6","5","4","4","4","4","3","5","3","4","5","6","4","4","5","5","5","5","7","5","6","3","2","4","2","5","3","5","794660896956882945","陈","538","Female","[""坏我"",""坏她"",""好我"",""好她""]","[""弱我"",""弱她"",""强我"",""强她""]","","","","","","","","","","","","","","","","","","","","","","","","","","","","","","feedback_test","","","","","","","","",""
"748","","j","psychophysics","42","263394","0.0-8.0-0.0-1.0-0.0-0.16","3","3","3","3","2","5","3","3","4","4","5","1","0","-1","1","-1","-1","1","-1","5","5","3","2","4","4","4","4","3","3","6","8","6","7","7","6","7","6","7","5","2","4","3","5","3","5","2","3","2","1","4","3","6","5","4","4","4","4","3","5","3","4","5","6","4","4","5","5","5","5","7","5","6","3","2","4","2","5","3","5","794660896956882945","陈","538","Female","[""坏我"",""坏她"",""好我"",""好她""]","[""弱我"",""弱她"",""强我"",""强她""]","","","","","","","","nonmatch","","","","","","","","","","key","j","16.50865384615407","768","476","j","true","nonmatch","img/square.png","好她","坏我","prac_ALT2_moral","practice_moral","","","","","","","","",""
"null","<span style='color:GreenYellow; font-size: 70px;'>正确! </span>","null","html-keyboard-response","43","263896","0.0-8.0-0.0-1.0-0.0-1.16","3","3","3","3","2","5","3","3","4","4","5","1","0","-1","1","-1","-1","1","-1","5","5","3","2","4","4","4","4","3","3","6","8","6","7","7","6","7","6","7","5","2","4","3","5","3","5","2","3","2","1","4","3","6","5","4","4","4","4","3","5","3","4","5","6","4","4","5","5","5","5","7","5","6","3","2","4","2","5","3","5","794660896956882945","陈","538","Female","[""坏我"",""坏她"",""好我"",""好她""]","[""弱我"",""弱她"",""强我"",""强她""]","","","","","","","","","","","","","","","","","","","","","","","","","","","","","","feedback_test","","","","","","","","",""
"979","","f","psychophysics","44","265877","0.0-8.0-0.0-1.0-0.0-0.17","3","3","3","3","2","5","3","3","4","4","5","1","0","-1","1","-1","-1","1","-1","5","5","3","2","4","4","4","4","3","3","6","8","6","7","7","6","7","6","7","5","2","4","3","5","3","5","2","3","2","1","4","3","6","5","4","4","4","4","3","5","3","4","5","6","4","4","5","5","5","5","7","5","6","3","2","4","2","5","3","5","794660896956882945","陈","538","Female","[""坏我"",""坏她"",""好我"",""好她""]","[""弱我"",""弱她"",""强我"",""强她""]","","","","","","","","match","","","","","","","","","","key","f","17.105217391304652","768","476","f","true","match","img/pentagon.png","好她","好她","prac_ALT2_moral","practice_moral","","","","","","","","",""
"null","<span style='color:GreenYellow; font-size: 70px;'>正确! </span>","null","html-keyboard-response","45","266383","0.0-8.0-0.0-1.0-0.0-1.17","3","3","3","3","2","5","3","3","4","4","5","1","0","-1","1","-1","-1","1","-1","5","5","3","2","4","4","4","4","3","3","6","8","6","7","7","6","7","6","7","5","2","4","3","5","3","5","2","3","2","1","4","3","6","5","4","4","4","4","3","5","3","4","5","6","4","4","5","5","5","5","7","5","6","3","2","4","2","5","3","5","794660896956882945","陈","538","Female","[""坏我"",""坏她"",""好我"",""好她""]","[""弱我"",""弱她"",""强我"",""强她""]","","","","","","","","","","","","","","","","","","","","","","","","","","","","","","feedback_test","","","","","","","","",""
"779","","f","psychophysics","46","268166","0.0-8.0-0.0-1.0-0.0-0.18","3","3","3","3","2","5","3","3","4","4","5","1","0","-1","1","-1","-1","1","-1","5","5","3","2","4","4","4","4","3","3","6","8","6","7","7","6","7","6","7","5","2","4","3","5","3","5","2","3","2","1","4","3","6","5","4","4","4","4","3","5","3","4","5","6","4","4","5","5","5","5","7","5","6","3","2","4","2","5","3","5","794660896956882945","陈","538","Female","[""坏我"",""坏她"",""好我"",""好她""]","[""弱我"",""弱她"",""强我"",""强她""]","","","","","","","","match","","","","","","","","","","key","f","16.825714285714398","768","476","f","true","match","img/triangle.png","坏她","坏她","prac_ALT2_moral","practice_moral","","","","","","","","",""
"null","<span style='color:GreenYellow; font-size: 70px;'>正确! </span>","null","html-keyboard-response","47","268676","0.0-8.0-0.0-1.0-0.0-1.18","3","3","3","3","2","5","3","3","4","4","5","1","0","-1","1","-1","-1","1","-1","5","5","3","2","4","4","4","4","3","3","6","8","6","7","7","6","7","6","7","5","2","4","3","5","3","5","2","3","2","1","4","3","6","5","4","4","4","4","3","5","3","4","5","6","4","4","5","5","5","5","7","5","6","3","2","4","2","5","3","5","794660896956882945","陈","538","Female","[""坏我"",""坏她"",""好我"",""好她""]","[""弱我"",""弱她"",""强我"",""强她""]","","","","","","","","","","","","","","","","","","","","","","","","","","","","","","feedback_test","","","","","","","","",""
"746","","f","psychophysics","48","270442","0.0-8.0-0.0-1.0-0.0-0.19","3","3","3","3","2","5","3","3","4","4","5","1","0","-1","1","-1","-1","1","-1","5","5","3","2","4","4","4","4","3","3","6","8","6","7","7","6","7","6","7","5","2","4","3","5","3","5","2","3","2","1","4","3","6","5","4","4","4","4","3","5","3","4","5","6","4","4","5","5","5","5","7","5","6","3","2","4","2","5","3","5","794660896956882945","陈","538","Female","[""坏我"",""坏她"",""好我"",""好她""]","[""弱我"",""弱她"",""强我"",""强她""]","","","","","","","","match","","","","","","","","","","key","f","16.670873786408105","768","476","f","true","match","img/triangle.png","坏她","坏她","prac_ALT2_moral","practice_moral","","","","","","","","",""
"null","<span style='color:GreenYellow; font-size: 70px;'>正确! </span>","null","html-keyboard-response","49","270948","0.0-8.0-0.0-1.0-0.0-1.19","3","3","3","3","2","5","3","3","4","4","5","1","0","-1","1","-1","-1","1","-1","5","5","3","2","4","4","4","4","3","3","6","8","6","7","7","6","7","6","7","5","2","4","3","5","3","5","2","3","2","1","4","3","6","5","4","4","4","4","3","5","3","4","5","6","4","4","5","5","5","5","7","5","6","3","2","4","2","5","3","5","794660896956882945","陈","538","Female","[""坏我"",""坏她"",""好我"",""好她""]","[""弱我"",""弱她"",""强我"",""强她""]","","","","","","","","","","","","","","","","","","","","","","","","","","","","","","feedback_test","","","","","","","","",""
"992","","f","psychophysics","50","272947","0.0-8.0-0.0-1.0-0.0-0.20","3","3","3","3","2","5","3","3","4","4","5","1","0","-1","1","-1","-1","1","-1","5","5","3","2","4","4","4","4","3","3","6","8","6","7","7","6","7","6","7","5","2","4","3","5","3","5","2","3","2","1","4","3","6","5","4","4","4","4","3","5","3","4","5","6","4","4","5","5","5","5","7","5","6","3","2","4","2","5","3","5","794660896956882945","陈","538","Female","[""坏我"",""坏她"",""好我"",""好她""]","[""弱我"",""弱她"",""强我"",""强她""]","","","","","","","","match","","","","","","","","","","key","f","16.81391304347806","768","476","f","true","match","img/square.png","坏我","坏我","prac_ALT2_moral","practice_moral","","","","","","","","",""
"null","<span style='color:GreenYellow; font-size: 70px;'>正确! </span>","null","html-keyboard-response","51","273450","0.0-8.0-0.0-1.0-0.0-1.20","3","3","3","3","2","5","3","3","4","4","5","1","0","-1","1","-1","-1","1","-1","5","5","3","2","4","4","4","4","3","3","6","8","6","7","7","6","7","6","7","5","2","4","3","5","3","5","2","3","2","1","4","3","6","5","4","4","4","4","3","5","3","4","5","6","4","4","5","5","5","5","7","5","6","3","2","4","2","5","3","5","794660896956882945","陈","538","Female","[""坏我"",""坏她"",""好我"",""好她""]","[""弱我"",""弱她"",""强我"",""强她""]","","","","","","","","","","","","","","","","","","","","","","","","","","","","","","feedback_test","","","","","","","","",""
"872","","j","psychophysics","52","275329","0.0-8.0-0.0-1.0-0.0-0.21","3","3","3","3","2","5","3","3","4","4","5","1","0","-1","1","-1","-1","1","-1","5","5","3","2","4","4","4","4","3","3","6","8","6","7","7","6","7","6","7","5","2","4","3","5","3","5","2","3","2","1","4","3","6","5","4","4","4","4","3","5","3","4","5","6","4","4","5","5","5","5","7","5","6","3","2","4","2","5","3","5","794660896956882945","陈","538","Female","[""坏我"",""坏她"",""好我"",""好她""]","[""弱我"",""弱她"",""强我"",""强她""]","","","","","","","","nonmatch","","","","","","","","","","key","j","16.820000000000107","768","476","j","true","nonmatch","img/circle.png","坏我","好我","prac_ALT2_moral","practice_moral","","","","","","","","",""
"null","<span style='color:GreenYellow; font-size: 70px;'>正确! </span>","null","html-keyboard-response","53","275843","0.0-8.0-0.0-1.0-0.0-1.21","3","3","3","3","2","5","3","3","4","4","5","1","0","-1","1","-1","-1","1","-1","5","5","3","2","4","4","4","4","3","3","6","8","6","7","7","6","7","6","7","5","2","4","3","5","3","5","2","3","2","1","4","3","6","5","4","4","4","4","3","5","3","4","5","6","4","4","5","5","5","5","7","5","6","3","2","4","2","5","3","5","794660896956882945","陈","538","Female","[""坏我"",""坏她"",""好我"",""好她""]","[""弱我"",""弱她"",""强我"",""强她""]","","","","","","","","","","","","","","","","","","","","","","","","","","","","","","feedback_test","","","","","","","","",""
"988","","f","psychophysics","54","277851","0.0-8.0-0.0-1.0-0.0-0.22","3","3","3","3","2","5","3","3","4","4","5","1","0","-1","1","-1","-1","1","-1","5","5","3","2","4","4","4","4","3","3","6","8","6","7","7","6","7","6","7","5","2","4","3","5","3","5","2","3","2","1","4","3","6","5","4","4","4","4","3","5","3","4","5","6","4","4","5","5","5","5","7","5","6","3","2","4","2","5","3","5","794660896956882945","陈","538","Female","[""坏我"",""坏她"",""好我"",""好她""]","[""弱我"",""弱她"",""强我"",""强她""]","","","","","","","","match","","","","","","","","","","key","f","16.955172413793004","768","476","f","true","match","img/square.png","坏我","坏我","prac_ALT2_moral","practice_moral","","","","","","","","",""
"null","<span style='color:GreenYellow; font-size: 70px;'>正确! </span>","null","html-keyboard-response","55","278360","0.0-8.0-0.0-1.0-0.0-1.22","3","3","3","3","2","5","3","3","4","4","5","1","0","-1","1","-1","-1","1","-1","5","5","3","2","4","4","4","4","3","3","6","8","6","7","7","6","7","6","7","5","2","4","3","5","3","5","2","3","2","1","4","3","6","5","4","4","4","4","3","5","3","4","5","6","4","4","5","5","5","5","7","5","6","3","2","4","2","5","3","5","794660896956882945","陈","538","Female","[""坏我"",""坏她"",""好我"",""好她""]","[""弱我"",""弱她"",""强我"",""强她""]","","","","","","","","","","","","","","","","","","","","","","","","","","","","","","feedback_test","","","","","","","","",""
"731","","f","psychophysics","56","280094","0.0-8.0-0.0-1.0-0.0-0.23","3","3","3","3","2","5","3","3","4","4","5","1","0","-1","1","-1","-1","1","-1","5","5","3","2","4","4","4","4","3","3","6","8","6","7","7","6","7","6","7","5","2","4","3","5","3","5","2","3","2","1","4","3","6","5","4","4","4","4","3","5","3","4","5","6","4","4","5","5","5","5","7","5","6","3","2","4","2","5","3","5","794660896956882945","陈","538","Female","[""坏我"",""坏她"",""好我"",""好她""]","[""弱我"",""弱她"",""强我"",""强她""]","","","","","","","","match","","","","","","","","","","key","f","16.667326732672922","768","476","f","true","match","img/circle.png","好我","好我","prac_ALT2_moral","practice_moral","","","","","","","","",""
"null","<span style='color:GreenYellow; font-size: 70px;'>正确! </span>","null","html-keyboard-response","57","280595","0.0-8.0-0.0-1.0-0.0-1.23","3","3","3","3","2","5","3","3","4","4","5","1","0","-1","1","-1","-1","1","-1","5","5","3","2","4","4","4","4","3","3","6","8","6","7","7","6","7","6","7","5","2","4","3","5","3","5","2","3","2","1","4","3","6","5","4","4","4","4","3","5","3","4","5","6","4","4","5","5","5","5","7","5","6","3","2","4","2","5","3","5","794660896956882945","陈","538","Female","[""坏我"",""坏她"",""好我"",""好她""]","[""弱我"",""弱她"",""强我"",""强她""]","","","","","","","","","","","","","","","","","","","","","","","","","","","","","","feedback_test","","","","","","","","",""
"763","","j","psychophysics","58","282362","0.0-8.0-0.0-1.0-0.0-0.24","3","3","3","3","2","5","3","3","4","4","5","1","0","-1","1","-1","-1","1","-1","5","5","3","2","4","4","4","4","3","3","6","8","6","7","7","6","7","6","7","5","2","4","3","5","3","5","2","3","2","1","4","3","6","5","4","4","4","4","3","5","3","4","5","6","4","4","5","5","5","5","7","5","6","3","2","4","2","5","3","5","794660896956882945","陈","538","Female","[""坏我"",""坏她"",""好我"",""好她""]","[""弱我"",""弱她"",""强我"",""强她""]","","","","","","","","nonmatch","","","","","","","","","","key","j","16.665384615384728","768","476","j","true","nonmatch","img/square.png","坏她","坏我","prac_ALT2_moral","practice_moral","","","","","","","","",""
"null","<span style='color:GreenYellow; font-size: 70px;'>正确! </span>","null","html-keyboard-response","59","282891","0.0-8.0-0.0-1.0-0.0-1.24","3","3","3","3","2","5","3","3","4","4","5","1","0","-1","1","-1","-1","1","-1","5","5","3","2","4","4","4","4","3","3","6","8","6","7","7","6","7","6","7","5","2","4","3","5","3","5","2","3","2","1","4","3","6","5","4","4","4","4","3","5","3","4","5","6","4","4","5","5","5","5","7","5","6","3","2","4","2","5","3","5","794660896956882945","陈","538","Female","[""坏我"",""坏她"",""好我"",""好她""]","[""弱我"",""弱她"",""强我"",""强她""]","","","","","","","","","","","","","","","","","","","","","","","","","","","","","","feedback_test","","","","","","","","",""
"812","","f","psychophysics","60","284725","0.0-8.0-0.0-1.0-0.0-0.25","3","3","3","3","2","5","3","3","4","4","5","1","0","-1","1","-1","-1","1","-1","5","5","3","2","4","4","4","4","3","3","6","8","6","7","7","6","7","6","7","5","2","4","3","5","3","5","2","3","2","1","4","3","6","5","4","4","4","4","3","5","3","4","5","6","4","4","5","5","5","5","7","5","6","3","2","4","2","5","3","5","794660896956882945","陈","538","Female","[""坏我"",""坏她"",""好我"",""好她""]","[""弱我"",""弱她"",""强我"",""强她""]","","","","","","","","match","","","","","","","","","","key","f","16.824299065420668","768","476","f","true","match","img/triangle.png","坏她","坏她","prac_ALT2_moral","practice_moral","","","","","","","","",""
"null","<span style='color:GreenYellow; font-size: 70px;'>正确! </span>","null","html-keyboard-response","61","285230","0.0-8.0-0.0-1.0-0.0-1.25","3","3","3","3","2","5","3","3","4","4","5","1","0","-1","1","-1","-1","1","-1","5","5","3","2","4","4","4","4","3","3","6","8","6","7","7","6","7","6","7","5","2","4","3","5","3","5","2","3","2","1","4","3","6","5","4","4","4","4","3","5","3","4","5","6","4","4","5","5","5","5","7","5","6","3","2","4","2","5","3","5","794660896956882945","陈","538","Female","[""坏我"",""坏她"",""好我"",""好她""]","[""弱我"",""弱她"",""强我"",""强她""]","","","","","","","","","","","","","","","","","","","","","","","","","","","","","","feedback_test","","","","","","","","",""
"864","","f","psychophysics","62","287101","0.0-8.0-0.0-1.0-0.0-0.26","3","3","3","3","2","5","3","3","4","4","5","1","0","-1","1","-1","-1","1","-1","5","5","3","2","4","4","4","4","3","3","6","8","6","7","7","6","7","6","7","5","2","4","3","5","3","5","2","3","2","1","4","3","6","5","4","4","4","4","3","5","3","4","5","6","4","4","5","5","5","5","7","5","6","3","2","4","2","5","3","5","794660896956882945","陈","538","Female","[""坏我"",""坏她"",""好我"",""好她""]","[""弱我"",""弱她"",""强我"",""强她""]","","","","","","","","match","","","","","","","","","","key","f","16.970000000000105","768","476","f","true","match","img/circle.png","好我","好我","prac_ALT2_moral","practice_moral","","","","","","","","",""
"null","<span style='color:GreenYellow; font-size: 70px;'>正确! </span>","null","html-keyboard-response","63","287608","0.0-8.0-0.0-1.0-0.0-1.26","3","3","3","3","2","5","3","3","4","4","5","1","0","-1","1","-1","-1","1","-1","5","5","3","2","4","4","4","4","3","3","6","8","6","7","7","6","7","6","7","5","2","4","3","5","3","5","2","3","2","1","4","3","6","5","4","4","4","4","3","5","3","4","5","6","4","4","5","5","5","5","7","5","6","3","2","4","2","5","3","5","794660896956882945","陈","538","Female","[""坏我"",""坏她"",""好我"",""好她""]","[""弱我"",""弱她"",""强我"",""强她""]","","","","","","","","","","","","","","","","","","","","","","","","","","","","","","feedback_test","","","","","","","","",""
"889","","j","psychophysics","64","289501","0.0-8.0-0.0-1.0-0.0-0.27","3","3","3","3","2","5","3","3","4","4","5","1","0","-1","1","-1","-1","1","-1","5","5","3","2","4","4","4","4","3","3","6","8","6","7","7","6","7","6","7","5","2","4","3","5","3","5","2","3","2","1","4","3","6","5","4","4","4","4","3","5","3","4","5","6","4","4","5","5","5","5","7","5","6","3","2","4","2","5","3","5","794660896956882945","陈","538","Female","[""坏我"",""坏她"",""好我"",""好她""]","[""弱我"",""弱她"",""强我"",""强她""]","","","","","","","","nonmatch","","","","","","","","","","key","j","16.970000000000105","768","476","j","true","nonmatch","img/square.png","好她","坏我","prac_ALT2_moral","practice_moral","","","","","","","","",""
"null","<span style='color:GreenYellow; font-size: 70px;'>正确! </span>","null","html-keyboard-response","65","290038","0.0-8.0-0.0-1.0-0.0-1.27","3","3","3","3","2","5","3","3","4","4","5","1","0","-1","1","-1","-1","1","-1","5","5","3","2","4","4","4","4","3","3","6","8","6","7","7","6","7","6","7","5","2","4","3","5","3","5","2","3","2","1","4","3","6","5","4","4","4","4","3","5","3","4","5","6","4","4","5","5","5","5","7","5","6","3","2","4","2","5","3","5","794660896956882945","陈","538","Female","[""坏我"",""坏她"",""好我"",""好她""]","[""弱我"",""弱她"",""强我"",""强她""]","","","","","","","","","","","","","","","","","","","","","","","","","","","","","","feedback_test","","","","","","","","",""
"649","","f","psychophysics","66","291699","0.0-8.0-0.0-1.0-0.0-0.28","3","3","3","3","2","5","3","3","4","4","5","1","0","-1","1","-1","-1","1","-1","5","5","3","2","4","4","4","4","3","3","6","8","6","7","7","6","7","6","7","5","2","4","3","5","3","5","2","3","2","1","4","3","6","5","4","4","4","4","3","5","3","4","5","6","4","4","5","5","5","5","7","5","6","3","2","4","2","5","3","5","794660896956882945","陈","538","Female","[""坏我"",""坏她"",""好我"",""好她""]","[""弱我"",""弱她"",""强我"",""强她""]","","","","","","","","match","","","","","","","","","","key","f","16.83814432989679","768","476","f","true","match","img/triangle.png","坏她","坏她","prac_ALT2_moral","practice_moral","","","","","","","","",""
"null","<span style='color:GreenYellow; font-size: 70px;'>正确! </span>","null","html-keyboard-response","67","292208","0.0-8.0-0.0-1.0-0.0-1.28","3","3","3","3","2","5","3","3","4","4","5","1","0","-1","1","-1","-1","1","-1","5","5","3","2","4","4","4","4","3","3","6","8","6","7","7","6","7","6","7","5","2","4","3","5","3","5","2","3","2","1","4","3","6","5","4","4","4","4","3","5","3","4","5","6","4","4","5","5","5","5","7","5","6","3","2","4","2","5","3","5","794660896956882945","陈","538","Female","[""坏我"",""坏她"",""好我"",""好她""]","[""弱我"",""弱她"",""强我"",""强她""]","","","","","","","","","","","","","","","","","","","","","","","","","","","","","","feedback_test","","","","","","","","",""
"642","","j","psychophysics","68","293856","0.0-8.0-0.0-1.0-0.0-0.29","3","3","3","3","2","5","3","3","4","4","5","1","0","-1","1","-1","-1","1","-1","5","5","3","2","4","4","4","4","3","3","6","8","6","7","7","6","7","6","7","5","2","4","3","5","3","5","2","3","2","1","4","3","6","5","4","4","4","4","3","5","3","4","5","6","4","4","5","5","5","5","7","5","6","3","2","4","2","5","3","5","794660896956882945","陈","538","Female","[""坏我"",""坏她"",""好我"",""好她""]","[""弱我"",""弱她"",""强我"",""强她""]","","","","","","","","nonmatch","","","","","","","","","","key","j","16.670103092783506","768","476","j","true","nonmatch","img/circle.png","坏她","好我","prac_ALT2_moral","practice_moral","","","","","","","","",""
"null","<span style='color:GreenYellow; font-size: 70px;'>正确! </span>","null","html-keyboard-response","69","294365","0.0-8.0-0.0-1.0-0.0-1.29","3","3","3","3","2","5","3","3","4","4","5","1","0","-1","1","-1","-1","1","-1","5","5","3","2","4","4","4","4","3","3","6","8","6","7","7","6","7","6","7","5","2","4","3","5","3","5","2","3","2","1","4","3","6","5","4","4","4","4","3","5","3","4","5","6","4","4","5","5","5","5","7","5","6","3","2","4","2","5","3","5","794660896956882945","陈","538","Female","[""坏我"",""坏她"",""好我"",""好她""]","[""弱我"",""弱她"",""强我"",""强她""]","","","","","","","","","","","","","","","","","","","","","","","","","","","","","","feedback_test","","","","","","","","",""
"null","","null","psychophysics","70","296570","0.0-8.0-0.0-1.0-0.0-0.30","3","3","3","3","2","5","3","3","4","4","5","1","0","-1","1","-1","-1","1","-1","5","5","3","2","4","4","4","4","3","3","6","8","6","7","7","6","7","6","7","5","2","4","3","5","3","5","2","3","2","1","4","3","6","5","4","4","4","4","3","5","3","4","5","6","4","4","5","5","5","5","7","5","6","3","2","4","2","5","3","5","794660896956882945","陈","538","Female","[""坏我"",""坏她"",""好我"",""好她""]","[""弱我"",""弱她"",""强我"",""强她""]","","","","","","","","null","","","","","","","","","","key","null","16.667692307692217","768","476","f","false","match","img/pentagon.png","好她","好她","prac_ALT2_moral","practice_moral","","","","","","","","",""
"null","<span class='add_' style='color:yellow; font-size: 70px;'> 太慢! </span>","null","html-keyboard-response","71","297076","0.0-8.0-0.0-1.0-0.0-1.30","3","3","3","3","2","5","3","3","4","4","5","1","0","-1","1","-1","-1","1","-1","5","5","3","2","4","4","4","4","3","3","6","8","6","7","7","6","7","6","7","5","2","4","3","5","3","5","2","3","2","1","4","3","6","5","4","4","4","4","3","5","3","4","5","6","4","4","5","5","5","5","7","5","6","3","2","4","2","5","3","5","794660896956882945","陈","538","Female","[""坏我"",""坏她"",""好我"",""好她""]","[""弱我"",""弱她"",""强我"",""强她""]","","","","","","","","","","","","","","","","","","","","","","","","","","","","","","feedback_test","","","","","","","","",""
"589","","f","psychophysics","72","298668","0.0-8.0-0.0-1.0-0.0-0.31","3","3","3","3","2","5","3","3","4","4","5","1","0","-1","1","-1","-1","1","-1","5","5","3","2","4","4","4","4","3","3","6","8","6","7","7","6","7","6","7","5","2","4","3","5","3","5","2","3","2","1","4","3","6","5","4","4","4","4","3","5","3","4","5","6","4","4","5","5","5","5","7","5","6","3","2","4","2","5","3","5","794660896956882945","陈","538","Female","[""坏我"",""坏她"",""好我"",""好她""]","[""弱我"",""弱她"",""强我"",""强她""]","","","","","","","","match","","","","","","","","","","key","f","17.019354838709553","768","476","j","false","nonmatch","img/circle.png","坏我","好我","prac_ALT2_moral","practice_moral","","","","","","","","",""
"null","<span style='color:red; font-size: 70px;'>错误! </span>","null","html-keyboard-response","73","299171","0.0-8.0-0.0-1.0-0.0-1.31","3","3","3","3","2","5","3","3","4","4","5","1","0","-1","1","-1","-1","1","-1","5","5","3","2","4","4","4","4","3","3","6","8","6","7","7","6","7","6","7","5","2","4","3","5","3","5","2","3","2","1","4","3","6","5","4","4","4","4","3","5","3","4","5","6","4","4","5","5","5","5","7","5","6","3","2","4","2","5","3","5","794660896956882945","陈","538","Female","[""坏我"",""坏她"",""好我"",""好她""]","[""弱我"",""弱她"",""强我"",""强她""]","","","","","","","","","","","","","","","","","","","","","","","","","","","","","","feedback_test","","","","","","","","",""
"871","","j","psychophysics","74","301046","0.0-8.0-0.0-1.0-0.0-0.32","3","3","3","3","2","5","3","3","4","4","5","1","0","-1","1","-1","-1","1","-1","5","5","3","2","4","4","4","4","3","3","6","8","6","7","7","6","7","6","7","5","2","4","3","5","3","5","2","3","2","1","4","3","6","5","4","4","4","4","3","5","3","4","5","6","4","4","5","5","5","5","7","5","6","3","2","4","2","5","3","5","794660896956882945","陈","538","Female","[""坏我"",""坏她"",""好我"",""好她""]","[""弱我"",""弱她"",""强我"",""强她""]","","","","","","","","nonmatch","","","","","","","","","","key","j","16.820720720720512","768","476","j","true","nonmatch","img/pentagon.png","坏我","好她","prac_ALT2_moral","practice_moral","","","","","","","","",""
"null","<span style='color:GreenYellow; font-size: 70px;'>正确! </span>","null","html-keyboard-response","75","301553","0.0-8.0-0.0-1.0-0.0-1.32","3","3","3","3","2","5","3","3","4","4","5","1","0","-1","1","-1","-1","1","-1","5","5","3","2","4","4","4","4","3","3","6","8","6","7","7","6","7","6","7","5","2","4","3","5","3","5","2","3","2","1","4","3","6","5","4","4","4","4","3","5","3","4","5","6","4","4","5","5","5","5","7","5","6","3","2","4","2","5","3","5","794660896956882945","陈","538","Female","[""坏我"",""坏她"",""好我"",""好她""]","[""弱我"",""弱她"",""强我"",""强她""]","","","","","","","","","","","","","","","","","","","","","","","","","","","","","","feedback_test","","","","","","","","",""
"1021","","f","psychophysics","76","303596","0.0-8.0-0.0-1.0-0.0-0.33","3","3","3","3","2","5","3","3","4","4","5","1","0","-1","1","-1","-1","1","-1","5","5","3","2","4","4","4","4","3","3","6","8","6","7","7","6","7","6","7","5","2","4","3","5","3","5","2","3","2","1","4","3","6","5","4","4","4","4","3","5","3","4","5","6","4","4","5","5","5","5","7","5","6","3","2","4","2","5","3","5","794660896956882945","陈","538","Female","[""坏我"",""坏她"",""好我"",""好她""]","[""弱我"",""弱她"",""强我"",""强她""]","","","","","","","","match","","","","","","","","","","key","f","16.946218487394763","768","476","j","false","nonmatch","img/pentagon.png","坏她","好她","prac_ALT2_moral","practice_moral","","","","","","","","",""
"null","<span style='color:red; font-size: 70px;'>错误! </span>","null","html-keyboard-response","77","304100","0.0-8.0-0.0-1.0-0.0-1.33","3","3","3","3","2","5","3","3","4","4","5","1","0","-1","1","-1","-1","1","-1","5","5","3","2","4","4","4","4","3","3","6","8","6","7","7","6","7","6","7","5","2","4","3","5","3","5","2","3","2","1","4","3","6","5","4","4","4","4","3","5","3","4","5","6","4","4","5","5","5","5","7","5","6","3","2","4","2","5","3","5","794660896956882945","陈","538","Female","[""坏我"",""坏她"",""好我"",""好她""]","[""弱我"",""弱她"",""强我"",""强她""]","","","","","","","","","","","","","","","","","","","","","","","","","","","","","","feedback_test","","","","","","","","",""
"821","","f","psychophysics","78","305923","0.0-8.0-0.0-1.0-0.0-0.34","3","3","3","3","2","5","3","3","4","4","5","1","0","-1","1","-1","-1","1","-1","5","5","3","2","4","4","4","4","3","3","6","8","6","7","7","6","7","6","7","5","2","4","3","5","3","5","2","3","2","1","4","3","6","5","4","4","4","4","3","5","3","4","5","6","4","4","5","5","5","5","7","5","6","3","2","4","2","5","3","5","794660896956882945","陈","538","Female","[""坏我"",""坏她"",""好我"",""好她""]","[""弱我"",""弱她"",""强我"",""强她""]","","","","","","","","match","","","","","","","","","","key","f","16.977570093457725","768","476","f","true","match","img/square.png","坏我","坏我","prac_ALT2_moral","practice_moral","","","","","","","","",""
"null","<span style='color:GreenYellow; font-size: 70px;'>正确! </span>","null","html-keyboard-response","79","306425","0.0-8.0-0.0-1.0-0.0-1.34","3","3","3","3","2","5","3","3","4","4","5","1","0","-1","1","-1","-1","1","-1","5","5","3","2","4","4","4","4","3","3","6","8","6","7","7","6","7","6","7","5","2","4","3","5","3","5","2","3","2","1","4","3","6","5","4","4","4","4","3","5","3","4","5","6","4","4","5","5","5","5","7","5","6","3","2","4","2","5","3","5","794660896956882945","陈","538","Female","[""坏我"",""坏她"",""好我"",""好她""]","[""弱我"",""弱她"",""强我"",""强她""]","","","","","","","","","","","","","","","","","","","","","","","","","","","","","","feedback_test","","","","","","","","",""
"754","","f","psychophysics","80","308184","0.0-8.0-0.0-1.0-0.0-0.35","3","3","3","3","2","5","3","3","4","4","5","1","0","-1","1","-1","-1","1","-1","5","5","3","2","4","4","4","4","3","3","6","8","6","7","7","6","7","6","7","5","2","4","3","5","3","5","2","3","2","1","4","3","6","5","4","4","4","4","3","5","3","4","5","6","4","4","5","5","5","5","7","5","6","3","2","4","2","5","3","5","794660896956882945","陈","538","Female","[""坏我"",""坏她"",""好我"",""好她""]","[""弱我"",""弱她"",""强我"",""强她""]","","","","","","","","match","","","","","","","","","","key","f","16.829126213591895","768","476","j","false","nonmatch","img/triangle.png","好我","坏她","prac_ALT2_moral","practice_moral","","","","","","","","",""
"null","<span style='color:red; font-size: 70px;'>错误! </span>","null","html-keyboard-response","81","308695","0.0-8.0-0.0-1.0-0.0-1.35","3","3","3","3","2","5","3","3","4","4","5","1","0","-1","1","-1","-1","1","-1","5","5","3","2","4","4","4","4","3","3","6","8","6","7","7","6","7","6","7","5","2","4","3","5","3","5","2","3","2","1","4","3","6","5","4","4","4","4","3","5","3","4","5","6","4","4","5","5","5","5","7","5","6","3","2","4","2","5","3","5","794660896956882945","陈","538","Female","[""坏我"",""坏她"",""好我"",""好她""]","[""弱我"",""弱她"",""强我"",""强她""]","","","","","","","","","","","","","","","","","","","","","","","","","","","","","","feedback_test","","","","","","","","",""
"709","","j","psychophysics","82","310420","0.0-8.0-0.0-1.0-0.0-0.36","3","3","3","3","2","5","3","3","4","4","5","1","0","-1","1","-1","-1","1","-1","5","5","3","2","4","4","4","4","3","3","6","8","6","7","7","6","7","6","7","5","2","4","3","5","3","5","2","3","2","1","4","3","6","5","4","4","4","4","3","5","3","4","5","6","4","4","5","5","5","5","7","5","6","3","2","4","2","5","3","5","794660896956882945","陈","538","Female","[""坏我"",""坏她"",""好我"",""好她""]","[""弱我"",""弱她"",""强我"",""强她""]","","","","","","","","nonmatch","","","","","","","","","","key","j","16.834000000000234","768","476","j","true","nonmatch","img/circle.png","好她","好我","prac_ALT2_moral","practice_moral","","","","","","","","",""
"null","<span style='color:GreenYellow; font-size: 70px;'>正确! </span>","null","html-keyboard-response","83","310923","0.0-8.0-0.0-1.0-0.0-1.36","3","3","3","3","2","5","3","3","4","4","5","1","0","-1","1","-1","-1","1","-1","5","5","3","2","4","4","4","4","3","3","6","8","6","7","7","6","7","6","7","5","2","4","3","5","3","5","2","3","2","1","4","3","6","5","4","4","4","4","3","5","3","4","5","6","4","4","5","5","5","5","7","5","6","3","2","4","2","5","3","5","794660896956882945","陈","538","Female","[""坏我"",""坏她"",""好我"",""好她""]","[""弱我"",""弱她"",""强我"",""强她""]","","","","","","","","","","","","","","","","","","","","","","","","","","","","","","feedback_test","","","","","","","","",""
"777","","j","psychophysics","84","312706","0.0-8.0-0.0-1.0-0.0-0.37","3","3","3","3","2","5","3","3","4","4","5","1","0","-1","1","-1","-1","1","-1","5","5","3","2","4","4","4","4","3","3","6","8","6","7","7","6","7","6","7","5","2","4","3","5","3","5","2","3","2","1","4","3","6","5","4","4","4","4","3","5","3","4","5","6","4","4","5","5","5","5","7","5","6","3","2","4","2","5","3","5","794660896956882945","陈","538","Female","[""坏我"",""坏她"",""好我"",""好她""]","[""弱我"",""弱她"",""强我"",""强她""]","","","","","","","","nonmatch","","","","","","","","","","key","j","16.667307692307357","768","476","j","true","nonmatch","img/triangle.png","好她","坏她","prac_ALT2_moral","practice_moral","","","","","","","","",""
"null","<span style='color:GreenYellow; font-size: 70px;'>正确! </span>","null","html-keyboard-response","85","313208","0.0-8.0-0.0-1.0-0.0-1.37","3","3","3","3","2","5","3","3","4","4","5","1","0","-1","1","-1","-1","1","-1","5","5","3","2","4","4","4","4","3","3","6","8","6","7","7","6","7","6","7","5","2","4","3","5","3","5","2","3","2","1","4","3","6","5","4","4","4","4","3","5","3","4","5","6","4","4","5","5","5","5","7","5","6","3","2","4","2","5","3","5","794660896956882945","陈","538","Female","[""坏我"",""坏她"",""好我"",""好她""]","[""弱我"",""弱她"",""强我"",""强她""]","","","","","","","","","","","","","","","","","","","","","","","","","","","","","","feedback_test","","","","","","","","",""
"730","","f","psychophysics","86","314942","0.0-8.0-0.0-1.0-0.0-0.38","3","3","3","3","2","5","3","3","4","4","5","1","0","-1","1","-1","-1","1","-1","5","5","3","2","4","4","4","4","3","3","6","8","6","7","7","6","7","6","7","5","2","4","3","5","3","5","2","3","2","1","4","3","6","5","4","4","4","4","3","5","3","4","5","6","4","4","5","5","5","5","7","5","6","3","2","4","2","5","3","5","794660896956882945","陈","538","Female","[""坏我"",""坏她"",""好我"",""好她""]","[""弱我"",""弱她"",""强我"",""强她""]","","","","","","","","match","","","","","","","","","","key","f","16.831683168316832","768","476","f","true","match","img/square.png","坏我","坏我","prac_ALT2_moral","practice_moral","","","","","","","","",""
"null","<span style='color:GreenYellow; font-size: 70px;'>正确! </span>","null","html-keyboard-response","87","315472","0.0-8.0-0.0-1.0-0.0-1.38","3","3","3","3","2","5","3","3","4","4","5","1","0","-1","1","-1","-1","1","-1","5","5","3","2","4","4","4","4","3","3","6","8","6","7","7","6","7","6","7","5","2","4","3","5","3","5","2","3","2","1","4","3","6","5","4","4","4","4","3","5","3","4","5","6","4","4","5","5","5","5","7","5","6","3","2","4","2","5","3","5","794660896956882945","陈","538","Female","[""坏我"",""坏她"",""好我"",""好她""]","[""弱我"",""弱她"",""强我"",""强她""]","","","","","","","","","","","","","","","","","","","","","","","","","","","","","","feedback_test","","","","","","","","",""
"490","","j","psychophysics","88","316985","0.0-8.0-0.0-1.0-0.0-0.39","3","3","3","3","2","5","3","3","4","4","5","1","0","-1","1","-1","-1","1","-1","5","5","3","2","4","4","4","4","3","3","6","8","6","7","7","6","7","6","7","5","2","4","3","5","3","5","2","3","2","1","4","3","6","5","4","4","4","4","3","5","3","4","5","6","4","4","5","5","5","5","7","5","6","3","2","4","2","5","3","5","794660896956882945","陈","538","Female","[""坏我"",""坏她"",""好我"",""好她""]","[""弱我"",""弱她"",""强我"",""强她""]","","","","","","","","nonmatch","","","","","","","","","","key","j","16.671590909090643","768","476","j","true","nonmatch","img/pentagon.png","好我","好她","prac_ALT2_moral","practice_moral","","","","","","","","",""
"null","<span style='color:GreenYellow; font-size: 70px;'>正确! </span>","null","html-keyboard-response","89","317490","0.0-8.0-0.0-1.0-0.0-1.39","3","3","3","3","2","5","3","3","4","4","5","1","0","-1","1","-1","-1","1","-1","5","5","3","2","4","4","4","4","3","3","6","8","6","7","7","6","7","6","7","5","2","4","3","5","3","5","2","3","2","1","4","3","6","5","4","4","4","4","3","5","3","4","5","6","4","4","5","5","5","5","7","5","6","3","2","4","2","5","3","5","794660896956882945","陈","538","Female","[""坏我"",""坏她"",""好我"",""好她""]","[""弱我"",""弱她"",""强我"",""强她""]","","","","","","","","","","","","","","","","","","","","","","","","","","","","","","feedback_test","","","","","","","","",""
"805","","j","psychophysics","90","319301","0.0-8.0-0.0-1.0-0.0-0.40","3","3","3","3","2","5","3","3","4","4","5","1","0","-1","1","-1","-1","1","-1","5","5","3","2","4","4","4","4","3","3","6","8","6","7","7","6","7","6","7","5","2","4","3","5","3","5","2","3","2","1","4","3","6","5","4","4","4","4","3","5","3","4","5","6","4","4","5","5","5","5","7","5","6","3","2","4","2","5","3","5","794660896956882945","陈","538","Female","[""坏我"",""坏她"",""好我"",""好她""]","[""弱我"",""弱她"",""强我"",""强她""]","","","","","","","","nonmatch","","","","","","","","","","key","j","16.82857142857143","768","476","f","false","match","img/pentagon.png","好她","好她","prac_ALT2_moral","practice_moral","","","","","","","","",""
"null","<span style='color:red; font-size: 70px;'>错误! </span>","null","html-keyboard-response","91","319805","0.0-8.0-0.0-1.0-0.0-1.40","3","3","3","3","2","5","3","3","4","4","5","1","0","-1","1","-1","-1","1","-1","5","5","3","2","4","4","4","4","3","3","6","8","6","7","7","6","7","6","7","5","2","4","3","5","3","5","2","3","2","1","4","3","6","5","4","4","4","4","3","5","3","4","5","6","4","4","5","5","5","5","7","5","6","3","2","4","2","5","3","5","794660896956882945","陈","538","Female","[""坏我"",""坏她"",""好我"",""好她""]","[""弱我"",""弱她"",""强我"",""强她""]","","","","","","","","","","","","","","","","","","","","","","","","","","","","","","feedback_test","","","","","","","","",""
"828","","j","psychophysics","92","321640","0.0-8.0-0.0-1.0-0.0-0.41","3","3","3","3","2","5","3","3","4","4","5","1","0","-1","1","-1","-1","1","-1","5","5","3","2","4","4","4","4","3","3","6","8","6","7","7","6","7","6","7","5","2","4","3","5","3","5","2","3","2","1","4","3","6","5","4","4","4","4","3","5","3","4","5","6","4","4","5","5","5","5","7","5","6","3","2","4","2","5","3","5","794660896956882945","陈","538","Female","[""坏我"",""坏她"",""好我"",""好她""]","[""弱我"",""弱她"",""强我"",""强她""]","","","","","","","","nonmatch","","","","","","","","","","key","j","16.960377358490454","768","476","j","true","nonmatch","img/square.png","好我","坏我","prac_ALT2_moral","practice_moral","","","","","","","","",""
"null","<span style='color:GreenYellow; font-size: 70px;'>正确! </span>","null","html-keyboard-response","93","322171","0.0-8.0-0.0-1.0-0.0-1.41","3","3","3","3","2","5","3","3","4","4","5","1","0","-1","1","-1","-1","1","-1","5","5","3","2","4","4","4","4","3","3","6","8","6","7","7","6","7","6","7","5","2","4","3","5","3","5","2","3","2","1","4","3","6","5","4","4","4","4","3","5","3","4","5","6","4","4","5","5","5","5","7","5","6","3","2","4","2","5","3","5","794660896956882945","陈","538","Female","[""坏我"",""坏她"",""好我"",""好她""]","[""弱我"",""弱她"",""强我"",""强她""]","","","","","","","","","","","","","","","","","","","","","","","","","","","","","","feedback_test","","","","","","","","",""
"1064","","f","psychophysics","94","324246","0.0-8.0-0.0-1.0-0.0-0.42","3","3","3","3","2","5","3","3","4","4","5","1","0","-1","1","-1","-1","1","-1","5","5","3","2","4","4","4","4","3","3","6","8","6","7","7","6","7","6","7","5","2","4","3","5","3","5","2","3","2","1","4","3","6","5","4","4","4","4","3","5","3","4","5","6","4","4","5","5","5","5","7","5","6","3","2","4","2","5","3","5","794660896956882945","陈","538","Female","[""坏我"",""坏她"",""好我"",""好她""]","[""弱我"",""弱她"",""强我"",""强她""]","","","","","","","","match","","","","","","","","","","key","f","16.748360655738086","768","476","f","true","match","img/square.png","坏我","坏我","prac_ALT2_moral","practice_moral","","","","","","","","",""
"null","<span style='color:GreenYellow; font-size: 70px;'>正确! </span>","null","html-keyboard-response","95","324749","0.0-8.0-0.0-1.0-0.0-1.42","3","3","3","3","2","5","3","3","4","4","5","1","0","-1","1","-1","-1","1","-1","5","5","3","2","4","4","4","4","3","3","6","8","6","7","7","6","7","6","7","5","2","4","3","5","3","5","2","3","2","1","4","3","6","5","4","4","4","4","3","5","3","4","5","6","4","4","5","5","5","5","7","5","6","3","2","4","2","5","3","5","794660896956882945","陈","538","Female","[""坏我"",""坏她"",""好我"",""好她""]","[""弱我"",""弱她"",""强我"",""强她""]","","","","","","","","","","","","","","","","","","","","","","","","","","","","","","feedback_test","","","","","","","","",""
"642","","f","psychophysics","96","326396","0.0-8.0-0.0-1.0-0.0-0.43","3","3","3","3","2","5","3","3","4","4","5","1","0","-1","1","-1","-1","1","-1","5","5","3","2","4","4","4","4","3","3","6","8","6","7","7","6","7","6","7","5","2","4","3","5","3","5","2","3","2","1","4","3","6","5","4","4","4","4","3","5","3","4","5","6","4","4","5","5","5","5","7","5","6","3","2","4","2","5","3","5","794660896956882945","陈","538","Female","[""坏我"",""坏她"",""好我"",""好她""]","[""弱我"",""弱她"",""强我"",""强她""]","","","","","","","","match","","","","","","","","","","key","f","16.661458333333332","768","476","f","true","match","img/circle.png","好我","好我","prac_ALT2_moral","practice_moral","","","","","","","","",""
"null","<span style='color:GreenYellow; font-size: 70px;'>正确! </span>","null","html-keyboard-response","97","326898","0.0-8.0-0.0-1.0-0.0-1.43","3","3","3","3","2","5","3","3","4","4","5","1","0","-1","1","-1","-1","1","-1","5","5","3","2","4","4","4","4","3","3","6","8","6","7","7","6","7","6","7","5","2","4","3","5","3","5","2","3","2","1","4","3","6","5","4","4","4","4","3","5","3","4","5","6","4","4","5","5","5","5","7","5","6","3","2","4","2","5","3","5","794660896956882945","陈","538","Female","[""坏我"",""坏她"",""好我"",""好她""]","[""弱我"",""弱她"",""强我"",""强她""]","","","","","","","","","","","","","","","","","","","","","","","","","","","","","","feedback_test","","","","","","","","",""
"null","","null","psychophysics","98","329105","0.0-8.0-0.0-1.0-0.0-0.44","3","3","3","3","2","5","3","3","4","4","5","1","0","-1","1","-1","-1","1","-1","5","5","3","2","4","4","4","4","3","3","6","8","6","7","7","6","7","6","7","5","2","4","3","5","3","5","2","3","2","1","4","3","6","5","4","4","4","4","3","5","3","4","5","6","4","4","5","5","5","5","7","5","6","3","2","4","2","5","3","5","794660896956882945","陈","538","Female","[""坏我"",""坏她"",""好我"",""好她""]","[""弱我"",""弱她"",""强我"",""强她""]","","","","","","","","null","","","","","","","","","","key","null","16.668992248062377","768","476","j","false","nonmatch","img/triangle.png","坏我","坏她","prac_ALT2_moral","practice_moral","","","","","","","","",""
"null","<span class='add_' style='color:yellow; font-size: 70px;'> 太慢! </span>","null","html-keyboard-response","99","329610","0.0-8.0-0.0-1.0-0.0-1.44","3","3","3","3","2","5","3","3","4","4","5","1","0","-1","1","-1","-1","1","-1","5","5","3","2","4","4","4","4","3","3","6","8","6","7","7","6","7","6","7","5","2","4","3","5","3","5","2","3","2","1","4","3","6","5","4","4","4","4","3","5","3","4","5","6","4","4","5","5","5","5","7","5","6","3","2","4","2","5","3","5","794660896956882945","陈","538","Female","[""坏我"",""坏她"",""好我"",""好她""]","[""弱我"",""弱她"",""强我"",""强她""]","","","","","","","","","","","","","","","","","","","","","","","","","","","","","","feedback_test","","","","","","","","",""
"999","","f","psychophysics","100","331612","0.0-8.0-0.0-1.0-0.0-0.45","3","3","3","3","2","5","3","3","4","4","5","1","0","-1","1","-1","-1","1","-1","5","5","3","2","4","4","4","4","3","3","6","8","6","7","7","6","7","6","7","5","2","4","3","5","3","5","2","3","2","1","4","3","6","5","4","4","4","4","3","5","3","4","5","6","4","4","5","5","5","5","7","5","6","3","2","4","2","5","3","5","794660896956882945","陈","538","Female","[""坏我"",""坏她"",""好我"",""好她""]","[""弱我"",""弱她"",""强我"",""强她""]","","","","","","","","match","","","","","","","","","","key","f","16.666666666666668","768","476","f","true","match","img/pentagon.png","好她","好她","prac_ALT2_moral","practice_moral","","","","","","","","",""
"null","<span style='color:GreenYellow; font-size: 70px;'>正确! </span>","null","html-keyboard-response","101","332119","0.0-8.0-0.0-1.0-0.0-1.45","3","3","3","3","2","5","3","3","4","4","5","1","0","-1","1","-1","-1","1","-1","5","5","3","2","4","4","4","4","3","3","6","8","6","7","7","6","7","6","7","5","2","4","3","5","3","5","2","3","2","1","4","3","6","5","4","4","4","4","3","5","3","4","5","6","4","4","5","5","5","5","7","5","6","3","2","4","2","5","3","5","794660896956882945","陈","538","Female","[""坏我"",""坏她"",""好我"",""好她""]","[""弱我"",""弱她"",""强我"",""强她""]","","","","","","","","","","","","","","","","","","","","","","","","","","","","","","feedback_test","","","","","","","","",""
"655","","f","psychophysics","102","333775","0.0-8.0-0.0-1.0-0.0-0.46","3","3","3","3","2","5","3","3","4","4","5","1","0","-1","1","-1","-1","1","-1","5","5","3","2","4","4","4","4","3","3","6","8","6","7","7","6","7","6","7","5","2","4","3","5","3","5","2","3","2","1","4","3","6","5","4","4","4","4","3","5","3","4","5","6","4","4","5","5","5","5","7","5","6","3","2","4","2","5","3","5","794660896956882945","陈","538","Female","[""坏我"",""坏她"",""好我"",""好她""]","[""弱我"",""弱她"",""强我"",""强她""]","","","","","","","","match","","","","","","","","","","key","f","16.666666666666668","768","476","f","true","match","img/circle.png","好我","好我","prac_ALT2_moral","practice_moral","","","","","","","","",""
"null","<span style='color:GreenYellow; font-size: 70px;'>正确! </span>","null","html-keyboard-response","103","334278","0.0-8.0-0.0-1.0-0.0-1.46","3","3","3","3","2","5","3","3","4","4","5","1","0","-1","1","-1","-1","1","-1","5","5","3","2","4","4","4","4","3","3","6","8","6","7","7","6","7","6","7","5","2","4","3","5","3","5","2","3","2","1","4","3","6","5","4","4","4","4","3","5","3","4","5","6","4","4","5","5","5","5","7","5","6","3","2","4","2","5","3","5","794660896956882945","陈","538","Female","[""坏我"",""坏她"",""好我"",""好她""]","[""弱我"",""弱她"",""强我"",""强她""]","","","","","","","","","","","","","","","","","","","","","","","","","","","","","","feedback_test","","","","","","","","",""
"647","","f","psychophysics","104","335948","0.0-8.0-0.0-1.0-0.0-0.47","3","3","3","3","2","5","3","3","4","4","5","1","0","-1","1","-1","-1","1","-1","5","5","3","2","4","4","4","4","3","3","6","8","6","7","7","6","7","6","7","5","2","4","3","5","3","5","2","3","2","1","4","3","6","5","4","4","4","4","3","5","3","4","5","6","4","4","5","5","5","5","7","5","6","3","2","4","2","5","3","5","794660896956882945","陈","538","Female","[""坏我"",""坏她"",""好我"",""好她""]","[""弱我"",""弱她"",""强我"",""强她""]","","","","","","","","match","","","","","","","","","","key","f","17.003061224489677","768","476","f","true","match","img/triangle.png","坏她","坏她","prac_ALT2_moral","practice_moral","","","","","","","","",""
"null","<span style='color:GreenYellow; font-size: 70px;'>正确! </span>","null","html-keyboard-response","105","336458","0.0-8.0-0.0-1.0-0.0-1.47","3","3","3","3","2","5","3","3","4","4","5","1","0","-1","1","-1","-1","1","-1","5","5","3","2","4","4","4","4","3","3","6","8","6","7","7","6","7","6","7","5","2","4","3","5","3","5","2","3","2","1","4","3","6","5","4","4","4","4","3","5","3","4","5","6","4","4","5","5","5","5","7","5","6","3","2","4","2","5","3","5","794660896956882945","陈","538","Female","[""坏我"",""坏她"",""好我"",""好她""]","[""弱我"",""弱她"",""强我"",""强她""]","","","","","","","","","","","","","","","","","","","","","","","","","","","","","","feedback_test","","","","","","","","",""
"31620","<style>.context{color:white; font-size: 35px; line-height:40px}</style>                            <div><p class='context'>您正确回答了79% 的试次。</p><p class='context'>您的平均反应时为794毫秒。</p><p class='context'>恭喜您完成练习。按空格键进入正式实验。</p><p class='footer' style='font-size: 35px; line-height:40px;'>请在进入正式实验实验之前将您的<span style='color: lightgreen;'>食指</span>放在电脑键盘的相应键位上进行按键。</p>"," ","html-keyboard-response","106","368081","0.0-8.0-0.0-2.0","3","3","3","3","2","5","3","3","4","4","5","1","0","-1","1","-1","-1","1","-1","5","5","3","2","4","4","4","4","3","3","6","8","6","7","7","6","7","6","7","5","2","4","3","5","3","5","2","3","2","1","4","3","6","5","4","4","4","4","3","5","3","4","5","6","4","4","5","5","5","5","7","5","6","3","2","4","2","5","3","5","794660896956882945","陈","538","Female","[""坏我"",""坏她"",""好我"",""好她""]","[""弱我"",""弱她"",""强我"",""强她""]","","","","","","","","","","","","","","","","","","","","","","","","","","","","","","","","","","","","","","",""
"1879","
    <p style='color: white; font-size: 22px'>请您将手指放在按键上，准备进入正式的匹配任务。</p>
    <p> <div style = ""color: green""><按空格键进入下一阶段的匹配任务></div></p>
    "," ","html-keyboard-response","107","369964","0.0-8.0-0.0-3.0","3","3","3","3","2","5","3","3","4","4","5","1","0","-1","1","-1","-1","1","-1","5","5","3","2","4","4","4","4","3","3","6","8","6","7","7","6","7","6","7","5","2","4","3","5","3","5","2","3","2","1","4","3","6","5","4","4","4","4","3","5","3","4","5","6","4","4","5","5","5","5","7","5","6","3","2","4","2","5","3","5","794660896956882945","陈","538","Female","[""坏我"",""坏她"",""好我"",""好她""]","[""弱我"",""弱她"",""强我"",""强她""]","","","","","","","","","","","","","","","","","","","","","","","","","","","","","","","","","","","","","","",""
"843","","f","psychophysics","108","371808","0.0-8.0-0.0-4.0-0.0-0.0","3","3","3","3","2","5","3","3","4","4","5","1","0","-1","1","-1","-1","1","-1","5","5","3","2","4","4","4","4","3","3","6","8","6","7","7","6","7","6","7","5","2","4","3","5","3","5","2","3","2","1","4","3","6","5","4","4","4","4","3","5","3","4","5","6","4","4","5","5","5","5","7","5","6","3","2","4","2","5","3","5","794660896956882945","陈","538","Female","[""坏我"",""坏她"",""好我"",""好她""]","[""弱我"",""弱她"",""强我"",""强她""]","","","","","","","","match","","","","","","","","","","key","f","16.818348623853318","768","476","f","true","match","img/square.png","坏我","坏我","ALT2","moral","","","","","","","","",""
"null","<span style='color:GreenYellow; font-size: 70px;'>正确! </span>","null","html-keyboard-response","109","372312","0.0-8.0-0.0-4.0-0.0-1.0","3","3","3","3","2","5","3","3","4","4","5","1","0","-1","1","-1","-1","1","-1","5","5","3","2","4","4","4","4","3","3","6","8","6","7","7","6","7","6","7","5","2","4","3","5","3","5","2","3","2","1","4","3","6","5","4","4","4","4","3","5","3","4","5","6","4","4","5","5","5","5","7","5","6","3","2","4","2","5","3","5","794660896956882945","陈","538","Female","[""坏我"",""坏她"",""好我"",""好她""]","[""弱我"",""弱她"",""强我"",""强她""]","","","","","","","","","","","","","","","","","","","","","","","","","","","","","","feedback_test","","","","","","","","",""
"553","","j","psychophysics","110","373899","0.0-8.0-0.0-4.0-0.0-0.1","3","3","3","3","2","5","3","3","4","4","5","1","0","-1","1","-1","-1","1","-1","5","5","3","2","4","4","4","4","3","3","6","8","6","7","7","6","7","6","7","5","2","4","3","5","3","5","2","3","2","1","4","3","6","5","4","4","4","4","3","5","3","4","5","6","4","4","5","5","5","5","7","5","6","3","2","4","2","5","3","5","794660896956882945","陈","538","Female","[""坏我"",""坏她"",""好我"",""好她""]","[""弱我"",""弱她"",""强我"",""强她""]","","","","","","","","nonmatch","","","","","","","","","","key","j","16.6688172043012","768","476","j","true","nonmatch","img/circle.png","好她","好我","ALT2","moral","","","","","","","","",""
"null","<span style='color:GreenYellow; font-size: 70px;'>正确! </span>","null","html-keyboard-response","111","374409","0.0-8.0-0.0-4.0-0.0-1.1","3","3","3","3","2","5","3","3","4","4","5","1","0","-1","1","-1","-1","1","-1","5","5","3","2","4","4","4","4","3","3","6","8","6","7","7","6","7","6","7","5","2","4","3","5","3","5","2","3","2","1","4","3","6","5","4","4","4","4","3","5","3","4","5","6","4","4","5","5","5","5","7","5","6","3","2","4","2","5","3","5","794660896956882945","陈","538","Female","[""坏我"",""坏她"",""好我"",""好她""]","[""弱我"",""弱她"",""强我"",""强她""]","","","","","","","","","","","","","","","","","","","","","","","","","","","","","","feedback_test","","","","","","","","",""
"891","","f","psychophysics","112","376301","0.0-8.0-0.0-4.0-0.0-0.2","3","3","3","3","2","5","3","3","4","4","5","1","0","-1","1","-1","-1","1","-1","5","5","3","2","4","4","4","4","3","3","6","8","6","7","7","6","7","6","7","5","2","4","3","5","3","5","2","3","2","1","4","3","6","5","4","4","4","4","3","5","3","4","5","6","4","4","5","5","5","5","7","5","6","3","2","4","2","5","3","5","794660896956882945","陈","538","Female","[""坏我"",""坏她"",""好我"",""好她""]","[""弱我"",""弱她"",""强我"",""强她""]","","","","","","","","match","","","","","","","","","","key","f","16.816216216216006","768","476","f","true","match","img/pentagon.png","好她","好她","ALT2","moral","","","","","","","","",""
"null","<span style='color:GreenYellow; font-size: 70px;'>正确! </span>","null","html-keyboard-response","113","376805","0.0-8.0-0.0-4.0-0.0-1.2","3","3","3","3","2","5","3","3","4","4","5","1","0","-1","1","-1","-1","1","-1","5","5","3","2","4","4","4","4","3","3","6","8","6","7","7","6","7","6","7","5","2","4","3","5","3","5","2","3","2","1","4","3","6","5","4","4","4","4","3","5","3","4","5","6","4","4","5","5","5","5","7","5","6","3","2","4","2","5","3","5","794660896956882945","陈","538","Female","[""坏我"",""坏她"",""好我"",""好她""]","[""弱我"",""弱她"",""强我"",""强她""]","","","","","","","","","","","","","","","","","","","","","","","","","","","","","","feedback_test","","","","","","","","",""
"1001","","j","psychophysics","114","378811","0.0-8.0-0.0-4.0-0.0-0.3","3","3","3","3","2","5","3","3","4","4","5","1","0","-1","1","-1","-1","1","-1","5","5","3","2","4","4","4","4","3","3","6","8","6","7","7","6","7","6","7","5","2","4","3","5","3","5","2","3","2","1","4","3","6","5","4","4","4","4","3","5","3","4","5","6","4","4","5","5","5","5","7","5","6","3","2","4","2","5","3","5","794660896956882945","陈","538","Female","[""坏我"",""坏她"",""好我"",""好她""]","[""弱我"",""弱她"",""强我"",""强她""]","","","","","","","","nonmatch","","","","","","","","","","key","j","16.66864406779681","768","476","j","true","nonmatch","img/square.png","坏她","坏我","ALT2","moral","","","","","","","","",""
"null","<span style='color:GreenYellow; font-size: 70px;'>正确! </span>","null","html-keyboard-response","115","379345","0.0-8.0-0.0-4.0-0.0-1.3","3","3","3","3","2","5","3","3","4","4","5","1","0","-1","1","-1","-1","1","-1","5","5","3","2","4","4","4","4","3","3","6","8","6","7","7","6","7","6","7","5","2","4","3","5","3","5","2","3","2","1","4","3","6","5","4","4","4","4","3","5","3","4","5","6","4","4","5","5","5","5","7","5","6","3","2","4","2","5","3","5","794660896956882945","陈","538","Female","[""坏我"",""坏她"",""好我"",""好她""]","[""弱我"",""弱她"",""强我"",""强她""]","","","","","","","","","","","","","","","","","","","","","","","","","","","","","","feedback_test","","","","","","","","",""
"683","","f","psychophysics","116","381045","0.0-8.0-0.0-4.0-0.0-0.4","3","3","3","3","2","5","3","3","4","4","5","1","0","-1","1","-1","-1","1","-1","5","5","3","2","4","4","4","4","3","3","6","8","6","7","7","6","7","6","7","5","2","4","3","5","3","5","2","3","2","1","4","3","6","5","4","4","4","4","3","5","3","4","5","6","4","4","5","5","5","5","7","5","6","3","2","4","2","5","3","5","794660896956882945","陈","538","Female","[""坏我"",""坏她"",""好我"",""好她""]","[""弱我"",""弱她"",""强我"",""强她""]","","","","","","","","match","","","","","","","","","","key","f","16.838383838383837","768","476","f","true","match","img/square.png","坏我","坏我","ALT2","moral","","","","","","","","",""
"null","<span style='color:GreenYellow; font-size: 70px;'>正确! </span>","null","html-keyboard-response","117","381552","0.0-8.0-0.0-4.0-0.0-1.4","3","3","3","3","2","5","3","3","4","4","5","1","0","-1","1","-1","-1","1","-1","5","5","3","2","4","4","4","4","3","3","6","8","6","7","7","6","7","6","7","5","2","4","3","5","3","5","2","3","2","1","4","3","6","5","4","4","4","4","3","5","3","4","5","6","4","4","5","5","5","5","7","5","6","3","2","4","2","5","3","5","794660896956882945","陈","538","Female","[""坏我"",""坏她"",""好我"",""好她""]","[""弱我"",""弱她"",""强我"",""强她""]","","","","","","","","","","","","","","","","","","","","","","","","","","","","","","feedback_test","","","","","","","","",""
"611","","f","psychophysics","118","383173","0.0-8.0-0.0-4.0-0.0-0.5","3","3","3","3","2","5","3","3","4","4","5","1","0","-1","1","-1","-1","1","-1","5","5","3","2","4","4","4","4","3","3","6","8","6","7","7","6","7","6","7","5","2","4","3","5","3","5","2","3","2","1","4","3","6","5","4","4","4","4","3","5","3","4","5","6","4","4","5","5","5","5","7","5","6","3","2","4","2","5","3","5","794660896956882945","陈","538","Female","[""坏我"",""坏她"",""好我"",""好她""]","[""弱我"",""弱她"",""强我"",""强她""]","","","","","","","","match","","","","","","","","","","key","f","16.66597938144306","768","476","j","false","nonmatch","img/triangle.png","坏我","坏她","ALT2","moral","","","","","","","","",""
"null","<span style='color:red; font-size: 70px;'>错误! </span>","null","html-keyboard-response","119","383676","0.0-8.0-0.0-4.0-0.0-1.5","3","3","3","3","2","5","3","3","4","4","5","1","0","-1","1","-1","-1","1","-1","5","5","3","2","4","4","4","4","3","3","6","8","6","7","7","6","7","6","7","5","2","4","3","5","3","5","2","3","2","1","4","3","6","5","4","4","4","4","3","5","3","4","5","6","4","4","5","5","5","5","7","5","6","3","2","4","2","5","3","5","794660896956882945","陈","538","Female","[""坏我"",""坏她"",""好我"",""好她""]","[""弱我"",""弱她"",""强我"",""强她""]","","","","","","","","","","","","","","","","","","","","","","","","","","","","","","feedback_test","","","","","","","","",""
"997","","j","psychophysics","120","385676","0.0-8.0-0.0-4.0-0.0-0.6","3","3","3","3","2","5","3","3","4","4","5","1","0","-1","1","-1","-1","1","-1","5","5","3","2","4","4","4","4","3","3","6","8","6","7","7","6","7","6","7","5","2","4","3","5","3","5","2","3","2","1","4","3","6","5","4","4","4","4","3","5","3","4","5","6","4","4","5","5","5","5","7","5","6","3","2","4","2","5","3","5","794660896956882945","陈","538","Female","[""坏我"",""坏她"",""好我"",""好她""]","[""弱我"",""弱她"",""强我"",""强她""]","","","","","","","","nonmatch","","","","","","","","","","key","j","16.666101694915056","768","476","j","true","nonmatch","img/triangle.png","好她","坏她","ALT2","moral","","","","","","","","",""
"null","<span style='color:GreenYellow; font-size: 70px;'>正确! </span>","null","html-keyboard-response","121","386184","0.0-8.0-0.0-4.0-0.0-1.6","3","3","3","3","2","5","3","3","4","4","5","1","0","-1","1","-1","-1","1","-1","5","5","3","2","4","4","4","4","3","3","6","8","6","7","7","6","7","6","7","5","2","4","3","5","3","5","2","3","2","1","4","3","6","5","4","4","4","4","3","5","3","4","5","6","4","4","5","5","5","5","7","5","6","3","2","4","2","5","3","5","794660896956882945","陈","538","Female","[""坏我"",""坏她"",""好我"",""好她""]","[""弱我"",""弱她"",""强我"",""强她""]","","","","","","","","","","","","","","","","","","","","","","","","","","","","","","feedback_test","","","","","","","","",""
"758","","j","psychophysics","122","387959","0.0-8.0-0.0-4.0-0.0-0.7","3","3","3","3","2","5","3","3","4","4","5","1","0","-1","1","-1","-1","1","-1","5","5","3","2","4","4","4","4","3","3","6","8","6","7","7","6","7","6","7","5","2","4","3","5","3","5","2","3","2","1","4","3","6","5","4","4","4","4","3","5","3","4","5","6","4","4","5","5","5","5","7","5","6","3","2","4","2","5","3","5","794660896956882945","陈","538","Female","[""坏我"",""坏她"",""好我"",""好她""]","[""弱我"",""弱她"",""强我"",""强她""]","","","","","","","","nonmatch","","","","","","","","","","key","j","16.82788461538439","768","476","j","true","nonmatch","img/square.png","好她","坏我","ALT2","moral","","","","","","","","",""
"null","<span style='color:GreenYellow; font-size: 70px;'>正确! </span>","null","html-keyboard-response","123","388465","0.0-8.0-0.0-4.0-0.0-1.7","3","3","3","3","2","5","3","3","4","4","5","1","0","-1","1","-1","-1","1","-1","5","5","3","2","4","4","4","4","3","3","6","8","6","7","7","6","7","6","7","5","2","4","3","5","3","5","2","3","2","1","4","3","6","5","4","4","4","4","3","5","3","4","5","6","4","4","5","5","5","5","7","5","6","3","2","4","2","5","3","5","794660896956882945","陈","538","Female","[""坏我"",""坏她"",""好我"",""好她""]","[""弱我"",""弱她"",""强我"",""强她""]","","","","","","","","","","","","","","","","","","","","","","","","","","","","","","feedback_test","","","","","","","","",""
"1044","","j","psychophysics","124","390513","0.0-8.0-0.0-4.0-0.0-0.8","3","3","3","3","2","5","3","3","4","4","5","1","0","-1","1","-1","-1","1","-1","5","5","3","2","4","4","4","4","3","3","6","8","6","7","7","6","7","6","7","5","2","4","3","5","3","5","2","3","2","1","4","3","6","5","4","4","4","4","3","5","3","4","5","6","4","4","5","5","5","5","7","5","6","3","2","4","2","5","3","5","794660896956882945","陈","538","Female","[""坏我"",""坏她"",""好我"",""好她""]","[""弱我"",""弱她"",""强我"",""强她""]","","","","","","","","nonmatch","","","","","","","","","","key","j","16.666115702479626","768","476","j","true","nonmatch","img/square.png","好我","坏我","ALT2","moral","","","","","","","","",""
"null","<span style='color:GreenYellow; font-size: 70px;'>正确! </span>","null","html-keyboard-response","125","391020","0.0-8.0-0.0-4.0-0.0-1.8","3","3","3","3","2","5","3","3","4","4","5","1","0","-1","1","-1","-1","1","-1","5","5","3","2","4","4","4","4","3","3","6","8","6","7","7","6","7","6","7","5","2","4","3","5","3","5","2","3","2","1","4","3","6","5","4","4","4","4","3","5","3","4","5","6","4","4","5","5","5","5","7","5","6","3","2","4","2","5","3","5","794660896956882945","陈","538","Female","[""坏我"",""坏她"",""好我"",""好她""]","[""弱我"",""弱她"",""强我"",""强她""]","","","","","","","","","","","","","","","","","","","","","","","","","","","","","","feedback_test","","","","","","","","",""
"793","","j","psychophysics","126","392817","0.0-8.0-0.0-4.0-0.0-0.9","3","3","3","3","2","5","3","3","4","4","5","1","0","-1","1","-1","-1","1","-1","5","5","3","2","4","4","4","4","3","3","6","8","6","7","7","6","7","6","7","5","2","4","3","5","3","5","2","3","2","1","4","3","6","5","4","4","4","4","3","5","3","4","5","6","4","4","5","5","5","5","7","5","6","3","2","4","2","5","3","5","794660896956882945","陈","538","Female","[""坏我"",""坏她"",""好我"",""好她""]","[""弱我"",""弱她"",""强我"",""强她""]","","","","","","","","nonmatch","","","","","","","","","","key","j","16.66698113207558","768","476","j","true","nonmatch","img/pentagon.png","好我","好她","ALT2","moral","","","","","","","","",""
"null","<span style='color:GreenYellow; font-size: 70px;'>正确! </span>","null","html-keyboard-response","127","393321","0.0-8.0-0.0-4.0-0.0-1.9","3","3","3","3","2","5","3","3","4","4","5","1","0","-1","1","-1","-1","1","-1","5","5","3","2","4","4","4","4","3","3","6","8","6","7","7","6","7","6","7","5","2","4","3","5","3","5","2","3","2","1","4","3","6","5","4","4","4","4","3","5","3","4","5","6","4","4","5","5","5","5","7","5","6","3","2","4","2","5","3","5","794660896956882945","陈","538","Female","[""坏我"",""坏她"",""好我"",""好她""]","[""弱我"",""弱她"",""强我"",""强她""]","","","","","","","","","","","","","","","","","","","","","","","","","","","","","","feedback_test","","","","","","","","",""
"762","","j","psychophysics","128","395108","0.0-8.0-0.0-4.0-0.0-0.10","3","3","3","3","2","5","3","3","4","4","5","1","0","-1","1","-1","-1","1","-1","5","5","3","2","4","4","4","4","3","3","6","8","6","7","7","6","7","6","7","5","2","4","3","5","3","5","2","3","2","1","4","3","6","5","4","4","4","4","3","5","3","4","5","6","4","4","5","5","5","5","7","5","6","3","2","4","2","5","3","5","794660896956882945","陈","538","Female","[""坏我"",""坏她"",""好我"",""好她""]","[""弱我"",""弱她"",""强我"",""强她""]","","","","","","","","nonmatch","","","","","","","","","","key","j","16.66826923076923","768","476","j","true","nonmatch","img/circle.png","坏她","好我","ALT2","moral","","","","","","","","",""
"null","<span style='color:GreenYellow; font-size: 70px;'>正确! </span>","null","html-keyboard-response","129","395615","0.0-8.0-0.0-4.0-0.0-1.10","3","3","3","3","2","5","3","3","4","4","5","1","0","-1","1","-1","-1","1","-1","5","5","3","2","4","4","4","4","3","3","6","8","6","7","7","6","7","6","7","5","2","4","3","5","3","5","2","3","2","1","4","3","6","5","4","4","4","4","3","5","3","4","5","6","4","4","5","5","5","5","7","5","6","3","2","4","2","5","3","5","794660896956882945","陈","538","Female","[""坏我"",""坏她"",""好我"",""好她""]","[""弱我"",""弱她"",""强我"",""强她""]","","","","","","","","","","","","","","","","","","","","","","","","","","","","","","feedback_test","","","","","","","","",""
"715","","f","psychophysics","130","397335","0.0-8.0-0.0-4.0-0.0-0.11","3","3","3","3","2","5","3","3","4","4","5","1","0","-1","1","-1","-1","1","-1","5","5","3","2","4","4","4","4","3","3","6","8","6","7","7","6","7","6","7","5","2","4","3","5","3","5","2","3","2","1","4","3","6","5","4","4","4","4","3","5","3","4","5","6","4","4","5","5","5","5","7","5","6","3","2","4","2","5","3","5","794660896956882945","陈","538","Female","[""坏我"",""坏她"",""好我"",""好她""]","[""弱我"",""弱她"",""强我"",""强她""]","","","","","","","","match","","","","","","","","","","key","f","16.83235294117613","768","476","f","true","match","img/triangle.png","坏她","坏她","ALT2","moral","","","","","","","","",""
"null","<span style='color:GreenYellow; font-size: 70px;'>正确! </span>","null","html-keyboard-response","131","397836","0.0-8.0-0.0-4.0-0.0-1.11","3","3","3","3","2","5","3","3","4","4","5","1","0","-1","1","-1","-1","1","-1","5","5","3","2","4","4","4","4","3","3","6","8","6","7","7","6","7","6","7","5","2","4","3","5","3","5","2","3","2","1","4","3","6","5","4","4","4","4","3","5","3","4","5","6","4","4","5","5","5","5","7","5","6","3","2","4","2","5","3","5","794660896956882945","陈","538","Female","[""坏我"",""坏她"",""好我"",""好她""]","[""弱我"",""弱她"",""强我"",""强她""]","","","","","","","","","","","","","","","","","","","","","","","","","","","","","","feedback_test","","","","","","","","",""
"796","","j","psychophysics","132","399641","0.0-8.0-0.0-4.0-0.0-0.12","3","3","3","3","2","5","3","3","4","4","5","1","0","-1","1","-1","-1","1","-1","5","5","3","2","4","4","4","4","3","3","6","8","6","7","7","6","7","6","7","5","2","4","3","5","3","5","2","3","2","1","4","3","6","5","4","4","4","4","3","5","3","4","5","6","4","4","5","5","5","5","7","5","6","3","2","4","2","5","3","5","794660896956882945","陈","538","Female","[""坏我"",""坏她"",""好我"",""好她""]","[""弱我"",""弱她"",""强我"",""强她""]","","","","","","","","nonmatch","","","","","","","","","","key","j","16.988461538461426","768","476","j","true","nonmatch","img/pentagon.png","坏她","好她","ALT2","moral","","","","","","","","",""
"null","<span style='color:GreenYellow; font-size: 70px;'>正确! </span>","null","html-keyboard-response","133","400169","0.0-8.0-0.0-4.0-0.0-1.12","3","3","3","3","2","5","3","3","4","4","5","1","0","-1","1","-1","-1","1","-1","5","5","3","2","4","4","4","4","3","3","6","8","6","7","7","6","7","6","7","5","2","4","3","5","3","5","2","3","2","1","4","3","6","5","4","4","4","4","3","5","3","4","5","6","4","4","5","5","5","5","7","5","6","3","2","4","2","5","3","5","794660896956882945","陈","538","Female","[""坏我"",""坏她"",""好我"",""好她""]","[""弱我"",""弱她"",""强我"",""强她""]","","","","","","","","","","","","","","","","","","","","","","","","","","","","","","feedback_test","","","","","","","","",""
"733","","j","psychophysics","134","401915","0.0-8.0-0.0-4.0-0.0-0.13","3","3","3","3","2","5","3","3","4","4","5","1","0","-1","1","-1","-1","1","-1","5","5","3","2","4","4","4","4","3","3","6","8","6","7","7","6","7","6","7","5","2","4","3","5","3","5","2","3","2","1","4","3","6","5","4","4","4","4","3","5","3","4","5","6","4","4","5","5","5","5","7","5","6","3","2","4","2","5","3","5","794660896956882945","陈","538","Female","[""坏我"",""坏她"",""好我"",""好她""]","[""弱我"",""弱她"",""强我"",""强她""]","","","","","","","","nonmatch","","","","","","","","","","key","j","16.988349514562994","768","476","f","false","match","img/triangle.png","坏她","坏她","ALT2","moral","","","","","","","","",""
"null","<span style='color:red; font-size: 70px;'>错误! </span>","null","html-keyboard-response","135","402428","0.0-8.0-0.0-4.0-0.0-1.13","3","3","3","3","2","5","3","3","4","4","5","1","0","-1","1","-1","-1","1","-1","5","5","3","2","4","4","4","4","3","3","6","8","6","7","7","6","7","6","7","5","2","4","3","5","3","5","2","3","2","1","4","3","6","5","4","4","4","4","3","5","3","4","5","6","4","4","5","5","5","5","7","5","6","3","2","4","2","5","3","5","794660896956882945","陈","538","Female","[""坏我"",""坏她"",""好我"",""好她""]","[""弱我"",""弱她"",""强我"",""强她""]","","","","","","","","","","","","","","","","","","","","","","","","","","","","","","feedback_test","","","","","","","","",""
"729","","j","psychophysics","136","404159","0.0-8.0-0.0-4.0-0.0-0.14","3","3","3","3","2","5","3","3","4","4","5","1","0","-1","1","-1","-1","1","-1","5","5","3","2","4","4","4","4","3","3","6","8","6","7","7","6","7","6","7","5","2","4","3","5","3","5","2","3","2","1","4","3","6","5","4","4","4","4","3","5","3","4","5","6","4","4","5","5","5","5","7","5","6","3","2","4","2","5","3","5","794660896956882945","陈","538","Female","[""坏我"",""坏她"",""好我"",""好她""]","[""弱我"",""弱她"",""强我"",""强她""]","","","","","","","","nonmatch","","","","","","","","","","key","j","17","768","476","j","true","nonmatch","img/circle.png","坏我","好我","ALT2","moral","","","","","","","","",""
"null","<span style='color:GreenYellow; font-size: 70px;'>正确! </span>","null","html-keyboard-response","137","404668","0.0-8.0-0.0-4.0-0.0-1.14","3","3","3","3","2","5","3","3","4","4","5","1","0","-1","1","-1","-1","1","-1","5","5","3","2","4","4","4","4","3","3","6","8","6","7","7","6","7","6","7","5","2","4","3","5","3","5","2","3","2","1","4","3","6","5","4","4","4","4","3","5","3","4","5","6","4","4","5","5","5","5","7","5","6","3","2","4","2","5","3","5","794660896956882945","陈","538","Female","[""坏我"",""坏她"",""好我"",""好她""]","[""弱我"",""弱她"",""强我"",""强她""]","","","","","","","","","","","","","","","","","","","","","","","","","","","","","","feedback_test","","","","","","","","",""
