"rt","stimulus","response","trial_type","trial_index","time_elapsed","internal_node_id","swb_1","swb_2","swb_3","swb_4","swb_5","LOT_1","LOT_2","LOT_3","LOT_4","LOT_5","LOT_6","IPC_1","IPC_2","IPC_3","IPC_4","IPC_5","IPC_6","IPC_7","IPC_8","MorIden_1","MorIden_2","MorIden_3","MorIden_4","MorIden_5","MorIden_6","MorIden_7","MorIden_8","MorIden_9","MorIden_10","moralSeImag_1","moralSeImag_2","moralSeImag_3","moralSeImag_4","moralSeImag_5","moralSeImag_6","moralSeImag_7","moralSeImag_8","moralSeImag_9","sde_1","sde_2","sde_3","sde_4","sde_5","sde_6","sde_7","sde_8","sde_9","sde_10","trap2","sde_11","sde_12","sde_13","sde_14","sde_15","sde_16","sde_17","sde_18","sde_19","sde_20","IM_1","IM_2","IM_3","IM_4","IM_5","IM_6","IM_7","IM_8","IM_9","IM_10","IM_11","IM_12","IM_13","IM_14","IM_15","IM_16","IM_17","IM_18","IM_19","IM_20","subj_idx","friend_name","ParticipantID","Sex","Word","Word2","value","success","timeout","failed_images","failed_audio","failed_video","user_agent","responses","item_order","radio_event_ids","radio_event_times","key_event_times","mouse_event_times","straightlining","zigzagging","honeypot","view_history","response_type","key_press","avg_frame_time","center_x","center_y","correct_response","correct","identity","Image","word","condition","task_id","screen_id","time_stamp","person","valence","domain","math","status","duration","question_order","trap2_item"
"2502","
   <p><div style='color:white; font-size: 25px'>您好，欢迎参加本次实验。</div></p>
   <p><div style='color:white; font-size: 25px'>为充分保障您的权利，请确保您已经知晓并同意《参与实验同意书》以及《数据公开知情同意书》。</div></p>
   <p><div style='color:white; font-size: 25px'>如果您未见过上述内容，请咨询实验员。</div></p>
   <p style='color:white; font-size: 25px'>如果您选择继续实验，则表示您已经清楚两份知情同意书的内容并同意。</p>
   <p><div style = ""color: pink;font-size:30px;"">请确保您记得day0的实验编号，您将在本次实验输入该编号，若您忘记，请咨询实验员后作答。</div></p>
   <p><div style = ""color:lightblue;font-size:25px;"">请您尽可能认真地作答，我们将依据您在各问卷和按键任务中的作答质量发放报酬。</div></p>
   <p> <div style = ""color: green""><按空格键至下页></div> </p>
   "," ","html-keyboard-response","0","2503","0.0-0.0","7","7","7","7","6","5","5","5","5","5","5","2","2","2","2","2","2","2","2","5","5","5","5","5","5","5","4","4","5","7","7","8","7","6","6","8","8","7","7","7","7","7","7","6","7","1","7","7","1","7","7","7","7","7","6","7","7","7","7","7","7","7","7","7","7","6","7","7","7","7","7","7","7","7","7","7","7","6","7","621344079120171008","郭","482","Male","[""好我"",""好他"",""坏我"",""坏他""]","[""强我"",""强他"",""弱我"",""弱他""]","","","","","","","","","","","","","","","","","","","","","","","","","","","","","","","","","","","","","","",""
"","","","call-function","1","2504","0.0-1.0-0.0","7","7","7","7","6","5","5","5","5","5","5","2","2","2","2","2","2","2","2","5","5","5","5","5","5","5","4","4","5","7","7","8","7","6","6","8","8","7","7","7","7","7","7","6","7","1","7","7","1","7","7","7","7","7","6","7","7","7","7","7","7","7","7","7","7","6","7","7","7","7","7","7","7","7","7","7","7","6","7","621344079120171008","郭","482","Male","[""好我"",""好他"",""坏我"",""坏他""]","[""强我"",""强他"",""弱我"",""弱他""]","","","","","","","","","","","","","","","","","","","","","","","","","","","","","","","","","","","","","","",""
"12239","","[{""name"":""Sex"",""value"":""0""},{""name"":""friend_name"",""value"":""郭""},{""name"":""ParticipantID"",""value"":""482""}]","survey-html-form","2","14744","0.0-1.0-1.0","7","7","7","7","6","5","5","5","5","5","5","2","2","2","2","2","2","2","2","5","5","5","5","5","5","5","4","4","5","7","7","8","7","6","6","8","8","7","7","7","7","7","7","6","7","1","7","7","1","7","7","7","7","7","6","7","7","7","7","7","7","7","7","7","7","6","7","7","7","7","7","7","7","7","7","7","7","6","7","621344079120171008","郭","482","Male","[""好我"",""好他"",""坏我"",""坏他""]","[""强我"",""强他"",""弱我"",""弱他""]","","","","","","","","","","","","","","","","","","","","","","","","","","","","","","","","","","","","","","",""
"","","","preload","3","15053","0.0-2.0","7","7","7","7","6","5","5","5","5","5","5","2","2","2","2","2","2","2","2","5","5","5","5","5","5","5","4","4","5","7","7","8","7","6","6","8","8","7","7","7","7","7","7","6","7","1","7","7","1","7","7","7","7","7","6","7","7","7","7","7","7","7","7","7","7","6","7","7","7","7","7","7","7","7","7","7","7","6","7","621344079120171008","郭","482","Male","[""好我"",""好他"",""坏我"",""坏他""]","[""强我"",""强他"",""弱我"",""弱他""]","","true","false","[]","[]","[]","","","","","","","","","","","","","","","","","","","","","","","","","","","","","","","","",""
"","","","fullscreen","4","16141","0.0-3.0","7","7","7","7","6","5","5","5","5","5","5","2","2","2","2","2","2","2","2","5","5","5","5","5","5","5","4","4","5","7","7","8","7","6","6","8","8","7","7","7","7","7","7","6","7","1","7","7","1","7","7","7","7","7","6","7","7","7","7","7","7","7","7","7","7","6","7","7","7","7","7","7","7","7","7","7","7","6","7","621344079120171008","郭","482","Male","[""好我"",""好他"",""坏我"",""坏他""]","[""强我"",""强他"",""弱我"",""弱他""]","","true","","","","","{}","","","","","","","","","","","","","","","","","","","","","","","","","","","","","","","",""
"8706.10000038147","","{""Q01"":""7"",""Q02"":""7"",""Q03"":""7"",""Q04"":""7"",""Q05"":""6""}","survey-template","5","24848","0.0-4.0","7","7","7","7","6","5","5","5","5","5","5","2","2","2","2","2","2","2","2","5","5","5","5","5","5","5","4","4","5","7","7","8","7","6","6","8","8","7","7","7","7","7","7","6","7","1","7","7","1","7","7","7","7","7","6","7","7","7","7","7","7","7","7","7","7","6","7","7","7","7","7","7","7","7","7","7","7","6","7","621344079120171008","郭","482","Male","[""好我"",""好他"",""坏我"",""坏他""]","[""强我"",""强他"",""弱我"",""弱他""]","","","","","","","","{""Q01"":""7"",""Q02"":""7"",""Q03"":""7"",""Q04"":""7"",""Q05"":""6""}","[0,1,2,3,4]","[""Q01"",""Q02"",""Q03"",""Q04"",""Q05"",""Q05"",""Q04"",""Q05""]","[2338.2999992370605,2873.5,3393.5,3953.6000003814697,4627.10000038147,5929.89999961853,7659.10000038147,8250.70000076294]","[]","[2338.2999992370605,2873.5,3393.5,3953.6000003814697,4627.10000038147,5929.89999961853,7659.10000038147,8250.70000076294,8705.5]","0.8","0.25","0","","","","","","","","","","","","","","","","","","","","","","",""
"49701.39999961853","","{""Q01"":""5"",""Q02"":""5"",""Q03"":""5"",""Q04"":""5"",""Q05"":""5"",""Q06"":""5""}","survey-template","6","74552","0.0-5.0","7","7","7","7","6","5","5","5","5","5","5","2","2","2","2","2","2","2","2","5","5","5","5","5","5","5","4","4","5","7","7","8","7","6","6","8","8","7","7","7","7","7","7","6","7","1","7","7","1","7","7","7","7","7","6","7","7","7","7","7","7","7","7","7","7","6","7","7","7","7","7","7","7","7","7","7","7","6","7","621344079120171008","郭","482","Male","[""好我"",""好他"",""坏我"",""坏他""]","[""强我"",""强他"",""弱我"",""弱他""]","","","","","","","","{""Q01"":""5"",""Q02"":""5"",""Q03"":""5"",""Q04"":""5"",""Q05"":""5"",""Q06"":""5""}","[0,1,2,3,4,5]","[""Q01"",""Q02"",""Q03"",""Q04"",""Q05"",""Q06""]","[820.8999996185303,1733.599998474121,2398.2999992370605,3565,4261.099998474121,5157]","[]","[820.8999996185303,1733.599998474121,2398.2999992370605,3565,4004.8999996185303,4261.099998474121,5157,49700.79999923706]","0.5","0.8","0","","","","","","","","","","","","","","","","","","","","","","",""
"11454","","{""Q01"":""2"",""Q02"":""2"",""Q03"":""2"",""Q04"":""2"",""Q05"":""2"",""Q06"":""2"",""Q07"":""2"",""Q08"":""2""}","survey-template","7","86009","0.0-6.0","7","7","7","7","6","5","5","5","5","5","5","2","2","2","2","2","2","2","2","5","5","5","5","5","5","5","4","4","5","7","7","8","7","6","6","8","8","7","7","7","7","7","7","6","7","1","7","7","1","7","7","7","7","7","6","7","7","7","7","7","7","7","7","7","7","6","7","7","7","7","7","7","7","7","7","7","7","6","7","621344079120171008","郭","482","Male","[""好我"",""好他"",""坏我"",""坏他""]","[""强我"",""强他"",""弱我"",""弱他""]","","","","","","","","{""Q01"":""2"",""Q02"":""2"",""Q03"":""2"",""Q04"":""2"",""Q05"":""2"",""Q06"":""2"",""Q07"":""2"",""Q08"":""2""}","[0,1,2,3,4,5,6,7]","[""Q08"",""Q07"",""Q06"",""Q06"",""Q01"",""Q03"",""Q02"",""Q04"",""Q05""]","[949.1000003814697,1341.5,1662.1000003814697,1862.1000003814697,3597.300001144409,4701.200000762939,5077.39999961853,5510,6325.10000038147]","[]","[949.1000003814697,1341.5,1662.1000003814697,1862.1000003814697,2229.1000003814697,2597.3999996185303,2933,3253.1000003814697,3597.300001144409,4013.6000003814697,4421.10000038147,4701.200000762939,5077.39999961853,5510,5877.39999961853,6325.10000038147,11453.10000038147]","1","0","0","","","","","","","","","","","","","","","","","","","","","","",""
"1445","","","instructions","8","87456","0.0-7.0","7","7","7","7","6","5","5","5","5","5","5","2","2","2","2","2","2","2","2","5","5","5","5","5","5","5","4","4","5","7","7","8","7","6","6","8","8","7","7","7","7","7","7","6","7","1","7","7","1","7","7","7","7","7","6","7","7","7","7","7","7","7","7","7","7","6","7","7","7","7","7","7","7","7","7","7","7","6","7","621344079120171008","郭","482","Male","[""好我"",""好他"",""坏我"",""坏他""]","[""强我"",""强他"",""弱我"",""弱他""]","","","","","","","","","","","","","","","","","[{""page_index"":0,""viewing_time"":1445}]","","","","","","","","","","","","","","","","","","","","","",""
"231703","","","instructions","9","319160","0.0-8.0-1.0-0.0","7","7","7","7","6","5","5","5","5","5","5","2","2","2","2","2","2","2","2","5","5","5","5","5","5","5","4","4","5","7","7","8","7","6","6","8","8","7","7","7","7","7","7","6","7","1","7","7","1","7","7","7","7","7","6","7","7","7","7","7","7","7","7","7","7","6","7","7","7","7","7","7","7","7","7","7","7","6","7","621344079120171008","郭","482","Male","[""好我"",""好他"",""坏我"",""坏他""]","[""强我"",""强他"",""弱我"",""弱他""]","","","","","","","","","","","","","","","","","[{""page_index"":0,""viewing_time"":22831},{""page_index"":1,""viewing_time"":207312},{""page_index"":2,""viewing_time"":880},{""page_index"":3,""viewing_time"":680}]","","","","","","","","","","","","","","","","","","","","","",""
"1086","","f","psychophysics","10","321248","0.0-8.0-1.0-1.0-0.0-0.0","7","7","7","7","6","5","5","5","5","5","5","2","2","2","2","2","2","2","2","5","5","5","5","5","5","5","4","4","5","7","7","8","7","6","6","8","8","7","7","7","7","7","7","6","7","1","7","7","1","7","7","7","7","7","6","7","7","7","7","7","7","7","7","7","7","6","7","7","7","7","7","7","7","7","7","7","7","6","7","621344079120171008","郭","482","Male","[""好我"",""好他"",""坏我"",""坏他""]","[""强我"",""强他"",""弱我"",""弱他""]","","","","","","","","match","","","","","","","","","","key","f","16.648799999999813","768","428","f","true","match","img/pentagon.png","强他","强他","prac_ALT2_ability","practice_ability","","","","","","","","",""
"null","<span style='color:GreenYellow; font-size: 70px;'>正确! </span>","null","html-keyboard-response","11","321750","0.0-8.0-1.0-1.0-0.0-1.0","7","7","7","7","6","5","5","5","5","5","5","2","2","2","2","2","2","2","2","5","5","5","5","5","5","5","4","4","5","7","7","8","7","6","6","8","8","7","7","7","7","7","7","6","7","1","7","7","1","7","7","7","7","7","6","7","7","7","7","7","7","7","7","7","7","6","7","7","7","7","7","7","7","7","7","7","7","6","7","621344079120171008","郭","482","Male","[""好我"",""好他"",""坏我"",""坏他""]","[""强我"",""强他"",""弱我"",""弱他""]","","","","","","","","","","","","","","","","","","","","","","","","","","","","","","feedback_test","","","","","","","","",""
"911","","f","psychophysics","12","323664","0.0-8.0-1.0-1.0-0.0-0.1","7","7","7","7","6","5","5","5","5","5","5","2","2","2","2","2","2","2","2","5","5","5","5","5","5","5","4","4","5","7","7","8","7","6","6","8","8","7","7","7","7","7","7","6","7","1","7","7","1","7","7","7","7","7","6","7","7","7","7","7","7","7","7","7","7","6","7","7","7","7","7","7","7","7","7","7","7","6","7","621344079120171008","郭","482","Male","[""好我"",""好他"",""坏我"",""坏他""]","[""强我"",""强他"",""弱我"",""弱他""]","","","","","","","","match","","","","","","","","","","key","f","16.649999999999796","768","428","f","true","match","img/trapezoid.png","弱他","弱他","prac_ALT2_ability","practice_ability","","","","","","","","",""
"null","<span style='color:GreenYellow; font-size: 70px;'>正确! </span>","null","html-keyboard-response","13","324165","0.0-8.0-1.0-1.0-0.0-1.1","7","7","7","7","6","5","5","5","5","5","5","2","2","2","2","2","2","2","2","5","5","5","5","5","5","5","4","4","5","7","7","8","7","6","6","8","8","7","7","7","7","7","7","6","7","1","7","7","1","7","7","7","7","7","6","7","7","7","7","7","7","7","7","7","7","6","7","7","7","7","7","7","7","7","7","7","7","6","7","621344079120171008","郭","482","Male","[""好我"",""好他"",""坏我"",""坏他""]","[""强我"",""强他"",""弱我"",""弱他""]","","","","","","","","","","","","","","","","","","","","","","","","","","","","","","feedback_test","","","","","","","","",""
"688","","f","psychophysics","14","325856","0.0-8.0-1.0-1.0-0.0-0.2","7","7","7","7","6","5","5","5","5","5","5","2","2","2","2","2","2","2","2","5","5","5","5","5","5","5","4","4","5","7","7","8","7","6","6","8","8","7","7","7","7","7","7","6","7","1","7","7","1","7","7","7","7","7","6","7","7","7","7","7","7","7","7","7","7","6","7","7","7","7","7","7","7","7","7","7","7","6","7","621344079120171008","郭","482","Male","[""好我"",""好他"",""坏我"",""坏他""]","[""强我"",""强他"",""弱我"",""弱他""]","","","","","","","","match","","","","","","","","","","key","f","16.651485148514737","768","428","f","true","match","img/pentagon.png","强他","强他","prac_ALT2_ability","practice_ability","","","","","","","","",""
"null","<span style='color:GreenYellow; font-size: 70px;'>正确! </span>","null","html-keyboard-response","15","326358","0.0-8.0-1.0-1.0-0.0-1.2","7","7","7","7","6","5","5","5","5","5","5","2","2","2","2","2","2","2","2","5","5","5","5","5","5","5","4","4","5","7","7","8","7","6","6","8","8","7","7","7","7","7","7","6","7","1","7","7","1","7","7","7","7","7","6","7","7","7","7","7","7","7","7","7","7","6","7","7","7","7","7","7","7","7","7","7","7","6","7","621344079120171008","郭","482","Male","[""好我"",""好他"",""坏我"",""坏他""]","[""强我"",""强他"",""弱我"",""弱他""]","","","","","","","","","","","","","","","","","","","","","","","","","","","","","","feedback_test","","","","","","","","",""
"681","","f","psychophysics","16","328040","0.0-8.0-1.0-1.0-0.0-0.3","7","7","7","7","6","5","5","5","5","5","5","2","2","2","2","2","2","2","2","5","5","5","5","5","5","5","4","4","5","7","7","8","7","6","6","8","8","7","7","7","7","7","7","6","7","1","7","7","1","7","7","7","7","7","6","7","7","7","7","7","7","7","7","7","7","6","7","7","7","7","7","7","7","7","7","7","7","6","7","621344079120171008","郭","482","Male","[""好我"",""好他"",""坏我"",""坏他""]","[""强我"",""强他"",""弱我"",""弱他""]","","","","","","","","match","","","","","","","","","","key","f","16.65099999999977","768","428","j","false","nonmatch","img/pentagon.png","弱他","强他","prac_ALT2_ability","practice_ability","","","","","","","","",""
"null","<span style='color:red; font-size: 70px;'>错误! </span>","null","html-keyboard-response","17","328541","0.0-8.0-1.0-1.0-0.0-1.3","7","7","7","7","6","5","5","5","5","5","5","2","2","2","2","2","2","2","2","5","5","5","5","5","5","5","4","4","5","7","7","8","7","6","6","8","8","7","7","7","7","7","7","6","7","1","7","7","1","7","7","7","7","7","6","7","7","7","7","7","7","7","7","7","7","6","7","7","7","7","7","7","7","7","7","7","7","6","7","621344079120171008","郭","482","Male","[""好我"",""好他"",""坏我"",""坏他""]","[""强我"",""强他"",""弱我"",""弱他""]","","","","","","","","","","","","","","","","","","","","","","","","","","","","","","feedback_test","","","","","","","","",""
"713","","f","psychophysics","18","330256","0.0-8.0-1.0-1.0-0.0-0.4","7","7","7","7","6","5","5","5","5","5","5","2","2","2","2","2","2","2","2","5","5","5","5","5","5","5","4","4","5","7","7","8","7","6","6","8","8","7","7","7","7","7","7","6","7","1","7","7","1","7","7","7","7","7","6","7","7","7","7","7","7","7","7","7","7","6","7","7","7","7","7","7","7","7","7","7","7","6","7","621344079120171008","郭","482","Male","[""好我"",""好他"",""坏我"",""坏他""]","[""强我"",""强他"",""弱我"",""弱他""]","","","","","","","","match","","","","","","","","","","key","f","16.65098039215652","768","428","j","false","nonmatch","img/trapezoid.png","强他","弱他","prac_ALT2_ability","practice_ability","","","","","","","","",""
"null","<span style='color:red; font-size: 70px;'>错误! </span>","null","html-keyboard-response","19","330757","0.0-8.0-1.0-1.0-0.0-1.4","7","7","7","7","6","5","5","5","5","5","5","2","2","2","2","2","2","2","2","5","5","5","5","5","5","5","4","4","5","7","7","8","7","6","6","8","8","7","7","7","7","7","7","6","7","1","7","7","1","7","7","7","7","7","6","7","7","7","7","7","7","7","7","7","7","6","7","7","7","7","7","7","7","7","7","7","7","6","7","621344079120171008","郭","482","Male","[""好我"",""好他"",""坏我"",""坏他""]","[""强我"",""强他"",""弱我"",""弱他""]","","","","","","","","","","","","","","","","","","","","","","","","","","","","","","feedback_test","","","","","","","","",""
"898","","j","psychophysics","20","332656","0.0-8.0-1.0-1.0-0.0-0.5","7","7","7","7","6","5","5","5","5","5","5","2","2","2","2","2","2","2","2","5","5","5","5","5","5","5","4","4","5","7","7","8","7","6","6","8","8","7","7","7","7","7","7","6","7","1","7","7","1","7","7","7","7","7","6","7","7","7","7","7","7","7","7","7","7","6","7","7","7","7","7","7","7","7","7","7","7","6","7","621344079120171008","郭","482","Male","[""好我"",""好他"",""坏我"",""坏他""]","[""强我"",""强他"",""弱我"",""弱他""]","","","","","","","","nonmatch","","","","","","","","","","key","j","16.65132743362811","768","428","j","true","nonmatch","img/trapezoid.png","弱我","弱他","prac_ALT2_ability","practice_ability","","","","","","","","",""
"null","<span style='color:GreenYellow; font-size: 70px;'>正确! </span>","null","html-keyboard-response","21","333156","0.0-8.0-1.0-1.0-0.0-1.5","7","7","7","7","6","5","5","5","5","5","5","2","2","2","2","2","2","2","2","5","5","5","5","5","5","5","4","4","5","7","7","8","7","6","6","8","8","7","7","7","7","7","7","6","7","1","7","7","1","7","7","7","7","7","6","7","7","7","7","7","7","7","7","7","7","6","7","7","7","7","7","7","7","7","7","7","7","6","7","621344079120171008","郭","482","Male","[""好我"",""好他"",""坏我"",""坏他""]","[""强我"",""强他"",""弱我"",""弱他""]","","","","","","","","","","","","","","","","","","","","","","","","","","","","","","feedback_test","","","","","","","","",""
"915","","j","psychophysics","22","335072","0.0-8.0-1.0-1.0-0.0-0.6","7","7","7","7","6","5","5","5","5","5","5","2","2","2","2","2","2","2","2","5","5","5","5","5","5","5","4","4","5","7","7","8","7","6","6","8","8","7","7","7","7","7","7","6","7","1","7","7","1","7","7","7","7","7","6","7","7","7","7","7","7","7","7","7","7","6","7","7","7","7","7","7","7","7","7","7","7","6","7","621344079120171008","郭","482","Male","[""好我"",""好他"",""坏我"",""坏他""]","[""强我"",""强他"",""弱我"",""弱他""]","","","","","","","","nonmatch","","","","","","","","","","key","j","16.65087719298256","768","428","j","true","nonmatch","img/diamond.png","弱他","强我","prac_ALT2_ability","practice_ability","","","","","","","","",""
"null","<span style='color:GreenYellow; font-size: 70px;'>正确! </span>","null","html-keyboard-response","23","335572","0.0-8.0-1.0-1.0-0.0-1.6","7","7","7","7","6","5","5","5","5","5","5","2","2","2","2","2","2","2","2","5","5","5","5","5","5","5","4","4","5","7","7","8","7","6","6","8","8","7","7","7","7","7","7","6","7","1","7","7","1","7","7","7","7","7","6","7","7","7","7","7","7","7","7","7","7","6","7","7","7","7","7","7","7","7","7","7","7","6","7","621344079120171008","郭","482","Male","[""好我"",""好他"",""坏我"",""坏他""]","[""强我"",""强他"",""弱我"",""弱他""]","","","","","","","","","","","","","","","","","","","","","","","","","","","","","","feedback_test","","","","","","","","",""
"937","","f","psychophysics","24","337512","0.0-8.0-1.0-1.0-0.0-0.7","7","7","7","7","6","5","5","5","5","5","5","2","2","2","2","2","2","2","2","5","5","5","5","5","5","5","4","4","5","7","7","8","7","6","6","8","8","7","7","7","7","7","7","6","7","1","7","7","1","7","7","7","7","7","6","7","7","7","7","7","7","7","7","7","7","6","7","7","7","7","7","7","7","7","7","7","7","6","7","621344079120171008","郭","482","Male","[""好我"",""好他"",""坏我"",""坏他""]","[""强我"",""强他"",""弱我"",""弱他""]","","","","","","","","match","","","","","","","","","","key","f","16.64741379310375","768","428","j","false","nonmatch","img/circle.png","强他","弱我","prac_ALT2_ability","practice_ability","","","","","","","","",""
"null","<span style='color:red; font-size: 70px;'>错误! </span>","null","html-keyboard-response","25","338012","0.0-8.0-1.0-1.0-0.0-1.7","7","7","7","7","6","5","5","5","5","5","5","2","2","2","2","2","2","2","2","5","5","5","5","5","5","5","4","4","5","7","7","8","7","6","6","8","8","7","7","7","7","7","7","6","7","1","7","7","1","7","7","7","7","7","6","7","7","7","7","7","7","7","7","7","7","6","7","7","7","7","7","7","7","7","7","7","7","6","7","621344079120171008","郭","482","Male","[""好我"",""好他"",""坏我"",""坏他""]","[""强我"",""强他"",""弱我"",""弱他""]","","","","","","","","","","","","","","","","","","","","","","","","","","","","","","feedback_test","","","","","","","","",""
"747","","f","psychophysics","26","339760","0.0-8.0-1.0-1.0-0.0-0.8","7","7","7","7","6","5","5","5","5","5","5","2","2","2","2","2","2","2","2","5","5","5","5","5","5","5","4","4","5","7","7","8","7","6","6","8","8","7","7","7","7","7","7","6","7","1","7","7","1","7","7","7","7","7","6","7","7","7","7","7","7","7","7","7","7","6","7","7","7","7","7","7","7","7","7","7","7","6","7","621344079120171008","郭","482","Male","[""好我"",""好他"",""坏我"",""坏他""]","[""强我"",""强他"",""弱我"",""弱他""]","","","","","","","","match","","","","","","","","","","key","f","16.651923076922966","768","428","f","true","match","img/circle.png","弱我","弱我","prac_ALT2_ability","practice_ability","","","","","","","","",""
"null","<span style='color:GreenYellow; font-size: 70px;'>正确! </span>","null","html-keyboard-response","27","340261","0.0-8.0-1.0-1.0-0.0-1.8","7","7","7","7","6","5","5","5","5","5","5","2","2","2","2","2","2","2","2","5","5","5","5","5","5","5","4","4","5","7","7","8","7","6","6","8","8","7","7","7","7","7","7","6","7","1","7","7","1","7","7","7","7","7","6","7","7","7","7","7","7","7","7","7","7","6","7","7","7","7","7","7","7","7","7","7","7","6","7","621344079120171008","郭","482","Male","[""好我"",""好他"",""坏我"",""坏他""]","[""强我"",""强他"",""弱我"",""弱他""]","","","","","","","","","","","","","","","","","","","","","","","","","","","","","","feedback_test","","","","","","","","",""
"745","","f","psychophysics","28","342008","0.0-8.0-1.0-1.0-0.0-0.9","7","7","7","7","6","5","5","5","5","5","5","2","2","2","2","2","2","2","2","5","5","5","5","5","5","5","4","4","5","7","7","8","7","6","6","8","8","7","7","7","7","7","7","6","7","1","7","7","1","7","7","7","7","7","6","7","7","7","7","7","7","7","7","7","7","6","7","7","7","7","7","7","7","7","7","7","7","6","7","621344079120171008","郭","482","Male","[""好我"",""好他"",""坏我"",""坏他""]","[""强我"",""强他"",""弱我"",""弱他""]","","","","","","","","match","","","","","","","","","","key","f","16.651923076922966","768","428","f","true","match","img/diamond.png","强我","强我","prac_ALT2_ability","practice_ability","","","","","","","","",""
"null","<span style='color:GreenYellow; font-size: 70px;'>正确! </span>","null","html-keyboard-response","29","342509","0.0-8.0-1.0-1.0-0.0-1.9","7","7","7","7","6","5","5","5","5","5","5","2","2","2","2","2","2","2","2","5","5","5","5","5","5","5","4","4","5","7","7","8","7","6","6","8","8","7","7","7","7","7","7","6","7","1","7","7","1","7","7","7","7","7","6","7","7","7","7","7","7","7","7","7","7","6","7","7","7","7","7","7","7","7","7","7","7","6","7","621344079120171008","郭","482","Male","[""好我"",""好他"",""坏我"",""坏他""]","[""强我"",""强他"",""弱我"",""弱他""]","","","","","","","","","","","","","","","","","","","","","","","","","","","","","","feedback_test","","","","","","","","",""
"633","","f","psychophysics","30","344143","0.0-8.0-1.0-1.0-0.0-0.10","7","7","7","7","6","5","5","5","5","5","5","2","2","2","2","2","2","2","2","5","5","5","5","5","5","5","4","4","5","7","7","8","7","6","6","8","8","7","7","7","7","7","7","6","7","1","7","7","1","7","7","7","7","7","6","7","7","7","7","7","7","7","7","7","7","6","7","7","7","7","7","7","7","7","7","7","7","6","7","621344079120171008","郭","482","Male","[""好我"",""好他"",""坏我"",""坏他""]","[""强我"",""强他"",""弱我"",""弱他""]","","","","","","","","match","","","","","","","","","","key","f","16.650515463917287","768","428","f","true","match","img/pentagon.png","强他","强他","prac_ALT2_ability","practice_ability","","","","","","","","",""
"null","<span style='color:GreenYellow; font-size: 70px;'>正确! </span>","null","html-keyboard-response","31","344644","0.0-8.0-1.0-1.0-0.0-1.10","7","7","7","7","6","5","5","5","5","5","5","2","2","2","2","2","2","2","2","5","5","5","5","5","5","5","4","4","5","7","7","8","7","6","6","8","8","7","7","7","7","7","7","6","7","1","7","7","1","7","7","7","7","7","6","7","7","7","7","7","7","7","7","7","7","6","7","7","7","7","7","7","7","7","7","7","7","6","7","621344079120171008","郭","482","Male","[""好我"",""好他"",""坏我"",""坏他""]","[""强我"",""强他"",""弱我"",""弱他""]","","","","","","","","","","","","","","","","","","","","","","","","","","","","","","feedback_test","","","","","","","","",""
"665","","f","psychophysics","32","346311","0.0-8.0-1.0-1.0-0.0-0.11","7","7","7","7","6","5","5","5","5","5","5","2","2","2","2","2","2","2","2","5","5","5","5","5","5","5","4","4","5","7","7","8","7","6","6","8","8","7","7","7","7","7","7","6","7","1","7","7","1","7","7","7","7","7","6","7","7","7","7","7","7","7","7","7","7","6","7","7","7","7","7","7","7","7","7","7","7","6","7","621344079120171008","郭","482","Male","[""好我"",""好他"",""坏我"",""坏他""]","[""强我"",""强他"",""弱我"",""弱他""]","","","","","","","","match","","","","","","","","","","key","f","16.650505050505284","768","428","f","true","match","img/trapezoid.png","弱他","弱他","prac_ALT2_ability","practice_ability","","","","","","","","",""
"null","<span style='color:GreenYellow; font-size: 70px;'>正确! </span>","null","html-keyboard-response","33","346812","0.0-8.0-1.0-1.0-0.0-1.11","7","7","7","7","6","5","5","5","5","5","5","2","2","2","2","2","2","2","2","5","5","5","5","5","5","5","4","4","5","7","7","8","7","6","6","8","8","7","7","7","7","7","7","6","7","1","7","7","1","7","7","7","7","7","6","7","7","7","7","7","7","7","7","7","7","6","7","7","7","7","7","7","7","7","7","7","7","6","7","621344079120171008","郭","482","Male","[""好我"",""好他"",""坏我"",""坏他""]","[""强我"",""强他"",""弱我"",""弱他""]","","","","","","","","","","","","","","","","","","","","","","","","","","","","","","feedback_test","","","","","","","","",""
"683","","j","psychophysics","34","348495","0.0-8.0-1.0-1.0-0.0-0.12","7","7","7","7","6","5","5","5","5","5","5","2","2","2","2","2","2","2","2","5","5","5","5","5","5","5","4","4","5","7","7","8","7","6","6","8","8","7","7","7","7","7","7","6","7","1","7","7","1","7","7","7","7","7","6","7","7","7","7","7","7","7","7","7","7","6","7","7","7","7","7","7","7","7","7","7","7","6","7","621344079120171008","郭","482","Male","[""好我"",""好他"",""坏我"",""坏他""]","[""强我"",""强他"",""弱我"",""弱他""]","","","","","","","","nonmatch","","","","","","","","","","key","j","16.65099999999977","768","428","j","true","nonmatch","img/pentagon.png","弱我","强他","prac_ALT2_ability","practice_ability","","","","","","","","",""
"null","<span style='color:GreenYellow; font-size: 70px;'>正确! </span>","null","html-keyboard-response","35","348996","0.0-8.0-1.0-1.0-0.0-1.12","7","7","7","7","6","5","5","5","5","5","5","2","2","2","2","2","2","2","2","5","5","5","5","5","5","5","4","4","5","7","7","8","7","6","6","8","8","7","7","7","7","7","7","6","7","1","7","7","1","7","7","7","7","7","6","7","7","7","7","7","7","7","7","7","7","6","7","7","7","7","7","7","7","7","7","7","7","6","7","621344079120171008","郭","482","Male","[""好我"",""好他"",""坏我"",""坏他""]","[""强我"",""强他"",""弱我"",""弱他""]","","","","","","","","","","","","","","","","","","","","","","","","","","","","","","feedback_test","","","","","","","","",""
"746","","f","psychophysics","36","350743","0.0-8.0-1.0-1.0-0.0-0.13","7","7","7","7","6","5","5","5","5","5","5","2","2","2","2","2","2","2","2","5","5","5","5","5","5","5","4","4","5","7","7","8","7","6","6","8","8","7","7","7","7","7","7","6","7","1","7","7","1","7","7","7","7","7","6","7","7","7","7","7","7","7","7","7","7","6","7","7","7","7","7","7","7","7","7","7","7","6","7","621344079120171008","郭","482","Male","[""好我"",""好他"",""坏我"",""坏他""]","[""强我"",""强他"",""弱我"",""弱他""]","","","","","","","","match","","","","","","","","","","key","f","16.649999999999775","768","428","j","false","nonmatch","img/trapezoid.png","强我","弱他","prac_ALT2_ability","practice_ability","","","","","","","","",""
"null","<span style='color:red; font-size: 70px;'>错误! </span>","null","html-keyboard-response","37","351245","0.0-8.0-1.0-1.0-0.0-1.13","7","7","7","7","6","5","5","5","5","5","5","2","2","2","2","2","2","2","2","5","5","5","5","5","5","5","4","4","5","7","7","8","7","6","6","8","8","7","7","7","7","7","7","6","7","1","7","7","1","7","7","7","7","7","6","7","7","7","7","7","7","7","7","7","7","6","7","7","7","7","7","7","7","7","7","7","7","6","7","621344079120171008","郭","482","Male","[""好我"",""好他"",""坏我"",""坏他""]","[""强我"",""强他"",""弱我"",""弱他""]","","","","","","","","","","","","","","","","","","","","","","","","","","","","","","feedback_test","","","","","","","","",""
"609","","f","psychophysics","38","352855","0.0-8.0-1.0-1.0-0.0-0.14","7","7","7","7","6","5","5","5","5","5","5","2","2","2","2","2","2","2","2","5","5","5","5","5","5","5","4","4","5","7","7","8","7","6","6","8","8","7","7","7","7","7","7","6","7","1","7","7","1","7","7","7","7","7","6","7","7","7","7","7","7","7","7","7","7","6","7","7","7","7","7","7","7","7","7","7","7","6","7","621344079120171008","郭","482","Male","[""好我"",""好他"",""坏我"",""坏他""]","[""强我"",""强他"",""弱我"",""弱他""]","","","","","","","","match","","","","","","","","","","key","f","16.645833333333332","768","428","j","false","nonmatch","img/pentagon.png","强我","强他","prac_ALT2_ability","practice_ability","","","","","","","","",""
"null","<span style='color:red; font-size: 70px;'>错误! </span>","null","html-keyboard-response","39","353356","0.0-8.0-1.0-1.0-0.0-1.14","7","7","7","7","6","5","5","5","5","5","5","2","2","2","2","2","2","2","2","5","5","5","5","5","5","5","4","4","5","7","7","8","7","6","6","8","8","7","7","7","7","7","7","6","7","1","7","7","1","7","7","7","7","7","6","7","7","7","7","7","7","7","7","7","7","6","7","7","7","7","7","7","7","7","7","7","7","6","7","621344079120171008","郭","482","Male","[""好我"",""好他"",""坏我"",""坏他""]","[""强我"",""强他"",""弱我"",""弱他""]","","","","","","","","","","","","","","","","","","","","","","","","","","","","","","feedback_test","","","","","","","","",""
"788","","f","psychophysics","40","355145","0.0-8.0-1.0-1.0-0.0-0.15","7","7","7","7","6","5","5","5","5","5","5","2","2","2","2","2","2","2","2","5","5","5","5","5","5","5","4","4","5","7","7","8","7","6","6","8","8","7","7","7","7","7","7","6","7","1","7","7","1","7","7","7","7","7","6","7","7","7","7","7","7","7","7","7","7","6","7","7","7","7","7","7","7","7","7","7","7","6","7","621344079120171008","郭","482","Male","[""好我"",""好他"",""坏我"",""坏他""]","[""强我"",""强他"",""弱我"",""弱他""]","","","","","","","","match","","","","","","","","","","key","f","16.65233644859802","768","428","j","false","nonmatch","img/circle.png","弱他","弱我","prac_ALT2_ability","practice_ability","","","","","","","","",""
"null","<span style='color:red; font-size: 70px;'>错误! </span>","null","html-keyboard-response","41","355647","0.0-8.0-1.0-1.0-0.0-1.15","7","7","7","7","6","5","5","5","5","5","5","2","2","2","2","2","2","2","2","5","5","5","5","5","5","5","4","4","5","7","7","8","7","6","6","8","8","7","7","7","7","7","7","6","7","1","7","7","1","7","7","7","7","7","6","7","7","7","7","7","7","7","7","7","7","6","7","7","7","7","7","7","7","7","7","7","7","6","7","621344079120171008","郭","482","Male","[""好我"",""好他"",""坏我"",""坏他""]","[""强我"",""强他"",""弱我"",""弱他""]","","","","","","","","","","","","","","","","","","","","","","","","","","","","","","feedback_test","","","","","","","","",""
"928","","f","psychophysics","42","357576","0.0-8.0-1.0-1.0-0.0-0.16","7","7","7","7","6","5","5","5","5","5","5","2","2","2","2","2","2","2","2","5","5","5","5","5","5","5","4","4","5","7","7","8","7","6","6","8","8","7","7","7","7","7","7","6","7","1","7","7","1","7","7","7","7","7","6","7","7","7","7","7","7","7","7","7","7","6","7","7","7","7","7","7","7","7","7","7","7","6","7","621344079120171008","郭","482","Male","[""好我"",""好他"",""坏我"",""坏他""]","[""强我"",""强他"",""弱我"",""弱他""]","","","","","","","","match","","","","","","","","","","key","f","16.64869565217371","768","428","j","false","nonmatch","img/circle.png","强我","弱我","prac_ALT2_ability","practice_ability","","","","","","","","",""
"null","<span style='color:red; font-size: 70px;'>错误! </span>","null","html-keyboard-response","43","358077","0.0-8.0-1.0-1.0-0.0-1.16","7","7","7","7","6","5","5","5","5","5","5","2","2","2","2","2","2","2","2","5","5","5","5","5","5","5","4","4","5","7","7","8","7","6","6","8","8","7","7","7","7","7","7","6","7","1","7","7","1","7","7","7","7","7","6","7","7","7","7","7","7","7","7","7","7","6","7","7","7","7","7","7","7","7","7","7","7","6","7","621344079120171008","郭","482","Male","[""好我"",""好他"",""坏我"",""坏他""]","[""强我"",""强他"",""弱我"",""弱他""]","","","","","","","","","","","","","","","","","","","","","","","","","","","","","","feedback_test","","","","","","","","",""
"873","","f","psychophysics","44","359951","0.0-8.0-1.0-1.0-0.0-0.17","7","7","7","7","6","5","5","5","5","5","5","2","2","2","2","2","2","2","2","5","5","5","5","5","5","5","4","4","5","7","7","8","7","6","6","8","8","7","7","7","7","7","7","6","7","1","7","7","1","7","7","7","7","7","6","7","7","7","7","7","7","7","7","7","7","6","7","7","7","7","7","7","7","7","7","7","7","6","7","621344079120171008","郭","482","Male","[""好我"",""好他"",""坏我"",""坏他""]","[""强我"",""强他"",""弱我"",""弱他""]","","","","","","","","match","","","","","","","","","","key","f","16.650450450450556","768","428","f","true","match","img/trapezoid.png","弱他","弱他","prac_ALT2_ability","practice_ability","","","","","","","","",""
"null","<span style='color:GreenYellow; font-size: 70px;'>正确! </span>","null","html-keyboard-response","45","360452","0.0-8.0-1.0-1.0-0.0-1.17","7","7","7","7","6","5","5","5","5","5","5","2","2","2","2","2","2","2","2","5","5","5","5","5","5","5","4","4","5","7","7","8","7","6","6","8","8","7","7","7","7","7","7","6","7","1","7","7","1","7","7","7","7","7","6","7","7","7","7","7","7","7","7","7","7","6","7","7","7","7","7","7","7","7","7","7","7","6","7","621344079120171008","郭","482","Male","[""好我"",""好他"",""坏我"",""坏他""]","[""强我"",""强他"",""弱我"",""弱他""]","","","","","","","","","","","","","","","","","","","","","","","","","","","","","","feedback_test","","","","","","","","",""
"818","","f","psychophysics","46","362271","0.0-8.0-1.0-1.0-0.0-0.18","7","7","7","7","6","5","5","5","5","5","5","2","2","2","2","2","2","2","2","5","5","5","5","5","5","5","4","4","5","7","7","8","7","6","6","8","8","7","7","7","7","7","7","6","7","1","7","7","1","7","7","7","7","7","6","7","7","7","7","7","7","7","7","7","7","6","7","7","7","7","7","7","7","7","7","7","7","6","7","621344079120171008","郭","482","Male","[""好我"",""好他"",""坏我"",""坏他""]","[""强我"",""强他"",""弱我"",""弱他""]","","","","","","","","match","","","","","","","","","","key","f","16.65229357798144","768","428","f","true","match","img/diamond.png","强我","强我","prac_ALT2_ability","practice_ability","","","","","","","","",""
"null","<span style='color:GreenYellow; font-size: 70px;'>正确! </span>","null","html-keyboard-response","47","362774","0.0-8.0-1.0-1.0-0.0-1.18","7","7","7","7","6","5","5","5","5","5","5","2","2","2","2","2","2","2","2","5","5","5","5","5","5","5","4","4","5","7","7","8","7","6","6","8","8","7","7","7","7","7","7","6","7","1","7","7","1","7","7","7","7","7","6","7","7","7","7","7","7","7","7","7","7","6","7","7","7","7","7","7","7","7","7","7","7","6","7","621344079120171008","郭","482","Male","[""好我"",""好他"",""坏我"",""坏他""]","[""强我"",""强他"",""弱我"",""弱他""]","","","","","","","","","","","","","","","","","","","","","","","","","","","","","","feedback_test","","","","","","","","",""
"776","","j","psychophysics","48","364551","0.0-8.0-1.0-1.0-0.0-0.19","7","7","7","7","6","5","5","5","5","5","5","2","2","2","2","2","2","2","2","5","5","5","5","5","5","5","4","4","5","7","7","8","7","6","6","8","8","7","7","7","7","7","7","6","7","1","7","7","1","7","7","7","7","7","6","7","7","7","7","7","7","7","7","7","7","6","7","7","7","7","7","7","7","7","7","7","7","6","7","621344079120171008","郭","482","Male","[""好我"",""好他"",""坏我"",""坏他""]","[""强我"",""强他"",""弱我"",""弱他""]","","","","","","","","nonmatch","","","","","","","","","","key","j","16.65047619047608","768","428","j","true","nonmatch","img/diamond.png","弱我","强我","prac_ALT2_ability","practice_ability","","","","","","","","",""
"null","<span style='color:GreenYellow; font-size: 70px;'>正确! </span>","null","html-keyboard-response","49","365052","0.0-8.0-1.0-1.0-0.0-1.19","7","7","7","7","6","5","5","5","5","5","5","2","2","2","2","2","2","2","2","5","5","5","5","5","5","5","4","4","5","7","7","8","7","6","6","8","8","7","7","7","7","7","7","6","7","1","7","7","1","7","7","7","7","7","6","7","7","7","7","7","7","7","7","7","7","6","7","7","7","7","7","7","7","7","7","7","7","6","7","621344079120171008","郭","482","Male","[""好我"",""好他"",""坏我"",""坏他""]","[""强我"",""强他"",""弱我"",""弱他""]","","","","","","","","","","","","","","","","","","","","","","","","","","","","","","feedback_test","","","","","","","","",""
"682","","f","psychophysics","50","366735","0.0-8.0-1.0-1.0-0.0-0.20","7","7","7","7","6","5","5","5","5","5","5","2","2","2","2","2","2","2","2","5","5","5","5","5","5","5","4","4","5","7","7","8","7","6","6","8","8","7","7","7","7","7","7","6","7","1","7","7","1","7","7","7","7","7","6","7","7","7","7","7","7","7","7","7","7","6","7","7","7","7","7","7","7","7","7","7","7","6","7","621344079120171008","郭","482","Male","[""好我"",""好他"",""坏我"",""坏他""]","[""强我"",""强他"",""弱我"",""弱他""]","","","","","","","","match","","","","","","","","","","key","f","16.65099999999977","768","428","f","true","match","img/diamond.png","强我","强我","prac_ALT2_ability","practice_ability","","","","","","","","",""
"null","<span style='color:GreenYellow; font-size: 70px;'>正确! </span>","null","html-keyboard-response","51","367236","0.0-8.0-1.0-1.0-0.0-1.20","7","7","7","7","6","5","5","5","5","5","5","2","2","2","2","2","2","2","2","5","5","5","5","5","5","5","4","4","5","7","7","8","7","6","6","8","8","7","7","7","7","7","7","6","7","1","7","7","1","7","7","7","7","7","6","7","7","7","7","7","7","7","7","7","7","6","7","7","7","7","7","7","7","7","7","7","7","6","7","621344079120171008","郭","482","Male","[""好我"",""好他"",""坏我"",""坏他""]","[""强我"",""强他"",""弱我"",""弱他""]","","","","","","","","","","","","","","","","","","","","","","","","","","","","","","feedback_test","","","","","","","","",""
"1121","","f","psychophysics","52","369359","0.0-8.0-1.0-1.0-0.0-0.21","7","7","7","7","6","5","5","5","5","5","5","2","2","2","2","2","2","2","2","5","5","5","5","5","5","5","4","4","5","7","7","8","7","6","6","8","8","7","7","7","7","7","7","6","7","1","7","7","1","7","7","7","7","7","6","7","7","7","7","7","7","7","7","7","7","6","7","7","7","7","7","7","7","7","7","7","7","6","7","621344079120171008","郭","482","Male","[""好我"",""好他"",""坏我"",""坏他""]","[""强我"",""强他"",""弱我"",""弱他""]","","","","","","","","match","","","","","","","","","","key","f","16.650793650793652","768","428","f","true","match","img/circle.png","弱我","弱我","prac_ALT2_ability","practice_ability","","","","","","","","",""
"null","<span style='color:GreenYellow; font-size: 70px;'>正确! </span>","null","html-keyboard-response","53","369861","0.0-8.0-1.0-1.0-0.0-1.21","7","7","7","7","6","5","5","5","5","5","5","2","2","2","2","2","2","2","2","5","5","5","5","5","5","5","4","4","5","7","7","8","7","6","6","8","8","7","7","7","7","7","7","6","7","1","7","7","1","7","7","7","7","7","6","7","7","7","7","7","7","7","7","7","7","6","7","7","7","7","7","7","7","7","7","7","7","6","7","621344079120171008","郭","482","Male","[""好我"",""好他"",""坏我"",""坏他""]","[""强我"",""强他"",""弱我"",""弱他""]","","","","","","","","","","","","","","","","","","","","","","","","","","","","","","feedback_test","","","","","","","","",""
"784","","j","psychophysics","54","371647","0.0-8.0-1.0-1.0-0.0-0.22","7","7","7","7","6","5","5","5","5","5","5","2","2","2","2","2","2","2","2","5","5","5","5","5","5","5","4","4","5","7","7","8","7","6","6","8","8","7","7","7","7","7","7","6","7","1","7","7","1","7","7","7","7","7","6","7","7","7","7","7","7","7","7","7","7","6","7","7","7","7","7","7","7","7","7","7","7","6","7","621344079120171008","郭","482","Male","[""好我"",""好他"",""坏我"",""坏他""]","[""强我"",""强他"",""弱我"",""弱他""]","","","","","","","","nonmatch","","","","","","","","","","key","j","16.65140186915899","768","428","j","true","nonmatch","img/diamond.png","强他","强我","prac_ALT2_ability","practice_ability","","","","","","","","",""
"null","<span style='color:GreenYellow; font-size: 70px;'>正确! </span>","null","html-keyboard-response","55","372149","0.0-8.0-1.0-1.0-0.0-1.22","7","7","7","7","6","5","5","5","5","5","5","2","2","2","2","2","2","2","2","5","5","5","5","5","5","5","4","4","5","7","7","8","7","6","6","8","8","7","7","7","7","7","7","6","7","1","7","7","1","7","7","7","7","7","6","7","7","7","7","7","7","7","7","7","7","6","7","7","7","7","7","7","7","7","7","7","7","6","7","621344079120171008","郭","482","Male","[""好我"",""好他"",""坏我"",""坏他""]","[""强我"",""强他"",""弱我"",""弱他""]","","","","","","","","","","","","","","","","","","","","","","","","","","","","","","feedback_test","","","","","","","","",""
"810","","f","psychophysics","56","373959","0.0-8.0-1.0-1.0-0.0-0.23","7","7","7","7","6","5","5","5","5","5","5","2","2","2","2","2","2","2","2","5","5","5","5","5","5","5","4","4","5","7","7","8","7","6","6","8","8","7","7","7","7","7","7","6","7","1","7","7","1","7","7","7","7","7","6","7","7","7","7","7","7","7","7","7","7","6","7","7","7","7","7","7","7","7","7","7","7","6","7","621344079120171008","郭","482","Male","[""好我"",""好他"",""坏我"",""坏他""]","[""强我"",""强他"",""弱我"",""弱他""]","","","","","","","","match","","","","","","","","","","key","f","16.646728971962727","768","428","f","true","match","img/circle.png","弱我","弱我","prac_ALT2_ability","practice_ability","","","","","","","","",""
"null","<span style='color:GreenYellow; font-size: 70px;'>正确! </span>","null","html-keyboard-response","57","374460","0.0-8.0-1.0-1.0-0.0-1.23","7","7","7","7","6","5","5","5","5","5","5","2","2","2","2","2","2","2","2","5","5","5","5","5","5","5","4","4","5","7","7","8","7","6","6","8","8","7","7","7","7","7","7","6","7","1","7","7","1","7","7","7","7","7","6","7","7","7","7","7","7","7","7","7","7","6","7","7","7","7","7","7","7","7","7","7","7","6","7","621344079120171008","郭","482","Male","[""好我"",""好他"",""坏我"",""坏他""]","[""强我"",""强他"",""弱我"",""弱他""]","","","","","","","","","","","","","","","","","","","","","","","","","","","","","","feedback_test","","","","","","","","",""
"690","","j","psychophysics","58","376151","0.0-8.0-1.0-1.0-0.0-0.24","7","7","7","7","6","5","5","5","5","5","5","2","2","2","2","2","2","2","2","5","5","5","5","5","5","5","4","4","5","7","7","8","7","6","6","8","8","7","7","7","7","7","7","6","7","1","7","7","1","7","7","7","7","7","6","7","7","7","7","7","7","7","7","7","7","6","7","7","7","7","7","7","7","7","7","7","7","6","7","621344079120171008","郭","482","Male","[""好我"",""好他"",""坏我"",""坏他""]","[""强我"",""强他"",""弱我"",""弱他""]","","","","","","","","nonmatch","","","","","","","","","","key","j","16.65","768","428","j","true","nonmatch","img/pentagon.png","强我","强他","prac_ALT2_ability","practice_ability","","","","","","","","",""
"null","<span style='color:GreenYellow; font-size: 70px;'>正确! </span>","null","html-keyboard-response","59","376653","0.0-8.0-1.0-1.0-0.0-1.24","7","7","7","7","6","5","5","5","5","5","5","2","2","2","2","2","2","2","2","5","5","5","5","5","5","5","4","4","5","7","7","8","7","6","6","8","8","7","7","7","7","7","7","6","7","1","7","7","1","7","7","7","7","7","6","7","7","7","7","7","7","7","7","7","7","6","7","7","7","7","7","7","7","7","7","7","7","6","7","621344079120171008","郭","482","Male","[""好我"",""好他"",""坏我"",""坏他""]","[""强我"",""强他"",""弱我"",""弱他""]","","","","","","","","","","","","","","","","","","","","","","","","","","","","","","feedback_test","","","","","","","","",""
"769","","j","psychophysics","60","378423","0.0-8.0-1.0-1.0-0.0-0.25","7","7","7","7","6","5","5","5","5","5","5","2","2","2","2","2","2","2","2","5","5","5","5","5","5","5","4","4","5","7","7","8","7","6","6","8","8","7","7","7","7","7","7","6","7","1","7","7","1","7","7","7","7","7","6","7","7","7","7","7","7","7","7","7","7","6","7","7","7","7","7","7","7","7","7","7","7","6","7","621344079120171008","郭","482","Male","[""好我"",""好他"",""坏我"",""坏他""]","[""强我"",""强他"",""弱我"",""弱他""]","","","","","","","","nonmatch","","","","","","","","","","key","j","16.65188679245261","768","428","f","false","match","img/trapezoid.png","弱他","弱他","prac_ALT2_ability","practice_ability","","","","","","","","",""
"null","<span style='color:red; font-size: 70px;'>错误! </span>","null","html-keyboard-response","61","378924","0.0-8.0-1.0-1.0-0.0-1.25","7","7","7","7","6","5","5","5","5","5","5","2","2","2","2","2","2","2","2","5","5","5","5","5","5","5","4","4","5","7","7","8","7","6","6","8","8","7","7","7","7","7","7","6","7","1","7","7","1","7","7","7","7","7","6","7","7","7","7","7","7","7","7","7","7","6","7","7","7","7","7","7","7","7","7","7","7","6","7","621344079120171008","郭","482","Male","[""好我"",""好他"",""坏我"",""坏他""]","[""强我"",""强他"",""弱我"",""弱他""]","","","","","","","","","","","","","","","","","","","","","","","","","","","","","","feedback_test","","","","","","","","",""
"754","","f","psychophysics","62","380679","0.0-8.0-1.0-1.0-0.0-0.26","7","7","7","7","6","5","5","5","5","5","5","2","2","2","2","2","2","2","2","5","5","5","5","5","5","5","4","4","5","7","7","8","7","6","6","8","8","7","7","7","7","7","7","6","7","1","7","7","1","7","7","7","7","7","6","7","7","7","7","7","7","7","7","7","7","6","7","7","7","7","7","7","7","7","7","7","7","6","7","621344079120171008","郭","482","Male","[""好我"",""好他"",""坏我"",""坏他""]","[""强我"",""强他"",""弱我"",""弱他""]","","","","","","","","match","","","","","","","","","","key","f","16.64761904761905","768","428","j","false","nonmatch","img/trapezoid.png","强我","弱他","prac_ALT2_ability","practice_ability","","","","","","","","",""
"null","<span style='color:red; font-size: 70px;'>错误! </span>","null","html-keyboard-response","63","381180","0.0-8.0-1.0-1.0-0.0-1.26","7","7","7","7","6","5","5","5","5","5","5","2","2","2","2","2","2","2","2","5","5","5","5","5","5","5","4","4","5","7","7","8","7","6","6","8","8","7","7","7","7","7","7","6","7","1","7","7","1","7","7","7","7","7","6","7","7","7","7","7","7","7","7","7","7","6","7","7","7","7","7","7","7","7","7","7","7","6","7","621344079120171008","郭","482","Male","[""好我"",""好他"",""坏我"",""坏他""]","[""强我"",""强他"",""弱我"",""弱他""]","","","","","","","","","","","","","","","","","","","","","","","","","","","","","","feedback_test","","","","","","","","",""
"737","","f","psychophysics","64","382919","0.0-8.0-1.0-1.0-0.0-0.27","7","7","7","7","6","5","5","5","5","5","5","2","2","2","2","2","2","2","2","5","5","5","5","5","5","5","4","4","5","7","7","8","7","6","6","8","8","7","7","7","7","7","7","6","7","1","7","7","1","7","7","7","7","7","6","7","7","7","7","7","7","7","7","7","7","6","7","7","7","7","7","7","7","7","7","7","7","6","7","621344079120171008","郭","482","Male","[""好我"",""好他"",""坏我"",""坏他""]","[""强我"",""强他"",""弱我"",""弱他""]","","","","","","","","match","","","","","","","","","","key","f","16.651923076923524","768","428","j","false","nonmatch","img/circle.png","强我","弱我","prac_ALT2_ability","practice_ability","","","","","","","","",""
"null","<span style='color:red; font-size: 70px;'>错误! </span>","null","html-keyboard-response","65","383421","0.0-8.0-1.0-1.0-0.0-1.27","7","7","7","7","6","5","5","5","5","5","5","2","2","2","2","2","2","2","2","5","5","5","5","5","5","5","4","4","5","7","7","8","7","6","6","8","8","7","7","7","7","7","7","6","7","1","7","7","1","7","7","7","7","7","6","7","7","7","7","7","7","7","7","7","7","6","7","7","7","7","7","7","7","7","7","7","7","6","7","621344079120171008","郭","482","Male","[""好我"",""好他"",""坏我"",""坏他""]","[""强我"",""强他"",""弱我"",""弱他""]","","","","","","","","","","","","","","","","","","","","","","","","","","","","","","feedback_test","","","","","","","","",""
"968","","f","psychophysics","66","385391","0.0-8.0-1.0-1.0-0.0-0.28","7","7","7","7","6","5","5","5","5","5","5","2","2","2","2","2","2","2","2","5","5","5","5","5","5","5","4","4","5","7","7","8","7","6","6","8","8","7","7","7","7","7","7","6","7","1","7","7","1","7","7","7","7","7","6","7","7","7","7","7","7","7","7","7","7","6","7","7","7","7","7","7","7","7","7","7","7","6","7","621344079120171008","郭","482","Male","[""好我"",""好他"",""坏我"",""坏他""]","[""强我"",""强他"",""弱我"",""弱他""]","","","","","","","","match","","","","","","","","","","key","f","16.65213675213715","768","428","j","false","nonmatch","img/trapezoid.png","强他","弱他","prac_ALT2_ability","practice_ability","","","","","","","","",""
"null","<span style='color:red; font-size: 70px;'>错误! </span>","null","html-keyboard-response","67","385892","0.0-8.0-1.0-1.0-0.0-1.28","7","7","7","7","6","5","5","5","5","5","5","2","2","2","2","2","2","2","2","5","5","5","5","5","5","5","4","4","5","7","7","8","7","6","6","8","8","7","7","7","7","7","7","6","7","1","7","7","1","7","7","7","7","7","6","7","7","7","7","7","7","7","7","7","7","6","7","7","7","7","7","7","7","7","7","7","7","6","7","621344079120171008","郭","482","Male","[""好我"",""好他"",""坏我"",""坏他""]","[""强我"",""强他"",""弱我"",""弱他""]","","","","","","","","","","","","","","","","","","","","","","","","","","","","","","feedback_test","","","","","","","","",""
"785","","f","psychophysics","68","387679","0.0-8.0-1.0-1.0-0.0-0.29","7","7","7","7","6","5","5","5","5","5","5","2","2","2","2","2","2","2","2","5","5","5","5","5","5","5","4","4","5","7","7","8","7","6","6","8","8","7","7","7","7","7","7","6","7","1","7","7","1","7","7","7","7","7","6","7","7","7","7","7","7","7","7","7","7","6","7","7","7","7","7","7","7","7","7","7","7","6","7","621344079120171008","郭","482","Male","[""好我"",""好他"",""坏我"",""坏他""]","[""强我"",""强他"",""弱我"",""弱他""]","","","","","","","","match","","","","","","","","","","key","f","16.654716981131745","768","428","f","true","match","img/diamond.png","强我","强我","prac_ALT2_ability","practice_ability","","","","","","","","",""
"null","<span style='color:GreenYellow; font-size: 70px;'>正确! </span>","null","html-keyboard-response","69","388180","0.0-8.0-1.0-1.0-0.0-1.29","7","7","7","7","6","5","5","5","5","5","5","2","2","2","2","2","2","2","2","5","5","5","5","5","5","5","4","4","5","7","7","8","7","6","6","8","8","7","7","7","7","7","7","6","7","1","7","7","1","7","7","7","7","7","6","7","7","7","7","7","7","7","7","7","7","6","7","7","7","7","7","7","7","7","7","7","7","6","7","621344079120171008","郭","482","Male","[""好我"",""好他"",""坏我"",""坏他""]","[""强我"",""强他"",""弱我"",""弱他""]","","","","","","","","","","","","","","","","","","","","","","","","","","","","","","feedback_test","","","","","","","","",""
"881","","f","psychophysics","70","390063","0.0-8.0-1.0-1.0-0.0-0.30","7","7","7","7","6","5","5","5","5","5","5","2","2","2","2","2","2","2","2","5","5","5","5","5","5","5","4","4","5","7","7","8","7","6","6","8","8","7","7","7","7","7","7","6","7","1","7","7","1","7","7","7","7","7","6","7","7","7","7","7","7","7","7","7","7","6","7","7","7","7","7","7","7","7","7","7","7","6","7","621344079120171008","郭","482","Male","[""好我"",""好他"",""坏我"",""坏他""]","[""强我"",""强他"",""弱我"",""弱他""]","","","","","","","","match","","","","","","","","","","key","f","16.64642857142878","768","428","f","true","match","img/diamond.png","强我","强我","prac_ALT2_ability","practice_ability","","","","","","","","",""
"null","<span style='color:GreenYellow; font-size: 70px;'>正确! </span>","null","html-keyboard-response","71","390563","0.0-8.0-1.0-1.0-0.0-1.30","7","7","7","7","6","5","5","5","5","5","5","2","2","2","2","2","2","2","2","5","5","5","5","5","5","5","4","4","5","7","7","8","7","6","6","8","8","7","7","7","7","7","7","6","7","1","7","7","1","7","7","7","7","7","6","7","7","7","7","7","7","7","7","7","7","6","7","7","7","7","7","7","7","7","7","7","7","6","7","621344079120171008","郭","482","Male","[""好我"",""好他"",""坏我"",""坏他""]","[""强我"",""强他"",""弱我"",""弱他""]","","","","","","","","","","","","","","","","","","","","","","","","","","","","","","feedback_test","","","","","","","","",""
"834","","f","psychophysics","72","392399","0.0-8.0-1.0-1.0-0.0-0.31","7","7","7","7","6","5","5","5","5","5","5","2","2","2","2","2","2","2","2","5","5","5","5","5","5","5","4","4","5","7","7","8","7","6","6","8","8","7","7","7","7","7","7","6","7","1","7","7","1","7","7","7","7","7","6","7","7","7","7","7","7","7","7","7","7","6","7","7","7","7","7","7","7","7","7","7","7","6","7","621344079120171008","郭","482","Male","[""好我"",""好他"",""坏我"",""坏他""]","[""强我"",""强他"",""弱我"",""弱他""]","","","","","","","","match","","","","","","","","","","key","f","16.65137614678899","768","428","f","true","match","img/circle.png","弱我","弱我","prac_ALT2_ability","practice_ability","","","","","","","","",""
"null","<span style='color:GreenYellow; font-size: 70px;'>正确! </span>","null","html-keyboard-response","73","392900","0.0-8.0-1.0-1.0-0.0-1.31","7","7","7","7","6","5","5","5","5","5","5","2","2","2","2","2","2","2","2","5","5","5","5","5","5","5","4","4","5","7","7","8","7","6","6","8","8","7","7","7","7","7","7","6","7","1","7","7","1","7","7","7","7","7","6","7","7","7","7","7","7","7","7","7","7","6","7","7","7","7","7","7","7","7","7","7","7","6","7","621344079120171008","郭","482","Male","[""好我"",""好他"",""坏我"",""坏他""]","[""强我"",""强他"",""弱我"",""弱他""]","","","","","","","","","","","","","","","","","","","","","","","","","","","","","","feedback_test","","","","","","","","",""
"890","","j","psychophysics","74","394791","0.0-8.0-1.0-1.0-0.0-0.32","7","7","7","7","6","5","5","5","5","5","5","2","2","2","2","2","2","2","2","5","5","5","5","5","5","5","4","4","5","7","7","8","7","6","6","8","8","7","7","7","7","7","7","6","7","1","7","7","1","7","7","7","7","7","6","7","7","7","7","7","7","7","7","7","7","6","7","7","7","7","7","7","7","7","7","7","7","6","7","621344079120171008","郭","482","Male","[""好我"",""好他"",""坏我"",""坏他""]","[""强我"",""强他"",""弱我"",""弱他""]","","","","","","","","nonmatch","","","","","","","","","","key","j","16.651327433628627","768","428","j","true","nonmatch","img/diamond.png","弱他","强我","prac_ALT2_ability","practice_ability","","","","","","","","",""
"null","<span style='color:GreenYellow; font-size: 70px;'>正确! </span>","null","html-keyboard-response","75","395292","0.0-8.0-1.0-1.0-0.0-1.32","7","7","7","7","6","5","5","5","5","5","5","2","2","2","2","2","2","2","2","5","5","5","5","5","5","5","4","4","5","7","7","8","7","6","6","8","8","7","7","7","7","7","7","6","7","1","7","7","1","7","7","7","7","7","6","7","7","7","7","7","7","7","7","7","7","6","7","7","7","7","7","7","7","7","7","7","7","6","7","621344079120171008","郭","482","Male","[""好我"",""好他"",""坏我"",""坏他""]","[""强我"",""强他"",""弱我"",""弱他""]","","","","","","","","","","","","","","","","","","","","","","","","","","","","","","feedback_test","","","","","","","","",""
"825","","f","psychophysics","76","397119","0.0-8.0-1.0-1.0-0.0-0.33","7","7","7","7","6","5","5","5","5","5","5","2","2","2","2","2","2","2","2","5","5","5","5","5","5","5","4","4","5","7","7","8","7","6","6","8","8","7","7","7","7","7","7","6","7","1","7","7","1","7","7","7","7","7","6","7","7","7","7","7","7","7","7","7","7","6","7","7","7","7","7","7","7","7","7","7","7","6","7","621344079120171008","郭","482","Male","[""好我"",""好他"",""坏我"",""坏他""]","[""强我"",""强他"",""弱我"",""弱他""]","","","","","","","","match","","","","","","","","","","key","f","16.65092592592582","768","428","f","true","match","img/pentagon.png","强他","强他","prac_ALT2_ability","practice_ability","","","","","","","","",""
"null","<span style='color:GreenYellow; font-size: 70px;'>正确! </span>","null","html-keyboard-response","77","397620","0.0-8.0-1.0-1.0-0.0-1.33","7","7","7","7","6","5","5","5","5","5","5","2","2","2","2","2","2","2","2","5","5","5","5","5","5","5","4","4","5","7","7","8","7","6","6","8","8","7","7","7","7","7","7","6","7","1","7","7","1","7","7","7","7","7","6","7","7","7","7","7","7","7","7","7","7","6","7","7","7","7","7","7","7","7","7","7","7","6","7","621344079120171008","郭","482","Male","[""好我"",""好他"",""坏我"",""坏他""]","[""强我"",""强他"",""弱我"",""弱他""]","","","","","","","","","","","","","","","","","","","","","","","","","","","","","","feedback_test","","","","","","","","",""
"818","","f","psychophysics","78","399439","0.0-8.0-1.0-1.0-0.0-0.34","7","7","7","7","6","5","5","5","5","5","5","2","2","2","2","2","2","2","2","5","5","5","5","5","5","5","4","4","5","7","7","8","7","6","6","8","8","7","7","7","7","7","7","6","7","1","7","7","1","7","7","7","7","7","6","7","7","7","7","7","7","7","7","7","7","6","7","7","7","7","7","7","7","7","7","7","7","6","7","621344079120171008","郭","482","Male","[""好我"",""好他"",""坏我"",""坏他""]","[""强我"",""强他"",""弱我"",""弱他""]","","","","","","","","match","","","","","","","","","","key","f","16.65000000000011","768","428","f","true","match","img/trapezoid.png","弱他","弱他","prac_ALT2_ability","practice_ability","","","","","","","","",""
"null","<span style='color:GreenYellow; font-size: 70px;'>正确! </span>","null","html-keyboard-response","79","399941","0.0-8.0-1.0-1.0-0.0-1.34","7","7","7","7","6","5","5","5","5","5","5","2","2","2","2","2","2","2","2","5","5","5","5","5","5","5","4","4","5","7","7","8","7","6","6","8","8","7","7","7","7","7","7","6","7","1","7","7","1","7","7","7","7","7","6","7","7","7","7","7","7","7","7","7","7","6","7","7","7","7","7","7","7","7","7","7","7","6","7","621344079120171008","郭","482","Male","[""好我"",""好他"",""坏我"",""坏他""]","[""强我"",""强他"",""弱我"",""弱他""]","","","","","","","","","","","","","","","","","","","","","","","","","","","","","","feedback_test","","","","","","","","",""
"999","","f","psychophysics","80","401943","0.0-8.0-1.0-1.0-0.0-0.35","7","7","7","7","6","5","5","5","5","5","5","2","2","2","2","2","2","2","2","5","5","5","5","5","5","5","4","4","5","7","7","8","7","6","6","8","8","7","7","7","7","7","7","6","7","1","7","7","1","7","7","7","7","7","6","7","7","7","7","7","7","7","7","7","7","6","7","7","7","7","7","7","7","7","7","7","7","6","7","621344079120171008","郭","482","Male","[""好我"",""好他"",""坏我"",""坏他""]","[""强我"",""强他"",""弱我"",""弱他""]","","","","","","","","match","","","","","","","","","","key","f","16.65210084033594","768","428","f","true","match","img/circle.png","弱我","弱我","prac_ALT2_ability","practice_ability","","","","","","","","",""
"null","<span style='color:GreenYellow; font-size: 70px;'>正确! </span>","null","html-keyboard-response","81","402445","0.0-8.0-1.0-1.0-0.0-1.35","7","7","7","7","6","5","5","5","5","5","5","2","2","2","2","2","2","2","2","5","5","5","5","5","5","5","4","4","5","7","7","8","7","6","6","8","8","7","7","7","7","7","7","6","7","1","7","7","1","7","7","7","7","7","6","7","7","7","7","7","7","7","7","7","7","6","7","7","7","7","7","7","7","7","7","7","7","6","7","621344079120171008","郭","482","Male","[""好我"",""好他"",""坏我"",""坏他""]","[""强我"",""强他"",""弱我"",""弱他""]","","","","","","","","","","","","","","","","","","","","","","","","","","","","","","feedback_test","","","","","","","","",""
"688","","j","psychophysics","82","404135","0.0-8.0-1.0-1.0-0.0-0.36","7","7","7","7","6","5","5","5","5","5","5","2","2","2","2","2","2","2","2","5","5","5","5","5","5","5","4","4","5","7","7","8","7","6","6","8","8","7","7","7","7","7","7","6","7","1","7","7","1","7","7","7","7","7","6","7","7","7","7","7","7","7","7","7","7","6","7","7","7","7","7","7","7","7","7","7","7","6","7","621344079120171008","郭","482","Male","[""好我"",""好他"",""坏我"",""坏他""]","[""强我"",""强他"",""弱我"",""弱他""]","","","","","","","","nonmatch","","","","","","","","","","key","j","16.653465346534652","768","428","j","true","nonmatch","img/circle.png","强他","弱我","prac_ALT2_ability","practice_ability","","","","","","","","",""
"null","<span style='color:GreenYellow; font-size: 70px;'>正确! </span>","null","html-keyboard-response","83","404637","0.0-8.0-1.0-1.0-0.0-1.36","7","7","7","7","6","5","5","5","5","5","5","2","2","2","2","2","2","2","2","5","5","5","5","5","5","5","4","4","5","7","7","8","7","6","6","8","8","7","7","7","7","7","7","6","7","1","7","7","1","7","7","7","7","7","6","7","7","7","7","7","7","7","7","7","7","6","7","7","7","7","7","7","7","7","7","7","7","6","7","621344079120171008","郭","482","Male","[""好我"",""好他"",""坏我"",""坏他""]","[""强我"",""强他"",""弱我"",""弱他""]","","","","","","","","","","","","","","","","","","","","","","","","","","","","","","feedback_test","","","","","","","","",""
"736","","f","psychophysics","84","406375","0.0-8.0-1.0-1.0-0.0-0.37","7","7","7","7","6","5","5","5","5","5","5","2","2","2","2","2","2","2","2","5","5","5","5","5","5","5","4","4","5","7","7","8","7","6","6","8","8","7","7","7","7","7","7","6","7","1","7","7","1","7","7","7","7","7","6","7","7","7","7","7","7","7","7","7","7","6","7","7","7","7","7","7","7","7","7","7","7","6","7","621344079120171008","郭","482","Male","[""好我"",""好他"",""坏我"",""坏他""]","[""强我"",""强他"",""弱我"",""弱他""]","","","","","","","","match","","","","","","","","","","key","f","16.64660194174791","768","428","f","true","match","img/trapezoid.png","弱他","弱他","prac_ALT2_ability","practice_ability","","","","","","","","",""
"null","<span style='color:GreenYellow; font-size: 70px;'>正确! </span>","null","html-keyboard-response","85","406876","0.0-8.0-1.0-1.0-0.0-1.37","7","7","7","7","6","5","5","5","5","5","5","2","2","2","2","2","2","2","2","5","5","5","5","5","5","5","4","4","5","7","7","8","7","6","6","8","8","7","7","7","7","7","7","6","7","1","7","7","1","7","7","7","7","7","6","7","7","7","7","7","7","7","7","7","7","6","7","7","7","7","7","7","7","7","7","7","7","6","7","621344079120171008","郭","482","Male","[""好我"",""好他"",""坏我"",""坏他""]","[""强我"",""强他"",""弱我"",""弱他""]","","","","","","","","","","","","","","","","","","","","","","","","","","","","","","feedback_test","","","","","","","","",""
"1042","","j","psychophysics","86","408920","0.0-8.0-1.0-1.0-0.0-0.38","7","7","7","7","6","5","5","5","5","5","5","2","2","2","2","2","2","2","2","5","5","5","5","5","5","5","4","4","5","7","7","8","7","6","6","8","8","7","7","7","7","7","7","6","7","1","7","7","1","7","7","7","7","7","6","7","7","7","7","7","7","7","7","7","7","6","7","7","7","7","7","7","7","7","7","7","7","6","7","621344079120171008","郭","482","Male","[""好我"",""好他"",""坏我"",""坏他""]","[""强我"",""强他"",""弱我"",""弱他""]","","","","","","","","nonmatch","","","","","","","","","","key","j","16.651639344262296","768","428","f","false","match","img/pentagon.png","强他","强他","prac_ALT2_ability","practice_ability","","","","","","","","",""
"null","<span style='color:red; font-size: 70px;'>错误! </span>","null","html-keyboard-response","87","409420","0.0-8.0-1.0-1.0-0.0-1.38","7","7","7","7","6","5","5","5","5","5","5","2","2","2","2","2","2","2","2","5","5","5","5","5","5","5","4","4","5","7","7","8","7","6","6","8","8","7","7","7","7","7","7","6","7","1","7","7","1","7","7","7","7","7","6","7","7","7","7","7","7","7","7","7","7","6","7","7","7","7","7","7","7","7","7","7","7","6","7","621344079120171008","郭","482","Male","[""好我"",""好他"",""坏我"",""坏他""]","[""强我"",""强他"",""弱我"",""弱他""]","","","","","","","","","","","","","","","","","","","","","","","","","","","","","","feedback_test","","","","","","","","",""
"938","","j","psychophysics","88","411360","0.0-8.0-1.0-1.0-0.0-0.39","7","7","7","7","6","5","5","5","5","5","5","2","2","2","2","2","2","2","2","5","5","5","5","5","5","5","4","4","5","7","7","8","7","6","6","8","8","7","7","7","7","7","7","6","7","1","7","7","1","7","7","7","7","7","6","7","7","7","7","7","7","7","7","7","7","6","7","7","7","7","7","7","7","7","7","7","7","6","7","621344079120171008","郭","482","Male","[""好我"",""好他"",""坏我"",""坏他""]","[""强我"",""强他"",""弱我"",""弱他""]","","","","","","","","nonmatch","","","","","","","","","","key","j","16.650862068965516","768","428","f","false","match","img/circle.png","弱我","弱我","prac_ALT2_ability","practice_ability","","","","","","","","",""
"null","<span style='color:red; font-size: 70px;'>错误! </span>","null","html-keyboard-response","89","411861","0.0-8.0-1.0-1.0-0.0-1.39","7","7","7","7","6","5","5","5","5","5","5","2","2","2","2","2","2","2","2","5","5","5","5","5","5","5","4","4","5","7","7","8","7","6","6","8","8","7","7","7","7","7","7","6","7","1","7","7","1","7","7","7","7","7","6","7","7","7","7","7","7","7","7","7","7","6","7","7","7","7","7","7","7","7","7","7","7","6","7","621344079120171008","郭","482","Male","[""好我"",""好他"",""坏我"",""坏他""]","[""强我"",""强他"",""弱我"",""弱他""]","","","","","","","","","","","","","","","","","","","","","","","","","","","","","","feedback_test","","","","","","","","",""
"809","","j","psychophysics","90","413671","0.0-8.0-1.0-1.0-0.0-0.40","7","7","7","7","6","5","5","5","5","5","5","2","2","2","2","2","2","2","2","5","5","5","5","5","5","5","4","4","5","7","7","8","7","6","6","8","8","7","7","7","7","7","7","6","7","1","7","7","1","7","7","7","7","7","6","7","7","7","7","7","7","7","7","7","7","6","7","7","7","7","7","7","7","7","7","7","7","6","7","621344079120171008","郭","482","Male","[""好我"",""好他"",""坏我"",""坏他""]","[""强我"",""强他"",""弱我"",""弱他""]","","","","","","","","nonmatch","","","","","","","","","","key","j","16.65233644859802","768","428","j","true","nonmatch","img/circle.png","弱他","弱我","prac_ALT2_ability","practice_ability","","","","","","","","",""
"null","<span style='color:GreenYellow; font-size: 70px;'>正确! </span>","null","html-keyboard-response","91","414172","0.0-8.0-1.0-1.0-0.0-1.40","7","7","7","7","6","5","5","5","5","5","5","2","2","2","2","2","2","2","2","5","5","5","5","5","5","5","4","4","5","7","7","8","7","6","6","8","8","7","7","7","7","7","7","6","7","1","7","7","1","7","7","7","7","7","6","7","7","7","7","7","7","7","7","7","7","6","7","7","7","7","7","7","7","7","7","7","7","6","7","621344079120171008","郭","482","Male","[""好我"",""好他"",""坏我"",""坏他""]","[""强我"",""强他"",""弱我"",""弱他""]","","","","","","","","","","","","","","","","","","","","","","","","","","","","","","feedback_test","","","","","","","","",""
"811","","f","psychophysics","92","415984","0.0-8.0-1.0-1.0-0.0-0.41","7","7","7","7","6","5","5","5","5","5","5","2","2","2","2","2","2","2","2","5","5","5","5","5","5","5","4","4","5","7","7","8","7","6","6","8","8","7","7","7","7","7","7","6","7","1","7","7","1","7","7","7","7","7","6","7","7","7","7","7","7","7","7","7","7","6","7","7","7","7","7","7","7","7","7","7","7","6","7","621344079120171008","郭","482","Male","[""好我"",""好他"",""坏我"",""坏他""]","[""强我"",""强他"",""弱我"",""弱他""]","","","","","","","","match","","","","","","","","","","key","f","16.649532710280372","768","428","f","true","match","img/diamond.png","强我","强我","prac_ALT2_ability","practice_ability","","","","","","","","",""
"null","<span style='color:GreenYellow; font-size: 70px;'>正确! </span>","null","html-keyboard-response","93","416485","0.0-8.0-1.0-1.0-0.0-1.41","7","7","7","7","6","5","5","5","5","5","5","2","2","2","2","2","2","2","2","5","5","5","5","5","5","5","4","4","5","7","7","8","7","6","6","8","8","7","7","7","7","7","7","6","7","1","7","7","1","7","7","7","7","7","6","7","7","7","7","7","7","7","7","7","7","6","7","7","7","7","7","7","7","7","7","7","7","6","7","621344079120171008","郭","482","Male","[""好我"",""好他"",""坏我"",""坏他""]","[""强我"",""强他"",""弱我"",""弱他""]","","","","","","","","","","","","","","","","","","","","","","","","","","","","","","feedback_test","","","","","","","","",""
"905","","j","psychophysics","94","418391","0.0-8.0-1.0-1.0-0.0-0.42","7","7","7","7","6","5","5","5","5","5","5","2","2","2","2","2","2","2","2","5","5","5","5","5","5","5","4","4","5","7","7","8","7","6","6","8","8","7","7","7","7","7","7","6","7","1","7","7","1","7","7","7","7","7","6","7","7","7","7","7","7","7","7","7","7","6","7","7","7","7","7","7","7","7","7","7","7","6","7","621344079120171008","郭","482","Male","[""好我"",""好他"",""坏我"",""坏他""]","[""强我"",""强他"",""弱我"",""弱他""]","","","","","","","","nonmatch","","","","","","","","","","key","j","16.652631578947574","768","428","j","true","nonmatch","img/trapezoid.png","弱我","弱他","prac_ALT2_ability","practice_ability","","","","","","","","",""
"null","<span style='color:GreenYellow; font-size: 70px;'>正确! </span>","null","html-keyboard-response","95","418893","0.0-8.0-1.0-1.0-0.0-1.42","7","7","7","7","6","5","5","5","5","5","5","2","2","2","2","2","2","2","2","5","5","5","5","5","5","5","4","4","5","7","7","8","7","6","6","8","8","7","7","7","7","7","7","6","7","1","7","7","1","7","7","7","7","7","6","7","7","7","7","7","7","7","7","7","7","6","7","7","7","7","7","7","7","7","7","7","7","6","7","621344079120171008","郭","482","Male","[""好我"",""好他"",""坏我"",""坏他""]","[""强我"",""强他"",""弱我"",""弱他""]","","","","","","","","","","","","","","","","","","","","","","","","","","","","","","feedback_test","","","","","","","","",""
"877","","j","psychophysics","96","420772","0.0-8.0-1.0-1.0-0.0-0.43","7","7","7","7","6","5","5","5","5","5","5","2","2","2","2","2","2","2","2","5","5","5","5","5","5","5","4","4","5","7","7","8","7","6","6","8","8","7","7","7","7","7","7","6","7","1","7","7","1","7","7","7","7","7","6","7","7","7","7","7","7","7","7","7","7","6","7","7","7","7","7","7","7","7","7","7","7","6","7","621344079120171008","郭","482","Male","[""好我"",""好他"",""坏我"",""坏他""]","[""强我"",""强他"",""弱我"",""弱他""]","","","","","","","","nonmatch","","","","","","","","","","key","j","16.650892857143067","768","428","j","true","nonmatch","img/pentagon.png","弱他","强他","prac_ALT2_ability","practice_ability","","","","","","","","",""
"null","<span style='color:GreenYellow; font-size: 70px;'>正确! </span>","null","html-keyboard-response","97","421273","0.0-8.0-1.0-1.0-0.0-1.43","7","7","7","7","6","5","5","5","5","5","5","2","2","2","2","2","2","2","2","5","5","5","5","5","5","5","4","4","5","7","7","8","7","6","6","8","8","7","7","7","7","7","7","6","7","1","7","7","1","7","7","7","7","7","6","7","7","7","7","7","7","7","7","7","7","6","7","7","7","7","7","7","7","7","7","7","7","6","7","621344079120171008","郭","482","Male","[""好我"",""好他"",""坏我"",""坏他""]","[""强我"",""强他"",""弱我"",""弱他""]","","","","","","","","","","","","","","","","","","","","","","","","","","","","","","feedback_test","","","","","","","","",""
"917","","j","psychophysics","98","423191","0.0-8.0-1.0-1.0-0.0-0.44","7","7","7","7","6","5","5","5","5","5","5","2","2","2","2","2","2","2","2","5","5","5","5","5","5","5","4","4","5","7","7","8","7","6","6","8","8","7","7","7","7","7","7","6","7","1","7","7","1","7","7","7","7","7","6","7","7","7","7","7","7","7","7","7","7","6","7","7","7","7","7","7","7","7","7","7","7","6","7","621344079120171008","郭","482","Male","[""好我"",""好他"",""坏我"",""坏他""]","[""强我"",""强他"",""弱我"",""弱他""]","","","","","","","","nonmatch","","","","","","","","","","key","j","16.64736842105253","768","428","j","true","nonmatch","img/diamond.png","弱我","强我","prac_ALT2_ability","practice_ability","","","","","","","","",""
"null","<span style='color:GreenYellow; font-size: 70px;'>正确! </span>","null","html-keyboard-response","99","423693","0.0-8.0-1.0-1.0-0.0-1.44","7","7","7","7","6","5","5","5","5","5","5","2","2","2","2","2","2","2","2","5","5","5","5","5","5","5","4","4","5","7","7","8","7","6","6","8","8","7","7","7","7","7","7","6","7","1","7","7","1","7","7","7","7","7","6","7","7","7","7","7","7","7","7","7","7","6","7","7","7","7","7","7","7","7","7","7","7","6","7","621344079120171008","郭","482","Male","[""好我"",""好他"",""坏我"",""坏他""]","[""强我"",""强他"",""弱我"",""弱他""]","","","","","","","","","","","","","","","","","","","","","","","","","","","","","","feedback_test","","","","","","","","",""
"914","","j","psychophysics","100","425608","0.0-8.0-1.0-1.0-0.0-0.45","7","7","7","7","6","5","5","5","5","5","5","2","2","2","2","2","2","2","2","5","5","5","5","5","5","5","4","4","5","7","7","8","7","6","6","8","8","7","7","7","7","7","7","6","7","1","7","7","1","7","7","7","7","7","6","7","7","7","7","7","7","7","7","7","7","6","7","7","7","7","7","7","7","7","7","7","7","6","7","621344079120171008","郭","482","Male","[""好我"",""好他"",""坏我"",""坏他""]","[""强我"",""强他"",""弱我"",""弱他""]","","","","","","","","nonmatch","","","","","","","","","","key","j","16.651754385965322","768","428","j","true","nonmatch","img/diamond.png","强他","强我","prac_ALT2_ability","practice_ability","","","","","","","","",""
"null","<span style='color:GreenYellow; font-size: 70px;'>正确! </span>","null","html-keyboard-response","101","426109","0.0-8.0-1.0-1.0-0.0-1.45","7","7","7","7","6","5","5","5","5","5","5","2","2","2","2","2","2","2","2","5","5","5","5","5","5","5","4","4","5","7","7","8","7","6","6","8","8","7","7","7","7","7","7","6","7","1","7","7","1","7","7","7","7","7","6","7","7","7","7","7","7","7","7","7","7","6","7","7","7","7","7","7","7","7","7","7","7","6","7","621344079120171008","郭","482","Male","[""好我"",""好他"",""坏我"",""坏他""]","[""强我"",""强他"",""弱我"",""弱他""]","","","","","","","","","","","","","","","","","","","","","","","","","","","","","","feedback_test","","","","","","","","",""
"786","","f","psychophysics","102","427895","0.0-8.0-1.0-1.0-0.0-0.46","7","7","7","7","6","5","5","5","5","5","5","2","2","2","2","2","2","2","2","5","5","5","5","5","5","5","4","4","5","7","7","8","7","6","6","8","8","7","7","7","7","7","7","6","7","1","7","7","1","7","7","7","7","7","6","7","7","7","7","7","7","7","7","7","7","6","7","7","7","7","7","7","7","7","7","7","7","6","7","621344079120171008","郭","482","Male","[""好我"",""好他"",""坏我"",""坏他""]","[""强我"",""强他"",""弱我"",""弱他""]","","","","","","","","match","","","","","","","","","","key","f","16.65140186915899","768","428","f","true","match","img/pentagon.png","强他","强他","prac_ALT2_ability","practice_ability","","","","","","","","",""
"null","<span style='color:GreenYellow; font-size: 70px;'>正确! </span>","null","html-keyboard-response","103","428398","0.0-8.0-1.0-1.0-0.0-1.46","7","7","7","7","6","5","5","5","5","5","5","2","2","2","2","2","2","2","2","5","5","5","5","5","5","5","4","4","5","7","7","8","7","6","6","8","8","7","7","7","7","7","7","6","7","1","7","7","1","7","7","7","7","7","6","7","7","7","7","7","7","7","7","7","7","6","7","7","7","7","7","7","7","7","7","7","7","6","7","621344079120171008","郭","482","Male","[""好我"",""好他"",""坏我"",""坏他""]","[""强我"",""强他"",""弱我"",""弱他""]","","","","","","","","","","","","","","","","","","","","","","","","","","","","","","feedback_test","","","","","","","","",""
"744","","j","psychophysics","104","430143","0.0-8.0-1.0-1.0-0.0-0.47","7","7","7","7","6","5","5","5","5","5","5","2","2","2","2","2","2","2","2","5","5","5","5","5","5","5","4","4","5","7","7","8","7","6","6","8","8","7","7","7","7","7","7","6","7","1","7","7","1","7","7","7","7","7","6","7","7","7","7","7","7","7","7","7","7","6","7","7","7","7","7","7","7","7","7","7","7","6","7","621344079120171008","郭","482","Male","[""好我"",""好他"",""坏我"",""坏他""]","[""强我"",""强他"",""弱我"",""弱他""]","","","","","","","","nonmatch","","","","","","","","","","key","j","16.653846153846153","768","428","j","true","nonmatch","img/pentagon.png","弱我","强他","prac_ALT2_ability","practice_ability","","","","","","","","",""
"null","<span style='color:GreenYellow; font-size: 70px;'>正确! </span>","null","html-keyboard-response","105","430645","0.0-8.0-1.0-1.0-0.0-1.47","7","7","7","7","6","5","5","5","5","5","5","2","2","2","2","2","2","2","2","5","5","5","5","5","5","5","4","4","5","7","7","8","7","6","6","8","8","7","7","7","7","7","7","6","7","1","7","7","1","7","7","7","7","7","6","7","7","7","7","7","7","7","7","7","7","6","7","7","7","7","7","7","7","7","7","7","7","6","7","621344079120171008","郭","482","Male","[""好我"",""好他"",""坏我"",""坏他""]","[""强我"",""强他"",""弱我"",""弱他""]","","","","","","","","","","","","","","","","","","","","","","","","","","","","","","feedback_test","","","","","","","","",""
"1393","<style>.context{color:white; font-size: 35px; line-height:40px}</style>                          <div><p class='context'>您正确回答了73% 的试次。</p><p class='context'>您的平均反应时为821毫秒。</p><p class='context'>恭喜您完成练习。按空格键进入正式实验。</p><p class='footer' style='color:white;font-size: 35px; line-height:40px;'>请在进入正式实验实验之前将您的<span style='color: lightgreen;'>食指</span>放在电脑键盘的相应键位上进行按键。</p>"," ","html-keyboard-response","106","432040","0.0-8.0-1.0-2.0","7","7","7","7","6","5","5","5","5","5","5","2","2","2","2","2","2","2","2","5","5","5","5","5","5","5","4","4","5","7","7","8","7","6","6","8","8","7","7","7","7","7","7","6","7","1","7","7","1","7","7","7","7","7","6","7","7","7","7","7","7","7","7","7","7","6","7","7","7","7","7","7","7","7","7","7","7","6","7","621344079120171008","郭","482","Male","[""好我"",""好他"",""坏我"",""坏他""]","[""强我"",""强他"",""弱我"",""弱他""]","","","","","","","","","","","","","","","","","","","","","","","","","","","","","","","","","","","","","","",""
"2309","
  <p style='color: white; font-size: 22px'>请您将手指放在按键上，准备进入正式的匹配任务。</p>
  <p> <div style = ""color: green""><按空格键进入下一阶段的匹配任务></div></p>
  "," ","html-keyboard-response","107","434351","0.0-8.0-1.0-3.0","7","7","7","7","6","5","5","5","5","5","5","2","2","2","2","2","2","2","2","5","5","5","5","5","5","5","4","4","5","7","7","8","7","6","6","8","8","7","7","7","7","7","7","6","7","1","7","7","1","7","7","7","7","7","6","7","7","7","7","7","7","7","7","7","7","6","7","7","7","7","7","7","7","7","7","7","7","6","7","621344079120171008","郭","482","Male","[""好我"",""好他"",""坏我"",""坏他""]","[""强我"",""强他"",""弱我"",""弱他""]","","","","","","","","","","","","","","","","","","","","","","","","","","","","","","","","","","","","","","",""
"847","","j","psychophysics","108","436199","0.0-8.0-1.0-4.0-0.0-0.0","7","7","7","7","6","5","5","5","5","5","5","2","2","2","2","2","2","2","2","5","5","5","5","5","5","5","4","4","5","7","7","8","7","6","6","8","8","7","7","7","7","7","7","6","7","1","7","7","1","7","7","7","7","7","6","7","7","7","7","7","7","7","7","7","7","6","7","7","7","7","7","7","7","7","7","7","7","6","7","621344079120171008","郭","482","Male","[""好我"",""好他"",""坏我"",""坏他""]","[""强我"",""强他"",""弱我"",""弱他""]","","","","","","","","nonmatch","","","","","","","","","","key","j","16.655454545454862","768","428","j","true","nonmatch","img/trapezoid.png","强他","弱他","ALT2","ability","","","","","","","","",""
"null","<span style='color:GreenYellow; font-size: 70px;'>正确! </span>","null","html-keyboard-response","109","436701","0.0-8.0-1.0-4.0-0.0-1.0","7","7","7","7","6","5","5","5","5","5","5","2","2","2","2","2","2","2","2","5","5","5","5","5","5","5","4","4","5","7","7","8","7","6","6","8","8","7","7","7","7","7","7","6","7","1","7","7","1","7","7","7","7","7","6","7","7","7","7","7","7","7","7","7","7","6","7","7","7","7","7","7","7","7","7","7","7","6","7","621344079120171008","郭","482","Male","[""好我"",""好他"",""坏我"",""坏他""]","[""强我"",""强他"",""弱我"",""弱他""]","","","","","","","","","","","","","","","","","","","","","","","","","","","","","","feedback_test","","","","","","","","",""
"721","","f","psychophysics","110","438423","0.0-8.0-1.0-4.0-0.0-0.1","7","7","7","7","6","5","5","5","5","5","5","2","2","2","2","2","2","2","2","5","5","5","5","5","5","5","4","4","5","7","7","8","7","6","6","8","8","7","7","7","7","7","7","6","7","1","7","7","1","7","7","7","7","7","6","7","7","7","7","7","7","7","7","7","7","6","7","7","7","7","7","7","7","7","7","7","7","6","7","621344079120171008","郭","482","Male","[""好我"",""好他"",""坏我"",""坏他""]","[""强我"",""强他"",""弱我"",""弱他""]","","","","","","","","match","","","","","","","","","","key","f","16.650000000000457","768","428","f","true","match","img/trapezoid.png","弱他","弱他","ALT2","ability","","","","","","","","",""
"null","<span style='color:GreenYellow; font-size: 70px;'>正确! </span>","null","html-keyboard-response","111","438925","0.0-8.0-1.0-4.0-0.0-1.1","7","7","7","7","6","5","5","5","5","5","5","2","2","2","2","2","2","2","2","5","5","5","5","5","5","5","4","4","5","7","7","8","7","6","6","8","8","7","7","7","7","7","7","6","7","1","7","7","1","7","7","7","7","7","6","7","7","7","7","7","7","7","7","7","7","6","7","7","7","7","7","7","7","7","7","7","7","6","7","621344079120171008","郭","482","Male","[""好我"",""好他"",""坏我"",""坏他""]","[""强我"",""强他"",""弱我"",""弱他""]","","","","","","","","","","","","","","","","","","","","","","","","","","","","","","feedback_test","","","","","","","","",""
"841","","f","psychophysics","112","440768","0.0-8.0-1.0-4.0-0.0-0.2","7","7","7","7","6","5","5","5","5","5","5","2","2","2","2","2","2","2","2","5","5","5","5","5","5","5","4","4","5","7","7","8","7","6","6","8","8","7","7","7","7","7","7","6","7","1","7","7","1","7","7","7","7","7","6","7","7","7","7","7","7","7","7","7","7","6","7","7","7","7","7","7","7","7","7","7","7","6","7","621344079120171008","郭","482","Male","[""好我"",""好他"",""坏我"",""坏他""]","[""强我"",""强他"",""弱我"",""弱他""]","","","","","","","","match","","","","","","","","","","key","f","16.648181818181712","768","428","j","false","nonmatch","img/circle.png","强他","弱我","ALT2","ability","","","","","","","","",""
"null","<span style='color:red; font-size: 70px;'>错误! </span>","null","html-keyboard-response","113","441269","0.0-8.0-1.0-4.0-0.0-1.2","7","7","7","7","6","5","5","5","5","5","5","2","2","2","2","2","2","2","2","5","5","5","5","5","5","5","4","4","5","7","7","8","7","6","6","8","8","7","7","7","7","7","7","6","7","1","7","7","1","7","7","7","7","7","6","7","7","7","7","7","7","7","7","7","7","6","7","7","7","7","7","7","7","7","7","7","7","6","7","621344079120171008","郭","482","Male","[""好我"",""好他"",""坏我"",""坏他""]","[""强我"",""强他"",""弱我"",""弱他""]","","","","","","","","","","","","","","","","","","","","","","","","","","","","","","feedback_test","","","","","","","","",""
"849","","f","psychophysics","114","443119","0.0-8.0-1.0-4.0-0.0-0.3","7","7","7","7","6","5","5","5","5","5","5","2","2","2","2","2","2","2","2","5","5","5","5","5","5","5","4","4","5","7","7","8","7","6","6","8","8","7","7","7","7","7","7","6","7","1","7","7","1","7","7","7","7","7","6","7","7","7","7","7","7","7","7","7","7","6","7","7","7","7","7","7","7","7","7","7","7","6","7","621344079120171008","郭","482","Male","[""好我"",""好他"",""坏我"",""坏他""]","[""强我"",""强他"",""弱我"",""弱他""]","","","","","","","","match","","","","","","","","","","key","f","16.65090909090888","768","428","f","true","match","img/diamond.png","强我","强我","ALT2","ability","","","","","","","","",""
"null","<span style='color:GreenYellow; font-size: 70px;'>正确! </span>","null","html-keyboard-response","115","443621","0.0-8.0-1.0-4.0-0.0-1.3","7","7","7","7","6","5","5","5","5","5","5","2","2","2","2","2","2","2","2","5","5","5","5","5","5","5","4","4","5","7","7","8","7","6","6","8","8","7","7","7","7","7","7","6","7","1","7","7","1","7","7","7","7","7","6","7","7","7","7","7","7","7","7","7","7","6","7","7","7","7","7","7","7","7","7","7","7","6","7","621344079120171008","郭","482","Male","[""好我"",""好他"",""坏我"",""坏他""]","[""强我"",""强他"",""弱我"",""弱他""]","","","","","","","","","","","","","","","","","","","","","","","","","","","","","","feedback_test","","","","","","","","",""
"816","","j","psychophysics","116","445439","0.0-8.0-1.0-4.0-0.0-0.4","7","7","7","7","6","5","5","5","5","5","5","2","2","2","2","2","2","2","2","5","5","5","5","5","5","5","4","4","5","7","7","8","7","6","6","8","8","7","7","7","7","7","7","6","7","1","7","7","1","7","7","7","7","7","6","7","7","7","7","7","7","7","7","7","7","6","7","7","7","7","7","7","7","7","7","7","7","6","7","621344079120171008","郭","482","Male","[""好我"",""好他"",""坏我"",""坏他""]","[""强我"",""强他"",""弱我"",""弱他""]","","","","","","","","nonmatch","","","","","","","","","","key","j","16.64444444444423","768","428","j","true","nonmatch","img/diamond.png","强他","强我","ALT2","ability","","","","","","","","",""
"null","<span style='color:GreenYellow; font-size: 70px;'>正确! </span>","null","html-keyboard-response","117","445940","0.0-8.0-1.0-4.0-0.0-1.4","7","7","7","7","6","5","5","5","5","5","5","2","2","2","2","2","2","2","2","5","5","5","5","5","5","5","4","4","5","7","7","8","7","6","6","8","8","7","7","7","7","7","7","6","7","1","7","7","1","7","7","7","7","7","6","7","7","7","7","7","7","7","7","7","7","6","7","7","7","7","7","7","7","7","7","7","7","6","7","621344079120171008","郭","482","Male","[""好我"",""好他"",""坏我"",""坏他""]","[""强我"",""强他"",""弱我"",""弱他""]","","","","","","","","","","","","","","","","","","","","","","","","","","","","","","feedback_test","","","","","","","","",""
"690","","f","psychophysics","118","447631","0.0-8.0-1.0-4.0-0.0-0.5","7","7","7","7","6","5","5","5","5","5","5","2","2","2","2","2","2","2","2","5","5","5","5","5","5","5","4","4","5","7","7","8","7","6","6","8","8","7","7","7","7","7","7","6","7","1","7","7","1","7","7","7","7","7","6","7","7","7","7","7","7","7","7","7","7","6","7","7","7","7","7","7","7","7","7","7","7","6","7","621344079120171008","郭","482","Male","[""好我"",""好他"",""坏我"",""坏他""]","[""强我"",""强他"",""弱我"",""弱他""]","","","","","","","","match","","","","","","","","","","key","f","16.652475247524983","768","428","f","true","match","img/diamond.png","强我","强我","ALT2","ability","","","","","","","","",""
"null","<span style='color:GreenYellow; font-size: 70px;'>正确! </span>","null","html-keyboard-response","119","448132","0.0-8.0-1.0-4.0-0.0-1.5","7","7","7","7","6","5","5","5","5","5","5","2","2","2","2","2","2","2","2","5","5","5","5","5","5","5","4","4","5","7","7","8","7","6","6","8","8","7","7","7","7","7","7","6","7","1","7","7","1","7","7","7","7","7","6","7","7","7","7","7","7","7","7","7","7","6","7","7","7","7","7","7","7","7","7","7","7","6","7","621344079120171008","郭","482","Male","[""好我"",""好他"",""坏我"",""坏他""]","[""强我"",""强他"",""弱我"",""弱他""]","","","","","","","","","","","","","","","","","","","","","","","","","","","","","","feedback_test","","","","","","","","",""
"714","","j","psychophysics","120","449847","0.0-8.0-1.0-4.0-0.0-0.6","7","7","7","7","6","5","5","5","5","5","5","2","2","2","2","2","2","2","2","5","5","5","5","5","5","5","4","4","5","7","7","8","7","6","6","8","8","7","7","7","7","7","7","6","7","1","7","7","1","7","7","7","7","7","6","7","7","7","7","7","7","7","7","7","7","6","7","7","7","7","7","7","7","7","7","7","7","6","7","621344079120171008","郭","482","Male","[""好我"",""好他"",""坏我"",""坏他""]","[""强我"",""强他"",""弱我"",""弱他""]","","","","","","","","nonmatch","","","","","","","","","","key","j","16.650000000000457","768","428","j","true","nonmatch","img/trapezoid.png","弱我","弱他","ALT2","ability","","","","","","","","",""
"null","<span style='color:GreenYellow; font-size: 70px;'>正确! </span>","null","html-keyboard-response","121","450349","0.0-8.0-1.0-4.0-0.0-1.6","7","7","7","7","6","5","5","5","5","5","5","2","2","2","2","2","2","2","2","5","5","5","5","5","5","5","4","4","5","7","7","8","7","6","6","8","8","7","7","7","7","7","7","6","7","1","7","7","1","7","7","7","7","7","6","7","7","7","7","7","7","7","7","7","7","6","7","7","7","7","7","7","7","7","7","7","7","6","7","621344079120171008","郭","482","Male","[""好我"",""好他"",""坏我"",""坏他""]","[""强我"",""强他"",""弱我"",""弱他""]","","","","","","","","","","","","","","","","","","","","","","","","","","","","","","feedback_test","","","","","","","","",""
"881","","j","psychophysics","122","452231","0.0-8.0-1.0-4.0-0.0-0.7","7","7","7","7","6","5","5","5","5","5","5","2","2","2","2","2","2","2","2","5","5","5","5","5","5","5","4","4","5","7","7","8","7","6","6","8","8","7","7","7","7","7","7","6","7","1","7","7","1","7","7","7","7","7","6","7","7","7","7","7","7","7","7","7","7","6","7","7","7","7","7","7","7","7","7","7","7","6","7","621344079120171008","郭","482","Male","[""好我"",""好他"",""坏我"",""坏他""]","[""强我"",""强他"",""弱我"",""弱他""]","","","","","","","","nonmatch","","","","","","","","","","key","j","16.651785714285715","768","428","j","true","nonmatch","img/diamond.png","弱他","强我","ALT2","ability","","","","","","","","",""
"null","<span style='color:GreenYellow; font-size: 70px;'>正确! </span>","null","html-keyboard-response","123","452732","0.0-8.0-1.0-4.0-0.0-1.7","7","7","7","7","6","5","5","5","5","5","5","2","2","2","2","2","2","2","2","5","5","5","5","5","5","5","4","4","5","7","7","8","7","6","6","8","8","7","7","7","7","7","7","6","7","1","7","7","1","7","7","7","7","7","6","7","7","7","7","7","7","7","7","7","7","6","7","7","7","7","7","7","7","7","7","7","7","6","7","621344079120171008","郭","482","Male","[""好我"",""好他"",""坏我"",""坏他""]","[""强我"",""强他"",""弱我"",""弱他""]","","","","","","","","","","","","","","","","","","","","","","","","","","","","","","feedback_test","","","","","","","","",""
"834","","f","psychophysics","124","454568","0.0-8.0-1.0-4.0-0.0-0.8","7","7","7","7","6","5","5","5","5","5","5","2","2","2","2","2","2","2","2","5","5","5","5","5","5","5","4","4","5","7","7","8","7","6","6","8","8","7","7","7","7","7","7","6","7","1","7","7","1","7","7","7","7","7","6","7","7","7","7","7","7","7","7","7","7","6","7","7","7","7","7","7","7","7","7","7","7","6","7","621344079120171008","郭","482","Male","[""好我"",""好他"",""坏我"",""坏他""]","[""强我"",""强他"",""弱我"",""弱他""]","","","","","","","","match","","","","","","","","","","key","f","16.65137614678899","768","428","j","false","nonmatch","img/pentagon.png","强我","强他","ALT2","ability","","","","","","","","",""
"null","<span style='color:red; font-size: 70px;'>错误! </span>","null","html-keyboard-response","125","455068","0.0-8.0-1.0-4.0-0.0-1.8","7","7","7","7","6","5","5","5","5","5","5","2","2","2","2","2","2","2","2","5","5","5","5","5","5","5","4","4","5","7","7","8","7","6","6","8","8","7","7","7","7","7","7","6","7","1","7","7","1","7","7","7","7","7","6","7","7","7","7","7","7","7","7","7","7","6","7","7","7","7","7","7","7","7","7","7","7","6","7","621344079120171008","郭","482","Male","[""好我"",""好他"",""坏我"",""坏他""]","[""强我"",""强他"",""弱我"",""弱他""]","","","","","","","","","","","","","","","","","","","","","","","","","","","","","","feedback_test","","","","","","","","",""
"706","","f","psychophysics","126","456775","0.0-8.0-1.0-4.0-0.0-0.9","7","7","7","7","6","5","5","5","5","5","5","2","2","2","2","2","2","2","2","5","5","5","5","5","5","5","4","4","5","7","7","8","7","6","6","8","8","7","7","7","7","7","7","6","7","1","7","7","1","7","7","7","7","7","6","7","7","7","7","7","7","7","7","7","7","6","7","7","7","7","7","7","7","7","7","7","7","6","7","621344079120171008","郭","482","Male","[""好我"",""好他"",""坏我"",""坏他""]","[""强我"",""强他"",""弱我"",""弱他""]","","","","","","","","match","","","","","","","","","","key","f","16.652475247524983","768","428","f","true","match","img/pentagon.png","强他","强他","ALT2","ability","","","","","","","","",""
"null","<span style='color:GreenYellow; font-size: 70px;'>正确! </span>","null","html-keyboard-response","127","457277","0.0-8.0-1.0-4.0-0.0-1.9","7","7","7","7","6","5","5","5","5","5","5","2","2","2","2","2","2","2","2","5","5","5","5","5","5","5","4","4","5","7","7","8","7","6","6","8","8","7","7","7","7","7","7","6","7","1","7","7","1","7","7","7","7","7","6","7","7","7","7","7","7","7","7","7","7","6","7","7","7","7","7","7","7","7","7","7","7","6","7","621344079120171008","郭","482","Male","[""好我"",""好他"",""坏我"",""坏他""]","[""强我"",""强他"",""弱我"",""弱他""]","","","","","","","","","","","","","","","","","","","","","","","","","","","","","","feedback_test","","","","","","","","",""
"769","","j","psychophysics","128","459047","0.0-8.0-1.0-4.0-0.0-0.10","7","7","7","7","6","5","5","5","5","5","5","2","2","2","2","2","2","2","2","5","5","5","5","5","5","5","4","4","5","7","7","8","7","6","6","8","8","7","7","7","7","7","7","6","7","1","7","7","1","7","7","7","7","7","6","7","7","7","7","7","7","7","7","7","7","6","7","7","7","7","7","7","7","7","7","7","7","6","7","621344079120171008","郭","482","Male","[""好我"",""好他"",""坏我"",""坏他""]","[""强我"",""强他"",""弱我"",""弱他""]","","","","","","","","nonmatch","","","","","","","","","","key","j","16.650476190476635","768","428","j","true","nonmatch","img/diamond.png","弱我","强我","ALT2","ability","","","","","","","","",""
"null","<span style='color:GreenYellow; font-size: 70px;'>正确! </span>","null","html-keyboard-response","129","459549","0.0-8.0-1.0-4.0-0.0-1.10","7","7","7","7","6","5","5","5","5","5","5","2","2","2","2","2","2","2","2","5","5","5","5","5","5","5","4","4","5","7","7","8","7","6","6","8","8","7","7","7","7","7","7","6","7","1","7","7","1","7","7","7","7","7","6","7","7","7","7","7","7","7","7","7","7","6","7","7","7","7","7","7","7","7","7","7","7","6","7","621344079120171008","郭","482","Male","[""好我"",""好他"",""坏我"",""坏他""]","[""强我"",""强他"",""弱我"",""弱他""]","","","","","","","","","","","","","","","","","","","","","","","","","","","","","","feedback_test","","","","","","","","",""
"769","","j","psychophysics","130","461319","0.0-8.0-1.0-4.0-0.0-0.11","7","7","7","7","6","5","5","5","5","5","5","2","2","2","2","2","2","2","2","5","5","5","5","5","5","5","4","4","5","7","7","8","7","6","6","8","8","7","7","7","7","7","7","6","7","1","7","7","1","7","7","7","7","7","6","7","7","7","7","7","7","7","7","7","7","6","7","7","7","7","7","7","7","7","7","7","7","6","7","621344079120171008","郭","482","Male","[""好我"",""好他"",""坏我"",""坏他""]","[""强我"",""强他"",""弱我"",""弱他""]","","","","","","","","nonmatch","","","","","","","","","","key","j","16.647169811320534","768","428","j","true","nonmatch","img/pentagon.png","弱他","强他","ALT2","ability","","","","","","","","",""
"null","<span style='color:GreenYellow; font-size: 70px;'>正确! </span>","null","html-keyboard-response","131","461820","0.0-8.0-1.0-4.0-0.0-1.11","7","7","7","7","6","5","5","5","5","5","5","2","2","2","2","2","2","2","2","5","5","5","5","5","5","5","4","4","5","7","7","8","7","6","6","8","8","7","7","7","7","7","7","6","7","1","7","7","1","7","7","7","7","7","6","7","7","7","7","7","7","7","7","7","7","6","7","7","7","7","7","7","7","7","7","7","7","6","7","621344079120171008","郭","482","Male","[""好我"",""好他"",""坏我"",""坏他""]","[""强我"",""强他"",""弱我"",""弱他""]","","","","","","","","","","","","","","","","","","","","","","","","","","","","","","feedback_test","","","","","","","","",""
"794","","f","psychophysics","132","463615","0.0-8.0-1.0-4.0-0.0-0.12","7","7","7","7","6","5","5","5","5","5","5","2","2","2","2","2","2","2","2","5","5","5","5","5","5","5","4","4","5","7","7","8","7","6","6","8","8","7","7","7","7","7","7","6","7","1","7","7","1","7","7","7","7","7","6","7","7","7","7","7","7","7","7","7","7","6","7","7","7","7","7","7","7","7","7","7","7","6","7","621344079120171008","郭","482","Male","[""好我"",""好他"",""坏我"",""坏他""]","[""强我"",""强他"",""弱我"",""弱他""]","","","","","","","","match","","","","","","","","","","key","f","16.65140186915899","768","428","f","true","match","img/trapezoid.png","弱他","弱他","ALT2","ability","","","","","","","","",""
"null","<span style='color:GreenYellow; font-size: 70px;'>正确! </span>","null","html-keyboard-response","133","464116","0.0-8.0-1.0-4.0-0.0-1.12","7","7","7","7","6","5","5","5","5","5","5","2","2","2","2","2","2","2","2","5","5","5","5","5","5","5","4","4","5","7","7","8","7","6","6","8","8","7","7","7","7","7","7","6","7","1","7","7","1","7","7","7","7","7","6","7","7","7","7","7","7","7","7","7","7","6","7","7","7","7","7","7","7","7","7","7","7","6","7","621344079120171008","郭","482","Male","[""好我"",""好他"",""坏我"",""坏他""]","[""强我"",""强他"",""弱我"",""弱他""]","","","","","","","","","","","","","","","","","","","","","","","","","","","","","","feedback_test","","","","","","","","",""
"507","","f","psychophysics","134","465624","0.0-8.0-1.0-4.0-0.0-0.13","7","7","7","7","6","5","5","5","5","5","5","2","2","2","2","2","2","2","2","5","5","5","5","5","5","5","4","4","5","7","7","8","7","6","6","8","8","7","7","7","7","7","7","6","7","1","7","7","1","7","7","7","7","7","6","7","7","7","7","7","7","7","7","7","7","6","7","7","7","7","7","7","7","7","7","7","7","6","7","621344079120171008","郭","482","Male","[""好我"",""好他"",""坏我"",""坏他""]","[""强我"",""强他"",""弱我"",""弱他""]","","","","","","","","match","","","","","","","","","","key","f","16.647191011236348","768","428","f","true","match","img/circle.png","弱我","弱我","ALT2","ability","","","","","","","","",""
"null","<span style='color:GreenYellow; font-size: 70px;'>正确! </span>","null","html-keyboard-response","135","466125","0.0-8.0-1.0-4.0-0.0-1.13","7","7","7","7","6","5","5","5","5","5","5","2","2","2","2","2","2","2","2","5","5","5","5","5","5","5","4","4","5","7","7","8","7","6","6","8","8","7","7","7","7","7","7","6","7","1","7","7","1","7","7","7","7","7","6","7","7","7","7","7","7","7","7","7","7","6","7","7","7","7","7","7","7","7","7","7","7","6","7","621344079120171008","郭","482","Male","[""好我"",""好他"",""坏我"",""坏他""]","[""强我"",""强他"",""弱我"",""弱他""]","","","","","","","","","","","","","","","","","","","","","","","","","","","","","","feedback_test","","","","","","","","",""
"634","","f","psychophysics","136","467760","0.0-8.0-1.0-4.0-0.0-0.14","7","7","7","7","6","5","5","5","5","5","5","2","2","2","2","2","2","2","2","5","5","5","5","5","5","5","4","4","5","7","7","8","7","6","6","8","8","7","7","7","7","7","7","6","7","1","7","7","1","7","7","7","7","7","6","7","7","7","7","7","7","7","7","7","7","6","7","7","7","7","7","7","7","7","7","7","7","6","7","621344079120171008","郭","482","Male","[""好我"",""好他"",""坏我"",""坏他""]","[""强我"",""强他"",""弱我"",""弱他""]","","","","","","","","match","","","","","","","","","","key","f","16.650515463917287","768","428","f","true","match","img/circle.png","弱我","弱我","ALT2","ability","","","","","","","","",""
"null","<span style='color:GreenYellow; font-size: 70px;'>正确! </span>","null","html-keyboard-response","137","468261","0.0-8.0-1.0-4.0-0.0-1.14","7","7","7","7","6","5","5","5","5","5","5","2","2","2","2","2","2","2","2","5","5","5","5","5","5","5","4","4","5","7","7","8","7","6","6","8","8","7","7","7","7","7","7","6","7","1","7","7","1","7","7","7","7","7","6","7","7","7","7","7","7","7","7","7","7","6","7","7","7","7","7","7","7","7","7","7","7","6","7","621344079120171008","郭","482","Male","[""好我"",""好他"",""坏我"",""坏他""]","[""强我"",""强他"",""弱我"",""弱他""]","","","","","","","","","","","","","","","","","","","","","","","","","","","","","","feedback_test","","","","","","","","",""
"688","","j","psychophysics","138","469951","0.0-8.0-1.0-4.0-0.0-0.15","7","7","7","7","6","5","5","5","5","5","5","2","2","2","2","2","2","2","2","5","5","5","5","5","5","5","4","4","5","7","7","8","7","6","6","8","8","7","7","7","7","7","7","6","7","1","7","7","1","7","7","7","7","7","6","7","7","7","7","7","7","7","7","7","7","6","7","7","7","7","7","7","7","7","7","7","7","6","7","621344079120171008","郭","482","Male","[""好我"",""好他"",""坏我"",""坏他""]","[""强我"",""强他"",""弱我"",""弱他""]","","","","","","","","nonmatch","","","","","","","","","","key","j","16.647000000000116","768","428","f","false","match","img/diamond.png","强我","强我","ALT2","ability","","","","","","","","",""
