"rt","stimulus","response","trial_type","trial_index","time_elapsed","internal_node_id","swb_1","swb_2","swb_3","swb_4","swb_5","LOT_1","LOT_2","LOT_3","LOT_4","LOT_5","LOT_6","IPC_1","IPC_2","IPC_3","IPC_4","IPC_5","IPC_6","IPC_7","IPC_8","MorIden_1","MorIden_2","MorIden_3","MorIden_4","MorIden_5","MorIden_6","MorIden_7","MorIden_8","MorIden_9","MorIden_10","moralSeImag_1","moralSeImag_2","moralSeImag_3","moralSeImag_4","moralSeImag_5","moralSeImag_6","moralSeImag_7","moralSeImag_8","moralSeImag_9","sde_1","sde_2","sde_3","sde_4","sde_5","sde_6","sde_7","sde_8","sde_9","sde_10","trap2","sde_11","sde_12","sde_13","sde_14","sde_15","sde_16","sde_17","sde_18","sde_19","sde_20","IM_1","IM_2","IM_3","IM_4","IM_5","IM_6","IM_7","IM_8","IM_9","IM_10","IM_11","IM_12","IM_13","IM_14","IM_15","IM_16","IM_17","IM_18","IM_19","IM_20","subj_idx","friend_name","ParticipantID","Sex","Word","Word2","value","success","timeout","failed_images","failed_audio","failed_video","user_agent","responses","item_order","radio_event_ids","radio_event_times","key_event_times","mouse_event_times","straightlining","zigzagging","honeypot","task_id","screen_id","time_stamp","response_type","key_press","avg_frame_time","center_x","center_y","person","word","valence","domain","math","correct_response","correct","status","view_history","identity","duration","Image","condition","question_order","trap2_item"
"1190","
   <p><div style='color:white; font-size: 25px'>您好，欢迎参加本次实验。</div></p>
   <p><div style='color:white; font-size: 25px'>为充分保障您的权利，请确保您已经知晓并同意《参与实验同意书》以及《数据公开知情同意书》。</div></p>
   <p><div style='color:white; font-size: 25px'>如果您未见过上述内容，请咨询实验员。</div></p>
   <p style='color:white; font-size: 25px'>如果您选择继续实验，则表示您已经清楚两份知情同意书的内容并同意。</p>
   <p><div style = ""color: pink;font-size:30px;"">请确保您记得day0的实验编号，您将在本次实验输入该编号，若您忘记，请咨询实验员后作答。</div></p>
   <p><div style = ""color:lightblue;font-size:25px;"">请您尽可能认真地作答，我们将依据您在各问卷和按键任务中的作答质量发放报酬。</div></p>
   <p> <div style = ""color: green""><按空格键至下页></div> </p>
   "," ","html-keyboard-response","0","1192","0.0-0.0","7","7","7","7","6","5","5","5","5","5","5","2","1","2","1","2","2","2","2","5","5","5","5","5","5","5","4","5","5","7","7","7","6","6","5","7","8","7","7","7","7","7","7","7","7","1","7","7","1","7","7","7","7","7","7","7","7","6","7","7","7","7","7","6","7","7","7","7","7","7","7","7","7","7","7","7","7","6","7","598903596641157120","王","576","Male","[""好我"",""坏我"",""好他"",""坏他""]","[""强我"",""弱我"",""强他"",""弱他""]","","","","","","","","","","","","","","","","","","","","","","","","","","","","","","","","","","","","","","",""
"","","","call-function","1","1193","0.0-1.0-0.0","7","7","7","7","6","5","5","5","5","5","5","2","1","2","1","2","2","2","2","5","5","5","5","5","5","5","4","5","5","7","7","7","6","6","5","7","8","7","7","7","7","7","7","7","7","1","7","7","1","7","7","7","7","7","7","7","7","6","7","7","7","7","7","6","7","7","7","7","7","7","7","7","7","7","7","7","7","6","7","598903596641157120","王","576","Male","[""好我"",""坏我"",""好他"",""坏他""]","[""强我"",""弱我"",""强他"",""弱他""]","","","","","","","","","","","","","","","","","","","","","","","","","","","","","","","","","","","","","","",""
"31126","","[{""name"":""Sex"",""value"":""0""},{""name"":""friend_name"",""value"":""王""},{""name"":""ParticipantID"",""value"":""576""}]","survey-html-form","2","32320","0.0-1.0-1.0","7","7","7","7","6","5","5","5","5","5","5","2","1","2","1","2","2","2","2","5","5","5","5","5","5","5","4","5","5","7","7","7","6","6","5","7","8","7","7","7","7","7","7","7","7","1","7","7","1","7","7","7","7","7","7","7","7","6","7","7","7","7","7","6","7","7","7","7","7","7","7","7","7","7","7","7","7","6","7","598903596641157120","王","576","Male","[""好我"",""坏我"",""好他"",""坏他""]","[""强我"",""弱我"",""强他"",""弱他""]","","","","","","","","","","","","","","","","","","","","","","","","","","","","","","","","","","","","","","",""
"","","","preload","3","32564","0.0-2.0","7","7","7","7","6","5","5","5","5","5","5","2","1","2","1","2","2","2","2","5","5","5","5","5","5","5","4","5","5","7","7","7","6","6","5","7","8","7","7","7","7","7","7","7","7","1","7","7","1","7","7","7","7","7","7","7","7","6","7","7","7","7","7","6","7","7","7","7","7","7","7","7","7","7","7","7","7","6","7","598903596641157120","王","576","Male","[""好我"",""坏我"",""好他"",""坏他""]","[""强我"",""弱我"",""强他"",""弱他""]","","true","false","[]","[]","[]","","","","","","","","","","","","","","","","","","","","","","","","","","","","","","","","",""
"","","","fullscreen","4","33748","0.0-3.0","7","7","7","7","6","5","5","5","5","5","5","2","1","2","1","2","2","2","2","5","5","5","5","5","5","5","4","5","5","7","7","7","6","6","5","7","8","7","7","7","7","7","7","7","7","1","7","7","1","7","7","7","7","7","7","7","7","6","7","7","7","7","7","6","7","7","7","7","7","7","7","7","7","7","7","7","7","6","7","598903596641157120","王","576","Male","[""好我"",""坏我"",""好他"",""坏他""]","[""强我"",""弱我"",""强他"",""弱他""]","","true","","","","","{}","","","","","","","","","","","","","","","","","","","","","","","","","","","","","","","",""
"8481.700000047684","","{""Q01"":""7"",""Q02"":""7"",""Q03"":""7"",""Q04"":""7"",""Q05"":""6""}","survey-template","5","42232","0.0-4.0","7","7","7","7","6","5","5","5","5","5","5","2","1","2","1","2","2","2","2","5","5","5","5","5","5","5","4","5","5","7","7","7","6","6","5","7","8","7","7","7","7","7","7","7","7","1","7","7","1","7","7","7","7","7","7","7","7","6","7","7","7","7","7","6","7","7","7","7","7","7","7","7","7","7","7","7","7","6","7","598903596641157120","王","576","Male","[""好我"",""坏我"",""好他"",""坏他""]","[""强我"",""弱我"",""强他"",""弱他""]","","","","","","","","{""Q01"":""7"",""Q02"":""7"",""Q03"":""7"",""Q04"":""7"",""Q05"":""6""}","[0,1,2,3,4]","[""Q01"",""Q02"",""Q03"",""Q04"",""Q05""]","[1800.7999999523163,2304.7000000476837,2960.7000000476837,3680.7000000476837,4808.899999856949]","[]","[1800.7999999523163,2304.7000000476837,2960.7000000476837,3680.7000000476837,4808.899999856949,8480.700000047684]","0.8","0.25","0","","","","","","","","","","","","","","","","","","","","","","",""
"10484.600000143051","","{""Q01"":""5"",""Q02"":""5"",""Q03"":""5"",""Q04"":""5"",""Q05"":""5"",""Q06"":""5""}","survey-template","6","52719","0.0-5.0","7","7","7","7","6","5","5","5","5","5","5","2","1","2","1","2","2","2","2","5","5","5","5","5","5","5","4","5","5","7","7","7","6","6","5","7","8","7","7","7","7","7","7","7","7","1","7","7","1","7","7","7","7","7","7","7","7","6","7","7","7","7","7","6","7","7","7","7","7","7","7","7","7","7","7","7","7","6","7","598903596641157120","王","576","Male","[""好我"",""坏我"",""好他"",""坏他""]","[""强我"",""弱我"",""强他"",""弱他""]","","","","","","","","{""Q01"":""5"",""Q02"":""5"",""Q03"":""5"",""Q04"":""5"",""Q05"":""5"",""Q06"":""5""}","[0,1,2,3,4,5]","[""Q01"",""Q02"",""Q03"",""Q06"",""Q04"",""Q05""]","[1667.8000001907349,3179.800000190735,5523.900000095367,6355.800000190735,7331.700000047684,8523.800000190735]","[]","[1667.8000001907349,3179.800000190735,4211.800000190735,5523.900000095367,6355.800000190735,7331.700000047684,8004.100000143051,8523.800000190735,10483.800000190735]","0.5","0.8","0","","","","","","","","","","","","","","","","","","","","","","",""
"8678","","{""Q01"":""2"",""Q02"":""1"",""Q03"":""2"",""Q04"":""1"",""Q05"":""2"",""Q06"":""2"",""Q07"":""2"",""Q08"":""2""}","survey-template","7","61400","0.0-6.0","7","7","7","7","6","5","5","5","5","5","5","2","1","2","1","2","2","2","2","5","5","5","5","5","5","5","4","5","5","7","7","7","6","6","5","7","8","7","7","7","7","7","7","7","7","1","7","7","1","7","7","7","7","7","7","7","7","6","7","7","7","7","7","6","7","7","7","7","7","7","7","7","7","7","7","7","7","6","7","598903596641157120","王","576","Male","[""好我"",""坏我"",""好他"",""坏他""]","[""强我"",""弱我"",""强他"",""弱他""]","","","","","","","","{""Q01"":""2"",""Q02"":""1"",""Q03"":""2"",""Q04"":""1"",""Q05"":""2"",""Q06"":""2"",""Q07"":""2"",""Q08"":""2""}","[0,1,2,3,4,5,6,7]","[""Q01"",""Q02"",""Q03"",""Q04"",""Q05"",""Q06"",""Q07"",""Q08""]","[1956.6000001430511,2724.600000143051,4052.7000000476837,4940.600000143051,5764.700000047684,6140.600000143051,6700.600000143051,7812.600000143051]","[]","[1956.6000001430511,2724.600000143051,3572.600000143051,4052.7000000476837,4940.600000143051,5764.700000047684,6140.600000143051,6700.600000143051,7308.600000143051,7812.600000143051,8676.700000047684]","0.75","0.5714285714285714","0","","","","","","","","","","","","","","","","","","","","","","",""
"31172","
    <p><div style='color:white;font-size:35px; line-height:20px;'>词汇评估任务</div></p><br>
    <p><div style='color:white;font-size:25px; line-height:20px;'>请再次回忆该亲密的朋友，你们至少2年前就认识了，并且最近2年经常见面。</div></p>
    <p><div style='color:white;font-size:25px; line-height:20px;'>在本实验中，您将会看到一些形容词。</div></p>
    <p><div style='color:yellow;font-size:25px; line-height:20px;'>您的任务是判断这些形容词是否符合对您自己或您的朋友的描述。</div></p><p style='font-size:35px'>符合按<span style=""color:lightgreen""> f 键</span>，不符合按<span style=""color:red""> j 键</span></p>","0","html-button-response","8","92575","0.0-7.0-0.0","7","7","7","7","6","5","5","5","5","5","5","2","1","2","1","2","2","2","2","5","5","5","5","5","5","5","4","5","5","7","7","7","6","6","5","7","8","7","7","7","7","7","7","7","7","1","7","7","1","7","7","7","7","7","7","7","7","6","7","7","7","7","7","6","7","7","7","7","7","7","7","7","7","7","7","7","7","6","7","598903596641157120","王","576","Male","[""好我"",""坏我"",""好他"",""坏他""]","[""强我"",""弱我"",""强他"",""弱他""]","","","","","","","","","","","","","","","","","SRET_EW","EW_instructions","Sun Jan 07 2024 10:48:45 GMT+0800 (中国标准时间)","","","","","","","","","","","","","","","","","","","",""
"990","","f","psychophysics","9","94567","0.0-7.0-1.0-0.0","7","7","7","7","6","5","5","5","5","5","5","2","1","2","1","2","2","2","2","5","5","5","5","5","5","5","4","5","5","7","7","7","6","6","5","7","8","7","7","7","7","7","7","7","7","1","7","7","1","7","7","7","7","7","7","7","7","6","7","7","7","7","7","6","7","7","7","7","7","7","7","7","7","7","7","7","7","6","7","598903596641157120","王","576","Male","[""好我"",""坏我"",""好他"",""坏他""]","[""强我"",""弱我"",""强他"",""弱他""]","","","","","","","","yes","","","","","","","","","SRET_EW","EW_practice","","key","f","16.525","768","428","朋友","忠实","Positive","morality","","","","","","","","","","",""
"669","","j","psychophysics","10","96239","0.0-7.0-1.0-0.1","7","7","7","7","6","5","5","5","5","5","5","2","1","2","1","2","2","2","2","5","5","5","5","5","5","5","4","5","5","7","7","7","6","6","5","7","8","7","7","7","7","7","7","7","7","1","7","7","1","7","7","7","7","7","7","7","7","6","7","7","7","7","7","6","7","7","7","7","7","7","7","7","7","7","7","7","7","6","7","598903596641157120","王","576","Male","[""好我"",""坏我"",""好他"",""坏他""]","[""强我"",""弱我"",""强他"",""弱他""]","","","","","","","","no","","","","","","","","","SRET_EW","EW_practice","","key","j","16.66363636363648","768","428","自己","刻板","Negative","ability","","","","","","","","","","",""
"575","","j","psychophysics","11","97814","0.0-7.0-1.0-0.2","7","7","7","7","6","5","5","5","5","5","5","2","1","2","1","2","2","2","2","5","5","5","5","5","5","5","4","5","5","7","7","7","6","6","5","7","8","7","7","7","7","7","7","7","7","1","7","7","1","7","7","7","7","7","7","7","7","6","7","7","7","7","7","6","7","7","7","7","7","7","7","7","7","7","7","7","7","6","7","598903596641157120","王","576","Male","[""好我"",""坏我"",""好他"",""坏他""]","[""强我"",""弱我"",""强他"",""弱他""]","","","","","","","","no","","","","","","","","","SRET_EW","EW_practice","","key","j","16.66382978723398","768","428","朋友","徇私","Negative","morality","","","","","","","","","","",""
"558","","j","psychophysics","12","99374","0.0-7.0-1.0-0.3","7","7","7","7","6","5","5","5","5","5","5","2","1","2","1","2","2","2","2","5","5","5","5","5","5","5","4","5","5","7","7","7","6","6","5","7","8","7","7","7","7","7","7","7","7","1","7","7","1","7","7","7","7","7","7","7","7","6","7","7","7","7","7","6","7","7","7","7","7","7","7","7","7","7","7","7","7","6","7","598903596641157120","王","576","Male","[""好我"",""坏我"",""好他"",""坏他""]","[""强我"",""弱我"",""强他"",""弱他""]","","","","","","","","no","","","","","","","","","SRET_EW","EW_practice","","key","j","16.66413043478267","768","428","自己","严谨","Positive","ability","","","","","","","","","","",""
"5168","
    <p><div style='color:white;font-size:35px; line-height:20px;'>请您再次阅读实验要求</div></p><br>
    <p><div style='color:white;font-size:25px; line-height:20px;'>请回忆某一个亲密的朋友，你们至少2年前就认识了，并且最近2年经常见面。</div></p>
    <p><div style='color:white;font-size:25px; line-height:20px;'>在本实验中，您将会看到一些形容词。</div></p>
    <p><div style='color:yellow;font-size:25px; line-height:20px;'>您的任务是判断这些形容词是否符合对您自己或您的朋友的描述。</div></p>
    <p><div class='footer' style='font-size:25px; line-height:20px;'>如果对本实验还有不清楚之处，请立即向实验员咨询。</p><p style='font-size:25px; line-height:20px;'>如果您明白了规则：</p><p style='font-size:22px; line-height:20px;'>请按 继续 进入正式实验</p>
    </div>
    <p style='font-size:35px'>符合按<span style=""color:lightgreen""> f 键</span>，不符合按<span style=""color:red""> j 键</span></p>","0","html-button-response","13","104543","0.0-7.0-2.0","7","7","7","7","6","5","5","5","5","5","5","2","1","2","1","2","2","2","2","5","5","5","5","5","5","5","4","5","5","7","7","7","6","6","5","7","8","7","7","7","7","7","7","7","7","1","7","7","1","7","7","7","7","7","7","7","7","6","7","7","7","7","7","6","7","7","7","7","7","7","7","7","7","7","7","7","7","6","7","598903596641157120","王","576","Male","[""好我"",""坏我"",""好他"",""坏他""]","[""强我"",""弱我"",""强他"",""弱他""]","","","","","","","","","","","","","","","","","SRET_EW","prac_instructions","Sun Jan 07 2024 10:48:45 GMT+0800 (中国标准时间)","","","","","","","","","","","","","","","","","","","",""
"910","","f","psychophysics","14","106455","0.0-7.0-3.0-0.0","7","7","7","7","6","5","5","5","5","5","5","2","1","2","1","2","2","2","2","5","5","5","5","5","5","5","4","5","5","7","7","7","6","6","5","7","8","7","7","7","7","7","7","7","7","1","7","7","1","7","7","7","7","7","7","7","7","6","7","7","7","7","7","6","7","7","7","7","7","7","7","7","7","7","7","7","7","6","7","598903596641157120","王","576","Male","[""好我"",""坏我"",""好他"",""坏他""]","[""强我"",""弱我"",""强他"",""弱他""]","","","","","","","","yes","","","","","","","","","SRET","EW_formal","","key","f","16.6640350877194","768","428","自己","坚贞","Positive","morality","","","","","","","","","","",""
"638","","f","psychophysics","15","108094","0.0-7.0-3.0-0.1","7","7","7","7","6","5","5","5","5","5","5","2","1","2","1","2","2","2","2","5","5","5","5","5","5","5","4","5","5","7","7","7","6","6","5","7","8","7","7","7","7","7","7","7","7","1","7","7","1","7","7","7","7","7","7","7","7","6","7","7","7","7","7","6","7","7","7","7","7","7","7","7","7","7","7","7","7","6","7","598903596641157120","王","576","Male","[""好我"",""坏我"",""好他"",""坏他""]","[""强我"",""弱我"",""强他"",""弱他""]","","","","","","","","yes","","","","","","","","","SRET","EW_formal","","key","f","16.66530612244895","768","428","朋友","务实","Positive","ability","","","","","","","","","","",""
"679","","j","psychophysics","16","109774","0.0-7.0-3.0-0.2","7","7","7","7","6","5","5","5","5","5","5","2","1","2","1","2","2","2","2","5","5","5","5","5","5","5","4","5","5","7","7","7","6","6","5","7","8","7","7","7","7","7","7","7","7","1","7","7","1","7","7","7","7","7","7","7","7","6","7","7","7","7","7","6","7","7","7","7","7","7","7","7","7","7","7","7","7","6","7","598903596641157120","王","576","Male","[""好我"",""坏我"",""好他"",""坏他""]","[""强我"",""弱我"",""强他"",""弱他""]","","","","","","","","no","","","","","","","","","SRET","EW_formal","","key","j","16.66565656565651","768","428","自己","说谎","Negative","morality","","","","","","","","","","",""
"1287","","j","psychophysics","17","112062","0.0-7.0-3.0-0.3","7","7","7","7","6","5","5","5","5","5","5","2","1","2","1","2","2","2","2","5","5","5","5","5","5","5","4","5","5","7","7","7","6","6","5","7","8","7","7","7","7","7","7","7","7","1","7","7","1","7","7","7","7","7","7","7","7","6","7","7","7","7","7","6","7","7","7","7","7","7","7","7","7","7","7","7","7","6","7","598903596641157120","王","576","Male","[""好我"",""坏我"",""好他"",""坏他""]","[""强我"",""弱我"",""强他"",""弱他""]","","","","","","","","no","","","","","","","","","SRET","EW_formal","","key","j","16.66496350364957","768","428","朋友","迷糊","Negative","ability","","","","","","","","","","",""
"775","","j","psychophysics","18","113838","0.0-7.0-3.0-0.4","7","7","7","7","6","5","5","5","5","5","5","2","1","2","1","2","2","2","2","5","5","5","5","5","5","5","4","5","5","7","7","7","6","6","5","7","8","7","7","7","7","7","7","7","7","1","7","7","1","7","7","7","7","7","7","7","7","6","7","7","7","7","7","6","7","7","7","7","7","7","7","7","7","7","7","7","7","6","7","598903596641157120","王","576","Male","[""好我"",""坏我"",""好他"",""坏他""]","[""强我"",""弱我"",""强他"",""弱他""]","","","","","","","","no","","","","","","","","","SRET","EW_formal","","key","j","16.66571428571423","768","428","朋友","阴毒","Negative","morality","","","","","","","","","","",""
"614","","f","psychophysics","19","115455","0.0-7.0-3.0-0.5","7","7","7","7","6","5","5","5","5","5","5","2","1","2","1","2","2","2","2","5","5","5","5","5","5","5","4","5","5","7","7","7","6","6","5","7","8","7","7","7","7","7","7","7","7","1","7","7","1","7","7","7","7","7","7","7","7","6","7","7","7","7","7","6","7","7","7","7","7","7","7","7","7","7","7","7","7","6","7","598903596641157120","王","576","Male","[""好我"",""坏我"",""好他"",""坏他""]","[""强我"",""弱我"",""强他"",""弱他""]","","","","","","","","yes","","","","","","","","","SRET","EW_formal","","key","f","16.664583333333365","768","428","朋友","自律","Positive","ability","","","","","","","","","","",""
"839","","j","psychophysics","20","117295","0.0-7.0-3.0-0.6","7","7","7","7","6","5","5","5","5","5","5","2","1","2","1","2","2","2","2","5","5","5","5","5","5","5","4","5","5","7","7","7","6","6","5","7","8","7","7","7","7","7","7","7","7","1","7","7","1","7","7","7","7","7","7","7","7","6","7","7","7","7","7","6","7","7","7","7","7","7","7","7","7","7","7","7","7","6","7","598903596641157120","王","576","Male","[""好我"",""坏我"",""好他"",""坏他""]","[""强我"",""弱我"",""强他"",""弱他""]","","","","","","","","no","","","","","","","","","SRET","EW_formal","","key","j","16.664545454545376","768","428","自己","拖拉","Negative","ability","","","","","","","","","","",""
"543","","f","psychophysics","21","118838","0.0-7.0-3.0-0.7","7","7","7","7","6","5","5","5","5","5","5","2","1","2","1","2","2","2","2","5","5","5","5","5","5","5","4","5","5","7","7","7","6","6","5","7","8","7","7","7","7","7","7","7","7","1","7","7","1","7","7","7","7","7","7","7","7","6","7","7","7","7","7","6","7","7","7","7","7","7","7","7","7","7","7","7","7","6","7","598903596641157120","王","576","Male","[""好我"",""坏我"",""好他"",""坏他""]","[""强我"",""弱我"",""强他"",""弱他""]","","","","","","","","yes","","","","","","","","","SRET","EW_formal","","key","f","16.6637362637362","768","428","朋友","上进","Positive","ability","","","","","","","","","","",""
"623","","j","psychophysics","22","120463","0.0-7.0-3.0-0.8","7","7","7","7","6","5","5","5","5","5","5","2","1","2","1","2","2","2","2","5","5","5","5","5","5","5","4","5","5","7","7","7","6","6","5","7","8","7","7","7","7","7","7","7","7","1","7","7","1","7","7","7","7","7","7","7","7","6","7","7","7","7","7","6","7","7","7","7","7","7","7","7","7","7","7","7","7","6","7","598903596641157120","王","576","Male","[""好我"",""坏我"",""好他"",""坏他""]","[""强我"",""弱我"",""强他"",""弱他""]","","","","","","","","no","","","","","","","","","SRET","EW_formal","","key","j","16.657731958762916","768","428","朋友","昏庸","Negative","ability","","","","","","","","","","",""
"590","","j","psychophysics","23","122055","0.0-7.0-3.0-0.9","7","7","7","7","6","5","5","5","5","5","5","2","1","2","1","2","2","2","2","5","5","5","5","5","5","5","4","5","5","7","7","7","6","6","5","7","8","7","7","7","7","7","7","7","7","1","7","7","1","7","7","7","7","7","7","7","7","6","7","7","7","7","7","6","7","7","7","7","7","7","7","7","7","7","7","7","7","6","7","598903596641157120","王","576","Male","[""好我"",""坏我"",""好他"",""坏他""]","[""强我"",""弱我"",""强他"",""弱他""]","","","","","","","","no","","","","","","","","","SRET","EW_formal","","key","j","16.663829787234135","768","428","自己","短视","Negative","ability","","","","","","","","","","",""
"630","","f","psychophysics","24","123686","0.0-7.0-3.0-0.10","7","7","7","7","6","5","5","5","5","5","5","2","1","2","1","2","2","2","2","5","5","5","5","5","5","5","4","5","5","7","7","7","6","6","5","7","8","7","7","7","7","7","7","7","7","1","7","7","1","7","7","7","7","7","7","7","7","6","7","7","7","7","7","6","7","7","7","7","7","7","7","7","7","7","7","7","7","6","7","598903596641157120","王","576","Male","[""好我"",""坏我"",""好他"",""坏他""]","[""强我"",""弱我"",""强他"",""弱他""]","","","","","","","","yes","","","","","","","","","SRET","EW_formal","","key","f","16.664948453608247","768","428","朋友","忠诚","Positive","morality","","","","","","","","","","",""
"591","","f","psychophysics","25","125279","0.0-7.0-3.0-0.11","7","7","7","7","6","5","5","5","5","5","5","2","1","2","1","2","2","2","2","5","5","5","5","5","5","5","4","5","5","7","7","7","6","6","5","7","8","7","7","7","7","7","7","7","7","1","7","7","1","7","7","7","7","7","7","7","7","6","7","7","7","7","7","6","7","7","7","7","7","7","7","7","7","7","7","7","7","6","7","598903596641157120","王","576","Male","[""好我"",""坏我"",""好他"",""坏他""]","[""强我"",""弱我"",""强他"",""弱他""]","","","","","","","","yes","","","","","","","","","SRET","EW_formal","","key","f","16.66105263157898","768","428","自己","智慧","Positive","ability","","","","","","","","","","",""
"655","","j","psychophysics","26","126936","0.0-7.0-3.0-0.12","7","7","7","7","6","5","5","5","5","5","5","2","1","2","1","2","2","2","2","5","5","5","5","5","5","5","4","5","5","7","7","7","6","6","5","7","8","7","7","7","7","7","7","7","7","1","7","7","1","7","7","7","7","7","7","7","7","6","7","7","7","7","7","6","7","7","7","7","7","7","7","7","7","7","7","7","7","6","7","598903596641157120","王","576","Male","[""好我"",""坏我"",""好他"",""坏他""]","[""强我"",""弱我"",""强他"",""弱他""]","","","","","","","","no","","","","","","","","","SRET","EW_formal","","key","j","16.662244897959273","768","428","朋友","浅薄","Negative","ability","","","","","","","","","","",""
"653","","j","psychophysics","27","128591","0.0-7.0-3.0-0.13","7","7","7","7","6","5","5","5","5","5","5","2","1","2","1","2","2","2","2","5","5","5","5","5","5","5","4","5","5","7","7","7","6","6","5","7","8","7","7","7","7","7","7","7","7","1","7","7","1","7","7","7","7","7","7","7","7","6","7","7","7","7","7","6","7","7","7","7","7","7","7","7","7","7","7","7","7","6","7","598903596641157120","王","576","Male","[""好我"",""坏我"",""好他"",""坏他""]","[""强我"",""弱我"",""强他"",""弱他""]","","","","","","","","no","","","","","","","","","SRET","EW_formal","","key","j","16.665656565656654","768","428","朋友","刻薄","Negative","morality","","","","","","","","","","",""
"830","","f","psychophysics","28","130422","0.0-7.0-3.0-0.14","7","7","7","7","6","5","5","5","5","5","5","2","1","2","1","2","2","2","2","5","5","5","5","5","5","5","4","5","5","7","7","7","6","6","5","7","8","7","7","7","7","7","7","7","7","1","7","7","1","7","7","7","7","7","7","7","7","6","7","7","7","7","7","6","7","7","7","7","7","7","7","7","7","7","7","7","7","6","7","598903596641157120","王","576","Male","[""好我"",""坏我"",""好他"",""坏他""]","[""强我"",""弱我"",""强他"",""弱他""]","","","","","","","","yes","","","","","","","","","SRET","EW_formal","","key","f","16.664814814814843","768","428","朋友","无敌","Positive","ability","","","","","","","","","","",""
"743","","f","psychophysics","29","132166","0.0-7.0-3.0-0.15","7","7","7","7","6","5","5","5","5","5","5","2","1","2","1","2","2","2","2","5","5","5","5","5","5","5","4","5","5","7","7","7","6","6","5","7","8","7","7","7","7","7","7","7","7","1","7","7","1","7","7","7","7","7","7","7","7","6","7","7","7","7","7","6","7","7","7","7","7","7","7","7","7","7","7","7","7","6","7","598903596641157120","王","576","Male","[""好我"",""坏我"",""好他"",""坏他""]","[""强我"",""弱我"",""强他"",""弱他""]","","","","","","","","yes","","","","","","","","","SRET","EW_formal","","key","f","16.66346153846154","768","428","自己","守法","Positive","morality","","","","","","","","","","",""
"1175","","j","psychophysics","30","134342","0.0-7.0-3.0-0.16","7","7","7","7","6","5","5","5","5","5","5","2","1","2","1","2","2","2","2","5","5","5","5","5","5","5","4","5","5","7","7","7","6","6","5","7","8","7","7","7","7","7","7","7","7","1","7","7","1","7","7","7","7","7","7","7","7","6","7","7","7","7","7","6","7","7","7","7","7","7","7","7","7","7","7","7","7","6","7","598903596641157120","王","576","Male","[""好我"",""坏我"",""好他"",""坏他""]","[""强我"",""弱我"",""强他"",""弱他""]","","","","","","","","no","","","","","","","","","SRET","EW_formal","","key","j","16.65999999999991","768","428","自己","拖延","Negative","ability","","","","","","","","","","",""
"559","","f","psychophysics","31","135903","0.0-7.0-3.0-0.17","7","7","7","7","6","5","5","5","5","5","5","2","1","2","1","2","2","2","2","5","5","5","5","5","5","5","4","5","5","7","7","7","6","6","5","7","8","7","7","7","7","7","7","7","7","1","7","7","1","7","7","7","7","7","7","7","7","6","7","7","7","7","7","6","7","7","7","7","7","7","7","7","7","7","7","7","7","6","7","598903596641157120","王","576","Male","[""好我"",""坏我"",""好他"",""坏他""]","[""强我"",""弱我"",""强他"",""弱他""]","","","","","","","","yes","","","","","","","","","SRET","EW_formal","","key","f","16.66413043478267","768","428","自己","诚信","Positive","morality","","","","","","","","","","",""
"653","","f","psychophysics","32","137558","0.0-7.0-3.0-0.18","7","7","7","7","6","5","5","5","5","5","5","2","1","2","1","2","2","2","2","5","5","5","5","5","5","5","4","5","5","7","7","7","6","6","5","7","8","7","7","7","7","7","7","7","7","1","7","7","1","7","7","7","7","7","7","7","7","6","7","7","7","7","7","6","7","7","7","7","7","7","7","7","7","7","7","7","7","6","7","598903596641157120","王","576","Male","[""好我"",""坏我"",""好他"",""坏他""]","[""强我"",""弱我"",""强他"",""弱他""]","","","","","","","","yes","","","","","","","","","SRET","EW_formal","","key","f","16.66464646464664","768","428","朋友","高明","Positive","ability","","","","","","","","","","",""
"623","","f","psychophysics","33","139182","0.0-7.0-3.0-0.19","7","7","7","7","6","5","5","5","5","5","5","2","1","2","1","2","2","2","2","5","5","5","5","5","5","5","4","5","5","7","7","7","6","6","5","7","8","7","7","7","7","7","7","7","7","1","7","7","1","7","7","7","7","7","7","7","7","6","7","7","7","7","7","6","7","7","7","7","7","7","7","7","7","7","7","7","7","6","7","598903596641157120","王","576","Male","[""好我"",""坏我"",""好他"",""坏他""]","[""强我"",""弱我"",""强他"",""弱他""]","","","","","","","","yes","","","","","","","","","SRET","EW_formal","","key","f","16.663541666666788","768","428","自己","善良","Positive","morality","","","","","","","","","","",""
"711","","j","psychophysics","34","140895","0.0-7.0-3.0-0.20","7","7","7","7","6","5","5","5","5","5","5","2","1","2","1","2","2","2","2","5","5","5","5","5","5","5","4","5","5","7","7","7","6","6","5","7","8","7","7","7","7","7","7","7","7","1","7","7","1","7","7","7","7","7","7","7","7","6","7","7","7","7","7","6","7","7","7","7","7","7","7","7","7","7","7","7","7","6","7","598903596641157120","王","576","Male","[""好我"",""坏我"",""好他"",""坏他""]","[""强我"",""弱我"",""强他"",""弱他""]","","","","","","","","no","","","","","","","","","SRET","EW_formal","","key","j","16.66470588235311","768","428","自己","奸诈","Negative","morality","","","","","","","","","","",""
"806","","f","psychophysics","35","142702","0.0-7.0-3.0-0.21","7","7","7","7","6","5","5","5","5","5","5","2","1","2","1","2","2","2","2","5","5","5","5","5","5","5","4","5","5","7","7","7","6","6","5","7","8","7","7","7","7","7","7","7","7","1","7","7","1","7","7","7","7","7","7","7","7","6","7","7","7","7","7","6","7","7","7","7","7","7","7","7","7","7","7","7","7","6","7","598903596641157120","王","576","Male","[""好我"",""坏我"",""好他"",""坏他""]","[""强我"",""弱我"",""强他"",""弱他""]","","","","","","","","yes","","","","","","","","","SRET","EW_formal","","key","f","16.66355140186916","768","428","朋友","慷慨","Positive","morality","","","","","","","","","","",""
"750","","j","psychophysics","36","144454","0.0-7.0-3.0-0.22","7","7","7","7","6","5","5","5","5","5","5","2","1","2","1","2","2","2","2","5","5","5","5","5","5","5","4","5","5","7","7","7","6","6","5","7","8","7","7","7","7","7","7","7","7","1","7","7","1","7","7","7","7","7","7","7","7","6","7","7","7","7","7","6","7","7","7","7","7","7","7","7","7","7","7","7","7","6","7","598903596641157120","王","576","Male","[""好我"",""坏我"",""好他"",""坏他""]","[""强我"",""弱我"",""强他"",""弱他""]","","","","","","","","no","","","","","","","","","SRET","EW_formal","","key","j","16.665384615384447","768","428","自己","贪腐","Negative","morality","","","","","","","","","","",""
"920","","f","psychophysics","37","146375","0.0-7.0-3.0-0.23","7","7","7","7","6","5","5","5","5","5","5","2","1","2","1","2","2","2","2","5","5","5","5","5","5","5","4","5","5","7","7","7","6","6","5","7","8","7","7","7","7","7","7","7","7","1","7","7","1","7","7","7","7","7","7","7","7","6","7","7","7","7","7","6","7","7","7","7","7","7","7","7","7","7","7","7","7","6","7","598903596641157120","王","576","Male","[""好我"",""坏我"",""好他"",""坏他""]","[""强我"",""弱我"",""强他"",""弱他""]","","","","","","","","yes","","","","","","","","","SRET","EW_formal","","key","f","16.664347826086907","768","428","自己","廉明","Positive","morality","","","","","","","","","","",""
"878","","j","psychophysics","38","148255","0.0-7.0-3.0-0.24","7","7","7","7","6","5","5","5","5","5","5","2","1","2","1","2","2","2","2","5","5","5","5","5","5","5","4","5","5","7","7","7","6","6","5","7","8","7","7","7","7","7","7","7","7","1","7","7","1","7","7","7","7","7","7","7","7","6","7","7","7","7","7","6","7","7","7","7","7","7","7","7","7","7","7","7","7","6","7","598903596641157120","王","576","Male","[""好我"",""坏我"",""好他"",""坏他""]","[""强我"",""弱我"",""强他"",""弱他""]","","","","","","","","no","","","","","","","","","SRET","EW_formal","","key","j","16.665178571428573","768","428","朋友","贪污","Negative","morality","","","","","","","","","","",""
"870","","j","psychophysics","39","150126","0.0-7.0-3.0-0.25","7","7","7","7","6","5","5","5","5","5","5","2","1","2","1","2","2","2","2","5","5","5","5","5","5","5","4","5","5","7","7","7","6","6","5","7","8","7","7","7","7","7","7","7","7","1","7","7","1","7","7","7","7","7","7","7","7","6","7","7","7","7","7","6","7","7","7","7","7","7","7","7","7","7","7","7","7","6","7","598903596641157120","王","576","Male","[""好我"",""坏我"",""好他"",""坏他""]","[""强我"",""弱我"",""强他"",""弱他""]","","","","","","","","no","","","","","","","","","SRET","EW_formal","","key","j","16.66396396396407","768","428","朋友","怠惰","Negative","ability","","","","","","","","","","",""
"904","","f","psychophysics","40","152031","0.0-7.0-3.0-0.26","7","7","7","7","6","5","5","5","5","5","5","2","1","2","1","2","2","2","2","5","5","5","5","5","5","5","4","5","5","7","7","7","6","6","5","7","8","7","7","7","7","7","7","7","7","1","7","7","1","7","7","7","7","7","7","7","7","6","7","7","7","7","7","6","7","7","7","7","7","7","7","7","7","7","7","7","7","6","7","598903596641157120","王","576","Male","[""好我"",""坏我"",""好他"",""坏他""]","[""强我"",""弱我"",""强他"",""弱他""]","","","","","","","","yes","","","","","","","","","SRET","EW_formal","","key","f","16.665486725663563","768","428","自己","思辨","Positive","ability","","","","","","","","","","",""
"582","","f","psychophysics","41","153614","0.0-7.0-3.0-0.27","7","7","7","7","6","5","5","5","5","5","5","2","1","2","1","2","2","2","2","5","5","5","5","5","5","5","4","5","5","7","7","7","6","6","5","7","8","7","7","7","7","7","7","7","7","1","7","7","1","7","7","7","7","7","7","7","7","6","7","7","7","7","7","6","7","7","7","7","7","7","7","7","7","7","7","7","7","6","7","598903596641157120","王","576","Male","[""好我"",""坏我"",""好他"",""坏他""]","[""强我"",""弱我"",""强他"",""弱他""]","","","","","","","","yes","","","","","","","","","SRET","EW_formal","","key","f","16.66382978723398","768","428","朋友","高洁","Positive","morality","","","","","","","","","","",""
"622","","j","psychophysics","42","155239","0.0-7.0-3.0-0.28","7","7","7","7","6","5","5","5","5","5","5","2","1","2","1","2","2","2","2","5","5","5","5","5","5","5","4","5","5","7","7","7","6","6","5","7","8","7","7","7","7","7","7","7","7","1","7","7","1","7","7","7","7","7","7","7","7","6","7","7","7","7","7","6","7","7","7","7","7","7","7","7","7","7","7","7","7","6","7","598903596641157120","王","576","Male","[""好我"",""坏我"",""好他"",""坏他""]","[""强我"",""弱我"",""强他"",""弱他""]","","","","","","","","no","","","","","","","","","SRET","EW_formal","","key","j","16.664948453608247","768","428","自己","下流","Negative","morality","","","","","","","","","","",""
"583","","j","psychophysics","43","156823","0.0-7.0-3.0-0.29","7","7","7","7","6","5","5","5","5","5","5","2","1","2","1","2","2","2","2","5","5","5","5","5","5","5","4","5","5","7","7","7","6","6","5","7","8","7","7","7","7","7","7","7","7","1","7","7","1","7","7","7","7","7","7","7","7","6","7","7","7","7","7","6","7","7","7","7","7","7","7","7","7","7","7","7","7","6","7","598903596641157120","王","576","Male","[""好我"",""坏我"",""好他"",""坏他""]","[""强我"",""弱我"",""强他"",""弱他""]","","","","","","","","no","","","","","","","","","SRET","EW_formal","","key","j","16.664893617021278","768","428","自己","无赖","Negative","morality","","","","","","","","","","",""
"742","","f","psychophysics","44","158567","0.0-7.0-3.0-0.30","7","7","7","7","6","5","5","5","5","5","5","2","1","2","1","2","2","2","2","5","5","5","5","5","5","5","4","5","5","7","7","7","6","6","5","7","8","7","7","7","7","7","7","7","7","1","7","7","1","7","7","7","7","7","7","7","7","6","7","7","7","7","7","6","7","7","7","7","7","7","7","7","7","7","7","7","7","6","7","598903596641157120","王","576","Male","[""好我"",""坏我"",""好他"",""坏他""]","[""强我"",""弱我"",""强他"",""弱他""]","","","","","","","","yes","","","","","","","","","SRET","EW_formal","","key","f","16.66504854368932","768","428","朋友","顶事","Positive","ability","","","","","","","","","","",""
"879","","j","psychophysics","45","160447","0.0-7.0-3.0-0.31","7","7","7","7","6","5","5","5","5","5","5","2","1","2","1","2","2","2","2","5","5","5","5","5","5","5","4","5","5","7","7","7","6","6","5","7","8","7","7","7","7","7","7","7","7","1","7","7","1","7","7","7","7","7","7","7","7","6","7","7","7","7","7","6","7","7","7","7","7","7","7","7","7","7","7","7","7","6","7","598903596641157120","王","576","Male","[""好我"",""坏我"",""好他"",""坏他""]","[""强我"",""弱我"",""强他"",""弱他""]","","","","","","","","no","","","","","","","","","SRET","EW_formal","","key","j","16.66428571428566","768","428","朋友","驽钝","Negative","ability","","","","","","","","","","",""
"878","","f","psychophysics","46","162326","0.0-7.0-3.0-0.32","7","7","7","7","6","5","5","5","5","5","5","2","1","2","1","2","2","2","2","5","5","5","5","5","5","5","4","5","5","7","7","7","6","6","5","7","8","7","7","7","7","7","7","7","7","1","7","7","1","7","7","7","7","7","7","7","7","6","7","7","7","7","7","6","7","7","7","7","7","7","7","7","7","7","7","7","7","6","7","598903596641157120","王","576","Male","[""好我"",""坏我"",""好他"",""坏他""]","[""强我"",""弱我"",""强他"",""弱他""]","","","","","","","","yes","","","","","","","","","SRET","EW_formal","","key","f","16.665178571428573","768","428","自己","清廉","Positive","morality","","","","","","","","","","",""
"1095","","f","psychophysics","47","164422","0.0-7.0-3.0-0.33","7","7","7","7","6","5","5","5","5","5","5","2","1","2","1","2","2","2","2","5","5","5","5","5","5","5","4","5","5","7","7","7","6","6","5","7","8","7","7","7","7","7","7","7","7","1","7","7","1","7","7","7","7","7","7","7","7","6","7","7","7","7","7","6","7","7","7","7","7","7","7","7","7","7","7","7","7","6","7","598903596641157120","王","576","Male","[""好我"",""坏我"",""好他"",""坏他""]","[""强我"",""弱我"",""强他"",""弱他""]","","","","","","","","yes","","","","","","","","","SRET","EW_formal","","key","f","16.664","768","428","朋友","勤恳","Positive","morality","","","","","","","","","","",""
"838","","f","psychophysics","48","166262","0.0-7.0-3.0-0.34","7","7","7","7","6","5","5","5","5","5","5","2","1","2","1","2","2","2","2","5","5","5","5","5","5","5","4","5","5","7","7","7","6","6","5","7","8","7","7","7","7","7","7","7","7","1","7","7","1","7","7","7","7","7","7","7","7","6","7","7","7","7","7","6","7","7","7","7","7","7","7","7","7","7","7","7","7","6","7","598903596641157120","王","576","Male","[""好我"",""坏我"",""好他"",""坏他""]","[""强我"",""弱我"",""强他"",""弱他""]","","","","","","","","yes","","","","","","","","","SRET","EW_formal","","key","f","16.664220183486186","768","428","自己","敏捷","Positive","ability","","","","","","","","","","",""
"814","","j","psychophysics","49","168078","0.0-7.0-3.0-0.35","7","7","7","7","6","5","5","5","5","5","5","2","1","2","1","2","2","2","2","5","5","5","5","5","5","5","4","5","5","7","7","7","6","6","5","7","8","7","7","7","7","7","7","7","7","1","7","7","1","7","7","7","7","7","7","7","7","6","7","7","7","7","7","6","7","7","7","7","7","7","7","7","7","7","7","7","7","6","7","598903596641157120","王","576","Male","[""好我"",""坏我"",""好他"",""坏他""]","[""强我"",""弱我"",""强他"",""弱他""]","","","","","","","","no","","","","","","","","","SRET","EW_formal","","key","j","16.662962962963018","768","428","朋友","无为","Negative","ability","","","","","","","","","","",""
"887","","j","psychophysics","50","169967","0.0-7.0-3.0-0.36","7","7","7","7","6","5","5","5","5","5","5","2","1","2","1","2","2","2","2","5","5","5","5","5","5","5","4","5","5","7","7","7","6","6","5","7","8","7","7","7","7","7","7","7","7","1","7","7","1","7","7","7","7","7","7","7","7","6","7","7","7","7","7","6","7","7","7","7","7","7","7","7","7","7","7","7","7","6","7","598903596641157120","王","576","Male","[""好我"",""坏我"",""好他"",""坏他""]","[""强我"",""弱我"",""强他"",""弱他""]","","","","","","","","no","","","","","","","","","SRET","EW_formal","","key","j","16.663392857143013","768","428","朋友","黑心","Negative","morality","","","","","","","","","","",""
"711","","f","psychophysics","51","171678","0.0-7.0-3.0-0.37","7","7","7","7","6","5","5","5","5","5","5","2","1","2","1","2","2","2","2","5","5","5","5","5","5","5","4","5","5","7","7","7","6","6","5","7","8","7","7","7","7","7","7","7","7","1","7","7","1","7","7","7","7","7","7","7","7","6","7","7","7","7","7","6","7","7","7","7","7","7","7","7","7","7","7","7","7","6","7","598903596641157120","王","576","Male","[""好我"",""坏我"",""好他"",""坏他""]","[""强我"",""弱我"",""强他"",""弱他""]","","","","","","","","yes","","","","","","","","","SRET","EW_formal","","key","f","16.663725490196192","768","428","朋友","坚持","Positive","ability","","","","","","","","","","",""
"751","","f","psychophysics","52","173431","0.0-7.0-3.0-0.38","7","7","7","7","6","5","5","5","5","5","5","2","1","2","1","2","2","2","2","5","5","5","5","5","5","5","4","5","5","7","7","7","6","6","5","7","8","7","7","7","7","7","7","7","7","1","7","7","1","7","7","7","7","7","7","7","7","6","7","7","7","7","7","6","7","7","7","7","7","7","7","7","7","7","7","7","7","6","7","598903596641157120","王","576","Male","[""好我"",""坏我"",""好他"",""坏他""]","[""强我"",""弱我"",""强他"",""弱他""]","","","","","","","","yes","","","","","","","","","SRET","EW_formal","","key","f","16.665384615384447","768","428","自己","忠义","Positive","morality","","","","","","","","","","",""
"935","","f","psychophysics","53","175367","0.0-7.0-3.0-0.39","7","7","7","7","6","5","5","5","5","5","5","2","1","2","1","2","2","2","2","5","5","5","5","5","5","5","4","5","5","7","7","7","6","6","5","7","8","7","7","7","7","7","7","7","7","1","7","7","1","7","7","7","7","7","7","7","7","6","7","7","7","7","7","6","7","7","7","7","7","7","7","7","7","7","7","7","7","6","7","598903596641157120","王","576","Male","[""好我"",""坏我"",""好他"",""坏他""]","[""强我"",""弱我"",""强他"",""弱他""]","","","","","","","","yes","","","","","","","","","SRET","EW_formal","","key","f","16.664347826086907","768","428","自己","沉着","Positive","ability","","","","","","","","","","",""
"743","","f","psychophysics","54","177110","0.0-7.0-3.0-0.40","7","7","7","7","6","5","5","5","5","5","5","2","1","2","1","2","2","2","2","5","5","5","5","5","5","5","4","5","5","7","7","7","6","6","5","7","8","7","7","7","7","7","7","7","7","1","7","7","1","7","7","7","7","7","7","7","7","6","7","7","7","7","7","6","7","7","7","7","7","7","7","7","7","7","7","7","7","6","7","598903596641157120","王","576","Male","[""好我"",""坏我"",""好他"",""坏他""]","[""强我"",""弱我"",""强他"",""弱他""]","","","","","","","","yes","","","","","","","","","SRET","EW_formal","","key","f","16.66442307692285","768","428","自己","孝顺","Positive","morality","","","","","","","","","","",""
"639","","j","psychophysics","55","178751","0.0-7.0-3.0-0.41","7","7","7","7","6","5","5","5","5","5","5","2","1","2","1","2","2","2","2","5","5","5","5","5","5","5","4","5","5","7","7","7","6","6","5","7","8","7","7","7","7","7","7","7","7","1","7","7","1","7","7","7","7","7","7","7","7","6","7","7","7","7","7","6","7","7","7","7","7","7","7","7","7","7","7","7","7","6","7","598903596641157120","王","576","Male","[""好我"",""坏我"",""好他"",""坏他""]","[""强我"",""弱我"",""强他"",""弱他""]","","","","","","","","no","","","","","","","","","SRET","EW_formal","","key","j","16.664948453608247","768","428","朋友","无助","Negative","ability","","","","","","","","","","",""
"590","","f","psychophysics","56","180343","0.0-7.0-3.0-0.42","7","7","7","7","6","5","5","5","5","5","5","2","1","2","1","2","2","2","2","5","5","5","5","5","5","5","4","5","5","7","7","7","6","6","5","7","8","7","7","7","7","7","7","7","7","1","7","7","1","7","7","7","7","7","7","7","7","6","7","7","7","7","7","6","7","7","7","7","7","7","7","7","7","7","7","7","7","6","7","598903596641157120","王","576","Male","[""好我"",""坏我"",""好他"",""坏他""]","[""强我"",""弱我"",""强他"",""弱他""]","","","","","","","","yes","","","","","","","","","SRET","EW_formal","","key","f","16.665263157894554","768","428","朋友","善心","Positive","morality","","","","","","","","","","",""
"638","","j","psychophysics","57","181982","0.0-7.0-3.0-0.43","7","7","7","7","6","5","5","5","5","5","5","2","1","2","1","2","2","2","2","5","5","5","5","5","5","5","4","5","5","7","7","7","6","6","5","7","8","7","7","7","7","7","7","7","7","1","7","7","1","7","7","7","7","7","7","7","7","6","7","7","7","7","7","6","7","7","7","7","7","7","7","7","7","7","7","7","7","6","7","598903596641157120","王","576","Male","[""好我"",""坏我"",""好他"",""坏他""]","[""强我"",""弱我"",""强他"",""弱他""]","","","","","","","","no","","","","","","","","","SRET","EW_formal","","key","j","16.663917525773137","768","428","朋友","不良","Negative","morality","","","","","","","","","","",""
"711","","j","psychophysics","58","183695","0.0-7.0-3.0-0.44","7","7","7","7","6","5","5","5","5","5","5","2","1","2","1","2","2","2","2","5","5","5","5","5","5","5","4","5","5","7","7","7","6","6","5","7","8","7","7","7","7","7","7","7","7","1","7","7","1","7","7","7","7","7","7","7","7","6","7","7","7","7","7","6","7","7","7","7","7","7","7","7","7","7","7","7","7","6","7","598903596641157120","王","576","Male","[""好我"",""坏我"",""好他"",""坏他""]","[""强我"",""弱我"",""强他"",""弱他""]","","","","","","","","no","","","","","","","","","SRET","EW_formal","","key","j","16.663725490195908","768","428","朋友","犹豫","Negative","ability","","","","","","","","","","",""
"694","","j","psychophysics","59","185390","0.0-7.0-3.0-0.45","7","7","7","7","6","5","5","5","5","5","5","2","1","2","1","2","2","2","2","5","5","5","5","5","5","5","4","5","5","7","7","7","6","6","5","7","8","7","7","7","7","7","7","7","7","1","7","7","1","7","7","7","7","7","7","7","7","6","7","7","7","7","7","6","7","7","7","7","7","7","7","7","7","7","7","7","7","6","7","598903596641157120","王","576","Male","[""好我"",""坏我"",""好他"",""坏他""]","[""强我"",""弱我"",""强他"",""弱他""]","","","","","","","","no","","","","","","","","","SRET","EW_formal","","key","j","16.66534653465358","768","428","自己","卑鄙","Negative","morality","","","","","","","","","","",""
"646","","f","psychophysics","60","187038","0.0-7.0-3.0-0.46","7","7","7","7","6","5","5","5","5","5","5","2","1","2","1","2","2","2","2","5","5","5","5","5","5","5","4","5","5","7","7","7","6","6","5","7","8","7","7","7","7","7","7","7","7","1","7","7","1","7","7","7","7","7","7","7","7","6","7","7","7","7","7","6","7","7","7","7","7","7","7","7","7","7","7","7","7","6","7","598903596641157120","王","576","Male","[""好我"",""坏我"",""好他"",""坏他""]","[""强我"",""弱我"",""强他"",""弱他""]","","","","","","","","yes","","","","","","","","","SRET","EW_formal","","key","f","16.664285714285775","768","428","朋友","勤奋","Positive","ability","","","","","","","","","","",""
"711","","f","psychophysics","61","188751","0.0-7.0-3.0-0.47","7","7","7","7","6","5","5","5","5","5","5","2","1","2","1","2","2","2","2","5","5","5","5","5","5","5","4","5","5","7","7","7","6","6","5","7","8","7","7","7","7","7","7","7","7","1","7","7","1","7","7","7","7","7","7","7","7","6","7","7","7","7","7","6","7","7","7","7","7","7","7","7","7","7","7","7","7","6","7","598903596641157120","王","576","Male","[""好我"",""坏我"",""好他"",""坏他""]","[""强我"",""弱我"",""强他"",""弱他""]","","","","","","","","yes","","","","","","","","","SRET","EW_formal","","key","f","16.663725490195908","768","428","自己","礼貌","Positive","morality","","","","","","","","","","",""
"902","","f","psychophysics","62","190655","0.0-7.0-3.0-0.48","7","7","7","7","6","5","5","5","5","5","5","2","1","2","1","2","2","2","2","5","5","5","5","5","5","5","4","5","5","7","7","7","6","6","5","7","8","7","7","7","7","7","7","7","7","1","7","7","1","7","7","7","7","7","7","7","7","6","7","7","7","7","7","6","7","7","7","7","7","7","7","7","7","7","7","7","7","6","7","598903596641157120","王","576","Male","[""好我"",""坏我"",""好他"",""坏他""]","[""强我"",""弱我"",""强他"",""弱他""]","","","","","","","","yes","","","","","","","","","SRET","EW_formal","","key","f","16.664601769911297","768","428","自己","博识","Positive","ability","","","","","","","","","","",""
"854","","j","psychophysics","63","192511","0.0-7.0-3.0-0.49","7","7","7","7","6","5","5","5","5","5","5","2","1","2","1","2","2","2","2","5","5","5","5","5","5","5","4","5","5","7","7","7","6","6","5","7","8","7","7","7","7","7","7","7","7","1","7","7","1","7","7","7","7","7","7","7","7","6","7","7","7","7","7","6","7","7","7","7","7","7","7","7","7","7","7","7","7","6","7","598903596641157120","王","576","Male","[""好我"",""坏我"",""好他"",""坏他""]","[""强我"",""弱我"",""强他"",""弱他""]","","","","","","","","no","","","","","","","","","SRET","EW_formal","","key","j","16.663636363636364","768","428","自己","外行","Negative","ability","","","","","","","","","","",""
"679","","f","psychophysics","64","194191","0.0-7.0-3.0-0.50","7","7","7","7","6","5","5","5","5","5","5","2","1","2","1","2","2","2","2","5","5","5","5","5","5","5","4","5","5","7","7","7","6","6","5","7","8","7","7","7","7","7","7","7","7","1","7","7","1","7","7","7","7","7","7","7","7","6","7","7","7","7","7","6","7","7","7","7","7","7","7","7","7","7","7","7","7","6","7","598903596641157120","王","576","Male","[""好我"",""坏我"",""好他"",""坏他""]","[""强我"",""弱我"",""强他"",""弱他""]","","","","","","","","yes","","","","","","","","","SRET","EW_formal","","key","f","16.66399999999994","768","428","朋友","刚正","Positive","morality","","","","","","","","","","",""
"854","","f","psychophysics","65","196046","0.0-7.0-3.0-0.51","7","7","7","7","6","5","5","5","5","5","5","2","1","2","1","2","2","2","2","5","5","5","5","5","5","5","4","5","5","7","7","7","6","6","5","7","8","7","7","7","7","7","7","7","7","1","7","7","1","7","7","7","7","7","7","7","7","6","7","7","7","7","7","6","7","7","7","7","7","7","7","7","7","7","7","7","7","6","7","598903596641157120","王","576","Male","[""好我"",""坏我"",""好他"",""坏他""]","[""强我"",""弱我"",""强他"",""弱他""]","","","","","","","","yes","","","","","","","","","SRET","EW_formal","","key","f","16.664545454545507","768","428","自己","坦荡","Positive","morality","","","","","","","","","","",""
"751","","j","psychophysics","66","197799","0.0-7.0-3.0-0.52","7","7","7","7","6","5","5","5","5","5","5","2","1","2","1","2","2","2","2","5","5","5","5","5","5","5","4","5","5","7","7","7","6","6","5","7","8","7","7","7","7","7","7","7","7","1","7","7","1","7","7","7","7","7","7","7","7","6","7","7","7","7","7","6","7","7","7","7","7","7","7","7","7","7","7","7","7","6","7","598903596641157120","王","576","Male","[""好我"",""坏我"",""好他"",""坏他""]","[""强我"",""弱我"",""强他"",""弱他""]","","","","","","","","no","","","","","","","","","SRET","EW_formal","","key","j","16.66442307692285","768","428","朋友","淡泊","Positive","morality","","","","","","","","","","",""
"637","","j","psychophysics","67","199438","0.0-7.0-3.0-0.53","7","7","7","7","6","5","5","5","5","5","5","2","1","2","1","2","2","2","2","5","5","5","5","5","5","5","4","5","5","7","7","7","6","6","5","7","8","7","7","7","7","7","7","7","7","1","7","7","1","7","7","7","7","7","7","7","7","6","7","7","7","7","7","6","7","7","7","7","7","7","7","7","7","7","7","7","7","6","7","598903596641157120","王","576","Male","[""好我"",""坏我"",""好他"",""坏他""]","[""强我"",""弱我"",""强他"",""弱他""]","","","","","","","","no","","","","","","","","","SRET","EW_formal","","key","j","16.664285714285775","768","428","朋友","缺德","Negative","morality","","","","","","","","","","",""
"678","","j","psychophysics","68","201119","0.0-7.0-3.0-0.54","7","7","7","7","6","5","5","5","5","5","5","2","1","2","1","2","2","2","2","5","5","5","5","5","5","5","4","5","5","7","7","7","6","6","5","7","8","7","7","7","7","7","7","7","7","1","7","7","1","7","7","7","7","7","7","7","7","6","7","7","7","7","7","6","7","7","7","7","7","7","7","7","7","7","7","7","7","6","7","598903596641157120","王","576","Male","[""好我"",""坏我"",""好他"",""坏他""]","[""强我"",""弱我"",""强他"",""弱他""]","","","","","","","","no","","","","","","","","","SRET","EW_formal","","key","j","16.665","768","428","朋友","马虎","Negative","ability","","","","","","","","","","",""
"638","","f","psychophysics","69","202759","0.0-7.0-3.0-0.55","7","7","7","7","6","5","5","5","5","5","5","2","1","2","1","2","2","2","2","5","5","5","5","5","5","5","4","5","5","7","7","7","6","6","5","7","8","7","7","7","7","7","7","7","7","1","7","7","1","7","7","7","7","7","7","7","7","6","7","7","7","7","7","6","7","7","7","7","7","7","7","7","7","7","7","7","7","6","7","598903596641157120","王","576","Male","[""好我"",""坏我"",""好他"",""坏他""]","[""强我"",""弱我"",""强他"",""弱他""]","","","","","","","","yes","","","","","","","","","SRET","EW_formal","","key","f","16.662886597938023","768","428","朋友","独立","Positive","ability","","","","","","","","","","",""
"775","","j","psychophysics","70","204535","0.0-7.0-3.0-0.56","7","7","7","7","6","5","5","5","5","5","5","2","1","2","1","2","2","2","2","5","5","5","5","5","5","5","4","5","5","7","7","7","6","6","5","7","8","7","7","7","7","7","7","7","7","1","7","7","1","7","7","7","7","7","7","7","7","6","7","7","7","7","7","6","7","7","7","7","7","7","7","7","7","7","7","7","7","6","7","598903596641157120","王","576","Male","[""好我"",""坏我"",""好他"",""坏他""]","[""强我"",""弱我"",""强他"",""弱他""]","","","","","","","","no","","","","","","","","","SRET","EW_formal","","key","j","16.664150943396173","768","428","自己","愚蠢","Negative","ability","","","","","","","","","","",""
"718","","j","psychophysics","71","206254","0.0-7.0-3.0-0.57","7","7","7","7","6","5","5","5","5","5","5","2","1","2","1","2","2","2","2","5","5","5","5","5","5","5","4","5","5","7","7","7","6","6","5","7","8","7","7","7","7","7","7","7","7","1","7","7","1","7","7","7","7","7","7","7","7","6","7","7","7","7","7","6","7","7","7","7","7","7","7","7","7","7","7","7","7","6","7","598903596641157120","王","576","Male","[""好我"",""坏我"",""好他"",""坏他""]","[""强我"",""弱我"",""强他"",""弱他""]","","","","","","","","no","","","","","","","","","SRET","EW_formal","","key","j","16.664705882352827","768","428","自己","愚痴","Negative","ability","","","","","","","","","","",""
"999","","j","psychophysics","72","208254","0.0-7.0-3.0-0.58","7","7","7","7","6","5","5","5","5","5","5","2","1","2","1","2","2","2","2","5","5","5","5","5","5","5","4","5","5","7","7","7","6","6","5","7","8","7","7","7","7","7","7","7","7","1","7","7","1","7","7","7","7","7","7","7","7","6","7","7","7","7","7","6","7","7","7","7","7","7","7","7","7","7","7","7","7","6","7","598903596641157120","王","576","Male","[""好我"",""坏我"",""好他"",""坏他""]","[""强我"",""弱我"",""强他"",""弱他""]","","","","","","","","no","","","","","","","","","SRET","EW_formal","","key","j","16.664705882352745","768","428","自己","畏难","Negative","ability","","","","","","","","","","",""
"944","","j","psychophysics","73","210198","0.0-7.0-3.0-0.59","7","7","7","7","6","5","5","5","5","5","5","2","1","2","1","2","2","2","2","5","5","5","5","5","5","5","4","5","5","7","7","7","6","6","5","7","8","7","7","7","7","7","7","7","7","1","7","7","1","7","7","7","7","7","7","7","7","6","7","7","7","7","7","6","7","7","7","7","7","7","7","7","7","7","7","7","7","6","7","598903596641157120","王","576","Male","[""好我"",""坏我"",""好他"",""坏他""]","[""强我"",""弱我"",""强他"",""弱他""]","","","","","","","","no","","","","","","","","","SRET","EW_formal","","key","j","16.664655172413845","768","428","自己","无知","Negative","ability","","","","","","","","","","",""
"798","","j","psychophysics","74","211998","0.0-7.0-3.0-0.60","7","7","7","7","6","5","5","5","5","5","5","2","1","2","1","2","2","2","2","5","5","5","5","5","5","5","4","5","5","7","7","7","6","6","5","7","8","7","7","7","7","7","7","7","7","1","7","7","1","7","7","7","7","7","7","7","7","6","7","7","7","7","7","6","7","7","7","7","7","7","7","7","7","7","7","7","7","6","7","598903596641157120","王","576","Male","[""好我"",""坏我"",""好他"",""坏他""]","[""强我"",""弱我"",""强他"",""弱他""]","","","","","","","","no","","","","","","","","","SRET","EW_formal","","key","j","16.664485981308193","768","428","朋友","粗心","Negative","ability","","","","","","","","","","",""
"623","","f","psychophysics","75","213622","0.0-7.0-3.0-0.61","7","7","7","7","6","5","5","5","5","5","5","2","1","2","1","2","2","2","2","5","5","5","5","5","5","5","4","5","5","7","7","7","6","6","5","7","8","7","7","7","7","7","7","7","7","1","7","7","1","7","7","7","7","7","7","7","7","6","7","7","7","7","7","6","7","7","7","7","7","7","7","7","7","7","7","7","7","6","7","598903596641157120","王","576","Male","[""好我"",""坏我"",""好他"",""坏他""]","[""强我"",""弱我"",""强他"",""弱他""]","","","","","","","","yes","","","","","","","","","SRET","EW_formal","","key","f","16.664583333333212","768","428","朋友","聪明","Positive","ability","","","","","","","","","","",""
"719","","j","psychophysics","76","215342","0.0-7.0-3.0-0.62","7","7","7","7","6","5","5","5","5","5","5","2","1","2","1","2","2","2","2","5","5","5","5","5","5","5","4","5","5","7","7","7","6","6","5","7","8","7","7","7","7","7","7","7","7","1","7","7","1","7","7","7","7","7","7","7","7","6","7","7","7","7","7","6","7","7","7","7","7","7","7","7","7","7","7","7","7","6","7","598903596641157120","王","576","Male","[""好我"",""坏我"",""好他"",""坏他""]","[""强我"",""弱我"",""强他"",""弱他""]","","","","","","","","no","","","","","","","","","SRET","EW_formal","","key","j","16.664705882352827","768","428","朋友","诡诈","Negative","morality","","","","","","","","","","",""
"718","","j","psychophysics","77","217062","0.0-7.0-3.0-0.63","7","7","7","7","6","5","5","5","5","5","5","2","1","2","1","2","2","2","2","5","5","5","5","5","5","5","4","5","5","7","7","7","6","6","5","7","8","7","7","7","7","7","7","7","7","1","7","7","1","7","7","7","7","7","7","7","7","6","7","7","7","7","7","6","7","7","7","7","7","7","7","7","7","7","7","7","7","6","7","598903596641157120","王","576","Male","[""好我"",""坏我"",""好他"",""坏他""]","[""强我"",""弱我"",""强他"",""弱他""]","","","","","","","","no","","","","","","","","","SRET","EW_formal","","key","j","16.662745098039274","768","428","自己","歹毒","Negative","morality","","","","","","","","","","",""
"968","","f","psychophysics","78","219031","0.0-7.0-3.0-0.64","7","7","7","7","6","5","5","5","5","5","5","2","1","2","1","2","2","2","2","5","5","5","5","5","5","5","4","5","5","7","7","7","6","6","5","7","8","7","7","7","7","7","7","7","7","1","7","7","1","7","7","7","7","7","7","7","7","6","7","7","7","7","7","6","7","7","7","7","7","7","7","7","7","7","7","7","7","6","7","598903596641157120","王","576","Male","[""好我"",""坏我"",""好他"",""坏他""]","[""强我"",""弱我"",""强他"",""弱他""]","","","","","","","","yes","","","","","","","","","SRET","EW_formal","","key","f","16.665254237288135","768","428","朋友","仁爱","Positive","morality","","","","","","","","","","",""
"734","","f","psychophysics","79","220766","0.0-7.0-3.0-0.65","7","7","7","7","6","5","5","5","5","5","5","2","1","2","1","2","2","2","2","5","5","5","5","5","5","5","4","5","5","7","7","7","6","6","5","7","8","7","7","7","7","7","7","7","7","1","7","7","1","7","7","7","7","7","7","7","7","6","7","7","7","7","7","6","7","7","7","7","7","7","7","7","7","7","7","7","7","6","7","598903596641157120","王","576","Male","[""好我"",""坏我"",""好他"",""坏他""]","[""强我"",""弱我"",""强他"",""弱他""]","","","","","","","","yes","","","","","","","","","SRET","EW_formal","","key","f","16.664077669902856","768","428","朋友","懂行","Positive","ability","","","","","","","","","","",""
"734","","j","psychophysics","80","222502","0.0-7.0-3.0-0.66","7","7","7","7","6","5","5","5","5","5","5","2","1","2","1","2","2","2","2","5","5","5","5","5","5","5","4","5","5","7","7","7","6","6","5","7","8","7","7","7","7","7","7","7","7","1","7","7","1","7","7","7","7","7","7","7","7","6","7","7","7","7","7","6","7","7","7","7","7","7","7","7","7","7","7","7","7","6","7","598903596641157120","王","576","Male","[""好我"",""坏我"",""好他"",""坏他""]","[""强我"",""弱我"",""强他"",""弱他""]","","","","","","","","no","","","","","","","","","SRET","EW_formal","","key","j","16.664077669902856","768","428","自己","无能","Negative","ability","","","","","","","","","","",""
"669","","j","psychophysics","81","224174","0.0-7.0-3.0-0.67","7","7","7","7","6","5","5","5","5","5","5","2","1","2","1","2","2","2","2","5","5","5","5","5","5","5","4","5","5","7","7","7","6","6","5","7","8","7","7","7","7","7","7","7","7","1","7","7","1","7","7","7","7","7","7","7","7","6","7","7","7","7","7","6","7","7","7","7","7","7","7","7","7","7","7","7","7","6","7","598903596641157120","王","576","Male","[""好我"",""坏我"",""好他"",""坏他""]","[""强我"",""弱我"",""强他"",""弱他""]","","","","","","","","no","","","","","","","","","SRET","EW_formal","","key","j","16.66464646464664","768","428","自己","腐败","Negative","morality","","","","","","","","","","",""
"726","","j","psychophysics","82","225902","0.0-7.0-3.0-0.68","7","7","7","7","6","5","5","5","5","5","5","2","1","2","1","2","2","2","2","5","5","5","5","5","5","5","4","5","5","7","7","7","6","6","5","7","8","7","7","7","7","7","7","7","7","1","7","7","1","7","7","7","7","7","7","7","7","6","7","7","7","7","7","6","7","7","7","7","7","7","7","7","7","7","7","7","7","6","7","598903596641157120","王","576","Male","[""好我"",""坏我"",""好他"",""坏他""]","[""强我"",""弱我"",""强他"",""弱他""]","","","","","","","","no","","","","","","","","","SRET","EW_formal","","key","j","16.66504854368932","768","428","朋友","背叛","Negative","morality","","","","","","","","","","",""
"679","","f","psychophysics","83","227582","0.0-7.0-3.0-0.69","7","7","7","7","6","5","5","5","5","5","5","2","1","2","1","2","2","2","2","5","5","5","5","5","5","5","4","5","5","7","7","7","6","6","5","7","8","7","7","7","7","7","7","7","7","1","7","7","1","7","7","7","7","7","7","7","7","6","7","7","7","7","7","6","7","7","7","7","7","7","7","7","7","7","7","7","7","6","7","598903596641157120","王","576","Male","[""好我"",""坏我"",""好他"",""坏他""]","[""强我"",""弱我"",""强他"",""弱他""]","","","","","","","","yes","","","","","","","","","SRET","EW_formal","","key","f","16.66399999999994","768","428","自己","周到","Positive","ability","","","","","","","","","","",""
"751","","f","psychophysics","84","229334","0.0-7.0-3.0-0.70","7","7","7","7","6","5","5","5","5","5","5","2","1","2","1","2","2","2","2","5","5","5","5","5","5","5","4","5","5","7","7","7","6","6","5","7","8","7","7","7","7","7","7","7","7","1","7","7","1","7","7","7","7","7","7","7","7","6","7","7","7","7","7","6","7","7","7","7","7","7","7","7","7","7","7","7","7","6","7","598903596641157120","王","576","Male","[""好我"",""坏我"",""好他"",""坏他""]","[""强我"",""弱我"",""强他"",""弱他""]","","","","","","","","yes","","","","","","","","","SRET","EW_formal","","key","f","16.66346153846154","768","428","自己","能干","Positive","ability","","","","","","","","","","",""
"751","","f","psychophysics","85","231087","0.0-7.0-3.0-0.71","7","7","7","7","6","5","5","5","5","5","5","2","1","2","1","2","2","2","2","5","5","5","5","5","5","5","4","5","5","7","7","7","6","6","5","7","8","7","7","7","7","7","7","7","7","1","7","7","1","7","7","7","7","7","7","7","7","6","7","7","7","7","7","6","7","7","7","7","7","7","7","7","7","7","7","7","7","6","7","598903596641157120","王","576","Male","[""好我"",""坏我"",""好他"",""坏他""]","[""强我"",""弱我"",""强他"",""弱他""]","","","","","","","","yes","","","","","","","","","SRET","EW_formal","","key","f","16.66346153846154","768","428","自己","专注","Positive","ability","","","","","","","","","","",""
"782","","j","psychophysics","86","232870","0.0-7.0-3.0-0.72","7","7","7","7","6","5","5","5","5","5","5","2","1","2","1","2","2","2","2","5","5","5","5","5","5","5","4","5","5","7","7","7","6","6","5","7","8","7","7","7","7","7","7","7","7","1","7","7","1","7","7","7","7","7","7","7","7","6","7","7","7","7","7","6","7","7","7","7","7","7","7","7","7","7","7","7","7","6","7","598903596641157120","王","576","Male","[""好我"",""坏我"",""好他"",""坏他""]","[""强我"",""弱我"",""强他"",""弱他""]","","","","","","","","no","","","","","","","","","SRET","EW_formal","","key","j","16.664150943396173","768","428","自己","低劣","Negative","morality","","","","","","","","","","",""
"806","","j","psychophysics","87","234678","0.0-7.0-3.0-0.73","7","7","7","7","6","5","5","5","5","5","5","2","1","2","1","2","2","2","2","5","5","5","5","5","5","5","4","5","5","7","7","7","6","6","5","7","8","7","7","7","7","7","7","7","7","1","7","7","1","7","7","7","7","7","7","7","7","6","7","7","7","7","7","6","7","7","7","7","7","7","7","7","7","7","7","7","7","6","7","598903596641157120","王","576","Male","[""好我"",""坏我"",""好他"",""坏他""]","[""强我"",""弱我"",""强他"",""弱他""]","","","","","","","","no","","","","","","","","","SRET","EW_formal","","key","j","16.664814814814978","768","428","朋友","偏私","Negative","morality","","","","","","","","","","",""
"632","","f","psychophysics","88","236311","0.0-7.0-3.0-0.74","7","7","7","7","6","5","5","5","5","5","5","2","1","2","1","2","2","2","2","5","5","5","5","5","5","5","4","5","5","7","7","7","6","6","5","7","8","7","7","7","7","7","7","7","7","1","7","7","1","7","7","7","7","7","7","7","7","6","7","7","7","7","7","6","7","7","7","7","7","7","7","7","7","7","7","7","7","6","7","598903596641157120","王","576","Male","[""好我"",""坏我"",""好他"",""坏他""]","[""强我"",""弱我"",""强他"",""弱他""]","","","","","","","","yes","","","","","","","","","SRET","EW_formal","","key","f","16.664583333333514","768","428","朋友","高尚","Positive","morality","","","","","","","","","","",""
"1191","","j","psychophysics","89","238502","0.0-7.0-3.0-0.75","7","7","7","7","6","5","5","5","5","5","5","2","1","2","1","2","2","2","2","5","5","5","5","5","5","5","4","5","5","7","7","7","6","6","5","7","8","7","7","7","7","7","7","7","7","1","7","7","1","7","7","7","7","7","7","7","7","6","7","7","7","7","7","6","7","7","7","7","7","7","7","7","7","7","7","7","7","6","7","598903596641157120","王","576","Male","[""好我"",""坏我"",""好他"",""坏他""]","[""强我"",""弱我"",""强他"",""弱他""]","","","","","","","","no","","","","","","","","","SRET","EW_formal","","key","j","16.66412213740458","768","428","自己","刻苦","Positive","ability","","","","","","","","","","",""
"1063","","f","psychophysics","90","240566","0.0-7.0-3.0-0.76","7","7","7","7","6","5","5","5","5","5","5","2","1","2","1","2","2","2","2","5","5","5","5","5","5","5","4","5","5","7","7","7","6","6","5","7","8","7","7","7","7","7","7","7","7","1","7","7","1","7","7","7","7","7","7","7","7","6","7","7","7","7","7","6","7","7","7","7","7","7","7","7","7","7","7","7","7","6","7","598903596641157120","王","576","Male","[""好我"",""坏我"",""好他"",""坏他""]","[""强我"",""弱我"",""强他"",""弱他""]","","","","","","","","yes","","","","","","","","","SRET","EW_formal","","key","f","16.66422764227628","768","428","自己","变通","Positive","ability","","","","","","","","","","",""
"959","","f","psychophysics","91","242526","0.0-7.0-3.0-0.77","7","7","7","7","6","5","5","5","5","5","5","2","1","2","1","2","2","2","2","5","5","5","5","5","5","5","4","5","5","7","7","7","6","6","5","7","8","7","7","7","7","7","7","7","7","1","7","7","1","7","7","7","7","7","7","7","7","6","7","7","7","7","7","6","7","7","7","7","7","7","7","7","7","7","7","7","7","6","7","598903596641157120","王","576","Male","[""好我"",""坏我"",""好他"",""坏他""]","[""强我"",""弱我"",""强他"",""弱他""]","","","","","","","","yes","","","","","","","","","SRET","EW_formal","","key","f","16.662931034482707","768","428","自己","谦逊","Positive","morality","","","","","","","","","","",""
"655","","j","psychophysics","92","244182","0.0-7.0-3.0-0.78","7","7","7","7","6","5","5","5","5","5","5","2","1","2","1","2","2","2","2","5","5","5","5","5","5","5","4","5","5","7","7","7","6","6","5","7","8","7","7","7","7","7","7","7","7","1","7","7","1","7","7","7","7","7","7","7","7","6","7","7","7","7","7","6","7","7","7","7","7","7","7","7","7","7","7","7","7","6","7","598903596641157120","王","576","Male","[""好我"",""坏我"",""好他"",""坏他""]","[""强我"",""弱我"",""强他"",""弱他""]","","","","","","","","no","","","","","","","","","SRET","EW_formal","","key","j","16.66363636363648","768","428","朋友","无耻","Negative","morality","","","","","","","","","","",""
"958","","j","psychophysics","93","246142","0.0-7.0-3.0-0.79","7","7","7","7","6","5","5","5","5","5","5","2","1","2","1","2","2","2","2","5","5","5","5","5","5","5","4","5","5","7","7","7","6","6","5","7","8","7","7","7","7","7","7","7","7","1","7","7","1","7","7","7","7","7","7","7","7","6","7","7","7","7","7","6","7","7","7","7","7","7","7","7","7","7","7","7","7","6","7","598903596641157120","王","576","Male","[""好我"",""坏我"",""好他"",""坏他""]","[""强我"",""弱我"",""强他"",""弱他""]","","","","","","","","no","","","","","","","","","SRET","EW_formal","","key","j","16.664655172413593","768","428","自己","龌龊","Negative","morality","","","","","","","","","","",""
"831","","j","psychophysics","94","247974","0.0-7.0-3.0-0.80","7","7","7","7","6","5","5","5","5","5","5","2","1","2","1","2","2","2","2","5","5","5","5","5","5","5","4","5","5","7","7","7","6","6","5","7","8","7","7","7","7","7","7","7","7","1","7","7","1","7","7","7","7","7","7","7","7","6","7","7","7","7","7","6","7","7","7","7","7","7","7","7","7","7","7","7","7","6","7","598903596641157120","王","576","Male","[""好我"",""坏我"",""好他"",""坏他""]","[""强我"",""弱我"",""强他"",""弱他""]","","","","","","","","no","","","","","","","","","SRET","EW_formal","","key","j","16.664220183486186","768","428","自己","拜金","Negative","morality","","","","","","","","","","",""
"1046","","j","psychophysics","95","250022","0.0-7.0-3.0-0.81","7","7","7","7","6","5","5","5","5","5","5","2","1","2","1","2","2","2","2","5","5","5","5","5","5","5","4","5","5","7","7","7","6","6","5","7","8","7","7","7","7","7","7","7","7","1","7","7","1","7","7","7","7","7","7","7","7","6","7","7","7","7","7","6","7","7","7","7","7","7","7","7","7","7","7","7","7","6","7","598903596641157120","王","576","Male","[""好我"",""坏我"",""好他"",""坏他""]","[""强我"",""弱我"",""强他"",""弱他""]","","","","","","","","no","","","","","","","","","SRET","EW_formal","","key","j","16.664754098360703","768","428","朋友","窝囊","Negative","ability","","","","","","","","","","",""
"686","","j","psychophysics","96","251710","0.0-7.0-3.0-0.82","7","7","7","7","6","5","5","5","5","5","5","2","1","2","1","2","2","2","2","5","5","5","5","5","5","5","4","5","5","7","7","7","6","6","5","7","8","7","7","7","7","7","7","7","7","1","7","7","1","7","7","7","7","7","7","7","7","6","7","7","7","7","7","6","7","7","7","7","7","7","7","7","7","7","7","7","7","6","7","598903596641157120","王","576","Male","[""好我"",""坏我"",""好他"",""坏他""]","[""强我"",""弱我"",""强他"",""弱他""]","","","","","","","","no","","","","","","","","","SRET","EW_formal","","key","j","16.66534653465358","768","428","自己","差生","Negative","ability","","","","","","","","","","",""
"703","","f","psychophysics","97","253415","0.0-7.0-3.0-0.83","7","7","7","7","6","5","5","5","5","5","5","2","1","2","1","2","2","2","2","5","5","5","5","5","5","5","4","5","5","7","7","7","6","6","5","7","8","7","7","7","7","7","7","7","7","1","7","7","1","7","7","7","7","7","7","7","7","6","7","7","7","7","7","6","7","7","7","7","7","7","7","7","7","7","7","7","7","6","7","598903596641157120","王","576","Male","[""好我"",""坏我"",""好他"",""坏他""]","[""强我"",""弱我"",""强他"",""弱他""]","","","","","","","","yes","","","","","","","","","SRET","EW_formal","","key","f","16.664356435643334","768","428","朋友","好心","Positive","morality","","","","","","","","","","",""
"1006","","j","psychophysics","98","255422","0.0-7.0-3.0-0.84","7","7","7","7","6","5","5","5","5","5","5","2","1","2","1","2","2","2","2","5","5","5","5","5","5","5","4","5","5","7","7","7","6","6","5","7","8","7","7","7","7","7","7","7","7","1","7","7","1","7","7","7","7","7","7","7","7","6","7","7","7","7","7","6","7","7","7","7","7","7","7","7","7","7","7","7","7","6","7","598903596641157120","王","576","Male","[""好我"",""坏我"",""好他"",""坏他""]","[""强我"",""弱我"",""强他"",""弱他""]","","","","","","","","no","","","","","","","","","SRET","EW_formal","","key","j","16.66386554621849","768","428","朋友","低俗","Negative","morality","","","","","","","","","","",""
"1061","","f","psychophysics","99","257486","0.0-7.0-3.0-0.85","7","7","7","7","6","5","5","5","5","5","5","2","1","2","1","2","2","2","2","5","5","5","5","5","5","5","4","5","5","7","7","7","6","6","5","7","8","7","7","7","7","7","7","7","7","1","7","7","1","7","7","7","7","7","7","7","7","6","7","7","7","7","7","6","7","7","7","7","7","7","7","7","7","7","7","7","7","6","7","598903596641157120","王","576","Male","[""好我"",""坏我"",""好他"",""坏他""]","[""强我"",""弱我"",""强他"",""弱他""]","","","","","","","","yes","","","","","","","","","SRET","EW_formal","","key","f","16.66422764227652","768","428","自己","主见","Positive","ability","","","","","","","","","","",""
"704","","j","psychophysics","100","259191","0.0-7.0-3.0-0.86","7","7","7","7","6","5","5","5","5","5","5","2","1","2","1","2","2","2","2","5","5","5","5","5","5","5","4","5","5","7","7","7","6","6","5","7","8","7","7","7","7","7","7","7","7","1","7","7","1","7","7","7","7","7","7","7","7","6","7","7","7","7","7","6","7","7","7","7","7","7","7","7","7","7","7","7","7","6","7","598903596641157120","王","576","Male","[""好我"",""坏我"",""好他"",""坏他""]","[""强我"",""弱我"",""强他"",""弱他""]","","","","","","","","no","","","","","","","","","SRET","EW_formal","","key","j","16.664356435643334","768","428","自己","缓慢","Negative","ability","","","","","","","","","","",""
"879","","f","psychophysics","101","261070","0.0-7.0-3.0-0.87","7","7","7","7","6","5","5","5","5","5","5","2","1","2","1","2","2","2","2","5","5","5","5","5","5","5","4","5","5","7","7","7","6","6","5","7","8","7","7","7","7","7","7","7","7","1","7","7","1","7","7","7","7","7","7","7","7","6","7","7","7","7","7","6","7","7","7","7","7","7","7","7","7","7","7","7","7","6","7","598903596641157120","王","576","Male","[""好我"",""坏我"",""好他"",""坏他""]","[""强我"",""弱我"",""强他"",""弱他""]","","","","","","","","yes","","","","","","","","","SRET","EW_formal","","key","f","16.665178571428573","768","428","朋友","素养","Positive","morality","","","","","","","","","","",""
"7328","
    <p><div style='color:white;font-size:35px; line-height:20px;'>计算任务</div></p><br>
    <p><div style='color:red;font-size:25px; line-height:20px;'>接下来，您将看到一些四则运算题，<b>请从键盘选择 0-9 进行反应。</b></div></p>
    <p><div style='color:red;font-size:25px; line-height:20px;'>请尽可能快地进行计算，计算的速度和正确率将影响报酬的发放。</div></p>
    <p><div class='footer' style='color:white;font-size:25px; line-height:20px;'>如果对本实验还有不清楚之处，请立即向实验员咨询。</p><p style='color:white;font-size:25px; line-height:20px;'>如果您明白了规则：</p><p style='color:white;font-size:22px; line-height:20px;'>请按 继续 进入练习</p>
    </div>
    ","0","html-button-response","102","268399","0.0-7.0-4.0","7","7","7","7","6","5","5","5","5","5","5","2","1","2","1","2","2","2","2","5","5","5","5","5","5","5","4","5","5","7","7","7","6","6","5","7","8","7","7","7","7","7","7","7","7","1","7","7","1","7","7","7","7","7","7","7","7","6","7","7","7","7","7","6","7","7","7","7","7","7","7","7","7","7","7","7","7","6","7","598903596641157120","王","576","Male","[""好我"",""坏我"",""好他"",""坏他""]","[""强我"",""弱我"",""强他"",""弱他""]","","","","","","","","","","","","","","","","","SRET_math","math_instructions","Sun Jan 07 2024 10:48:45 GMT+0800 (中国标准时间)","","","","","","","","","","","","","","","","","","","",""
"1917","","3","psychophysics","103","270319","0.0-7.0-5.0-0.0","7","7","7","7","6","5","5","5","5","5","5","2","1","2","1","2","2","2","2","5","5","5","5","5","5","5","4","5","5","7","7","7","6","6","5","7","8","7","7","7","7","7","7","7","7","1","7","7","1","7","7","7","7","7","7","7","7","6","7","7","7","7","7","6","7","7","7","7","7","7","7","7","7","7","7","7","7","6","7","598903596641157120","王","576","Male","[""好我"",""坏我"",""好他"",""坏他""]","[""强我"",""弱我"",""强他"",""弱他""]","","","","","","","","3","","","","","","","","","SRET","SRET_math_calculate","","key","3","16.664347826086654","768","428","","","","","21/7=  ?","3","1","","","","","","","",""
"1831","","1","psychophysics","104","272151","0.0-7.0-5.0-0.1","7","7","7","7","6","5","5","5","5","5","5","2","1","2","1","2","2","2","2","5","5","5","5","5","5","5","4","5","5","7","7","7","6","6","5","7","8","7","7","7","7","7","7","7","7","1","7","7","1","7","7","7","7","7","7","7","7","6","7","7","7","7","7","6","7","7","7","7","7","7","7","7","7","7","7","7","7","6","7","598903596641157120","王","576","Male","[""好我"",""坏我"",""好他"",""坏他""]","[""强我"",""弱我"",""强他"",""弱他""]","","","","","","","","1","","","","","","","","","SRET","SRET_math_calculate","","key","1","16.663302752293472","768","428","","","","","4/4= ?","1","1","","","","","","","",""
"1831","","2","psychophysics","105","273983","0.0-7.0-5.0-0.2","7","7","7","7","6","5","5","5","5","5","5","2","1","2","1","2","2","2","2","5","5","5","5","5","5","5","4","5","5","7","7","7","6","6","5","7","8","7","7","7","7","7","7","7","7","1","7","7","1","7","7","7","7","7","7","7","7","6","7","7","7","7","7","6","7","7","7","7","7","7","7","7","7","7","7","7","7","6","7","598903596641157120","王","576","Male","[""好我"",""坏我"",""好他"",""坏他""]","[""强我"",""弱我"",""强他"",""弱他""]","","","","","","","","2","","","","","","","","","SRET","SRET_math_calculate","","key","2","16.665137614678898","768","428","","","","","12/6= ?","2","1","","","","","","","",""
"1919","","2","psychophysics","106","275903","0.0-7.0-5.0-0.3","7","7","7","7","6","5","5","5","5","5","5","2","1","2","1","2","2","2","2","5","5","5","5","5","5","5","4","5","5","7","7","7","6","6","5","7","8","7","7","7","7","7","7","7","7","1","7","7","1","7","7","7","7","7","7","7","7","6","7","7","7","7","7","6","7","7","7","7","7","7","7","7","7","7","7","7","7","6","7","598903596641157120","王","576","Male","[""好我"",""坏我"",""好他"",""坏他""]","[""强我"",""弱我"",""强他"",""弱他""]","","","","","","","","2","","","","","","","","","SRET","SRET_math_calculate","","key","2","16.65877192982487","768","428","","","","","90/45= ?","2","1","","","","","","","",""
"1839","","2","psychophysics","107","277743","0.0-7.0-5.0-0.4","7","7","7","7","6","5","5","5","5","5","5","2","1","2","1","2","2","2","2","5","5","5","5","5","5","5","4","5","5","7","7","7","6","6","5","7","8","7","7","7","7","7","7","7","7","1","7","7","1","7","7","7","7","7","7","7","7","6","7","7","7","7","7","6","7","7","7","7","7","7","7","7","7","7","7","7","7","6","7","598903596641157120","王","576","Male","[""好我"",""坏我"",""好他"",""坏他""]","[""强我"",""弱我"",""强他"",""弱他""]","","","","","","","","2","","","","","","","","","SRET","SRET_math_calculate","","key","2","16.663636363636364","768","428","","","","","19-17= ?","2","1","","","","","","","",""
"1791","","6","psychophysics","108","279535","0.0-7.0-5.0-0.5","7","7","7","7","6","5","5","5","5","5","5","2","1","2","1","2","2","2","2","5","5","5","5","5","5","5","4","5","5","7","7","7","6","6","5","7","8","7","7","7","7","7","7","7","7","1","7","7","1","7","7","7","7","7","7","7","7","6","7","7","7","7","7","6","7","7","7","7","7","7","7","7","7","7","7","7","7","6","7","598903596641157120","王","576","Male","[""好我"",""坏我"",""好他"",""坏他""]","[""强我"",""弱我"",""强他"",""弱他""]","","","","","","","","6","","","","","","","","","SRET","SRET_math_calculate","","key","6","16.664150943396447","768","428","","","","","4+2= ?","6","1","","","","","","","",""
"1727","","3","psychophysics","109","281263","0.0-7.0-5.0-0.6","7","7","7","7","6","5","5","5","5","5","5","2","1","2","1","2","2","2","2","5","5","5","5","5","5","5","4","5","5","7","7","7","6","6","5","7","8","7","7","7","7","7","7","7","7","1","7","7","1","7","7","7","7","7","7","7","7","6","7","7","7","7","7","6","7","7","7","7","7","7","7","7","7","7","7","7","7","6","7","598903596641157120","王","576","Male","[""好我"",""坏我"",""好他"",""坏他""]","[""强我"",""弱我"",""强他"",""弱他""]","","","","","","","","3","","","","","","","","","SRET","SRET_math_calculate","","key","3","16.66504854368932","768","428","","","","","11-8= ?","3","1","","","","","","","",""
"1719","","0","psychophysics","110","282983","0.0-7.0-5.0-0.7","7","7","7","7","6","5","5","5","5","5","5","2","1","2","1","2","2","2","2","5","5","5","5","5","5","5","4","5","5","7","7","7","6","6","5","7","8","7","7","7","7","7","7","7","7","1","7","7","1","7","7","7","7","7","7","7","7","6","7","7","7","7","7","6","7","7","7","7","7","7","7","7","7","7","7","7","7","6","7","598903596641157120","王","576","Male","[""好我"",""坏我"",""好他"",""坏他""]","[""强我"",""弱我"",""强他"",""弱他""]","","","","","","","","0","","","","","","","","","SRET","SRET_math_calculate","","key","0","16.658823529411308","768","428","","","","","7*0= ?","0","1","","","","","","","",""
"1639","","0","psychophysics","111","284623","0.0-7.0-5.0-0.8","7","7","7","7","6","5","5","5","5","5","5","2","1","2","1","2","2","2","2","5","5","5","5","5","5","5","4","5","5","7","7","7","6","6","5","7","8","7","7","7","7","7","7","7","7","1","7","7","1","7","7","7","7","7","7","7","7","6","7","7","7","7","7","6","7","7","7","7","7","7","7","7","7","7","7","7","7","6","7","598903596641157120","王","576","Male","[""好我"",""坏我"",""好他"",""坏他""]","[""强我"",""弱我"",""强他"",""弱他""]","","","","","","","","0","","","","","","","","","SRET","SRET_math_calculate","","key","0","16.6653061224491","768","428","","","","","5*0= ?","0","1","","","","","","","",""
"1783","","5","psychophysics","112","286407","0.0-7.0-5.0-0.9","7","7","7","7","6","5","5","5","5","5","5","2","1","2","1","2","2","2","2","5","5","5","5","5","5","5","4","5","5","7","7","7","6","6","5","7","8","7","7","7","7","7","7","7","7","1","7","7","1","7","7","7","7","7","7","7","7","6","7","7","7","7","7","6","7","7","7","7","7","7","7","7","7","7","7","7","7","6","7","598903596641157120","王","576","Male","[""好我"",""坏我"",""好他"",""坏他""]","[""强我"",""弱我"",""强他"",""弱他""]","","","","","","","","5","","","","","","","","","SRET","SRET_math_calculate","","key","5","16.65943396226437","768","428","","","","","5/1= ?","5","1","","","","","","","",""
"1847","","3","psychophysics","113","288255","0.0-7.0-5.0-0.10","7","7","7","7","6","5","5","5","5","5","5","2","1","2","1","2","2","2","2","5","5","5","5","5","5","5","4","5","5","7","7","7","6","6","5","7","8","7","7","7","7","7","7","7","7","1","7","7","1","7","7","7","7","7","7","7","7","6","7","7","7","7","7","6","7","7","7","7","7","7","7","7","7","7","7","7","7","6","7","598903596641157120","王","576","Male","[""好我"",""坏我"",""好他"",""坏他""]","[""强我"",""弱我"",""强他"",""弱他""]","","","","","","","","3","","","","","","","","","SRET","SRET_math_calculate","","key","3","16.665137614678898","768","428","","","","","6/2= ?","3","1","","","","","","","",""
"1622","","2","psychophysics","114","289879","0.0-7.0-5.0-0.11","7","7","7","7","6","5","5","5","5","5","5","2","1","2","1","2","2","2","2","5","5","5","5","5","5","5","4","5","5","7","7","7","6","6","5","7","8","7","7","7","7","7","7","7","7","1","7","7","1","7","7","7","7","7","7","7","7","6","7","7","7","7","7","6","7","7","7","7","7","7","7","7","7","7","7","7","7","6","7","598903596641157120","王","576","Male","[""好我"",""坏我"",""好他"",""坏他""]","[""强我"",""弱我"",""强他"",""弱他""]","","","","","","","","2","","","","","","","","","SRET","SRET_math_calculate","","key","2","16.664948453608247","768","428","","","","","5-3= ?","2","1","","","","","","","",""
"2391","","8","psychophysics","115","292271","0.0-7.0-5.0-0.12","7","7","7","7","6","5","5","5","5","5","5","2","1","2","1","2","2","2","2","5","5","5","5","5","5","5","4","5","5","7","7","7","6","6","5","7","8","7","7","7","7","7","7","7","7","1","7","7","1","7","7","7","7","7","7","7","7","6","7","7","7","7","7","6","7","7","7","7","7","7","7","7","7","7","7","7","7","6","7","598903596641157120","王","576","Male","[""好我"",""坏我"",""好他"",""坏他""]","[""强我"",""弱我"",""强他"",""弱他""]","","","","","","","","8","","","","","","","","","SRET","SRET_math_calculate","","key","8","16.66549295774648","768","428","","","","","9-1= ?","8","1","","","","","","","",""
"1686","","6","psychophysics","116","293959","0.0-7.0-5.0-0.13","7","7","7","7","6","5","5","5","5","5","5","2","1","2","1","2","2","2","2","5","5","5","5","5","5","5","4","5","5","7","7","7","6","6","5","7","8","7","7","7","7","7","7","7","7","1","7","7","1","7","7","7","7","7","7","7","7","6","7","7","7","7","7","6","7","7","7","7","7","7","7","7","7","7","7","7","7","6","7","598903596641157120","王","576","Male","[""好我"",""坏我"",""好他"",""坏他""]","[""强我"",""弱我"",""强他"",""弱他""]","","","","","","","","6","","","","","","","","","SRET","SRET_math_calculate","","key","6","16.66534653465358","768","428","","","","","2+4= ?","6","1","","","","","","","",""
"1639","","4","psychophysics","117","295599","0.0-7.0-5.0-0.14","7","7","7","7","6","5","5","5","5","5","5","2","1","2","1","2","2","2","2","5","5","5","5","5","5","5","4","5","5","7","7","7","6","6","5","7","8","7","7","7","7","7","7","7","7","1","7","7","1","7","7","7","7","7","7","7","7","6","7","7","7","7","7","6","7","7","7","7","7","7","7","7","7","7","7","7","7","6","7","598903596641157120","王","576","Male","[""好我"",""坏我"",""好他"",""坏他""]","[""强我"",""弱我"",""强他"",""弱他""]","","","","","","","","4","","","","","","","","","SRET","SRET_math_calculate","","key","4","16.664948453608247","768","428","","","","","3+1= ?","4","1","","","","","","","",""
"1687","","1","psychophysics","118","297287","0.0-7.0-5.0-0.15","7","7","7","7","6","5","5","5","5","5","5","2","1","2","1","2","2","2","2","5","5","5","5","5","5","5","4","5","5","7","7","7","6","6","5","7","8","7","7","7","7","7","7","7","7","1","7","7","1","7","7","7","7","7","7","7","7","6","7","7","7","7","7","6","7","7","7","7","7","7","7","7","7","7","7","7","7","6","7","598903596641157120","王","576","Male","[""好我"",""坏我"",""好他"",""坏他""]","[""强我"",""弱我"",""强他"",""弱他""]","","","","","","","","1","","","","","","","","","SRET","SRET_math_calculate","","key","1","16.665999999999766","768","428","","","","","10-9= ?","1","1","","","","","","","",""
"1734","","3","psychophysics","119","299023","0.0-7.0-5.0-0.16","7","7","7","7","6","5","5","5","5","5","5","2","1","2","1","2","2","2","2","5","5","5","5","5","5","5","4","5","5","7","7","7","6","6","5","7","8","7","7","7","7","7","7","7","7","1","7","7","1","7","7","7","7","7","7","7","7","6","7","7","7","7","7","6","7","7","7","7","7","7","7","7","7","7","7","7","7","6","7","598903596641157120","王","576","Male","[""好我"",""坏我"",""好他"",""坏他""]","[""强我"",""弱我"",""强他"",""弱他""]","","","","","","","","3","","","","","","","","","SRET","SRET_math_calculate","","key","3","16.66442307692285","768","428","","","","","2+1= ?","3","1","","","","","","","",""
"1767","","4","psychophysics","120","300791","0.0-7.0-5.0-0.17","7","7","7","7","6","5","5","5","5","5","5","2","1","2","1","2","2","2","2","5","5","5","5","5","5","5","4","5","5","7","7","7","6","6","5","7","8","7","7","7","7","7","7","7","7","1","7","7","1","7","7","7","7","7","7","7","7","6","7","7","7","7","7","6","7","7","7","7","7","7","7","7","7","7","7","7","7","6","7","598903596641157120","王","576","Male","[""好我"",""坏我"",""好他"",""坏他""]","[""强我"",""弱我"",""强他"",""弱他""]","","","","","","","","4","","","","","","","","","SRET","SRET_math_calculate","","key","4","16.664761904761793","768","428","","","","","4*1= ?","4","1","","","","","","","",""
"1798","","5","psychophysics","121","302591","0.0-7.0-5.0-0.18","7","7","7","7","6","5","5","5","5","5","5","2","1","2","1","2","2","2","2","5","5","5","5","5","5","5","4","5","5","7","7","7","6","6","5","7","8","7","7","7","7","7","7","7","7","1","7","7","1","7","7","7","7","7","7","7","7","6","7","7","7","7","7","6","7","7","7","7","7","7","7","7","7","7","7","7","7","6","7","598903596641157120","王","576","Male","[""好我"",""坏我"",""好他"",""坏他""]","[""强我"",""弱我"",""强他"",""弱他""]","","","","","","","","5","","","","","","","","","SRET","SRET_math_calculate","","key","5","16.664485981308193","768","428","","","","","15-10= ?","5","1","","","","","","","",""
"1871","","9","psychophysics","122","304463","0.0-7.0-5.0-0.19","7","7","7","7","6","5","5","5","5","5","5","2","1","2","1","2","2","2","2","5","5","5","5","5","5","5","4","5","5","7","7","7","6","6","5","7","8","7","7","7","7","7","7","7","7","1","7","7","1","7","7","7","7","7","7","7","7","6","7","7","7","7","7","6","7","7","7","7","7","7","7","7","7","7","7","7","7","6","7","598903596641157120","王","576","Male","[""好我"",""坏我"",""好他"",""坏他""]","[""强我"",""弱我"",""强他"",""弱他""]","","","","","","","","9","","","","","","","","","SRET","SRET_math_calculate","","key","9","16.66486486486476","768","428","","","","","3+6= ?","9","1","","","","","","","",""
"1839","","8","psychophysics","123","306303","0.0-7.0-5.0-0.20","7","7","7","7","6","5","5","5","5","5","5","2","1","2","1","2","2","2","2","5","5","5","5","5","5","5","4","5","5","7","7","7","6","6","5","7","8","7","7","7","7","7","7","7","7","1","7","7","1","7","7","7","7","7","7","7","7","6","7","7","7","7","7","6","7","7","7","7","7","7","7","7","7","7","7","7","7","6","7","598903596641157120","王","576","Male","[""好我"",""坏我"",""好他"",""坏他""]","[""强我"",""弱我"",""强他"",""弱他""]","","","","","","","","8","","","","","","","","","SRET","SRET_math_calculate","","key","8","16.668807339449756","768","428","","","","","7+1= ?","8","1","","","","","","","",""
"1870","","5","psychophysics","124","308175","0.0-7.0-5.0-0.21","7","7","7","7","6","5","5","5","5","5","5","2","1","2","1","2","2","2","2","5","5","5","5","5","5","5","4","5","5","7","7","7","6","6","5","7","8","7","7","7","7","7","7","7","7","1","7","7","1","7","7","7","7","7","7","7","7","6","7","7","7","7","7","6","7","7","7","7","7","7","7","7","7","7","7","7","7","6","7","598903596641157120","王","576","Male","[""好我"",""坏我"",""好他"",""坏他""]","[""强我"",""弱我"",""强他"",""弱他""]","","","","","","","","5","","","","","","","","","SRET","SRET_math_calculate","","key","5","16.665178571428573","768","428","","","","","4+1= ?","5","1","","","","","","","",""
"1991","","9","psychophysics","125","310167","0.0-7.0-5.0-0.22","7","7","7","7","6","5","5","5","5","5","5","2","1","2","1","2","2","2","2","5","5","5","5","5","5","5","4","5","5","7","7","7","6","6","5","7","8","7","7","7","7","7","7","7","7","1","7","7","1","7","7","7","7","7","7","7","7","6","7","7","7","7","7","6","7","7","7","7","7","7","7","7","7","7","7","7","7","6","7","598903596641157120","王","576","Male","[""好我"",""坏我"",""好他"",""坏他""]","[""强我"",""弱我"",""强他"",""弱他""]","","","","","","","","9","","","","","","","","","SRET","SRET_math_calculate","","key","9","16.665254237288135","768","428","","","","","5+4= ?","9","1","","","","","","","",""
"1791","","8","psychophysics","126","311959","0.0-7.0-5.0-0.23","7","7","7","7","6","5","5","5","5","5","5","2","1","2","1","2","2","2","2","5","5","5","5","5","5","5","4","5","5","7","7","7","6","6","5","7","8","7","7","7","7","7","7","7","7","1","7","7","1","7","7","7","7","7","7","7","7","6","7","7","7","7","7","6","7","7","7","7","7","7","7","7","7","7","7","7","7","6","7","598903596641157120","王","576","Male","[""好我"",""坏我"",""好他"",""坏他""]","[""强我"",""弱我"",""强他"",""弱他""]","","","","","","","","8","","","","","","","","","SRET","SRET_math_calculate","","key","8","16.665420560747773","768","428","","","","","1*8= ?","8","1","","","","","","","",""
"1855","","6","psychophysics","127","313815","0.0-7.0-5.0-0.24","7","7","7","7","6","5","5","5","5","5","5","2","1","2","1","2","2","2","2","5","5","5","5","5","5","5","4","5","5","7","7","7","6","6","5","7","8","7","7","7","7","7","7","7","7","1","7","7","1","7","7","7","7","7","7","7","7","6","7","7","7","7","7","6","7","7","7","7","7","7","7","7","7","7","7","7","7","6","7","598903596641157120","王","576","Male","[""好我"",""坏我"",""好他"",""坏他""]","[""强我"",""弱我"",""强他"",""弱他""]","","","","","","","","6","","","","","","","","","SRET","SRET_math_calculate","","key","6","16.66545454545465","768","428","","","","","2*4= ?","8","0","","","","","","","",""
"2327","","7","psychophysics","128","316143","0.0-7.0-5.0-0.25","7","7","7","7","6","5","5","5","5","5","5","2","1","2","1","2","2","2","2","5","5","5","5","5","5","5","4","5","5","7","7","7","6","6","5","7","8","7","7","7","7","7","7","7","7","1","7","7","1","7","7","7","7","7","7","7","7","6","7","7","7","7","7","6","7","7","7","7","7","7","7","7","7","7","7","7","7","6","7","598903596641157120","王","576","Male","[""好我"",""坏我"",""好他"",""坏他""]","[""强我"",""弱我"",""强他"",""弱他""]","","","","","","","","7","","","","","","","","","SRET","SRET_math_calculate","","key","7","16.664028776978334","768","428","","","","","11-4= ?","7","1","","","","","","","",""
"1791","","8","psychophysics","129","317935","0.0-7.0-5.0-0.26","7","7","7","7","6","5","5","5","5","5","5","2","1","2","1","2","2","2","2","5","5","5","5","5","5","5","4","5","5","7","7","7","6","6","5","7","8","7","7","7","7","7","7","7","7","1","7","7","1","7","7","7","7","7","7","7","7","6","7","7","7","7","7","6","7","7","7","7","7","7","7","7","7","7","7","7","7","6","7","598903596641157120","王","576","Male","[""好我"",""坏我"",""好他"",""坏他""]","[""强我"",""弱我"",""强他"",""弱他""]","","","","","","","","8","","","","","","","","","SRET","SRET_math_calculate","","key","8","16.657547169810883","768","428","","","","","13-5= ?","8","1","","","","","","","",""
"1846","","7","psychophysics","130","319783","0.0-7.0-5.0-0.27","7","7","7","7","6","5","5","5","5","5","5","2","1","2","1","2","2","2","2","5","5","5","5","5","5","5","4","5","5","7","7","7","6","6","5","7","8","7","7","7","7","7","7","7","7","1","7","7","1","7","7","7","7","7","7","7","7","6","7","7","7","7","7","6","7","7","7","7","7","7","7","7","7","7","7","7","7","6","7","598903596641157120","王","576","Male","[""好我"",""坏我"",""好他"",""坏他""]","[""强我"",""弱我"",""强他"",""弱他""]","","","","","","","","7","","","","","","","","","SRET","SRET_math_calculate","","key","7","16.66545454545465","768","428","","","","","9-2= ?","7","1","","","","","","","",""
"1991","","5","psychophysics","131","321775","0.0-7.0-5.0-0.28","7","7","7","7","6","5","5","5","5","5","5","2","1","2","1","2","2","2","2","5","5","5","5","5","5","5","4","5","5","7","7","7","6","6","5","7","8","7","7","7","7","7","7","7","7","1","7","7","1","7","7","7","7","7","7","7","7","6","7","7","7","7","7","6","7","7","7","7","7","7","7","7","7","7","7","7","7","6","7","598903596641157120","王","576","Male","[""好我"",""坏我"",""好他"",""坏他""]","[""强我"",""弱我"",""强他"",""弱他""]","","","","","","","","5","","","","","","","","","SRET","SRET_math_calculate","","key","5","16.665546218487492","768","428","","","","","9-4= ?","5","1","","","","","","","",""
"1887","","9","psychophysics","132","323663","0.0-7.0-5.0-0.29","7","7","7","7","6","5","5","5","5","5","5","2","1","2","1","2","2","2","2","5","5","5","5","5","5","5","4","5","5","7","7","7","6","6","5","7","8","7","7","7","7","7","7","7","7","1","7","7","1","7","7","7","7","7","7","7","7","6","7","7","7","7","7","6","7","7","7","7","7","7","7","7","7","7","7","7","7","6","7","598903596641157120","王","576","Male","[""好我"",""坏我"",""好他"",""坏他""]","[""强我"",""弱我"",""强他"",""弱他""]","","","","","","","","9","","","","","","","","","SRET","SRET_math_calculate","","key","9","16.664285714285402","768","428","","","","","4+5= ?","9","1","","","","","","","",""
"1886","","0","psychophysics","133","325550","0.0-7.0-5.0-0.30","7","7","7","7","6","5","5","5","5","5","5","2","1","2","1","2","2","2","2","5","5","5","5","5","5","5","4","5","5","7","7","7","6","6","5","7","8","7","7","7","7","7","7","7","7","1","7","7","1","7","7","7","7","7","7","7","7","6","7","7","7","7","7","6","7","7","7","7","7","7","7","7","7","7","7","7","7","6","7","598903596641157120","王","576","Male","[""好我"",""坏我"",""好他"",""坏他""]","[""强我"",""弱我"",""强他"",""弱他""]","","","","","","","","0","","","","","","","","","SRET","SRET_math_calculate","","key","0","16.665178571428573","768","428","","","","","32-32= ?","0","1","","","","","","","",""
"1846","","7","psychophysics","134","327398","0.0-7.0-5.0-0.31","7","7","7","7","6","5","5","5","5","5","5","2","1","2","1","2","2","2","2","5","5","5","5","5","5","5","4","5","5","7","7","7","6","6","5","7","8","7","7","7","7","7","7","7","7","1","7","7","1","7","7","7","7","7","7","7","7","6","7","7","7","7","7","6","7","7","7","7","7","7","7","7","7","7","7","7","7","6","7","598903596641157120","王","576","Male","[""好我"",""坏我"",""好他"",""坏他""]","[""强我"",""弱我"",""强他"",""弱他""]","","","","","","","","7","","","","","","","","","SRET","SRET_math_calculate","","key","7","16.661818181818077","768","428","","","","","4+3= ?","7","1","","","","","","","",""
"1743","","4","psychophysics","135","329142","0.0-7.0-5.0-0.32","7","7","7","7","6","5","5","5","5","5","5","2","1","2","1","2","2","2","2","5","5","5","5","5","5","5","4","5","5","7","7","7","6","6","5","7","8","7","7","7","7","7","7","7","7","1","7","7","1","7","7","7","7","7","7","7","7","6","7","7","7","7","7","6","7","7","7","7","7","7","7","7","7","7","7","7","7","6","7","598903596641157120","王","576","Male","[""好我"",""坏我"",""好他"",""坏他""]","[""强我"",""弱我"",""强他"",""弱他""]","","","","","","","","4","","","","","","","","","SRET","SRET_math_calculate","","key","4","16.665384615384166","768","428","","","","","13-9= ?","4","1","","","","","","","",""
"2430","","8","psychophysics","136","331574","0.0-7.0-5.0-0.33","7","7","7","7","6","5","5","5","5","5","5","2","1","2","1","2","2","2","2","5","5","5","5","5","5","5","4","5","5","7","7","7","6","6","5","7","8","7","7","7","7","7","7","7","7","1","7","7","1","7","7","7","7","7","7","7","7","6","7","7","7","7","7","6","7","7","7","7","7","7","7","7","7","7","7","7","7","6","7","598903596641157120","王","576","Male","[""好我"",""坏我"",""好他"",""坏他""]","[""强我"",""弱我"",""强他"",""弱他""]","","","","","","","","8","","","","","","","","","SRET","SRET_math_calculate","","key","8","16.666206896551966","768","428","","","","","8*1= ?","8","1","","","","","","","",""
"2687","","8","psychophysics","137","334262","0.0-7.0-5.0-0.34","7","7","7","7","6","5","5","5","5","5","5","2","1","2","1","2","2","2","2","5","5","5","5","5","5","5","4","5","5","7","7","7","6","6","5","7","8","7","7","7","7","7","7","7","7","1","7","7","1","7","7","7","7","7","7","7","7","6","7","7","7","7","7","6","7","7","7","7","7","7","7","7","7","7","7","7","7","6","7","598903596641157120","王","576","Male","[""好我"",""坏我"",""好他"",""坏他""]","[""强我"",""弱我"",""强他"",""弱他""]","","","","","","","","8","","","","","","","","","SRET","SRET_math_calculate","","key","8","16.661249999999928","768","428","","","","","11-3= ?","8","1","","","","","","","",""
"1720","","7","psychophysics","138","335984","0.0-7.0-5.0-0.35","7","7","7","7","6","5","5","5","5","5","5","2","1","2","1","2","2","2","2","5","5","5","5","5","5","5","4","5","5","7","7","7","6","6","5","7","8","7","7","7","7","7","7","7","7","1","7","7","1","7","7","7","7","7","7","7","7","6","7","7","7","7","7","6","7","7","7","7","7","7","7","7","7","7","7","7","7","6","7","598903596641157120","王","576","Male","[""好我"",""坏我"",""好他"",""坏他""]","[""强我"",""弱我"",""强他"",""弱他""]","","","","","","","","7","","","","","","","","","SRET","SRET_math_calculate","","key","7","16.658252427184355","768","428","","","","","2+5= ?","7","1","","","","","","","",""
"2262","","3","psychophysics","139","338246","0.0-7.0-5.0-0.36","7","7","7","7","6","5","5","5","5","5","5","2","1","2","1","2","2","2","2","5","5","5","5","5","5","5","4","5","5","7","7","7","6","6","5","7","8","7","7","7","7","7","7","7","7","1","7","7","1","7","7","7","7","7","7","7","7","6","7","7","7","7","7","6","7","7","7","7","7","7","7","7","7","7","7","7","7","6","7","598903596641157120","王","576","Male","[""好我"",""坏我"",""好他"",""坏他""]","[""强我"",""弱我"",""强他"",""弱他""]","","","","","","","","3","","","","","","","","","SRET","SRET_math_calculate","","key","3","16.66417910447761","768","428","","","","","1+2= ?","3","1","","","","","","","",""
"1870","","7","psychophysics","140","340118","0.0-7.0-5.0-0.37","7","7","7","7","6","5","5","5","5","5","5","2","1","2","1","2","2","2","2","5","5","5","5","5","5","5","4","5","5","7","7","7","6","6","5","7","8","7","7","7","7","7","7","7","7","1","7","7","1","7","7","7","7","7","7","7","7","6","7","7","7","7","7","6","7","7","7","7","7","7","7","7","7","7","7","7","7","6","7","598903596641157120","王","576","Male","[""好我"",""坏我"",""好他"",""坏他""]","[""强我"",""弱我"",""强他"",""弱他""]","","","","","","","","7","","","","","","","","","SRET","SRET_math_calculate","","key","7","16.665178571428573","768","428","","","","","3+4= ?","7","1","","","","","","","",""
"1927","","3","psychophysics","141","342046","0.0-7.0-5.0-0.38","7","7","7","7","6","5","5","5","5","5","5","2","1","2","1","2","2","2","2","5","5","5","5","5","5","5","4","5","5","7","7","7","6","6","5","7","8","7","7","7","7","7","7","7","7","1","7","7","1","7","7","7","7","7","7","7","7","6","7","7","7","7","7","6","7","7","7","7","7","7","7","7","7","7","7","7","7","6","7","598903596641157120","王","576","Male","[""好我"",""坏我"",""好他"",""坏他""]","[""强我"",""弱我"",""强他"",""弱他""]","","","","","","","","3","","","","","","","","","SRET","SRET_math_calculate","","key","3","16.669298245613934","768","428","","","","","12/4= ?","3","1","","","","","","","",""
"1775","","9","psychophysics","142","343822","0.0-7.0-5.0-0.39","7","7","7","7","6","5","5","5","5","5","5","2","1","2","1","2","2","2","2","5","5","5","5","5","5","5","4","5","5","7","7","7","6","6","5","7","8","7","7","7","7","7","7","7","7","1","7","7","1","7","7","7","7","7","7","7","7","6","7","7","7","7","7","6","7","7","7","7","7","7","7","7","7","7","7","7","7","6","7","598903596641157120","王","576","Male","[""好我"",""坏我"",""好他"",""坏他""]","[""强我"",""弱我"",""强他"",""弱他""]","","","","","","","","9","","","","","","","","","SRET","SRET_math_calculate","","key","9","16.66132075471731","768","428","","","","","3*3= ?","9","1","","","","","","","",""
"1935","","8","psychophysics","143","345759","0.0-7.0-5.0-0.40","7","7","7","7","6","5","5","5","5","5","5","2","1","2","1","2","2","2","2","5","5","5","5","5","5","5","4","5","5","7","7","7","6","6","5","7","8","7","7","7","7","7","7","7","7","1","7","7","1","7","7","7","7","7","7","7","7","6","7","7","7","7","7","6","7","7","7","7","7","7","7","7","7","7","7","7","7","6","7","598903596641157120","王","576","Male","[""好我"",""坏我"",""好他"",""坏他""]","[""强我"",""弱我"",""强他"",""弱他""]","","","","","","","","8","","","","","","","","","SRET","SRET_math_calculate","","key","8","16.663478260869464","768","428","","","","","2+6= ?","8","1","","","","","","","",""
