"rt","stimulus","response","trial_type","trial_index","time_elapsed","internal_node_id","swb_1","swb_2","swb_3","swb_4","swb_5","LOT_1","LOT_2","LOT_3","LOT_4","LOT_5","LOT_6","IPC_1","IPC_2","IPC_3","IPC_4","IPC_5","IPC_6","IPC_7","IPC_8","MorIden_1","MorIden_2","MorIden_3","MorIden_4","MorIden_5","MorIden_6","MorIden_7","MorIden_8","MorIden_9","MorIden_10","moralSeImag_1","moralSeImag_2","moralSeImag_3","moralSeImag_4","moralSeImag_5","moralSeImag_6","moralSeImag_7","moralSeImag_8","moralSeImag_9","sde_1","sde_2","sde_3","sde_4","sde_5","sde_6","sde_7","sde_8","sde_9","sde_10","trap2","sde_11","sde_12","sde_13","sde_14","sde_15","sde_16","sde_17","sde_18","sde_19","sde_20","IM_1","IM_2","IM_3","IM_4","IM_5","IM_6","IM_7","IM_8","IM_9","IM_10","IM_11","IM_12","IM_13","IM_14","IM_15","IM_16","IM_17","IM_18","IM_19","IM_20","subj_idx","friend_name","ParticipantID","Sex","Word","Word2","value","success","timeout","failed_images","failed_audio","failed_video","user_agent","responses","item_order","radio_event_ids","radio_event_times","key_event_times","mouse_event_times","straightlining","zigzagging","honeypot","task_id","screen_id","time_stamp","response_type","key_press","avg_frame_time","center_x","center_y","person","word","valence","domain","math","correct_response","correct","status","view_history","identity","duration","Image","condition","question_order","trap2_item"
"1842","
   <p><div style='color:white; font-size: 25px'>您好，欢迎参加本次实验。</div></p>
   <p><div style='color:white; font-size: 25px'>为充分保障您的权利，请确保您已经知晓并同意《参与实验同意书》以及《数据公开知情同意书》。</div></p>
   <p><div style='color:white; font-size: 25px'>如果您未见过上述内容，请咨询实验员。</div></p>
   <p style='color:white; font-size: 25px'>如果您选择继续实验，则表示您已经清楚两份知情同意书的内容并同意。</p>
   <p><div style = ""color: pink;font-size:30px;"">请确保您记得day0的实验编号，您将在本次实验输入该编号，若您忘记，请咨询实验员后作答。</div></p>
   <p><div style = ""color:lightblue;font-size:25px;"">请您尽可能认真地作答，我们将依据您在各问卷和按键任务中的作答质量发放报酬。</div></p>
   <p> <div style = ""color: green""><按空格键至下页></div> </p>
   "," ","html-keyboard-response","0","1845","0.0-0.0","6","6","7","5","5","5","2","5","4","5","5","1","1","0","1","0","2","1","2","5","5","5","5","5","5","4","5","5","4","7","7","8","9","6","8","8","6","8","6","3","5","5","6","3","6","2","7","2","1","3","2","6","3","7","6","6","3","5","6","3","3","3","2","2","7","3","6","3","6","6","5","5","2","2","5","3","7","2","6","720327574219128832","赵","445","Male","[""好他"",""好我"",""坏他"",""坏我""]","[""强他"",""强我"",""弱他"",""弱我""]","","","","","","","","","","","","","","","","","","","","","","","","","","","","","","","","","","","","","","",""
"","","","call-function","1","1846","0.0-1.0-0.0","6","6","7","5","5","5","2","5","4","5","5","1","1","0","1","0","2","1","2","5","5","5","5","5","5","4","5","5","4","7","7","8","9","6","8","8","6","8","6","3","5","5","6","3","6","2","7","2","1","3","2","6","3","7","6","6","3","5","6","3","3","3","2","2","7","3","6","3","6","6","5","5","2","2","5","3","7","2","6","720327574219128832","赵","445","Male","[""好他"",""好我"",""坏他"",""坏我""]","[""强他"",""强我"",""弱他"",""弱我""]","","","","","","","","","","","","","","","","","","","","","","","","","","","","","","","","","","","","","","",""
"23662","","[{""name"":""Sex"",""value"":""0""},{""name"":""friend_name"",""value"":""赵""},{""name"":""ParticipantID"",""value"":""445""}]","survey-html-form","2","25509","0.0-1.0-1.0","6","6","7","5","5","5","2","5","4","5","5","1","1","0","1","0","2","1","2","5","5","5","5","5","5","4","5","5","4","7","7","8","9","6","8","8","6","8","6","3","5","5","6","3","6","2","7","2","1","3","2","6","3","7","6","6","3","5","6","3","3","3","2","2","7","3","6","3","6","6","5","5","2","2","5","3","7","2","6","720327574219128832","赵","445","Male","[""好他"",""好我"",""坏他"",""坏我""]","[""强他"",""强我"",""弱他"",""弱我""]","","","","","","","","","","","","","","","","","","","","","","","","","","","","","","","","","","","","","","",""
"","","","preload","3","27064","0.0-2.0","6","6","7","5","5","5","2","5","4","5","5","1","1","0","1","0","2","1","2","5","5","5","5","5","5","4","5","5","4","7","7","8","9","6","8","8","6","8","6","3","5","5","6","3","6","2","7","2","1","3","2","6","3","7","6","6","3","5","6","3","3","3","2","2","7","3","6","3","6","6","5","5","2","2","5","3","7","2","6","720327574219128832","赵","445","Male","[""好他"",""好我"",""坏他"",""坏我""]","[""强他"",""强我"",""弱他"",""弱我""]","","true","false","[]","[]","[]","","","","","","","","","","","","","","","","","","","","","","","","","","","","","","","","",""
"","","","fullscreen","4","34903","0.0-3.0","6","6","7","5","5","5","2","5","4","5","5","1","1","0","1","0","2","1","2","5","5","5","5","5","5","4","5","5","4","7","7","8","9","6","8","8","6","8","6","3","5","5","6","3","6","2","7","2","1","3","2","6","3","7","6","6","3","5","6","3","3","3","2","2","7","3","6","3","6","6","5","5","2","2","5","3","7","2","6","720327574219128832","赵","445","Male","[""好他"",""好我"",""坏他"",""坏我""]","[""强他"",""强我"",""弱他"",""弱我""]","","true","","","","","{}","","","","","","","","","","","","","","","","","","","","","","","","","","","","","","","",""
"12707.899999976158","","{""Q01"":""6"",""Q02"":""6"",""Q03"":""7"",""Q04"":""5"",""Q05"":""5""}","survey-template","5","47615","0.0-4.0","6","6","7","5","5","5","2","5","4","5","5","1","1","0","1","0","2","1","2","5","5","5","5","5","5","4","5","5","4","7","7","8","9","6","8","8","6","8","6","3","5","5","6","3","6","2","7","2","1","3","2","6","3","7","6","6","3","5","6","3","3","3","2","2","7","3","6","3","6","6","5","5","2","2","5","3","7","2","6","720327574219128832","赵","445","Male","[""好他"",""好我"",""坏他"",""坏我""]","[""强他"",""强我"",""弱他"",""弱我""]","","","","","","","","{""Q01"":""6"",""Q02"":""6"",""Q03"":""7"",""Q04"":""5"",""Q05"":""5""}","[0,1,2,3,4]","[""Q01"",""Q02"",""Q03"",""Q04"",""Q05"",""Q02""]","[3201.699999988079,4737.899999976158,5505.5,7737.5,10745.599999964237,11953.399999976158]","[]","[3201.699999988079,4737.899999976158,5505.5,6233.5,7329.899999976158,7737.5,9937.699999988079,10289.799999952316,10745.599999964237,11508.199999988079,11953.399999976158,12705.699999988079]","0.4","0.25","0","","","","","","","","","","","","","","","","","","","","","","",""
"14081.100000023842","","{""Q01"":""5"",""Q02"":""2"",""Q03"":""5"",""Q04"":""4"",""Q05"":""5"",""Q06"":""5""}","survey-template","6","61702","0.0-5.0","6","6","7","5","5","5","2","5","4","5","5","1","1","0","1","0","2","1","2","5","5","5","5","5","5","4","5","5","4","7","7","8","9","6","8","8","6","8","6","3","5","5","6","3","6","2","7","2","1","3","2","6","3","7","6","6","3","5","6","3","3","3","2","2","7","3","6","3","6","6","5","5","2","2","5","3","7","2","6","720327574219128832","赵","445","Male","[""好他"",""好我"",""坏他"",""坏我""]","[""强他"",""强我"",""弱他"",""弱我""]","","","","","","","","{""Q01"":""5"",""Q02"":""2"",""Q03"":""5"",""Q04"":""4"",""Q05"":""5"",""Q06"":""5""}","[0,1,2,3,4,5]","[""Q01"",""Q02"",""Q03"",""Q04"",""Q05"",""Q06"",""Q06""]","[1536.300000011921,3360.800000011921,5199.700000047684,7072,8536.200000047684,11776.200000047684,13463.900000035763]","[]","[1536.300000011921,3360.800000011921,4639.700000047684,5199.700000047684,7072,8536.200000047684,11776.200000047684,13463.900000035763,14079.900000035763]","0.5","0.8","0","","","","","","","","","","","","","","","","","","","","","","",""
"15420","","{""Q01"":""1"",""Q02"":""1"",""Q03"":""0"",""Q04"":""1"",""Q05"":""0"",""Q06"":""2"",""Q07"":""1"",""Q08"":""2""}","survey-template","7","77127","0.0-6.0","6","6","7","5","5","5","2","5","4","5","5","1","1","0","1","0","2","1","2","5","5","5","5","5","5","4","5","5","4","7","7","8","9","6","8","8","6","8","6","3","5","5","6","3","6","2","7","2","1","3","2","6","3","7","6","6","3","5","6","3","3","3","2","2","7","3","6","3","6","6","5","5","2","2","5","3","7","2","6","720327574219128832","赵","445","Male","[""好他"",""好我"",""坏他"",""坏我""]","[""强他"",""强我"",""弱他"",""弱我""]","","","","","","","","{""Q01"":""1"",""Q02"":""1"",""Q03"":""0"",""Q04"":""1"",""Q05"":""0"",""Q06"":""2"",""Q07"":""1"",""Q08"":""2""}","[0,1,2,3,4,5,6,7]","[""Q01"",""Q02"",""Q02"",""Q02"",""Q03"",""Q04"",""Q05"",""Q06"",""Q06"",""Q07"",""Q08""]","[1402,3082.2000000476837,3850.600000023842,4306.5,5002.300000011921,7042.400000035763,8146.600000023842,9650.5,10089.900000035763,13866.100000023842,14713.400000035763]","[]","[1402,3082.2000000476837,3850.600000023842,4306.5,5002.300000011921,7042.400000035763,8146.600000023842,9650.5,10089.900000035763,11138.600000023842,12562.100000023842,13178.200000047684,13578.300000011921,13866.100000023842,14713.400000035763,15418.100000023842]","0.5","0.7142857142857143","0","","","","","","","","","","","","","","","","","","","","","","",""
"10057","
    <p><div style='color:white;font-size:35px; line-height:20px;'>词汇评估任务</div></p><br>
    <p><div style='color:white;font-size:25px; line-height:20px;'>请再次回忆该亲密的朋友，你们至少2年前就认识了，并且最近2年经常见面。</div></p>
    <p><div style='color:white;font-size:25px; line-height:20px;'>在本实验中，您将会看到一些形容词。</div></p>
    <p><div style='color:yellow;font-size:25px; line-height:20px;'>您的任务是判断这些形容词是否符合对您自己或您的朋友的描述。</div></p><p style='font-size:35px'>符合按<span style=""color:lightgreen""> j 键</span>，不符合按<span style=""color:red""> f 键</span></p>","0","html-button-response","8","87189","0.0-7.0-0.0","6","6","7","5","5","5","2","5","4","5","5","1","1","0","1","0","2","1","2","5","5","5","5","5","5","4","5","5","4","7","7","8","9","6","8","8","6","8","6","3","5","5","6","3","6","2","7","2","1","3","2","6","3","7","6","6","3","5","6","3","3","3","2","2","7","3","6","3","6","6","5","5","2","2","5","3","7","2","6","720327574219128832","赵","445","Male","[""好他"",""好我"",""坏他"",""坏我""]","[""强他"",""强我"",""弱他"",""弱我""]","","","","","","","","","","","","","","","","","SRET_EW","EW_instructions","Sun Jan 07 2024 19:12:08 GMT+0800 (中国标准时间)","","","","","","","","","","","","","","","","","","","",""
"1624","","j","psychophysics","9","89820","0.0-7.0-1.0-0.0","6","6","7","5","5","5","2","5","4","5","5","1","1","0","1","0","2","1","2","5","5","5","5","5","5","4","5","5","4","7","7","8","9","6","8","8","6","8","6","3","5","5","6","3","6","2","7","2","1","3","2","6","3","7","6","6","3","5","6","3","3","3","2","2","7","3","6","3","6","6","5","5","2","2","5","3","7","2","6","720327574219128832","赵","445","Male","[""好他"",""好我"",""坏他"",""坏我""]","[""强他"",""强我"",""弱他"",""弱我""]","","","","","","","","yes","","","","","","","","","SRET_EW","EW_practice","","key","j","16.675759493670913","758.3333534223067","422.22223340729164","自己","严谨","Positive","ability","","","","","","","","","","",""
"1510","","f","psychophysics","10","92331","0.0-7.0-1.0-0.1","6","6","7","5","5","5","2","5","4","5","5","1","1","0","1","0","2","1","2","5","5","5","5","5","5","4","5","5","4","7","7","8","9","6","8","8","6","8","6","3","5","5","6","3","6","2","7","2","1","3","2","6","3","7","6","6","3","5","6","3","3","3","2","2","7","3","6","3","6","6","5","5","2","2","5","3","7","2","6","720327574219128832","赵","445","Male","[""好他"",""好我"",""坏他"",""坏我""]","[""强他"",""强我"",""弱他"",""弱我""]","","","","","","","","no","","","","","","","","","SRET_EW","EW_practice","","key","f","16.675691275167786","758.3333534223067","422.22223340729164","朋友","徇私","Negative","morality","","","","","","","","","","",""
"1325","","j","psychophysics","11","94658","0.0-7.0-1.0-0.2","6","6","7","5","5","5","2","5","4","5","5","1","1","0","1","0","2","1","2","5","5","5","5","5","5","4","5","5","4","7","7","8","9","6","8","8","6","8","6","3","5","5","6","3","6","2","7","2","1","3","2","6","3","7","6","6","3","5","6","3","3","3","2","2","7","3","6","3","6","6","5","5","2","2","5","3","7","2","6","720327574219128832","赵","445","Male","[""好他"",""好我"",""坏他"",""坏我""]","[""强他"",""强我"",""弱他"",""弱我""]","","","","","","","","yes","","","","","","","","","SRET_EW","EW_practice","","key","j","16.677158273381295","758.3333534223067","422.22223340729164","朋友","忠实","Positive","morality","","","","","","","","","","",""
"1253","","j","psychophysics","12","96912","0.0-7.0-1.0-0.3","6","6","7","5","5","5","2","5","4","5","5","1","1","0","1","0","2","1","2","5","5","5","5","5","5","4","5","5","4","7","7","8","9","6","8","8","6","8","6","3","5","5","6","3","6","2","7","2","1","3","2","6","3","7","6","6","3","5","6","3","3","3","2","2","7","3","6","3","6","6","5","5","2","2","5","3","7","2","6","720327574219128832","赵","445","Male","[""好他"",""好我"",""坏他"",""坏我""]","[""强他"",""强我"",""弱他"",""弱我""]","","","","","","","","yes","","","","","","","","","SRET_EW","EW_practice","","key","j","16.678119402984983","758.3333534223067","422.22223340729164","自己","刻板","Negative","ability","","","","","","","","","","",""
"11427","
    <p><div style='color:white;font-size:35px; line-height:20px;'>请您再次阅读实验要求</div></p><br>
    <p><div style='color:white;font-size:25px; line-height:20px;'>请回忆某一个亲密的朋友，你们至少2年前就认识了，并且最近2年经常见面。</div></p>
    <p><div style='color:white;font-size:25px; line-height:20px;'>在本实验中，您将会看到一些形容词。</div></p>
    <p><div style='color:yellow;font-size:25px; line-height:20px;'>您的任务是判断这些形容词是否符合对您自己或您的朋友的描述。</div></p>
    <p><div class='footer' style='font-size:25px; line-height:20px;'>如果对本实验还有不清楚之处，请立即向实验员咨询。</p><p style='font-size:25px; line-height:20px;'>如果您明白了规则：</p><p style='font-size:22px; line-height:20px;'>请按 继续 进入正式实验</p>
    </div>
    <p style='font-size:35px'>符合按<span style=""color:lightgreen""> j 键</span>，不符合按<span style=""color:red""> f 键</span></p>","0","html-button-response","13","108340","0.0-7.0-2.0","6","6","7","5","5","5","2","5","4","5","5","1","1","0","1","0","2","1","2","5","5","5","5","5","5","4","5","5","4","7","7","8","9","6","8","8","6","8","6","3","5","5","6","3","6","2","7","2","1","3","2","6","3","7","6","6","3","5","6","3","3","3","2","2","7","3","6","3","6","6","5","5","2","2","5","3","7","2","6","720327574219128832","赵","445","Male","[""好他"",""好我"",""坏他"",""坏我""]","[""强他"",""强我"",""弱他"",""弱我""]","","","","","","","","","","","","","","","","","SRET_EW","prac_instructions","Sun Jan 07 2024 19:12:08 GMT+0800 (中国标准时间)","","","","","","","","","","","","","","","","","","","",""
"878","","j","psychophysics","14","110221","0.0-7.0-3.0-0.0","6","6","7","5","5","5","2","5","4","5","5","1","1","0","1","0","2","1","2","5","5","5","5","5","5","4","5","5","4","7","7","8","9","6","8","8","6","8","6","3","5","5","6","3","6","2","7","2","1","3","2","6","3","7","6","6","3","5","6","3","3","3","2","2","7","3","6","3","6","6","5","5","2","2","5","3","7","2","6","720327574219128832","赵","445","Male","[""好他"",""好我"",""坏他"",""坏我""]","[""强他"",""强我"",""弱他"",""弱我""]","","","","","","","","yes","","","","","","","","","SRET","EW_formal","","key","j","16.823419642857257","758.3333534223067","422.22223340729164","自己","坚贞","Positive","morality","","","","","","","","","","",""
"1511","","j","psychophysics","15","112733","0.0-7.0-3.0-0.1","6","6","7","5","5","5","2","5","4","5","5","1","1","0","1","0","2","1","2","5","5","5","5","5","5","4","5","5","4","7","7","8","9","6","8","8","6","8","6","3","5","5","6","3","6","2","7","2","1","3","2","6","3","7","6","6","3","5","6","3","3","3","2","2","7","3","6","3","6","6","5","5","2","2","5","3","7","2","6","720327574219128832","赵","445","Male","[""好他"",""好我"",""坏他"",""坏我""]","[""强他"",""强我"",""弱他"",""弱我""]","","","","","","","","yes","","","","","","","","","SRET","EW_formal","","key","j","16.674086666666746","758.3333534223067","422.22223340729164","自己","说谎","Negative","morality","","","","","","","","","","",""
"1197","","j","psychophysics","16","114932","0.0-7.0-3.0-0.2","6","6","7","5","5","5","2","5","4","5","5","1","1","0","1","0","2","1","2","5","5","5","5","5","5","4","5","5","4","7","7","8","9","6","8","8","6","8","6","3","5","5","6","3","6","2","7","2","1","3","2","6","3","7","6","6","3","5","6","3","3","3","2","2","7","3","6","3","6","6","5","5","2","2","5","3","7","2","6","720327574219128832","赵","445","Male","[""好他"",""好我"",""坏他"",""坏我""]","[""强他"",""强我"",""弱他"",""弱我""]","","","","","","","","yes","","","","","","","","","SRET","EW_formal","","key","j","16.67648091603058","758.3333534223067","422.22223340729164","朋友","务实","Positive","ability","","","","","","","","","","",""
"1406","","f","psychophysics","17","117341","0.0-7.0-3.0-0.3","6","6","7","5","5","5","2","5","4","5","5","1","1","0","1","0","2","1","2","5","5","5","5","5","5","4","5","5","4","7","7","8","9","6","8","8","6","8","6","3","5","5","6","3","6","2","7","2","1","3","2","6","3","7","6","6","3","5","6","3","3","3","2","2","7","3","6","3","6","6","5","5","2","2","5","3","7","2","6","720327574219128832","赵","445","Male","[""好他"",""好我"",""坏他"",""坏我""]","[""强他"",""强我"",""弱他"",""弱我""]","","","","","","","","no","","","","","","","","","SRET","EW_formal","","key","f","16.677174825174795","758.3333534223067","422.22223340729164","朋友","迷糊","Negative","ability","","","","","","","","","","",""
"1881","","j","psychophysics","18","120223","0.0-7.0-3.0-0.4","6","6","7","5","5","5","2","5","4","5","5","1","1","0","1","0","2","1","2","5","5","5","5","5","5","4","5","5","4","7","7","8","9","6","8","8","6","8","6","3","5","5","6","3","6","2","7","2","1","3","2","6","3","7","6","6","3","5","6","3","3","3","2","2","7","3","6","3","6","6","5","5","2","2","5","3","7","2","6","720327574219128832","赵","445","Male","[""好他"",""好我"",""坏他"",""坏我""]","[""强他"",""强我"",""弱他"",""弱我""]","","","","","","","","yes","","","","","","","","","SRET","EW_formal","","key","j","16.676529069767426","758.3333534223067","422.22223340729164","朋友","聪明","Positive","ability","","","","","","","","","","",""
"1119","","j","psychophysics","19","122344","0.0-7.0-3.0-0.5","6","6","7","5","5","5","2","5","4","5","5","1","1","0","1","0","2","1","2","5","5","5","5","5","5","4","5","5","4","7","7","8","9","6","8","8","6","8","6","3","5","5","6","3","6","2","7","2","1","3","2","6","3","7","6","6","3","5","6","3","3","3","2","2","7","3","6","3","6","6","5","5","2","2","5","3","7","2","6","720327574219128832","赵","445","Male","[""好他"",""好我"",""坏他"",""坏我""]","[""强他"",""强我"",""弱他"",""弱我""]","","","","","","","","yes","","","","","","","","","SRET","EW_formal","","key","j","16.676761904761882","758.3333534223067","422.22223340729164","朋友","偏私","Negative","morality","","","","","","","","","","",""
"1547","","f","psychophysics","20","124894","0.0-7.0-3.0-0.6","6","6","7","5","5","5","2","5","4","5","5","1","1","0","1","0","2","1","2","5","5","5","5","5","5","4","5","5","4","7","7","8","9","6","8","8","6","8","6","3","5","5","6","3","6","2","7","2","1","3","2","6","3","7","6","6","3","5","6","3","3","3","2","2","7","3","6","3","6","6","5","5","2","2","5","3","7","2","6","720327574219128832","赵","445","Male","[""好他"",""好我"",""坏他"",""坏我""]","[""强他"",""强我"",""弱他"",""弱我""]","","","","","","","","no","","","","","","","","","SRET","EW_formal","","key","f","16.671934210526256","758.3333534223067","422.22223340729164","自己","谦逊","Positive","morality","","","","","","","","","","",""
"1478","","j","psychophysics","21","127374","0.0-7.0-3.0-0.7","6","6","7","5","5","5","2","5","4","5","5","1","1","0","1","0","2","1","2","5","5","5","5","5","5","4","5","5","4","7","7","8","9","6","8","8","6","8","6","3","5","5","6","3","6","2","7","2","1","3","2","6","3","7","6","6","3","5","6","3","3","3","2","2","7","3","6","3","6","6","5","5","2","2","5","3","7","2","6","720327574219128832","赵","445","Male","[""好他"",""好我"",""坏他"",""坏我""]","[""强他"",""强我"",""弱他"",""弱我""]","","","","","","","","yes","","","","","","","","","SRET","EW_formal","","key","j","16.674236486486464","758.3333534223067","422.22223340729164","朋友","腐败","Negative","morality","","","","","","","","","","",""
"1080","","f","psychophysics","22","129455","0.0-7.0-3.0-0.8","6","6","7","5","5","5","2","5","4","5","5","1","1","0","1","0","2","1","2","5","5","5","5","5","5","4","5","5","4","7","7","8","9","6","8","8","6","8","6","3","5","5","6","3","6","2","7","2","1","3","2","6","3","7","6","6","3","5","6","3","3","3","2","2","7","3","6","3","6","6","5","5","2","2","5","3","7","2","6","720327574219128832","赵","445","Male","[""好他"",""好我"",""坏他"",""坏我""]","[""强他"",""强我"",""弱他"",""弱我""]","","","","","","","","no","","","","","","","","","SRET","EW_formal","","key","f","16.67560483870975","758.3333534223067","422.22223340729164","朋友","废物","Negative","ability","","","","","","","","","","",""
"952","","j","psychophysics","23","131409","0.0-7.0-3.0-0.9","6","6","7","5","5","5","2","5","4","5","5","1","1","0","1","0","2","1","2","5","5","5","5","5","5","4","5","5","4","7","7","8","9","6","8","8","6","8","6","3","5","5","6","3","6","2","7","2","1","3","2","6","3","7","6","6","3","5","6","3","3","3","2","2","7","3","6","3","6","6","5","5","2","2","5","3","7","2","6","720327574219128832","赵","445","Male","[""好他"",""好我"",""坏他"",""坏我""]","[""强他"",""强我"",""弱他"",""弱我""]","","","","","","","","yes","","","","","","","","","SRET","EW_formal","","key","j","16.67494827586202","758.3333534223067","422.22223340729164","朋友","清廉","Positive","morality","","","","","","","","","","",""
"779","","j","psychophysics","24","133189","0.0-7.0-3.0-0.10","6","6","7","5","5","5","2","5","4","5","5","1","1","0","1","0","2","1","2","5","5","5","5","5","5","4","5","5","4","7","7","8","9","6","8","8","6","8","6","3","5","5","6","3","6","2","7","2","1","3","2","6","3","7","6","6","3","5","6","3","3","3","2","2","7","3","6","3","6","6","5","5","2","2","5","3","7","2","6","720327574219128832","赵","445","Male","[""好他"",""好我"",""坏他"",""坏我""]","[""强他"",""强我"",""弱他"",""弱我""]","","","","","","","","yes","","","","","","","","","SRET","EW_formal","","key","j","16.67424528301888","758.3333534223067","422.22223340729164","朋友","上进","Positive","ability","","","","","","","","","","",""
"1324","","f","psychophysics","25","135514","0.0-7.0-3.0-0.11","6","6","7","5","5","5","2","5","4","5","5","1","1","0","1","0","2","1","2","5","5","5","5","5","5","4","5","5","4","7","7","8","9","6","8","8","6","8","6","3","5","5","6","3","6","2","7","2","1","3","2","6","3","7","6","6","3","5","6","3","3","3","2","2","7","3","6","3","6","6","5","5","2","2","5","3","7","2","6","720327574219128832","赵","445","Male","[""好他"",""好我"",""坏他"",""坏我""]","[""强他"",""强我"",""弱他"",""弱我""]","","","","","","","","no","","","","","","","","","SRET","EW_formal","","key","f","16.677449275362406","758.3333534223067","422.22223340729164","朋友","蛇蝎","Negative","morality","","","","","","","","","","",""
"932","","j","psychophysics","26","137447","0.0-7.0-3.0-0.12","6","6","7","5","5","5","2","5","4","5","5","1","1","0","1","0","2","1","2","5","5","5","5","5","5","4","5","5","4","7","7","8","9","6","8","8","6","8","6","3","5","5","6","3","6","2","7","2","1","3","2","6","3","7","6","6","3","5","6","3","3","3","2","2","7","3","6","3","6","6","5","5","2","2","5","3","7","2","6","720327574219128832","赵","445","Male","[""好他"",""好我"",""坏他"",""坏我""]","[""强他"",""强我"",""弱他"",""弱我""]","","","","","","","","yes","","","","","","","","","SRET","EW_formal","","key","j","16.677191304347893","758.3333534223067","422.22223340729164","朋友","慷慨","Positive","morality","","","","","","","","","","",""
"1318","","j","psychophysics","27","139767","0.0-7.0-3.0-0.13","6","6","7","5","5","5","2","5","4","5","5","1","1","0","1","0","2","1","2","5","5","5","5","5","5","4","5","5","4","7","7","8","9","6","8","8","6","8","6","3","5","5","6","3","6","2","7","2","1","3","2","6","3","7","6","6","3","5","6","3","3","3","2","2","7","3","6","3","6","6","5","5","2","2","5","3","7","2","6","720327574219128832","赵","445","Male","[""好他"",""好我"",""坏他"",""坏我""]","[""强他"",""强我"",""弱他"",""弱我""]","","","","","","","","yes","","","","","","","","","SRET","EW_formal","","key","j","16.676065217391454","758.3333534223067","422.22223340729164","自己","虚伪","Negative","morality","","","","","","","","","","",""
"1446","","j","psychophysics","28","142215","0.0-7.0-3.0-0.14","6","6","7","5","5","5","2","5","4","5","5","1","1","0","1","0","2","1","2","5","5","5","5","5","5","4","5","5","4","7","7","8","9","6","8","8","6","8","6","3","5","5","6","3","6","2","7","2","1","3","2","6","3","7","6","6","3","5","6","3","3","3","2","2","7","3","6","3","6","6","5","5","2","2","5","3","7","2","6","720327574219128832","赵","445","Male","[""好他"",""好我"",""坏他"",""坏我""]","[""强他"",""强我"",""弱他"",""弱我""]","","","","","","","","yes","","","","","","","","","SRET","EW_formal","","key","j","16.67306849315056","758.3333534223067","422.22223340729164","朋友","独断","Negative","ability","","","","","","","","","","",""
"954","","j","psychophysics","29","144174","0.0-7.0-3.0-0.15","6","6","7","5","5","5","2","5","4","5","5","1","1","0","1","0","2","1","2","5","5","5","5","5","5","4","5","5","4","7","7","8","9","6","8","8","6","8","6","3","5","5","6","3","6","2","7","2","1","3","2","6","3","7","6","6","3","5","6","3","3","3","2","2","7","3","6","3","6","6","5","5","2","2","5","3","7","2","6","720327574219128832","赵","445","Male","[""好他"",""好我"",""坏他"",""坏我""]","[""强他"",""强我"",""弱他"",""弱我""]","","","","","","","","yes","","","","","","","","","SRET","EW_formal","","key","j","16.674198275862274","758.3333534223067","422.22223340729164","自己","毅力","Positive","ability","","","","","","","","","","",""
"null","","null","psychophysics","30","147178","0.0-7.0-3.0-0.16","6","6","7","5","5","5","2","5","4","5","5","1","1","0","1","0","2","1","2","5","5","5","5","5","5","4","5","5","4","7","7","8","9","6","8","8","6","8","6","3","5","5","6","3","6","2","7","2","1","3","2","6","3","7","6","6","3","5","6","3","3","3","2","2","7","3","6","3","6","6","5","5","2","2","5","3","7","2","6","720327574219128832","赵","445","Male","[""好他"",""好我"",""坏他"",""坏我""]","[""强他"",""强我"",""弱他"",""弱我""]","","","","","","","","","","","","","","","","","SRET","EW_formal","","key","null","16.67538888888893","758.3333534223067","422.22223340729164","自己","缺德","Negative","morality","","","","","","","","","","",""
"816","","j","psychophysics","31","148996","0.0-7.0-3.0-0.17","6","6","7","5","5","5","2","5","4","5","5","1","1","0","1","0","2","1","2","5","5","5","5","5","5","4","5","5","4","7","7","8","9","6","8","8","6","8","6","3","5","5","6","3","6","2","7","2","1","3","2","6","3","7","6","6","3","5","6","3","3","3","2","2","7","3","6","3","6","6","5","5","2","2","5","3","7","2","6","720327574219128832","赵","445","Male","[""好他"",""好我"",""坏他"",""坏我""]","[""强他"",""强我"",""弱他"",""弱我""]","","","","","","","","yes","","","","","","","","","SRET","EW_formal","","key","j","16.671166666666437","758.3333534223067","422.22223340729164","朋友","刚正","Positive","morality","","","","","","","","","","",""
"828","","j","psychophysics","32","150825","0.0-7.0-3.0-0.18","6","6","7","5","5","5","2","5","4","5","5","1","1","0","1","0","2","1","2","5","5","5","5","5","5","4","5","5","4","7","7","8","9","6","8","8","6","8","6","3","5","5","6","3","6","2","7","2","1","3","2","6","3","7","6","6","3","5","6","3","3","3","2","2","7","3","6","3","6","6","5","5","2","2","5","3","7","2","6","720327574219128832","赵","445","Male","[""好他"",""好我"",""坏他"",""坏我""]","[""强他"",""强我"",""弱他"",""弱我""]","","","","","","","","yes","","","","","","","","","SRET","EW_formal","","key","j","16.67935185185208","758.3333534223067","422.22223340729164","自己","忠勇","Positive","morality","","","","","","","","","","",""
"800","","j","psychophysics","33","152626","0.0-7.0-3.0-0.19","6","6","7","5","5","5","2","5","4","5","5","1","1","0","1","0","2","1","2","5","5","5","5","5","5","4","5","5","4","7","7","8","9","6","8","8","6","8","6","3","5","5","6","3","6","2","7","2","1","3","2","6","3","7","6","6","3","5","6","3","3","3","2","2","7","3","6","3","6","6","5","5","2","2","5","3","7","2","6","720327574219128832","赵","445","Male","[""好他"",""好我"",""坏他"",""坏我""]","[""强他"",""强我"",""弱他"",""弱我""]","","","","","","","","yes","","","","","","","","","SRET","EW_formal","","key","j","16.67415887850476","758.3333534223067","422.22223340729164","自己","独立","Positive","ability","","","","","","","","","","",""
"1231","","j","psychophysics","34","154859","0.0-7.0-3.0-0.20","6","6","7","5","5","5","2","5","4","5","5","1","1","0","1","0","2","1","2","5","5","5","5","5","5","4","5","5","4","7","7","8","9","6","8","8","6","8","6","3","5","5","6","3","6","2","7","2","1","3","2","6","3","7","6","6","3","5","6","3","3","3","2","2","7","3","6","3","6","6","5","5","2","2","5","3","7","2","6","720327574219128832","赵","445","Male","[""好他"",""好我"",""坏他"",""坏我""]","[""强他"",""强我"",""弱他"",""弱我""]","","","","","","","","yes","","","","","","","","","SRET","EW_formal","","key","j","16.67394736842112","758.3333534223067","422.22223340729164","朋友","智慧","Positive","ability","","","","","","","","","","",""
"1564","","f","psychophysics","35","157426","0.0-7.0-3.0-0.21","6","6","7","5","5","5","2","5","4","5","5","1","1","0","1","0","2","1","2","5","5","5","5","5","5","4","5","5","4","7","7","8","9","6","8","8","6","8","6","3","5","5","6","3","6","2","7","2","1","3","2","6","3","7","6","6","3","5","6","3","3","3","2","2","7","3","6","3","6","6","5","5","2","2","5","3","7","2","6","720327574219128832","赵","445","Male","[""好他"",""好我"",""坏他"",""坏我""]","[""强他"",""强我"",""弱他"",""弱我""]","","","","","","","","no","","","","","","","","","SRET","EW_formal","","key","f","16.677326797385582","758.3333534223067","422.22223340729164","自己","窝囊","Negative","ability","","","","","","","","","","",""
"966","","j","psychophysics","36","159394","0.0-7.0-3.0-0.22","6","6","7","5","5","5","2","5","4","5","5","1","1","0","1","0","2","1","2","5","5","5","5","5","5","4","5","5","4","7","7","8","9","6","8","8","6","8","6","3","5","5","6","3","6","2","7","2","1","3","2","6","3","7","6","6","3","5","6","3","3","3","2","2","7","3","6","3","6","6","5","5","2","2","5","3","7","2","6","720327574219128832","赵","445","Male","[""好他"",""好我"",""坏他"",""坏我""]","[""强他"",""强我"",""弱他"",""弱我""]","","","","","","","","yes","","","","","","","","","SRET","EW_formal","","key","j","16.676085470085336","758.3333534223067","422.22223340729164","自己","奉献","Positive","morality","","","","","","","","","","",""
"1248","","f","psychophysics","37","161643","0.0-7.0-3.0-0.23","6","6","7","5","5","5","2","5","4","5","5","1","1","0","1","0","2","1","2","5","5","5","5","5","5","4","5","5","4","7","7","8","9","6","8","8","6","8","6","3","5","5","6","3","6","2","7","2","1","3","2","6","3","7","6","6","3","5","6","3","3","3","2","2","7","3","6","3","6","6","5","5","2","2","5","3","7","2","6","720327574219128832","赵","445","Male","[""好他"",""好我"",""坏他"",""坏我""]","[""强他"",""强我"",""弱他"",""弱我""]","","","","","","","","no","","","","","","","","","SRET","EW_formal","","key","f","16.67755223880609","758.3333534223067","422.22223340729164","朋友","昏庸","Negative","ability","","","","","","","","","","",""
"776","","j","psychophysics","38","163420","0.0-7.0-3.0-0.24","6","6","7","5","5","5","2","5","4","5","5","1","1","0","1","0","2","1","2","5","5","5","5","5","5","4","5","5","4","7","7","8","9","6","8","8","6","8","6","3","5","5","6","3","6","2","7","2","1","3","2","6","3","7","6","6","3","5","6","3","3","3","2","2","7","3","6","3","6","6","5","5","2","2","5","3","7","2","6","720327574219128832","赵","445","Male","[""好他"",""好我"",""坏他"",""坏我""]","[""强他"",""强我"",""弱他"",""弱我""]","","","","","","","","yes","","","","","","","","","SRET","EW_formal","","key","j","16.6744056603773","758.3333534223067","422.22223340729164","自己","能干","Positive","ability","","","","","","","","","","",""
"1214","","j","psychophysics","39","165636","0.0-7.0-3.0-0.25","6","6","7","5","5","5","2","5","4","5","5","1","1","0","1","0","2","1","2","5","5","5","5","5","5","4","5","5","4","7","7","8","9","6","8","8","6","8","6","3","5","5","6","3","6","2","7","2","1","3","2","6","3","7","6","6","3","5","6","3","3","3","2","2","7","3","6","3","6","6","5","5","2","2","5","3","7","2","6","720327574219128832","赵","445","Male","[""好他"",""好我"",""坏他"",""坏我""]","[""强他"",""强我"",""弱他"",""弱我""]","","","","","","","","yes","","","","","","","","","SRET","EW_formal","","key","j","16.677439393939327","758.3333534223067","422.22223340729164","自己","差生","Negative","ability","","","","","","","","","","",""
"877","","j","psychophysics","40","167514","0.0-7.0-3.0-0.26","6","6","7","5","5","5","2","5","4","5","5","1","1","0","1","0","2","1","2","5","5","5","5","5","5","4","5","5","4","7","7","8","9","6","8","8","6","8","6","3","5","5","6","3","6","2","7","2","1","3","2","6","3","7","6","6","3","5","6","3","3","3","2","2","7","3","6","3","6","6","5","5","2","2","5","3","7","2","6","720327574219128832","赵","445","Male","[""好他"",""好我"",""坏他"",""坏我""]","[""强他"",""强我"",""弱他"",""弱我""]","","","","","","","","yes","","","","","","","","","SRET","EW_formal","","key","j","16.67415315315294","758.3333534223067","422.22223340729164","自己","犹豫","Negative","ability","","","","","","","","","","",""
"936","","j","psychophysics","41","169453","0.0-7.0-3.0-0.27","6","6","7","5","5","5","2","5","4","5","5","1","1","0","1","0","2","1","2","5","5","5","5","5","5","4","5","5","4","7","7","8","9","6","8","8","6","8","6","3","5","5","6","3","6","2","7","2","1","3","2","6","3","7","6","6","3","5","6","3","3","3","2","2","7","3","6","3","6","6","5","5","2","2","5","3","7","2","6","720327574219128832","赵","445","Male","[""好他"",""好我"",""坏他"",""坏我""]","[""强他"",""强我"",""弱他"",""弱我""]","","","","","","","","yes","","","","","","","","","SRET","EW_formal","","key","j","16.67239655172407","758.3333534223067","422.22223340729164","自己","君子","Positive","morality","","","","","","","","","","",""
"1917","","f","psychophysics","42","172372","0.0-7.0-3.0-0.28","6","6","7","5","5","5","2","5","4","5","5","1","1","0","1","0","2","1","2","5","5","5","5","5","5","4","5","5","4","7","7","8","9","6","8","8","6","8","6","3","5","5","6","3","6","2","7","2","1","3","2","6","3","7","6","6","3","5","6","3","3","3","2","2","7","3","6","3","6","6","5","5","2","2","5","3","7","2","6","720327574219128832","赵","445","Male","[""好他"",""好我"",""坏他"",""坏我""]","[""强他"",""强我"",""弱他"",""弱我""]","","","","","","","","no","","","","","","","","","SRET","EW_formal","","key","f","16.671264367816025","758.3333534223067","422.22223340729164","朋友","无敌","Positive","ability","","","","","","","","","","",""
"1068","","j","psychophysics","43","174450","0.0-7.0-3.0-0.29","6","6","7","5","5","5","2","5","4","5","5","1","1","0","1","0","2","1","2","5","5","5","5","5","5","4","5","5","4","7","7","8","9","6","8","8","6","8","6","3","5","5","6","3","6","2","7","2","1","3","2","6","3","7","6","6","3","5","6","3","3","3","2","2","7","3","6","3","6","6","5","5","2","2","5","3","7","2","6","720327574219128832","赵","445","Male","[""好他"",""好我"",""坏他"",""坏我""]","[""强他"",""强我"",""弱他"",""弱我""]","","","","","","","","yes","","","","","","","","","SRET","EW_formal","","key","j","16.675243902438968","758.3333534223067","422.22223340729164","朋友","敏捷","Positive","ability","","","","","","","","","","",""
"1213","","j","psychophysics","44","176665","0.0-7.0-3.0-0.30","6","6","7","5","5","5","2","5","4","5","5","1","1","0","1","0","2","1","2","5","5","5","5","5","5","4","5","5","4","7","7","8","9","6","8","8","6","8","6","3","5","5","6","3","6","2","7","2","1","3","2","6","3","7","6","6","3","5","6","3","3","3","2","2","7","3","6","3","6","6","5","5","2","2","5","3","7","2","6","720327574219128832","赵","445","Male","[""好他"",""好我"",""坏他"",""坏我""]","[""强他"",""强我"",""弱他"",""弱我""]","","","","","","","","yes","","","","","","","","","SRET","EW_formal","","key","j","16.676045454545545","758.3333534223067","422.22223340729164","朋友","逞强","Negative","ability","","","","","","","","","","",""
"898","","j","psychophysics","45","178564","0.0-7.0-3.0-0.31","6","6","7","5","5","5","2","5","4","5","5","1","1","0","1","0","2","1","2","5","5","5","5","5","5","4","5","5","4","7","7","8","9","6","8","8","6","8","6","3","5","5","6","3","6","2","7","2","1","3","2","6","3","7","6","6","3","5","6","3","3","3","2","2","7","3","6","3","6","6","5","5","2","2","5","3","7","2","6","720327574219128832","赵","445","Male","[""好他"",""好我"",""坏他"",""坏我""]","[""强他"",""强我"",""弱他"",""弱我""]","","","","","","","","yes","","","","","","","","","SRET","EW_formal","","key","j","16.674716814159183","758.3333534223067","422.22223340729164","自己","自律","Positive","ability","","","","","","","","","","",""
"814","","j","psychophysics","46","180379","0.0-7.0-3.0-0.32","6","6","7","5","5","5","2","5","4","5","5","1","1","0","1","0","2","1","2","5","5","5","5","5","5","4","5","5","4","7","7","8","9","6","8","8","6","8","6","3","5","5","6","3","6","2","7","2","1","3","2","6","3","7","6","6","3","5","6","3","3","3","2","2","7","3","6","3","6","6","5","5","2","2","5","3","7","2","6","720327574219128832","赵","445","Male","[""好他"",""好我"",""坏他"",""坏我""]","[""强他"",""强我"",""弱他"",""弱我""]","","","","","","","","yes","","","","","","","","","SRET","EW_formal","","key","j","16.678601851852026","758.3333534223067","422.22223340729164","自己","远见","Positive","ability","","","","","","","","","","",""
"1807","","f","psychophysics","47","183187","0.0-7.0-3.0-0.33","6","6","7","5","5","5","2","5","4","5","5","1","1","0","1","0","2","1","2","5","5","5","5","5","5","4","5","5","4","7","7","8","9","6","8","8","6","8","6","3","5","5","6","3","6","2","7","2","1","3","2","6","3","7","6","6","3","5","6","3","3","3","2","2","7","3","6","3","6","6","5","5","2","2","5","3","7","2","6","720327574219128832","赵","445","Male","[""好他"",""好我"",""坏他"",""坏我""]","[""强他"",""强我"",""弱他"",""弱我""]","","","","","","","","no","","","","","","","","","SRET","EW_formal","","key","f","16.674730538922113","758.3333534223067","422.22223340729164","朋友","不端","Negative","morality","","","","","","","","","","",""
"1222","","j","psychophysics","48","185411","0.0-7.0-3.0-0.34","6","6","7","5","5","5","2","5","4","5","5","1","1","0","1","0","2","1","2","5","5","5","5","5","5","4","5","5","4","7","7","8","9","6","8","8","6","8","6","3","5","5","6","3","6","2","7","2","1","3","2","6","3","7","6","6","3","5","6","3","3","3","2","2","7","3","6","3","6","6","5","5","2","2","5","3","7","2","6","720327574219128832","赵","445","Male","[""好他"",""好我"",""坏他"",""坏我""]","[""强他"",""强我"",""弱他"",""弱我""]","","","","","","","","yes","","","","","","","","","SRET","EW_formal","","key","j","16.676977443609026","758.3333534223067","422.22223340729164","朋友","拜金","Negative","morality","","","","","","","","","","",""
"1368","","j","psychophysics","49","187782","0.0-7.0-3.0-0.35","6","6","7","5","5","5","2","5","4","5","5","1","1","0","1","0","2","1","2","5","5","5","5","5","5","4","5","5","4","7","7","8","9","6","8","8","6","8","6","3","5","5","6","3","6","2","7","2","1","3","2","6","3","7","6","6","3","5","6","3","3","3","2","2","7","3","6","3","6","6","5","5","2","2","5","3","7","2","6","720327574219128832","赵","445","Male","[""好他"",""好我"",""坏他"",""坏我""]","[""强他"",""强我"",""弱他"",""弱我""]","","","","","","","","yes","","","","","","","","","SRET","EW_formal","","key","j","16.674141843971658","758.3333534223067","422.22223340729164","自己","贪污","Negative","morality","","","","","","","","","","",""
"854","","j","psychophysics","50","189637","0.0-7.0-3.0-0.36","6","6","7","5","5","5","2","5","4","5","5","1","1","0","1","0","2","1","2","5","5","5","5","5","5","4","5","5","4","7","7","8","9","6","8","8","6","8","6","3","5","5","6","3","6","2","7","2","1","3","2","6","3","7","6","6","3","5","6","3","3","3","2","2","7","3","6","3","6","6","5","5","2","2","5","3","7","2","6","720327574219128832","赵","445","Male","[""好他"",""好我"",""坏他"",""坏我""]","[""强他"",""强我"",""弱他"",""弱我""]","","","","","","","","yes","","","","","","","","","SRET","EW_formal","","key","j","16.677518181818197","758.3333534223067","422.22223340729164","朋友","拖延","Negative","ability","","","","","","","","","","",""
"1004","","j","psychophysics","51","191642","0.0-7.0-3.0-0.37","6","6","7","5","5","5","2","5","4","5","5","1","1","0","1","0","2","1","2","5","5","5","5","5","5","4","5","5","4","7","7","8","9","6","8","8","6","8","6","3","5","5","6","3","6","2","7","2","1","3","2","6","3","7","6","6","3","5","6","3","3","3","2","2","7","3","6","3","6","6","5","5","2","2","5","3","7","2","6","720327574219128832","赵","445","Male","[""好他"",""好我"",""坏他"",""坏我""]","[""强他"",""强我"",""弱他"",""弱我""]","","","","","","","","yes","","","","","","","","","SRET","EW_formal","","key","j","16.677638655462147","758.3333534223067","422.22223340729164","朋友","善良","Positive","morality","","","","","","","","","","",""
"970","","j","psychophysics","52","193615","0.0-7.0-3.0-0.38","6","6","7","5","5","5","2","5","4","5","5","1","1","0","1","0","2","1","2","5","5","5","5","5","5","4","5","5","4","7","7","8","9","6","8","8","6","8","6","3","5","5","6","3","6","2","7","2","1","3","2","6","3","7","6","6","3","5","6","3","3","3","2","2","7","3","6","3","6","6","5","5","2","2","5","3","7","2","6","720327574219128832","赵","445","Male","[""好他"",""好我"",""坏他"",""坏我""]","[""强他"",""强我"",""弱他"",""弱我""]","","","","","","","","yes","","","","","","","","","SRET","EW_formal","","key","j","16.674542372881277","758.3333534223067","422.22223340729164","自己","果断","Positive","ability","","","","","","","","","","",""
"917","","f","psychophysics","53","195533","0.0-7.0-3.0-0.39","6","6","7","5","5","5","2","5","4","5","5","1","1","0","1","0","2","1","2","5","5","5","5","5","5","4","5","5","4","7","7","8","9","6","8","8","6","8","6","3","5","5","6","3","6","2","7","2","1","3","2","6","3","7","6","6","3","5","6","3","3","3","2","2","7","3","6","3","6","6","5","5","2","2","5","3","7","2","6","720327574219128832","赵","445","Male","[""好他"",""好我"",""坏他"",""坏我""]","[""强他"",""强我"",""弱他"",""弱我""]","","","","","","","","no","","","","","","","","","SRET","EW_formal","","key","f","16.675675438596507","758.3333534223067","422.22223340729164","自己","诡诈","Negative","morality","","","","","","","","","","",""
"937","","j","psychophysics","54","197472","0.0-7.0-3.0-0.40","6","6","7","5","5","5","2","5","4","5","5","1","1","0","1","0","2","1","2","5","5","5","5","5","5","4","5","5","4","7","7","8","9","6","8","8","6","8","6","3","5","5","6","3","6","2","7","2","1","3","2","6","3","7","6","6","3","5","6","3","3","3","2","2","7","3","6","3","6","6","5","5","2","2","5","3","7","2","6","720327574219128832","赵","445","Male","[""好他"",""好我"",""坏他"",""坏我""]","[""强他"",""强我"",""弱他"",""弱我""]","","","","","","","","yes","","","","","","","","","SRET","EW_formal","","key","j","16.67423478260854","758.3333534223067","422.22223340729164","朋友","善心","Positive","morality","","","","","","","","","","",""
"1077","","j","psychophysics","55","199551","0.0-7.0-3.0-0.41","6","6","7","5","5","5","2","5","4","5","5","1","1","0","1","0","2","1","2","5","5","5","5","5","5","4","5","5","4","7","7","8","9","6","8","8","6","8","6","3","5","5","6","3","6","2","7","2","1","3","2","6","3","7","6","6","3","5","6","3","3","3","2","2","7","3","6","3","6","6","5","5","2","2","5","3","7","2","6","720327574219128832","赵","445","Male","[""好他"",""好我"",""坏他"",""坏我""]","[""强他"",""强我"",""弱他"",""弱我""]","","","","","","","","yes","","","","","","","","","SRET","EW_formal","","key","j","16.679395161290284","758.3333534223067","422.22223340729164","朋友","仁厚","Positive","morality","","","","","","","","","","",""
"1322","","j","psychophysics","56","201874","0.0-7.0-3.0-0.42","6","6","7","5","5","5","2","5","4","5","5","1","1","0","1","0","2","1","2","5","5","5","5","5","5","4","5","5","4","7","7","8","9","6","8","8","6","8","6","3","5","5","6","3","6","2","7","2","1","3","2","6","3","7","6","6","3","5","6","3","3","3","2","2","7","3","6","3","6","6","5","5","2","2","5","3","7","2","6","720327574219128832","赵","445","Male","[""好他"",""好我"",""坏他"",""坏我""]","[""强他"",""强我"",""弱他"",""弱我""]","","","","","","","","yes","","","","","","","","","SRET","EW_formal","","key","j","16.67473188405806","758.3333534223067","422.22223340729164","自己","罪恶","Negative","morality","","","","","","","","","","",""
"835","","j","psychophysics","57","203710","0.0-7.0-3.0-0.43","6","6","7","5","5","5","2","5","4","5","5","1","1","0","1","0","2","1","2","5","5","5","5","5","5","4","5","5","4","7","7","8","9","6","8","8","6","8","6","3","5","5","6","3","6","2","7","2","1","3","2","6","3","7","6","6","3","5","6","3","3","3","2","2","7","3","6","3","6","6","5","5","2","2","5","3","7","2","6","720327574219128832","赵","445","Male","[""好他"",""好我"",""坏他"",""坏我""]","[""强他"",""强我"",""弱他"",""弱我""]","","","","","","","","yes","","","","","","","","","SRET","EW_formal","","key","j","16.676119266054915","758.3333534223067","422.22223340729164","自己","忠义","Positive","morality","","","","","","","","","","",""
"1055","","f","psychophysics","58","205768","0.0-7.0-3.0-0.44","6","6","7","5","5","5","2","5","4","5","5","1","1","0","1","0","2","1","2","5","5","5","5","5","5","4","5","5","4","7","7","8","9","6","8","8","6","8","6","3","5","5","6","3","6","2","7","2","1","3","2","6","3","7","6","6","3","5","6","3","3","3","2","2","7","3","6","3","6","6","5","5","2","2","5","3","7","2","6","720327574219128832","赵","445","Male","[""好他"",""好我"",""坏他"",""坏我""]","[""强他"",""强我"",""弱他"",""弱我""]","","","","","","","","no","","","","","","","","","SRET","EW_formal","","key","f","16.671163934426332","758.3333534223067","422.22223340729164","自己","奸诈","Negative","morality","","","","","","","","","","",""
"891","","j","psychophysics","59","207663","0.0-7.0-3.0-0.45","6","6","7","5","5","5","2","5","4","5","5","1","1","0","1","0","2","1","2","5","5","5","5","5","5","4","5","5","4","7","7","8","9","6","8","8","6","8","6","3","5","5","6","3","6","2","7","2","1","3","2","6","3","7","6","6","3","5","6","3","3","3","2","2","7","3","6","3","6","6","5","5","2","2","5","3","7","2","6","720327574219128832","赵","445","Male","[""好他"",""好我"",""坏他"",""坏我""]","[""强他"",""强我"",""弱他"",""弱我""]","","","","","","","","yes","","","","","","","","","SRET","EW_formal","","key","j","16.67698230088479","758.3333534223067","422.22223340729164","朋友","勤恳","Positive","morality","","","","","","","","","","",""
"1029","","j","psychophysics","60","209694","0.0-7.0-3.0-0.46","6","6","7","5","5","5","2","5","4","5","5","1","1","0","1","0","2","1","2","5","5","5","5","5","5","4","5","5","4","7","7","8","9","6","8","8","6","8","6","3","5","5","6","3","6","2","7","2","1","3","2","6","3","7","6","6","3","5","6","3","3","3","2","2","7","3","6","3","6","6","5","5","2","2","5","3","7","2","6","720327574219128832","赵","445","Male","[""好他"",""好我"",""坏他"",""坏我""]","[""强他"",""强我"",""弱他"",""弱我""]","","","","","","","","yes","","","","","","","","","SRET","EW_formal","","key","j","16.67692561983492","758.3333534223067","422.22223340729164","自己","恶劣","Negative","morality","","","","","","","","","","",""
"1687","","f","psychophysics","61","212383","0.0-7.0-3.0-0.47","6","6","7","5","5","5","2","5","4","5","5","1","1","0","1","0","2","1","2","5","5","5","5","5","5","4","5","5","4","7","7","8","9","6","8","8","6","8","6","3","5","5","6","3","6","2","7","2","1","3","2","6","3","7","6","6","3","5","6","3","3","3","2","2","7","3","6","3","6","6","5","5","2","2","5","3","7","2","6","720327574219128832","赵","445","Male","[""好他"",""好我"",""坏他"",""坏我""]","[""强他"",""强我"",""弱他"",""弱我""]","","","","","","","","no","","","","","","","","","SRET","EW_formal","","key","f","16.675324999999976","758.3333534223067","422.22223340729164","朋友","无耻","Negative","morality","","","","","","","","","","",""
"989","","j","psychophysics","62","214375","0.0-7.0-3.0-0.48","6","6","7","5","5","5","2","5","4","5","5","1","1","0","1","0","2","1","2","5","5","5","5","5","5","4","5","5","4","7","7","8","9","6","8","8","6","8","6","3","5","5","6","3","6","2","7","2","1","3","2","6","3","7","6","6","3","5","6","3","3","3","2","2","7","3","6","3","6","6","5","5","2","2","5","3","7","2","6","720327574219128832","赵","445","Male","[""好他"",""好我"",""坏他"",""坏我""]","[""强他"",""强我"",""弱他"",""弱我""]","","","","","","","","yes","","","","","","","","","SRET","EW_formal","","key","j","16.67648739495805","758.3333534223067","422.22223340729164","朋友","诚信","Positive","morality","","","","","","","","","","",""
"1103","","j","psychophysics","63","216479","0.0-7.0-3.0-0.49","6","6","7","5","5","5","2","5","4","5","5","1","1","0","1","0","2","1","2","5","5","5","5","5","5","4","5","5","4","7","7","8","9","6","8","8","6","8","6","3","5","5","6","3","6","2","7","2","1","3","2","6","3","7","6","6","3","5","6","3","3","3","2","2","7","3","6","3","6","6","5","5","2","2","5","3","7","2","6","720327574219128832","赵","445","Male","[""好他"",""好我"",""坏他"",""坏我""]","[""强他"",""强我"",""弱他"",""弱我""]","","","","","","","","yes","","","","","","","","","SRET","EW_formal","","key","j","16.6757919999999","758.3333534223067","422.22223340729164","朋友","细心","Positive","ability","","","","","","","","","","",""
"1612","","j","psychophysics","64","219093","0.0-7.0-3.0-0.50","6","6","7","5","5","5","2","5","4","5","5","1","1","0","1","0","2","1","2","5","5","5","5","5","5","4","5","5","4","7","7","8","9","6","8","8","6","8","6","3","5","5","6","3","6","2","7","2","1","3","2","6","3","7","6","6","3","5","6","3","3","3","2","2","7","3","6","3","6","6","5","5","2","2","5","3","7","2","6","720327574219128832","赵","445","Male","[""好他"",""好我"",""坏他"",""坏我""]","[""强他"",""强我"",""弱他"",""弱我""]","","","","","","","","yes","","","","","","","","","SRET","EW_formal","","key","j","16.676012820512906","758.3333534223067","422.22223340729164","自己","盲目","Negative","ability","","","","","","","","","","",""
"912","","f","psychophysics","65","221007","0.0-7.0-3.0-0.51","6","6","7","5","5","5","2","5","4","5","5","1","1","0","1","0","2","1","2","5","5","5","5","5","5","4","5","5","4","7","7","8","9","6","8","8","6","8","6","3","5","5","6","3","6","2","7","2","1","3","2","6","3","7","6","6","3","5","6","3","3","3","2","2","7","3","6","3","6","6","5","5","2","2","5","3","7","2","6","720327574219128832","赵","445","Male","[""好他"",""好我"",""坏他"",""坏我""]","[""强他"",""强我"",""弱他"",""弱我""]","","","","","","","","no","","","","","","","","","SRET","EW_formal","","key","f","16.675522123893572","758.3333534223067","422.22223340729164","朋友","歹毒","Negative","morality","","","","","","","","","","",""
"884","","j","psychophysics","66","222895","0.0-7.0-3.0-0.52","6","6","7","5","5","5","2","5","4","5","5","1","1","0","1","0","2","1","2","5","5","5","5","5","5","4","5","5","4","7","7","8","9","6","8","8","6","8","6","3","5","5","6","3","6","2","7","2","1","3","2","6","3","7","6","6","3","5","6","3","3","3","2","2","7","3","6","3","6","6","5","5","2","2","5","3","7","2","6","720327574219128832","赵","445","Male","[""好他"",""好我"",""坏他"",""坏我""]","[""强他"",""强我"",""弱他"",""弱我""]","","","","","","","","yes","","","","","","","","","SRET","EW_formal","","key","j","16.677964601770046","758.3333534223067","422.22223340729164","自己","好心","Positive","morality","","","","","","","","","","",""
"1027","","j","psychophysics","67","224924","0.0-7.0-3.0-0.53","6","6","7","5","5","5","2","5","4","5","5","1","1","0","1","0","2","1","2","5","5","5","5","5","5","4","5","5","4","7","7","8","9","6","8","8","6","8","6","3","5","5","6","3","6","2","7","2","1","3","2","6","3","7","6","6","3","5","6","3","3","3","2","2","7","3","6","3","6","6","5","5","2","2","5","3","7","2","6","720327574219128832","赵","445","Male","[""好他"",""好我"",""坏他"",""坏我""]","[""强他"",""强我"",""弱他"",""弱我""]","","","","","","","","yes","","","","","","","","","SRET","EW_formal","","key","j","16.67488333333337","758.3333534223067","422.22223340729164","朋友","守信","Positive","morality","","","","","","","","","","",""
"905","","j","psychophysics","68","226830","0.0-7.0-3.0-0.54","6","6","7","5","5","5","2","5","4","5","5","1","1","0","1","0","2","1","2","5","5","5","5","5","5","4","5","5","4","7","7","8","9","6","8","8","6","8","6","3","5","5","6","3","6","2","7","2","1","3","2","6","3","7","6","6","3","5","6","3","3","3","2","2","7","3","6","3","6","6","5","5","2","2","5","3","7","2","6","720327574219128832","赵","445","Male","[""好他"",""好我"",""坏他"",""坏我""]","[""强他"",""强我"",""弱他"",""弱我""]","","","","","","","","yes","","","","","","","","","SRET","EW_formal","","key","j","16.678385964912117","758.3333534223067","422.22223340729164","自己","迟钝","Negative","ability","","","","","","","","","","",""
"991","","j","psychophysics","69","228822","0.0-7.0-3.0-0.55","6","6","7","5","5","5","2","5","4","5","5","1","1","0","1","0","2","1","2","5","5","5","5","5","5","4","5","5","4","7","7","8","9","6","8","8","6","8","6","3","5","5","6","3","6","2","7","2","1","3","2","6","3","7","6","6","3","5","6","3","3","3","2","2","7","3","6","3","6","6","5","5","2","2","5","3","7","2","6","720327574219128832","赵","445","Male","[""好他"",""好我"",""坏他"",""坏我""]","[""强他"",""强我"",""弱他"",""弱我""]","","","","","","","","yes","","","","","","","","","SRET","EW_formal","","key","j","16.67684745762726","758.3333534223067","422.22223340729164","自己","廉明","Positive","morality","","","","","","","","","","",""
"1050","","j","psychophysics","70","230873","0.0-7.0-3.0-0.56","6","6","7","5","5","5","2","5","4","5","5","1","1","0","1","0","2","1","2","5","5","5","5","5","5","4","5","5","4","7","7","8","9","6","8","8","6","8","6","3","5","5","6","3","6","2","7","2","1","3","2","6","3","7","6","6","3","5","6","3","3","3","2","2","7","3","6","3","6","6","5","5","2","2","5","3","7","2","6","720327574219128832","赵","445","Male","[""好他"",""好我"",""坏他"",""坏我""]","[""强他"",""强我"",""弱他"",""弱我""]","","","","","","","","yes","","","","","","","","","SRET","EW_formal","","key","j","16.677491803278528","758.3333534223067","422.22223340729164","朋友","外行","Negative","ability","","","","","","","","","","",""
"1092","","j","psychophysics","71","232967","0.0-7.0-3.0-0.57","6","6","7","5","5","5","2","5","4","5","5","1","1","0","1","0","2","1","2","5","5","5","5","5","5","4","5","5","4","7","7","8","9","6","8","8","6","8","6","3","5","5","6","3","6","2","7","2","1","3","2","6","3","7","6","6","3","5","6","3","3","3","2","2","7","3","6","3","6","6","5","5","2","2","5","3","7","2","6","720327574219128832","赵","445","Male","[""好他"",""好我"",""坏他"",""坏我""]","[""强他"",""强我"",""弱他"",""弱我""]","","","","","","","","yes","","","","","","","","","SRET","EW_formal","","key","j","16.672399999999907","758.3333534223067","422.22223340729164","自己","新手","Negative","ability","","","","","","","","","","",""
"1148","","j","psychophysics","72","235117","0.0-7.0-3.0-0.58","6","6","7","5","5","5","2","5","4","5","5","1","1","0","1","0","2","1","2","5","5","5","5","5","5","4","5","5","4","7","7","8","9","6","8","8","6","8","6","3","5","5","6","3","6","2","7","2","1","3","2","6","3","7","6","6","3","5","6","3","3","3","2","2","7","3","6","3","6","6","5","5","2","2","5","3","7","2","6","720327574219128832","赵","445","Male","[""好他"",""好我"",""坏他"",""坏我""]","[""强他"",""强我"",""弱他"",""弱我""]","","","","","","","","yes","","","","","","","","","SRET","EW_formal","","key","j","16.674210937499993","758.3333534223067","422.22223340729164","自己","果决","Positive","ability","","","","","","","","","","",""
"1088","","j","psychophysics","73","237206","0.0-7.0-3.0-0.59","6","6","7","5","5","5","2","5","4","5","5","1","1","0","1","0","2","1","2","5","5","5","5","5","5","4","5","5","4","7","7","8","9","6","8","8","6","8","6","3","5","5","6","3","6","2","7","2","1","3","2","6","3","7","6","6","3","5","6","3","3","3","2","2","7","3","6","3","6","6","5","5","2","2","5","3","7","2","6","720327574219128832","赵","445","Male","[""好他"",""好我"",""坏他"",""坏我""]","[""强他"",""强我"",""弱他"",""弱我""]","","","","","","","","yes","","","","","","","","","SRET","EW_formal","","key","j","16.677983870967797","758.3333534223067","422.22223340729164","朋友","精干","Positive","ability","","","","","","","","","","",""
"1121","","f","psychophysics","74","239335","0.0-7.0-3.0-0.60","6","6","7","5","5","5","2","5","4","5","5","1","1","0","1","0","2","1","2","5","5","5","5","5","5","4","5","5","4","7","7","8","9","6","8","8","6","8","6","3","5","5","6","3","6","2","7","2","1","3","2","6","3","7","6","6","3","5","6","3","3","3","2","2","7","3","6","3","6","6","5","5","2","2","5","3","7","2","6","720327574219128832","赵","445","Male","[""好他"",""好我"",""坏他"",""坏我""]","[""强他"",""强我"",""弱他"",""弱我""]","","","","","","","","no","","","","","","","","","SRET","EW_formal","","key","f","16.674251968503974","758.3333534223067","422.22223340729164","朋友","失信","Negative","morality","","","","","","","","","","",""
"1159","","f","psychophysics","75","241496","0.0-7.0-3.0-0.61","6","6","7","5","5","5","2","5","4","5","5","1","1","0","1","0","2","1","2","5","5","5","5","5","5","4","5","5","4","7","7","8","9","6","8","8","6","8","6","3","5","5","6","3","6","2","7","2","1","3","2","6","3","7","6","6","3","5","6","3","3","3","2","2","7","3","6","3","6","6","5","5","2","2","5","3","7","2","6","720327574219128832","赵","445","Male","[""好他"",""好我"",""坏他"",""坏我""]","[""强他"",""强我"",""弱他"",""弱我""]","","","","","","","","no","","","","","","","","","SRET","EW_formal","","key","f","16.677468750000116","758.3333534223067","422.22223340729164","朋友","驽钝","Negative","ability","","","","","","","","","","",""
"858","","j","psychophysics","76","243355","0.0-7.0-3.0-0.62","6","6","7","5","5","5","2","5","4","5","5","1","1","0","1","0","2","1","2","5","5","5","5","5","5","4","5","5","4","7","7","8","9","6","8","8","6","8","6","3","5","5","6","3","6","2","7","2","1","3","2","6","3","7","6","6","3","5","6","3","3","3","2","2","7","3","6","3","6","6","5","5","2","2","5","3","7","2","6","720327574219128832","赵","445","Male","[""好他"",""好我"",""坏他"",""坏我""]","[""强他"",""强我"",""弱他"",""弱我""]","","","","","","","","yes","","","","","","","","","SRET","EW_formal","","key","j","16.676207207207284","758.3333534223067","422.22223340729164","自己","忠诚","Positive","morality","","","","","","","","","","",""
"893","","j","psychophysics","77","245249","0.0-7.0-3.0-0.63","6","6","7","5","5","5","2","5","4","5","5","1","1","0","1","0","2","1","2","5","5","5","5","5","5","4","5","5","4","7","7","8","9","6","8","8","6","8","6","3","5","5","6","3","6","2","7","2","1","3","2","6","3","7","6","6","3","5","6","3","3","3","2","2","7","3","6","3","6","6","5","5","2","2","5","3","7","2","6","720327574219128832","赵","445","Male","[""好他"",""好我"",""坏他"",""坏我""]","[""强他"",""强我"",""弱他"",""弱我""]","","","","","","","","yes","","","","","","","","","SRET","EW_formal","","key","j","16.67467857142869","758.3333534223067","422.22223340729164","朋友","依靠","Negative","ability","","","","","","","","","","",""
"857","","f","psychophysics","78","247107","0.0-7.0-3.0-0.64","6","6","7","5","5","5","2","5","4","5","5","1","1","0","1","0","2","1","2","5","5","5","5","5","5","4","5","5","4","7","7","8","9","6","8","8","6","8","6","3","5","5","6","3","6","2","7","2","1","3","2","6","3","7","6","6","3","5","6","3","3","3","2","2","7","3","6","3","6","6","5","5","2","2","5","3","7","2","6","720327574219128832","赵","445","Male","[""好他"",""好我"",""坏他"",""坏我""]","[""强他"",""强我"",""弱他"",""弱我""]","","","","","","","","no","","","","","","","","","SRET","EW_formal","","key","f","16.678333333333185","758.3333534223067","422.22223340729164","自己","无助","Negative","ability","","","","","","","","","","",""
"1352","","j","psychophysics","79","249461","0.0-7.0-3.0-0.65","6","6","7","5","5","5","2","5","4","5","5","1","1","0","1","0","2","1","2","5","5","5","5","5","5","4","5","5","4","7","7","8","9","6","8","8","6","8","6","3","5","5","6","3","6","2","7","2","1","3","2","6","3","7","6","6","3","5","6","3","3","3","2","2","7","3","6","3","6","6","5","5","2","2","5","3","7","2","6","720327574219128832","赵","445","Male","[""好他"",""好我"",""坏他"",""坏我""]","[""强他"",""强我"",""弱他"",""弱我""]","","","","","","","","yes","","","","","","","","","SRET","EW_formal","","key","j","16.67547142857137","758.3333534223067","422.22223340729164","自己","屈才","Negative","ability","","","","","","","","","","",""
"913","","j","psychophysics","80","251378","0.0-7.0-3.0-0.66","6","6","7","5","5","5","2","5","4","5","5","1","1","0","1","0","2","1","2","5","5","5","5","5","5","4","5","5","4","7","7","8","9","6","8","8","6","8","6","3","5","5","6","3","6","2","7","2","1","3","2","6","3","7","6","6","3","5","6","3","3","3","2","2","7","3","6","3","6","6","5","5","2","2","5","3","7","2","6","720327574219128832","赵","445","Male","[""好他"",""好我"",""坏他"",""坏我""]","[""强他"",""强我"",""弱他"",""弱我""]","","","","","","","","yes","","","","","","","","","SRET","EW_formal","","key","j","16.67640350877206","758.3333534223067","422.22223340729164","自己","懂行","Positive","ability","","","","","","","","","","",""
"1105","","f","psychophysics","81","253483","0.0-7.0-3.0-0.67","6","6","7","5","5","5","2","5","4","5","5","1","1","0","1","0","2","1","2","5","5","5","5","5","5","4","5","5","4","7","7","8","9","6","8","8","6","8","6","3","5","5","6","3","6","2","7","2","1","3","2","6","3","7","6","6","3","5","6","3","3","3","2","2","7","3","6","3","6","6","5","5","2","2","5","3","7","2","6","720327574219128832","赵","445","Male","[""好他"",""好我"",""坏他"",""坏我""]","[""强他"",""强我"",""弱他"",""弱我""]","","","","","","","","no","","","","","","","","","SRET","EW_formal","","key","f","16.678111999999963","758.3333534223067","422.22223340729164","朋友","毛糙","Negative","ability","","","","","","","","","","",""
"1225","","f","psychophysics","82","255710","0.0-7.0-3.0-0.68","6","6","7","5","5","5","2","5","4","5","5","1","1","0","1","0","2","1","2","5","5","5","5","5","5","4","5","5","4","7","7","8","9","6","8","8","6","8","6","3","5","5","6","3","6","2","7","2","1","3","2","6","3","7","6","6","3","5","6","3","3","3","2","2","7","3","6","3","6","6","5","5","2","2","5","3","7","2","6","720327574219128832","赵","445","Male","[""好他"",""好我"",""坏他"",""坏我""]","[""强他"",""强我"",""弱他"",""弱我""]","","","","","","","","no","","","","","","","","","SRET","EW_formal","","key","f","16.677706766917144","758.3333534223067","422.22223340729164","自己","不孝","Negative","morality","","","","","","","","","","",""
"1274","","f","psychophysics","83","257985","0.0-7.0-3.0-0.69","6","6","7","5","5","5","2","5","4","5","5","1","1","0","1","0","2","1","2","5","5","5","5","5","5","4","5","5","4","7","7","8","9","6","8","8","6","8","6","3","5","5","6","3","6","2","7","2","1","3","2","6","3","7","6","6","3","5","6","3","3","3","2","2","7","3","6","3","6","6","5","5","2","2","5","3","7","2","6","720327574219128832","赵","445","Male","[""好他"",""好我"",""坏他"",""坏我""]","[""强他"",""强我"",""弱他"",""弱我""]","","","","","","","","no","","","","","","","","","SRET","EW_formal","","key","f","16.67395555555553","758.3333534223067","422.22223340729164","自己","奸险","Negative","morality","","","","","","","","","","",""
"892","","j","psychophysics","84","259878","0.0-7.0-3.0-0.70","6","6","7","5","5","5","2","5","4","5","5","1","1","0","1","0","2","1","2","5","5","5","5","5","5","4","5","5","4","7","7","8","9","6","8","8","6","8","6","3","5","5","6","3","6","2","7","2","1","3","2","6","3","7","6","6","3","5","6","3","3","3","2","2","7","3","6","3","6","6","5","5","2","2","5","3","7","2","6","720327574219128832","赵","445","Male","[""好他"",""好我"",""坏他"",""坏我""]","[""强他"",""强我"",""弱他"",""弱我""]","","","","","","","","yes","","","","","","","","","SRET","EW_formal","","key","j","16.67571681415929","758.3333534223067","422.22223340729164","朋友","仁爱","Positive","morality","","","","","","","","","","",""
"987","","j","psychophysics","85","261867","0.0-7.0-3.0-0.71","6","6","7","5","5","5","2","5","4","5","5","1","1","0","1","0","2","1","2","5","5","5","5","5","5","4","5","5","4","7","7","8","9","6","8","8","6","8","6","3","5","5","6","3","6","2","7","2","1","3","2","6","3","7","6","6","3","5","6","3","3","3","2","2","7","3","6","3","6","6","5","5","2","2","5","3","7","2","6","720327574219128832","赵","445","Male","[""好他"",""好我"",""坏他"",""坏我""]","[""强他"",""强我"",""弱他"",""弱我""]","","","","","","","","yes","","","","","","","","","SRET","EW_formal","","key","j","16.674271186440787","758.3333534223067","422.22223340729164","朋友","思辨","Positive","ability","","","","","","","","","","",""
"922","","j","psychophysics","86","263790","0.0-7.0-3.0-0.72","6","6","7","5","5","5","2","5","4","5","5","1","1","0","1","0","2","1","2","5","5","5","5","5","5","4","5","5","4","7","7","8","9","6","8","8","6","8","6","3","5","5","6","3","6","2","7","2","1","3","2","6","3","7","6","6","3","5","6","3","3","3","2","2","7","3","6","3","6","6","5","5","2","2","5","3","7","2","6","720327574219128832","赵","445","Male","[""好他"",""好我"",""坏他"",""坏我""]","[""强他"",""强我"",""弱他"",""弱我""]","","","","","","","","yes","","","","","","","","","SRET","EW_formal","","key","j","16.678096491227688","758.3333534223067","422.22223340729164","自己","高明","Positive","ability","","","","","","","","","","",""
"953","","j","psychophysics","87","265744","0.0-7.0-3.0-0.73","6","6","7","5","5","5","2","5","4","5","5","1","1","0","1","0","2","1","2","5","5","5","5","5","5","4","5","5","4","7","7","8","9","6","8","8","6","8","6","3","5","5","6","3","6","2","7","2","1","3","2","6","3","7","6","6","3","5","6","3","3","3","2","2","7","3","6","3","6","6","5","5","2","2","5","3","7","2","6","720327574219128832","赵","445","Male","[""好他"",""好我"",""坏他"",""坏我""]","[""强他"",""强我"",""弱他"",""弱我""]","","","","","","","","yes","","","","","","","","","SRET","EW_formal","","key","j","16.678431034483044","758.3333534223067","422.22223340729164","朋友","周到","Positive","ability","","","","","","","","","","",""
"926","","j","psychophysics","88","267674","0.0-7.0-3.0-0.74","6","6","7","5","5","5","2","5","4","5","5","1","1","0","1","0","2","1","2","5","5","5","5","5","5","4","5","5","4","7","7","8","9","6","8","8","6","8","6","3","5","5","6","3","6","2","7","2","1","3","2","6","3","7","6","6","3","5","6","3","3","3","2","2","7","3","6","3","6","6","5","5","2","2","5","3","7","2","6","720327574219128832","赵","445","Male","[""好他"",""好我"",""坏他"",""坏我""]","[""强他"",""强我"",""弱他"",""弱我""]","","","","","","","","yes","","","","","","","","","SRET","EW_formal","","key","j","16.67869565217381","758.3333534223067","422.22223340729164","自己","粗心","Negative","ability","","","","","","","","","","",""
"1014","","f","psychophysics","89","269691","0.0-7.0-3.0-0.75","6","6","7","5","5","5","2","5","4","5","5","1","1","0","1","0","2","1","2","5","5","5","5","5","5","4","5","5","4","7","7","8","9","6","8","8","6","8","6","3","5","5","6","3","6","2","7","2","1","3","2","6","3","7","6","6","3","5","6","3","3","3","2","2","7","3","6","3","6","6","5","5","2","2","5","3","7","2","6","720327574219128832","赵","445","Male","[""好他"",""好我"",""坏他"",""坏我""]","[""强他"",""强我"",""弱他"",""弱我""]","","","","","","","","no","","","","","","","","","SRET","EW_formal","","key","f","16.67458333333343","758.3333534223067","422.22223340729164","朋友","迂拙","Negative","ability","","","","","","","","","","",""
"894","","j","psychophysics","90","271585","0.0-7.0-3.0-0.76","6","6","7","5","5","5","2","5","4","5","5","1","1","0","1","0","2","1","2","5","5","5","5","5","5","4","5","5","4","7","7","8","9","6","8","8","6","8","6","3","5","5","6","3","6","2","7","2","1","3","2","6","3","7","6","6","3","5","6","3","3","3","2","2","7","3","6","3","6","6","5","5","2","2","5","3","7","2","6","720327574219128832","赵","445","Male","[""好他"",""好我"",""坏他"",""坏我""]","[""强他"",""强我"",""弱他"",""弱我""]","","","","","","","","yes","","","","","","","","","SRET","EW_formal","","key","j","16.67516814159287","758.3333534223067","422.22223340729164","朋友","全才","Positive","ability","","","","","","","","","","",""
"927","","j","psychophysics","91","273513","0.0-7.0-3.0-0.77","6","6","7","5","5","5","2","5","4","5","5","1","1","0","1","0","2","1","2","5","5","5","5","5","5","4","5","5","4","7","7","8","9","6","8","8","6","8","6","3","5","5","6","3","6","2","7","2","1","3","2","6","3","7","6","6","3","5","6","3","3","3","2","2","7","3","6","3","6","6","5","5","2","2","5","3","7","2","6","720327574219128832","赵","445","Male","[""好他"",""好我"",""坏他"",""坏我""]","[""强他"",""强我"",""弱他"",""弱我""]","","","","","","","","yes","","","","","","","","","SRET","EW_formal","","key","j","16.67705263157902","758.3333534223067","422.22223340729164","自己","敬业","Positive","morality","","","","","","","","","","",""
"847","","j","psychophysics","92","275361","0.0-7.0-3.0-0.78","6","6","7","5","5","5","2","5","4","5","5","1","1","0","1","0","2","1","2","5","5","5","5","5","5","4","5","5","4","7","7","8","9","6","8","8","6","8","6","3","5","5","6","3","6","2","7","2","1","3","2","6","3","7","6","6","3","5","6","3","3","3","2","2","7","3","6","3","6","6","5","5","2","2","5","3","7","2","6","720327574219128832","赵","445","Male","[""好他"",""好我"",""坏他"",""坏我""]","[""强他"",""强我"",""弱他"",""弱我""]","","","","","","","","yes","","","","","","","","","SRET","EW_formal","","key","j","16.678845454545545","758.3333534223067","422.22223340729164","自己","厚道","Positive","morality","","","","","","","","","","",""
"1149","","j","psychophysics","93","277512","0.0-7.0-3.0-0.79","6","6","7","5","5","5","2","5","4","5","5","1","1","0","1","0","2","1","2","5","5","5","5","5","5","4","5","5","4","7","7","8","9","6","8","8","6","8","6","3","5","5","6","3","6","2","7","2","1","3","2","6","3","7","6","6","3","5","6","3","3","3","2","2","7","3","6","3","6","6","5","5","2","2","5","3","7","2","6","720327574219128832","赵","445","Male","[""好他"",""好我"",""坏他"",""坏我""]","[""强他"",""强我"",""弱他"",""弱我""]","","","","","","","","yes","","","","","","","","","SRET","EW_formal","","key","j","16.674695312499807","758.3333534223067","422.22223340729164","朋友","利己","Negative","morality","","","","","","","","","","",""
"1060","","f","psychophysics","94","279574","0.0-7.0-3.0-0.80","6","6","7","5","5","5","2","5","4","5","5","1","1","0","1","0","2","1","2","5","5","5","5","5","5","4","5","5","4","7","7","8","9","6","8","8","6","8","6","3","5","5","6","3","6","2","7","2","1","3","2","6","3","7","6","6","3","5","6","3","3","3","2","2","7","3","6","3","6","6","5","5","2","2","5","3","7","2","6","720327574219128832","赵","445","Male","[""好他"",""好我"",""坏他"",""坏我""]","[""强他"",""强我"",""弱他"",""弱我""]","","","","","","","","no","","","","","","","","","SRET","EW_formal","","key","f","16.67677235772324","758.3333534223067","422.22223340729164","自己","浅薄","Negative","ability","","","","","","","","","","",""
"1081","","f","psychophysics","95","281658","0.0-7.0-3.0-0.81","6","6","7","5","5","5","2","5","4","5","5","1","1","0","1","0","2","1","2","5","5","5","5","5","5","4","5","5","4","7","7","8","9","6","8","8","6","8","6","3","5","5","6","3","6","2","7","2","1","3","2","6","3","7","6","6","3","5","6","3","3","3","2","2","7","3","6","3","6","6","5","5","2","2","5","3","7","2","6","720327574219128832","赵","445","Male","[""好他"",""好我"",""坏他"",""坏我""]","[""强他"",""强我"",""弱他"",""弱我""]","","","","","","","","no","","","","","","","","","SRET","EW_formal","","key","f","16.674879032258044","758.3333534223067","422.22223340729164","自己","阴毒","Negative","morality","","","","","","","","","","",""
"759","","j","psychophysics","96","283419","0.0-7.0-3.0-0.82","6","6","7","5","5","5","2","5","4","5","5","1","1","0","1","0","2","1","2","5","5","5","5","5","5","4","5","5","4","7","7","8","9","6","8","8","6","8","6","3","5","5","6","3","6","2","7","2","1","3","2","6","3","7","6","6","3","5","6","3","3","3","2","2","7","3","6","3","6","6","5","5","2","2","5","3","7","2","6","720327574219128832","赵","445","Male","[""好他"",""好我"",""坏他"",""坏我""]","[""强他"",""强我"",""弱他"",""弱我""]","","","","","","","","yes","","","","","","","","","SRET","EW_formal","","key","j","16.6744134615387","758.3333534223067","422.22223340729164","自己","扎实","Positive","ability","","","","","","","","","","",""
"728","","j","psychophysics","97","285149","0.0-7.0-3.0-0.83","6","6","7","5","5","5","2","5","4","5","5","1","1","0","1","0","2","1","2","5","5","5","5","5","5","4","5","5","4","7","7","8","9","6","8","8","6","8","6","3","5","5","6","3","6","2","7","2","1","3","2","6","3","7","6","6","3","5","6","3","3","3","2","2","7","3","6","3","6","6","5","5","2","2","5","3","7","2","6","720327574219128832","赵","445","Male","[""好他"",""好我"",""坏他"",""坏我""]","[""强他"",""强我"",""弱他"",""弱我""]","","","","","","","","yes","","","","","","","","","SRET","EW_formal","","key","j","16.676058252427378","758.3333534223067","422.22223340729164","朋友","伪善","Negative","morality","","","","","","","","","","",""
"810","","j","psychophysics","98","286960","0.0-7.0-3.0-0.84","6","6","7","5","5","5","2","5","4","5","5","1","1","0","1","0","2","1","2","5","5","5","5","5","5","4","5","5","4","7","7","8","9","6","8","8","6","8","6","3","5","5","6","3","6","2","7","2","1","3","2","6","3","7","6","6","3","5","6","3","3","3","2","2","7","3","6","3","6","6","5","5","2","2","5","3","7","2","6","720327574219128832","赵","445","Male","[""好他"",""好我"",""坏他"",""坏我""]","[""强他"",""强我"",""弱他"",""弱我""]","","","","","","","","yes","","","","","","","","","SRET","EW_formal","","key","j","16.67456481481484","758.3333534223067","422.22223340729164","自己","主见","Positive","ability","","","","","","","","","","",""
"729","","j","psychophysics","99","288692","0.0-7.0-3.0-0.85","6","6","7","5","5","5","2","5","4","5","5","1","1","0","1","0","2","1","2","5","5","5","5","5","5","4","5","5","4","7","7","8","9","6","8","8","6","8","6","3","5","5","6","3","6","2","7","2","1","3","2","6","3","7","6","6","3","5","6","3","3","3","2","2","7","3","6","3","6","6","5","5","2","2","5","3","7","2","6","720327574219128832","赵","445","Male","[""好他"",""好我"",""坏他"",""坏我""]","[""强他"",""强我"",""弱他"",""弱我""]","","","","","","","","yes","","","","","","","","","SRET","EW_formal","","key","j","16.674048543689","758.3333534223067","422.22223340729164","自己","缓慢","Negative","ability","","","","","","","","","","",""
"874","","f","psychophysics","100","290569","0.0-7.0-3.0-0.86","6","6","7","5","5","5","2","5","4","5","5","1","1","0","1","0","2","1","2","5","5","5","5","5","5","4","5","5","4","7","7","8","9","6","8","8","6","8","6","3","5","5","6","3","6","2","7","2","1","3","2","6","3","7","6","6","3","5","6","3","3","3","2","2","7","3","6","3","6","6","5","5","2","2","5","3","7","2","6","720327574219128832","赵","445","Male","[""好他"",""好我"",""坏他"",""坏我""]","[""强他"",""强我"",""弱他"",""弱我""]","","","","","","","","no","","","","","","","","","SRET","EW_formal","","key","f","16.678333333333185","758.3333534223067","422.22223340729164","朋友","低俗","Negative","morality","","","","","","","","","","",""
"799","","j","psychophysics","101","292370","0.0-7.0-3.0-0.87","6","6","7","5","5","5","2","5","4","5","5","1","1","0","1","0","2","1","2","5","5","5","5","5","5","4","5","5","4","7","7","8","9","6","8","8","6","8","6","3","5","5","6","3","6","2","7","2","1","3","2","6","3","7","6","6","3","5","6","3","3","3","2","2","7","3","6","3","6","6","5","5","2","2","5","3","7","2","6","720327574219128832","赵","445","Male","[""好他"",""好我"",""坏他"",""坏我""]","[""强他"",""强我"",""弱他"",""弱我""]","","","","","","","","yes","","","","","","","","","SRET","EW_formal","","key","j","16.67542056074784","758.3333534223067","422.22223340729164","朋友","素养","Positive","morality","","","","","","","","","","",""
"13720","
    <p><div style='color:white;font-size:35px; line-height:20px;'>计算任务</div></p><br>
    <p><div style='color:red;font-size:25px; line-height:20px;'>接下来，您将看到一些四则运算题，<b>请从键盘选择 0-9 进行反应。</b></div></p>
    <p><div style='color:red;font-size:25px; line-height:20px;'>请尽可能快地进行计算，计算的速度和正确率将影响报酬的发放。</div></p>
    <p><div class='footer' style='color:white;font-size:25px; line-height:20px;'>如果对本实验还有不清楚之处，请立即向实验员咨询。</p><p style='color:white;font-size:25px; line-height:20px;'>如果您明白了规则：</p><p style='color:white;font-size:22px; line-height:20px;'>请按 继续 进入练习</p>
    </div>
    ","0","html-button-response","102","306092","0.0-7.0-4.0","6","6","7","5","5","5","2","5","4","5","5","1","1","0","1","0","2","1","2","5","5","5","5","5","5","4","5","5","4","7","7","8","9","6","8","8","6","8","6","3","5","5","6","3","6","2","7","2","1","3","2","6","3","7","6","6","3","5","6","3","3","3","2","2","7","3","6","3","6","6","5","5","2","2","5","3","7","2","6","720327574219128832","赵","445","Male","[""好他"",""好我"",""坏他"",""坏我""]","[""强他"",""强我"",""弱他"",""弱我""]","","","","","","","","","","","","","","","","","SRET_math","math_instructions","Sun Jan 07 2024 19:12:08 GMT+0800 (中国标准时间)","","","","","","","","","","","","","","","","","","","",""
"2033","","8","psychophysics","103","308131","0.0-7.0-5.0-0.0","6","6","7","5","5","5","2","5","4","5","5","1","1","0","1","0","2","1","2","5","5","5","5","5","5","4","5","5","4","7","7","8","9","6","8","8","6","8","6","3","5","5","6","3","6","2","7","2","1","3","2","6","3","7","6","6","3","5","6","3","3","3","2","2","7","3","6","3","6","6","5","5","2","2","5","3","7","2","6","720327574219128832","赵","445","Male","[""好他"",""好我"",""坏他"",""坏我""]","[""强他"",""强我"",""弱他"",""弱我""]","","","","","","","","8","","","","","","","","","SRET","SRET_math_calculate","","key","8","16.67328688524593","758.3333534223067","422.22223340729164","","","","","4*2= ?","8","1","","","","","","","",""
"1834","","2","psychophysics","104","309971","0.0-7.0-5.0-0.1","6","6","7","5","5","5","2","5","4","5","5","1","1","0","1","0","2","1","2","5","5","5","5","5","5","4","5","5","4","7","7","8","9","6","8","8","6","8","6","3","5","5","6","3","6","2","7","2","1","3","2","6","3","7","6","6","3","5","6","3","3","3","2","2","7","3","6","3","6","6","5","5","2","2","5","3","7","2","6","720327574219128832","赵","445","Male","[""好他"",""好我"",""坏他"",""坏我""]","[""强他"",""强我"",""弱他"",""弱我""]","","","","","","","","2","","","","","","","","","SRET","SRET_math_calculate","","key","2","16.672600000000305","758.3333534223067","422.22223340729164","","","","","1+1= ?","2","1","","","","","","","",""
"2448","","8","psychophysics","105","312420","0.0-7.0-5.0-0.2","6","6","7","5","5","5","2","5","4","5","5","1","1","0","1","0","2","1","2","5","5","5","5","5","5","4","5","5","4","7","7","8","9","6","8","8","6","8","6","3","5","5","6","3","6","2","7","2","1","3","2","6","3","7","6","6","3","5","6","3","3","3","2","2","7","3","6","3","6","6","5","5","2","2","5","3","7","2","6","720327574219128832","赵","445","Male","[""好他"",""好我"",""坏他"",""坏我""]","[""强他"",""强我"",""弱他"",""弱我""]","","","","","","","","8","","","","","","","","","SRET","SRET_math_calculate","","key","8","16.677486301369868","758.3333534223067","422.22223340729164","","","","","11-3= ?","8","1","","","","","","","",""
"1892","","9","psychophysics","106","314314","0.0-7.0-5.0-0.3","6","6","7","5","5","5","2","5","4","5","5","1","1","0","1","0","2","1","2","5","5","5","5","5","5","4","5","5","4","7","7","8","9","6","8","8","6","8","6","3","5","5","6","3","6","2","7","2","1","3","2","6","3","7","6","6","3","5","6","3","3","3","2","2","7","3","6","3","6","6","5","5","2","2","5","3","7","2","6","720327574219128832","赵","445","Male","[""好他"",""好我"",""坏他"",""坏我""]","[""强他"",""强我"",""弱他"",""弱我""]","","","","","","","","9","","","","","","","","","SRET","SRET_math_calculate","","key","9","16.675624999999854","758.3333534223067","422.22223340729164","","","","","5+4= ?","9","1","","","","","","","",""
"2429","","7","psychophysics","107","316744","0.0-7.0-5.0-0.4","6","6","7","5","5","5","2","5","4","5","5","1","1","0","1","0","2","1","2","5","5","5","5","5","5","4","5","5","4","7","7","8","9","6","8","8","6","8","6","3","5","5","6","3","6","2","7","2","1","3","2","6","3","7","6","6","3","5","6","3","3","3","2","2","7","3","6","3","6","6","5","5","2","2","5","3","7","2","6","720327574219128832","赵","445","Male","[""好他"",""好我"",""坏他"",""坏我""]","[""强他"",""强我"",""弱他"",""弱我""]","","","","","","","","7","","","","","","","","","SRET","SRET_math_calculate","","key","7","16.674420689654955","758.3333534223067","422.22223340729164","","","","","13-6= ?","7","1","","","","","","","",""
"1958","","6","psychophysics","108","318703","0.0-7.0-5.0-0.5","6","6","7","5","5","5","2","5","4","5","5","1","1","0","1","0","2","1","2","5","5","5","5","5","5","4","5","5","4","7","7","8","9","6","8","8","6","8","6","3","5","5","6","3","6","2","7","2","1","3","2","6","3","7","6","6","3","5","6","3","3","3","2","2","7","3","6","3","6","6","5","5","2","2","5","3","7","2","6","720327574219128832","赵","445","Male","[""好他"",""好我"",""坏他"",""坏我""]","[""强他"",""强我"",""弱他"",""弱我""]","","","","","","","","6","","","","","","","","","SRET","SRET_math_calculate","","key","6","16.678230769230794","758.3333534223067","422.22223340729164","","","","","9-3= ?","6","1","","","","","","","",""
"1887","","4","psychophysics","109","320593","0.0-7.0-5.0-0.6","6","6","7","5","5","5","2","5","4","5","5","1","1","0","1","0","2","1","2","5","5","5","5","5","5","4","5","5","4","7","7","8","9","6","8","8","6","8","6","3","5","5","6","3","6","2","7","2","1","3","2","6","3","7","6","6","3","5","6","3","3","3","2","2","7","3","6","3","6","6","5","5","2","2","5","3","7","2","6","720327574219128832","赵","445","Male","[""好他"",""好我"",""坏他"",""坏我""]","[""强他"",""强我"",""弱他"",""弱我""]","","","","","","","","4","","","","","","","","","SRET","SRET_math_calculate","","key","4","16.67891964285705","758.3333534223067","422.22223340729164","","","","","4*1= ?","4","1","","","","","","","",""
"2271","","8","psychophysics","110","322866","0.0-7.0-5.0-0.7","6","6","7","5","5","5","2","5","4","5","5","1","1","0","1","0","2","1","2","5","5","5","5","5","5","4","5","5","4","7","7","8","9","6","8","8","6","8","6","3","5","5","6","3","6","2","7","2","1","3","2","6","3","7","6","6","3","5","6","3","3","3","2","2","7","3","6","3","6","6","5","5","2","2","5","3","7","2","6","720327574219128832","赵","445","Male","[""好他"",""好我"",""坏他"",""坏我""]","[""强他"",""强我"",""弱他"",""弱我""]","","","","","","","","8","","","","","","","","","SRET","SRET_math_calculate","","key","8","16.67417777777796","758.3333534223067","422.22223340729164","","","","","72/9= ?","8","1","","","","","","","",""
"1981","","3","psychophysics","111","324848","0.0-7.0-5.0-0.8","6","6","7","5","5","5","2","5","4","5","5","1","1","0","1","0","2","1","2","5","5","5","5","5","5","4","5","5","4","7","7","8","9","6","8","8","6","8","6","3","5","5","6","3","6","2","7","2","1","3","2","6","3","7","6","6","3","5","6","3","3","3","2","2","7","3","6","3","6","6","5","5","2","2","5","3","7","2","6","720327574219128832","赵","445","Male","[""好他"",""好我"",""坏他"",""坏我""]","[""强他"",""强我"",""弱他"",""弱我""]","","","","","","","","3","","","","","","","","","SRET","SRET_math_calculate","","key","3","16.677771186440793","758.3333534223067","422.22223340729164","","","","","8-5= ?","3","1","","","","","","","",""
"2008","","3","psychophysics","112","326857","0.0-7.0-5.0-0.9","6","6","7","5","5","5","2","5","4","5","5","1","1","0","1","0","2","1","2","5","5","5","5","5","5","4","5","5","4","7","7","8","9","6","8","8","6","8","6","3","5","5","6","3","6","2","7","2","1","3","2","6","3","7","6","6","3","5","6","3","3","3","2","2","7","3","6","3","6","6","5","5","2","2","5","3","7","2","6","720327574219128832","赵","445","Male","[""好他"",""好我"",""坏他"",""坏我""]","[""强他"",""强我"",""弱他"",""弱我""]","","","","","","","","3","","","","","","","","","SRET","SRET_math_calculate","","key","3","16.676291666666415","758.3333534223067","422.22223340729164","","","","","11-8= ?","3","1","","","","","","","",""
"1802","","2","psychophysics","113","328662","0.0-7.0-5.0-0.10","6","6","7","5","5","5","2","5","4","5","5","1","1","0","1","0","2","1","2","5","5","5","5","5","5","4","5","5","4","7","7","8","9","6","8","8","6","8","6","3","5","5","6","3","6","2","7","2","1","3","2","6","3","7","6","6","3","5","6","3","3","3","2","2","7","3","6","3","6","6","5","5","2","2","5","3","7","2","6","720327574219128832","赵","445","Male","[""好他"",""好我"",""坏他"",""坏我""]","[""强他"",""强我"",""弱他"",""弱我""]","","","","","","","","2","","","","","","","","","SRET","SRET_math_calculate","","key","2","16.6746542056077","758.3333534223067","422.22223340729164","","","","","9-7= ?","2","1","","","","","","","",""
"1913","","2","psychophysics","114","330578","0.0-7.0-5.0-0.11","6","6","7","5","5","5","2","5","4","5","5","1","1","0","1","0","2","1","2","5","5","5","5","5","5","4","5","5","4","7","7","8","9","6","8","8","6","8","6","3","5","5","6","3","6","2","7","2","1","3","2","6","3","7","6","6","3","5","6","3","3","3","2","2","7","3","6","3","6","6","5","5","2","2","5","3","7","2","6","720327574219128832","赵","445","Male","[""好他"",""好我"",""坏他"",""坏我""]","[""强他"",""强我"",""弱他"",""弱我""]","","","","","","","","2","","","","","","","","","SRET","SRET_math_calculate","","key","2","16.674526315789034","758.3333534223067","422.22223340729164","","","","","19-17= ?","2","1","","","","","","","",""
"2737","","0","psychophysics","115","333316","0.0-7.0-5.0-0.12","6","6","7","5","5","5","2","5","4","5","5","1","1","0","1","0","2","1","2","5","5","5","5","5","5","4","5","5","4","7","7","8","9","6","8","8","6","8","6","3","5","5","6","3","6","2","7","2","1","3","2","6","3","7","6","6","3","5","6","3","3","3","2","2","7","3","6","3","6","6","5","5","2","2","5","3","7","2","6","720327574219128832","赵","445","Male","[""好他"",""好我"",""坏他"",""坏我""]","[""强他"",""强我"",""弱他"",""弱我""]","","","","","","","","0","","","","","","","","","SRET","SRET_math_calculate","","key","0","16.677153374233065","758.3333534223067","422.22223340729164","","","","","9-9= ?","0","1","","","","","","","",""
"1981","","9","psychophysics","116","335299","0.0-7.0-5.0-0.13","6","6","7","5","5","5","2","5","4","5","5","1","1","0","1","0","2","1","2","5","5","5","5","5","5","4","5","5","4","7","7","8","9","6","8","8","6","8","6","3","5","5","6","3","6","2","7","2","1","3","2","6","3","7","6","6","3","5","6","3","3","3","2","2","7","3","6","3","6","6","5","5","2","2","5","3","7","2","6","720327574219128832","赵","445","Male","[""好他"",""好我"",""坏他"",""坏我""]","[""强他"",""强我"",""弱他"",""弱我""]","","","","","","","","9","","","","","","","","","SRET","SRET_math_calculate","","key","9","16.67892372881366","758.3333534223067","422.22223340729164","","","","","7+2= ?","9","1","","","","","","","",""
"1870","","3","psychophysics","117","337170","0.0-7.0-5.0-0.14","6","6","7","5","5","5","2","5","4","5","5","1","1","0","1","0","2","1","2","5","5","5","5","5","5","4","5","5","4","7","7","8","9","6","8","8","6","8","6","3","5","5","6","3","6","2","7","2","1","3","2","6","3","7","6","6","3","5","6","3","3","3","2","2","7","3","6","3","6","6","5","5","2","2","5","3","7","2","6","720327574219128832","赵","445","Male","[""好他"",""好我"",""坏他"",""坏我""]","[""强他"",""强我"",""弱他"",""弱我""]","","","","","","","","3","","","","","","","","","SRET","SRET_math_calculate","","key","3","16.67581081081041","758.3333534223067","422.22223340729164","","","","","9-6= ?","3","1","","","","","","","",""
"1911","","1","psychophysics","118","339083","0.0-7.0-5.0-0.15","6","6","7","5","5","5","2","5","4","5","5","1","1","0","1","0","2","1","2","5","5","5","5","5","5","4","5","5","4","7","7","8","9","6","8","8","6","8","6","3","5","5","6","3","6","2","7","2","1","3","2","6","3","7","6","6","3","5","6","3","3","3","2","2","7","3","6","3","6","6","5","5","2","2","5","3","7","2","6","720327574219128832","赵","445","Male","[""好他"",""好我"",""坏他"",""坏我""]","[""强他"",""强我"",""弱他"",""弱我""]","","","","","","","","1","","","","","","","","","SRET","SRET_math_calculate","","key","1","16.67888596491263","758.3333534223067","422.22223340729164","","","","","4/4= ?","1","1","","","","","","","",""
"1952","","9","psychophysics","119","341036","0.0-7.0-5.0-0.16","6","6","7","5","5","5","2","5","4","5","5","1","1","0","1","0","2","1","2","5","5","5","5","5","5","4","5","5","4","7","7","8","9","6","8","8","6","8","6","3","5","5","6","3","6","2","7","2","1","3","2","6","3","7","6","6","3","5","6","3","3","3","2","2","7","3","6","3","6","6","5","5","2","2","5","3","7","2","6","720327574219128832","赵","445","Male","[""好他"",""好我"",""坏他"",""坏我""]","[""强他"",""强我"",""弱他"",""弱我""]","","","","","","","","9","","","","","","","","","SRET","SRET_math_calculate","","key","9","16.67407758620714","758.3333534223067","422.22223340729164","","","","","4+5= ?","9","1","","","","","","","",""
"1999","","4","psychophysics","120","343036","0.0-7.0-5.0-0.17","6","6","7","5","5","5","2","5","4","5","5","1","1","0","1","0","2","1","2","5","5","5","5","5","5","4","5","5","4","7","7","8","9","6","8","8","6","8","6","3","5","5","6","3","6","2","7","2","1","3","2","6","3","7","6","6","3","5","6","3","3","3","2","2","7","3","6","3","6","6","5","5","2","2","5","3","7","2","6","720327574219128832","赵","445","Male","[""好他"",""好我"",""坏他"",""坏我""]","[""强他"",""强我"",""弱他"",""弱我""]","","","","","","","","4","","","","","","","","","SRET","SRET_math_calculate","","key","4","16.674058823529318","758.3333534223067","422.22223340729164","","","","","8-4= ?","4","1","","","","","","","",""
"1801","","5","psychophysics","121","344839","0.0-7.0-5.0-0.18","6","6","7","5","5","5","2","5","4","5","5","1","1","0","1","0","2","1","2","5","5","5","5","5","5","4","5","5","4","7","7","8","9","6","8","8","6","8","6","3","5","5","6","3","6","2","7","2","1","3","2","6","3","7","6","6","3","5","6","3","3","3","2","2","7","3","6","3","6","6","5","5","2","2","5","3","7","2","6","720327574219128832","赵","445","Male","[""好他"",""好我"",""坏他"",""坏我""]","[""强他"",""强我"",""弱他"",""弱我""]","","","","","","","","5","","","","","","","","","SRET","SRET_math_calculate","","key","5","16.674654205607155","758.3333534223067","422.22223340729164","","","","","4+1= ?","5","1","","","","","","","",""
"1952","","6","psychophysics","122","346792","0.0-7.0-5.0-0.19","6","6","7","5","5","5","2","5","4","5","5","1","1","0","1","0","2","1","2","5","5","5","5","5","5","4","5","5","4","7","7","8","9","6","8","8","6","8","6","3","5","5","6","3","6","2","7","2","1","3","2","6","3","7","6","6","3","5","6","3","3","3","2","2","7","3","6","3","6","6","5","5","2","2","5","3","7","2","6","720327574219128832","赵","445","Male","[""好他"",""好我"",""坏他"",""坏我""]","[""强他"",""强我"",""弱他"",""弱我""]","","","","","","","","6","","","","","","","","","SRET","SRET_math_calculate","","key","6","16.676663793103593","758.3333534223067","422.22223340729164","","","","","8-2= ?","6","1","","","","","","","",""
"2221","","9","psychophysics","123","349014","0.0-7.0-5.0-0.20","6","6","7","5","5","5","2","5","4","5","5","1","1","0","1","0","2","1","2","5","5","5","5","5","5","4","5","5","4","7","7","8","9","6","8","8","6","8","6","3","5","5","6","3","6","2","7","2","1","3","2","6","3","7","6","6","3","5","6","3","3","3","2","2","7","3","6","3","6","6","5","5","2","2","5","3","7","2","6","720327574219128832","赵","445","Male","[""好他"",""好我"",""坏他"",""坏我""]","[""强他"",""强我"",""弱他"",""弱我""]","","","","","","","","9","","","","","","","","","SRET","SRET_math_calculate","","key","9","16.674378787878652","758.3333534223067","422.22223340729164","","","","","18/2= ?","9","1","","","","","","","",""
"1869","","1","psychophysics","124","350889","0.0-7.0-5.0-0.21","6","6","7","5","5","5","2","5","4","5","5","1","1","0","1","0","2","1","2","5","5","5","5","5","5","4","5","5","4","7","7","8","9","6","8","8","6","8","6","3","5","5","6","3","6","2","7","2","1","3","2","6","3","7","6","6","3","5","6","3","3","3","2","2","7","3","6","3","6","6","5","5","2","2","5","3","7","2","6","720327574219128832","赵","445","Male","[""好他"",""好我"",""坏他"",""坏我""]","[""强他"",""强我"",""弱他"",""弱我""]","","","","","","","","1","","","","","","","","","SRET","SRET_math_calculate","","key","1","16.676303571428434","758.3333534223067","422.22223340729164","","","","","30-29= ?","1","1","","","","","","","",""
"1892","","5","psychophysics","125","352782","0.0-7.0-5.0-0.22","6","6","7","5","5","5","2","5","4","5","5","1","1","0","1","0","2","1","2","5","5","5","5","5","5","4","5","5","4","7","7","8","9","6","8","8","6","8","6","3","5","5","6","3","6","2","7","2","1","3","2","6","3","7","6","6","3","5","6","3","3","3","2","2","7","3","6","3","6","6","5","5","2","2","5","3","7","2","6","720327574219128832","赵","445","Male","[""好他"",""好我"",""坏他"",""坏我""]","[""强他"",""强我"",""弱他"",""弱我""]","","","","","","","","5","","","","","","","","","SRET","SRET_math_calculate","","key","5","16.67635714285695","758.3333534223067","422.22223340729164","","","","","16-11= ?","5","1","","","","","","","",""
"1816","","2","psychophysics","126","354602","0.0-7.0-5.0-0.23","6","6","7","5","5","5","2","5","4","5","5","1","1","0","1","0","2","1","2","5","5","5","5","5","5","4","5","5","4","7","7","8","9","6","8","8","6","8","6","3","5","5","6","3","6","2","7","2","1","3","2","6","3","7","6","6","3","5","6","3","3","3","2","2","7","3","6","3","6","6","5","5","2","2","5","3","7","2","6","720327574219128832","赵","445","Male","[""好他"",""好我"",""坏他"",""坏我""]","[""强他"",""强我"",""弱他"",""弱我""]","","","","","","","","2","","","","","","","","","SRET","SRET_math_calculate","","key","2","16.67648623853232","758.3333534223067","422.22223340729164","","","","","29-27= ?","2","1","","","","","","","",""
"1890","","6","psychophysics","127","356495","0.0-7.0-5.0-0.24","6","6","7","5","5","5","2","5","4","5","5","1","1","0","1","0","2","1","2","5","5","5","5","5","5","4","5","5","4","7","7","8","9","6","8","8","6","8","6","3","5","5","6","3","6","2","7","2","1","3","2","6","3","7","6","6","3","5","6","3","3","3","2","2","7","3","6","3","6","6","5","5","2","2","5","3","7","2","6","720327574219128832","赵","445","Male","[""好他"",""好我"",""坏他"",""坏我""]","[""强他"",""强我"",""弱他"",""弱我""]","","","","","","","","6","","","","","","","","","SRET","SRET_math_calculate","","key","6","16.673857142857223","758.3333534223067","422.22223340729164","","","","","3+3= ?","6","1","","","","","","","",""
"2675","","3","psychophysics","128","359171","0.0-7.0-5.0-0.25","6","6","7","5","5","5","2","5","4","5","5","1","1","0","1","0","2","1","2","5","5","5","5","5","5","4","5","5","4","7","7","8","9","6","8","8","6","8","6","3","5","5","6","3","6","2","7","2","1","3","2","6","3","7","6","6","3","5","6","3","3","3","2","2","7","3","6","3","6","6","5","5","2","2","5","3","7","2","6","720327574219128832","赵","445","Male","[""好他"",""好我"",""坏他"",""坏我""]","[""强他"",""强我"",""弱他"",""弱我""]","","","","","","","","3","","","","","","","","","SRET","SRET_math_calculate","","key","3","16.67425000000003","758.3333534223067","422.22223340729164","","","","","12/4= ?","3","1","","","","","","","",""
"1795","","6","psychophysics","129","360969","0.0-7.0-5.0-0.26","6","6","7","5","5","5","2","5","4","5","5","1","1","0","1","0","2","1","2","5","5","5","5","5","5","4","5","5","4","7","7","8","9","6","8","8","6","8","6","3","5","5","6","3","6","2","7","2","1","3","2","6","3","7","6","6","3","5","6","3","3","3","2","2","7","3","6","3","6","6","5","5","2","2","5","3","7","2","6","720327574219128832","赵","445","Male","[""好他"",""好我"",""坏他"",""坏我""]","[""强他"",""强我"",""弱他"",""弱我""]","","","","","","","","6","","","","","","","","","SRET","SRET_math_calculate","","key","6","16.6744245283019","758.3333534223067","422.22223340729164","","","","","4+2= ?","6","1","","","","","","","",""
"1947","","0","psychophysics","130","362922","0.0-7.0-5.0-0.27","6","6","7","5","5","5","2","5","4","5","5","1","1","0","1","0","2","1","2","5","5","5","5","5","5","4","5","5","4","7","7","8","9","6","8","8","6","8","6","3","5","5","6","3","6","2","7","2","1","3","2","6","3","7","6","6","3","5","6","3","3","3","2","2","7","3","6","3","6","6","5","5","2","2","5","3","7","2","6","720327574219128832","赵","445","Male","[""好他"",""好我"",""坏他"",""坏我""]","[""强他"",""强我"",""弱他"",""弱我""]","","","","","","","","0","","","","","","","","","SRET","SRET_math_calculate","","key","0","16.67426495726517","758.3333534223067","422.22223340729164","","","","","22-22= ?","0","1","","","","","","","",""
"1869","","5","psychophysics","131","364795","0.0-7.0-5.0-0.28","6","6","7","5","5","5","2","5","4","5","5","1","1","0","1","0","2","1","2","5","5","5","5","5","5","4","5","5","4","7","7","8","9","6","8","8","6","8","6","3","5","5","6","3","6","2","7","2","1","3","2","6","3","7","6","6","3","5","6","3","3","3","2","2","7","3","6","3","6","6","5","5","2","2","5","3","7","2","6","720327574219128832","赵","445","Male","[""好他"",""好我"",""坏他"",""坏我""]","[""强他"",""强我"",""弱他"",""弱我""]","","","","","","","","5","","","","","","","","","SRET","SRET_math_calculate","","key","5","16.678954954954968","758.3333534223067","422.22223340729164","","","","","15-10= ?","5","1","","","","","","","",""
"1779","","6","psychophysics","132","366575","0.0-7.0-5.0-0.29","6","6","7","5","5","5","2","5","4","5","5","1","1","0","1","0","2","1","2","5","5","5","5","5","5","4","5","5","4","7","7","8","9","6","8","8","6","8","6","3","5","5","6","3","6","2","7","2","1","3","2","6","3","7","6","6","3","5","6","3","3","3","2","2","7","3","6","3","6","6","5","5","2","2","5","3","7","2","6","720327574219128832","赵","445","Male","[""好他"",""好我"",""坏他"",""坏我""]","[""强他"",""强我"",""弱他"",""弱我""]","","","","","","","","6","","","","","","","","","SRET","SRET_math_calculate","","key","6","16.677132075471818","758.3333534223067","422.22223340729164","","","","","5+1= ?","6","1","","","","","","","",""
"1954","","7","psychophysics","133","368530","0.0-7.0-5.0-0.30","6","6","7","5","5","5","2","5","4","5","5","1","1","0","1","0","2","1","2","5","5","5","5","5","5","4","5","5","4","7","7","8","9","6","8","8","6","8","6","3","5","5","6","3","6","2","7","2","1","3","2","6","3","7","6","6","3","5","6","3","3","3","2","2","7","3","6","3","6","6","5","5","2","2","5","3","7","2","6","720327574219128832","赵","445","Male","[""好他"",""好我"",""坏他"",""坏我""]","[""强他"",""强我"",""弱他"",""弱我""]","","","","","","","","7","","","","","","","","","SRET","SRET_math_calculate","","key","7","16.672077586206985","758.3333534223067","422.22223340729164","","","","","8-1= ?","7","1","","","","","","","",""
"1915","","8","psychophysics","134","370447","0.0-7.0-5.0-0.31","6","6","7","5","5","5","2","5","4","5","5","1","1","0","1","0","2","1","2","5","5","5","5","5","5","4","5","5","4","7","7","8","9","6","8","8","6","8","6","3","5","5","6","3","6","2","7","2","1","3","2","6","3","7","6","6","3","5","6","3","3","3","2","2","7","3","6","3","6","6","5","5","2","2","5","3","7","2","6","720327574219128832","赵","445","Male","[""好他"",""好我"",""坏他"",""坏我""]","[""强他"",""强我"",""弱他"",""弱我""]","","","","","","","","8","","","","","","","","","SRET","SRET_math_calculate","","key","8","16.676745614034875","758.3333534223067","422.22223340729164","","","","","5+3= ?","8","1","","","","","","","",""
"2546","","7","psychophysics","135","372995","0.0-7.0-5.0-0.32","6","6","7","5","5","5","2","5","4","5","5","1","1","0","1","0","2","1","2","5","5","5","5","5","5","4","5","5","4","7","7","8","9","6","8","8","6","8","6","3","5","5","6","3","6","2","7","2","1","3","2","6","3","7","6","6","3","5","6","3","3","3","2","2","7","3","6","3","6","6","5","5","2","2","5","3","7","2","6","720327574219128832","赵","445","Male","[""好他"",""好我"",""坏他"",""坏我""]","[""强他"",""强我"",""弱他"",""弱我""]","","","","","","","","7","","","","","","","","","SRET","SRET_math_calculate","","key","7","16.675947368420708","758.3333534223067","422.22223340729164","","","","","11-4= ?","7","1","","","","","","","",""
"1797","","3","psychophysics","136","374794","0.0-7.0-5.0-0.33","6","6","7","5","5","5","2","5","4","5","5","1","1","0","1","0","2","1","2","5","5","5","5","5","5","4","5","5","4","7","7","8","9","6","8","8","6","8","6","3","5","5","6","3","6","2","7","2","1","3","2","6","3","7","6","6","3","5","6","3","3","3","2","2","7","3","6","3","6","6","5","5","2","2","5","3","7","2","6","720327574219128832","赵","445","Male","[""好他"",""好我"",""坏他"",""坏我""]","[""强他"",""强我"",""弱他"",""弱我""]","","","","","","","","3","","","","","","","","","SRET","SRET_math_calculate","","key","3","16.674467289719676","758.3333534223067","422.22223340729164","","","","","2+1= ?","3","1","","","","","","","",""
