"rt","stimulus","response","trial_type","trial_index","time_elapsed","internal_node_id","swb_1","swb_2","swb_3","swb_4","swb_5","LOT_1","LOT_2","LOT_3","LOT_4","LOT_5","LOT_6","IPC_1","IPC_2","IPC_3","IPC_4","IPC_5","IPC_6","IPC_7","IPC_8","MorIden_1","MorIden_2","MorIden_3","MorIden_4","MorIden_5","MorIden_6","MorIden_7","MorIden_8","MorIden_9","MorIden_10","moralSeImag_1","moralSeImag_2","moralSeImag_3","moralSeImag_4","moralSeImag_5","moralSeImag_6","moralSeImag_7","moralSeImag_8","moralSeImag_9","sde_1","sde_2","sde_3","sde_4","sde_5","sde_6","sde_7","sde_8","sde_9","sde_10","trap2","sde_11","sde_12","sde_13","sde_14","sde_15","sde_16","sde_17","sde_18","sde_19","sde_20","IM_1","IM_2","IM_3","IM_4","IM_5","IM_6","IM_7","IM_8","IM_9","IM_10","IM_11","IM_12","IM_13","IM_14","IM_15","IM_16","IM_17","IM_18","IM_19","IM_20","subj_idx","friend_name","ParticipantID","Sex","Word","Word2","value","success","timeout","failed_images","failed_audio","failed_video","user_agent","responses","item_order","radio_event_ids","radio_event_times","key_event_times","mouse_event_times","straightlining","zigzagging","honeypot","task_id","screen_id","time_stamp","response_type","key_press","avg_frame_time","center_x","center_y","person","word","valence","domain","math","correct_response","correct","status","view_history","identity","duration","Image","condition","question_order","trap2_item"
"1013","
   <p><div style='color:white; font-size: 25px'>您好，欢迎参加本次实验。</div></p>
   <p><div style='color:white; font-size: 25px'>为充分保障您的权利，请确保您已经知晓并同意《参与实验同意书》以及《数据公开知情同意书》。</div></p>
   <p><div style='color:white; font-size: 25px'>如果您未见过上述内容，请咨询实验员。</div></p>
   <p style='color:white; font-size: 25px'>如果您选择继续实验，则表示您已经清楚两份知情同意书的内容并同意。</p>
   <p><div style = ""color: pink;font-size:30px;"">请确保您记得day0的实验编号，您将在本次实验输入该编号，若您忘记，请咨询实验员后作答。</div></p>
   <p><div style = ""color:lightblue;font-size:25px;"">请您尽可能认真地作答，我们将依据您在各问卷和按键任务中的作答质量发放报酬。</div></p>
   <p> <div style = ""color: green""><按空格键至下页></div> </p>
   "," ","html-keyboard-response","0","1015","0.0-0.0","7","7","7","7","7","5","4","5","5","5","5","2","1","2","2","1","2","2","2","5","5","5","5","5","5","5","5","5","5","6","7","7","8","7","5","7","8","7","7","7","7","7","7","6","7","1","7","7","1","7","7","7","7","7","7","7","7","7","7","7","7","7","7","7","7","7","7","7","7","7","6","7","7","7","7","7","7","7","7","619618027951882240","张","268","Male","[""好我"",""坏他"",""坏我"",""好他""]","[""强我"",""弱他"",""弱我"",""强他""]","","","","","","","","","","","","","","","","","","","","","","","","","","","","","","","","","","","","","","",""
"","","","call-function","1","1015","0.0-1.0-0.0","7","7","7","7","7","5","4","5","5","5","5","2","1","2","2","1","2","2","2","5","5","5","5","5","5","5","5","5","5","6","7","7","8","7","5","7","8","7","7","7","7","7","7","6","7","1","7","7","1","7","7","7","7","7","7","7","7","7","7","7","7","7","7","7","7","7","7","7","7","7","6","7","7","7","7","7","7","7","7","619618027951882240","张","268","Male","[""好我"",""坏他"",""坏我"",""好他""]","[""强我"",""弱他"",""弱我"",""强他""]","","","","","","","","","","","","","","","","","","","","","","","","","","","","","","","","","","","","","","",""
"11756","","[{""name"":""Sex"",""value"":""0""},{""name"":""friend_name"",""value"":""张""},{""name"":""ParticipantID"",""value"":""268""}]","survey-html-form","2","12772","0.0-1.0-1.0","7","7","7","7","7","5","4","5","5","5","5","2","1","2","2","1","2","2","2","5","5","5","5","5","5","5","5","5","5","6","7","7","8","7","5","7","8","7","7","7","7","7","7","6","7","1","7","7","1","7","7","7","7","7","7","7","7","7","7","7","7","7","7","7","7","7","7","7","7","7","6","7","7","7","7","7","7","7","7","619618027951882240","张","268","Male","[""好我"",""坏他"",""坏我"",""好他""]","[""强我"",""弱他"",""弱我"",""强他""]","","","","","","","","","","","","","","","","","","","","","","","","","","","","","","","","","","","","","","",""
"","","","preload","3","13095","0.0-2.0","7","7","7","7","7","5","4","5","5","5","5","2","1","2","2","1","2","2","2","5","5","5","5","5","5","5","5","5","5","6","7","7","8","7","5","7","8","7","7","7","7","7","7","6","7","1","7","7","1","7","7","7","7","7","7","7","7","7","7","7","7","7","7","7","7","7","7","7","7","7","6","7","7","7","7","7","7","7","7","619618027951882240","张","268","Male","[""好我"",""坏他"",""坏我"",""好他""]","[""强我"",""弱他"",""弱我"",""强他""]","","true","false","[]","[]","[]","","","","","","","","","","","","","","","","","","","","","","","","","","","","","","","","",""
"","","","fullscreen","4","14089","0.0-3.0","7","7","7","7","7","5","4","5","5","5","5","2","1","2","2","1","2","2","2","5","5","5","5","5","5","5","5","5","5","6","7","7","8","7","5","7","8","7","7","7","7","7","7","6","7","1","7","7","1","7","7","7","7","7","7","7","7","7","7","7","7","7","7","7","7","7","7","7","7","7","6","7","7","7","7","7","7","7","7","619618027951882240","张","268","Male","[""好我"",""坏他"",""坏我"",""好他""]","[""强我"",""弱他"",""弱我"",""强他""]","","true","","","","","{}","","","","","","","","","","","","","","","","","","","","","","","","","","","","","","","",""
"4626.099999904633","","{""Q01"":""7"",""Q02"":""7"",""Q03"":""7"",""Q04"":""7"",""Q05"":""7""}","survey-template","5","18717","0.0-4.0","7","7","7","7","7","5","4","5","5","5","5","2","1","2","2","1","2","2","2","5","5","5","5","5","5","5","5","5","5","6","7","7","8","7","5","7","8","7","7","7","7","7","7","6","7","1","7","7","1","7","7","7","7","7","7","7","7","7","7","7","7","7","7","7","7","7","7","7","7","7","6","7","7","7","7","7","7","7","7","619618027951882240","张","268","Male","[""好我"",""坏他"",""坏我"",""好他""]","[""强我"",""弱他"",""弱我"",""强他""]","","","","","","","","{""Q01"":""7"",""Q02"":""7"",""Q03"":""7"",""Q04"":""7"",""Q05"":""7""}","[0,1,2,3,4]","[""Q01"",""Q02"",""Q03"",""Q04"",""Q05"",""Q05""]","[1473.1999998092651,2057.5999999046326,2737.199999809265,3433.199999809265,3857.7999999523163,4057.7999999523163]","[]","[1473.1999998092651,2057.5999999046326,2553.399999856949,2737.199999809265,3433.199999809265,3857.7999999523163,4057.7999999523163,4625.599999904633]","1","0","0","","","","","","","","","","","","","","","","","","","","","","",""
"27709.400000095367","","{""Q01"":""5"",""Q02"":""4"",""Q03"":""5"",""Q04"":""5"",""Q05"":""5"",""Q06"":""5""}","survey-template","6","46429","0.0-5.0","7","7","7","7","7","5","4","5","5","5","5","2","1","2","2","1","2","2","2","5","5","5","5","5","5","5","5","5","5","6","7","7","8","7","5","7","8","7","7","7","7","7","7","6","7","1","7","7","1","7","7","7","7","7","7","7","7","7","7","7","7","7","7","7","7","7","7","7","7","7","6","7","7","7","7","7","7","7","7","619618027951882240","张","268","Male","[""好我"",""坏他"",""坏我"",""好他""]","[""强我"",""弱他"",""弱我"",""强他""]","","","","","","","","{""Q01"":""5"",""Q02"":""4"",""Q03"":""5"",""Q04"":""5"",""Q05"":""5"",""Q06"":""5""}","[0,1,2,3,4,5]","[""Q06"",""Q04"",""Q05"",""Q03"",""Q02"",""Q01""]","[1380.5,3196.5,3636.4000000953674,4765.200000047684,6636.5,8196.800000190735]","[]","[876.4000000953674,1380.5,2372.4000000953674,2956.7000000476837,3196.5,3636.4000000953674,4765.200000047684,5772.5,6636.5,8196.800000190735,27708.60000014305]","0.5","0.4","0","","","","","","","","","","","","","","","","","","","","","","",""
"12613.799999952316","","{""Q01"":""2"",""Q02"":""1"",""Q03"":""2"",""Q04"":""2"",""Q05"":""1"",""Q06"":""2"",""Q07"":""2"",""Q08"":""2""}","survey-template","7","59046","0.0-6.0","7","7","7","7","7","5","4","5","5","5","5","2","1","2","2","1","2","2","2","5","5","5","5","5","5","5","5","5","5","6","7","7","8","7","5","7","8","7","7","7","7","7","7","6","7","1","7","7","1","7","7","7","7","7","7","7","7","7","7","7","7","7","7","7","7","7","7","7","7","7","6","7","7","7","7","7","7","7","7","619618027951882240","张","268","Male","[""好我"",""坏他"",""坏我"",""好他""]","[""强我"",""弱他"",""弱我"",""强他""]","","","","","","","","{""Q01"":""2"",""Q02"":""1"",""Q03"":""2"",""Q04"":""2"",""Q05"":""1"",""Q06"":""2"",""Q07"":""2"",""Q08"":""2""}","[0,1,2,3,4,5,6,7]","[""Q01"",""Q02"",""Q04"",""Q03"",""Q05"",""Q06"",""Q07"",""Q08"",""Q05""]","[1468.5999999046326,3476.7000000476837,4484.599999904633,5068.599999904633,5684.700000047684,6557.099999904633,7084.599999904633,7908.700000047684,11788.299999952316]","[]","[1468.5999999046326,2556.7000000476837,3476.7000000476837,4069.5,4484.599999904633,5068.599999904633,5684.700000047684,6172.599999904633,6557.099999904633,7084.599999904633,7908.700000047684,10836.799999952316,11788.299999952316,12612.700000047684]","0.75","0.5714285714285714","0","","","","","","","","","","","","","","","","","","","","","","",""
"27324","
    <p><div style='color:white;font-size:35px; line-height:20px;'>词汇评估任务</div></p><br>
    <p><div style='color:white;font-size:25px; line-height:20px;'>请再次回忆该亲密的朋友，你们至少2年前就认识了，并且最近2年经常见面。</div></p>
    <p><div style='color:white;font-size:25px; line-height:20px;'>在本实验中，您将会看到一些形容词。</div></p>
    <p><div style='color:yellow;font-size:25px; line-height:20px;'>您的任务是判断这些形容词是否符合对您自己或您的朋友的描述。</div></p><p style='font-size:35px'>符合按<span style=""color:lightgreen""> f 键</span>，不符合按<span style=""color:red""> j 键</span></p>","0","html-button-response","8","86372","0.0-7.0-0.0","7","7","7","7","7","5","4","5","5","5","5","2","1","2","2","1","2","2","2","5","5","5","5","5","5","5","5","5","5","6","7","7","8","7","5","7","8","7","7","7","7","7","7","6","7","1","7","7","1","7","7","7","7","7","7","7","7","7","7","7","7","7","7","7","7","7","7","7","7","7","6","7","7","7","7","7","7","7","7","619618027951882240","张","268","Male","[""好我"",""坏他"",""坏我"",""好他""]","[""强我"",""弱他"",""弱我"",""强他""]","","","","","","","","","","","","","","","","","SRET_EW","EW_instructions","Sun Jan 07 2024 17:16:31 GMT+0800 (中国标准时间)","","","","","","","","","","","","","","","","","","","",""
"533","","f","psychophysics","9","87908","0.0-7.0-1.0-0.0","7","7","7","7","7","5","4","5","5","5","5","2","1","2","2","1","2","2","2","5","5","5","5","5","5","5","5","5","5","6","7","7","8","7","5","7","8","7","7","7","7","7","7","6","7","1","7","7","1","7","7","7","7","7","7","7","7","7","7","7","7","7","7","7","7","7","7","7","7","7","6","7","7","7","7","7","7","7","7","619618027951882240","张","268","Male","[""好我"",""坏他"",""坏我"",""好他""]","[""强我"",""弱他"",""弱我"",""强他""]","","","","","","","","yes","","","","","","","","","SRET_EW","EW_practice","","key","f","16.664130434782514","768","428","自己","严谨","Positive","ability","","","","","","","","","","",""
"829","","j","psychophysics","10","89740","0.0-7.0-1.0-0.1","7","7","7","7","7","5","4","5","5","5","5","2","1","2","2","1","2","2","2","5","5","5","5","5","5","5","5","5","5","6","7","7","8","7","5","7","8","7","7","7","7","7","7","6","7","1","7","7","1","7","7","7","7","7","7","7","7","7","7","7","7","7","7","7","7","7","7","7","7","7","6","7","7","7","7","7","7","7","7","619618027951882240","张","268","Male","[""好我"",""坏他"",""坏我"",""好他""]","[""强我"",""弱他"",""弱我"",""强他""]","","","","","","","","no","","","","","","","","","SRET_EW","EW_practice","","key","j","16.664220183486186","768","428","自己","刻板","Negative","ability","","","","","","","","","","",""
"663","","f","psychophysics","11","91404","0.0-7.0-1.0-0.2","7","7","7","7","7","5","4","5","5","5","5","2","1","2","2","1","2","2","2","5","5","5","5","5","5","5","5","5","5","6","7","7","8","7","5","7","8","7","7","7","7","7","7","6","7","1","7","7","1","7","7","7","7","7","7","7","7","7","7","7","7","7","7","7","7","7","7","7","7","7","6","7","7","7","7","7","7","7","7","619618027951882240","张","268","Male","[""好我"",""坏他"",""坏我"",""好他""]","[""强我"",""弱他"",""弱我"",""强他""]","","","","","","","","yes","","","","","","","","","SRET_EW","EW_practice","","key","f","16.664285714285626","768","428","朋友","忠实","Positive","morality","","","","","","","","","","",""
"742","","j","psychophysics","12","93148","0.0-7.0-1.0-0.3","7","7","7","7","7","5","4","5","5","5","5","2","1","2","2","1","2","2","2","5","5","5","5","5","5","5","5","5","5","6","7","7","8","7","5","7","8","7","7","7","7","7","7","6","7","1","7","7","1","7","7","7","7","7","7","7","7","7","7","7","7","7","7","7","7","7","7","7","7","7","6","7","7","7","7","7","7","7","7","619618027951882240","张","268","Male","[""好我"",""坏他"",""坏我"",""好他""]","[""强我"",""弱他"",""弱我"",""强他""]","","","","","","","","no","","","","","","","","","SRET_EW","EW_practice","","key","j","16.66346153846154","768","428","朋友","徇私","Negative","morality","","","","","","","","","","",""
"2703","
    <p><div style='color:white;font-size:35px; line-height:20px;'>请您再次阅读实验要求</div></p><br>
    <p><div style='color:white;font-size:25px; line-height:20px;'>请回忆某一个亲密的朋友，你们至少2年前就认识了，并且最近2年经常见面。</div></p>
    <p><div style='color:white;font-size:25px; line-height:20px;'>在本实验中，您将会看到一些形容词。</div></p>
    <p><div style='color:yellow;font-size:25px; line-height:20px;'>您的任务是判断这些形容词是否符合对您自己或您的朋友的描述。</div></p>
    <p><div class='footer' style='font-size:25px; line-height:20px;'>如果对本实验还有不清楚之处，请立即向实验员咨询。</p><p style='font-size:25px; line-height:20px;'>如果您明白了规则：</p><p style='font-size:22px; line-height:20px;'>请按 继续 进入正式实验</p>
    </div>
    <p style='font-size:35px'>符合按<span style=""color:lightgreen""> f 键</span>，不符合按<span style=""color:red""> j 键</span></p>","0","html-button-response","13","95852","0.0-7.0-2.0","7","7","7","7","7","5","4","5","5","5","5","2","1","2","2","1","2","2","2","5","5","5","5","5","5","5","5","5","5","6","7","7","8","7","5","7","8","7","7","7","7","7","7","6","7","1","7","7","1","7","7","7","7","7","7","7","7","7","7","7","7","7","7","7","7","7","7","7","7","7","6","7","7","7","7","7","7","7","7","619618027951882240","张","268","Male","[""好我"",""坏他"",""坏我"",""好他""]","[""强我"",""弱他"",""弱我"",""强他""]","","","","","","","","","","","","","","","","","SRET_EW","prac_instructions","Sun Jan 07 2024 17:16:31 GMT+0800 (中国标准时间)","","","","","","","","","","","","","","","","","","","",""
"806","","j","psychophysics","14","97660","0.0-7.0-3.0-0.0","7","7","7","7","7","5","4","5","5","5","5","2","1","2","2","1","2","2","2","5","5","5","5","5","5","5","5","5","5","6","7","7","8","7","5","7","8","7","7","7","7","7","7","6","7","1","7","7","1","7","7","7","7","7","7","7","7","7","7","7","7","7","7","7","7","7","7","7","7","7","6","7","7","7","7","7","7","7","7","619618027951882240","张","268","Male","[""好我"",""坏他"",""坏我"",""好他""]","[""强我"",""弱他"",""弱我"",""强他""]","","","","","","","","no","","","","","","","","","SRET","EW_formal","","key","j","16.664220183486318","768","428","朋友","迷糊","Negative","ability","","","","","","","","","","",""
"630","","f","psychophysics","15","99292","0.0-7.0-3.0-0.1","7","7","7","7","7","5","4","5","5","5","5","2","1","2","2","1","2","2","2","5","5","5","5","5","5","5","5","5","5","6","7","7","8","7","5","7","8","7","7","7","7","7","7","6","7","1","7","7","1","7","7","7","7","7","7","7","7","7","7","7","7","7","7","7","7","7","7","7","7","7","6","7","7","7","7","7","7","7","7","619618027951882240","张","268","Male","[""好我"",""坏他"",""坏我"",""好他""]","[""强我"",""弱他"",""弱我"",""强他""]","","","","","","","","yes","","","","","","","","","SRET","EW_formal","","key","f","16.66701030927832","768","428","自己","坚贞","Positive","morality","","","","","","","","","","",""
"551","","j","psychophysics","16","100844","0.0-7.0-3.0-0.2","7","7","7","7","7","5","4","5","5","5","5","2","1","2","2","1","2","2","2","5","5","5","5","5","5","5","5","5","5","6","7","7","8","7","5","7","8","7","7","7","7","7","7","6","7","1","7","7","1","7","7","7","7","7","7","7","7","7","7","7","7","7","7","7","7","7","7","7","7","7","6","7","7","7","7","7","7","7","7","619618027951882240","张","268","Male","[""好我"",""坏他"",""坏我"",""好他""]","[""强我"",""弱他"",""弱我"",""强他""]","","","","","","","","no","","","","","","","","","SRET","EW_formal","","key","j","16.665217391304317","768","428","自己","说谎","Negative","morality","","","","","","","","","","",""
"1087","","f","psychophysics","17","102932","0.0-7.0-3.0-0.3","7","7","7","7","7","5","4","5","5","5","5","2","1","2","2","1","2","2","2","5","5","5","5","5","5","5","5","5","5","6","7","7","8","7","5","7","8","7","7","7","7","7","7","6","7","1","7","7","1","7","7","7","7","7","7","7","7","7","7","7","7","7","7","7","7","7","7","7","7","7","6","7","7","7","7","7","7","7","7","619618027951882240","张","268","Male","[""好我"",""坏他"",""坏我"",""好他""]","[""强我"",""弱他"",""弱我"",""强他""]","","","","","","","","yes","","","","","","","","","SRET","EW_formal","","key","f","16.66532258064516","768","428","朋友","务实","Positive","ability","","","","","","","","","","",""
"774","","f","psychophysics","18","104708","0.0-7.0-3.0-0.4","7","7","7","7","7","5","4","5","5","5","5","2","1","2","2","1","2","2","2","5","5","5","5","5","5","5","5","5","5","6","7","7","8","7","5","7","8","7","7","7","7","7","7","6","7","1","7","7","1","7","7","7","7","7","7","7","7","7","7","7","7","7","7","7","7","7","7","7","7","7","6","7","7","7","7","7","7","7","7","619618027951882240","张","268","Male","[""好我"",""坏他"",""坏我"",""好他""]","[""强我"",""弱他"",""弱我"",""强他""]","","","","","","","","yes","","","","","","","","","SRET","EW_formal","","key","f","16.666037735849113","768","428","自己","高尚","Positive","morality","","","","","","","","","","",""
"679","","f","psychophysics","19","106388","0.0-7.0-3.0-0.5","7","7","7","7","7","5","4","5","5","5","5","2","1","2","2","1","2","2","2","5","5","5","5","5","5","5","5","5","5","6","7","7","8","7","5","7","8","7","7","7","7","7","7","6","7","1","7","7","1","7","7","7","7","7","7","7","7","7","7","7","7","7","7","7","7","7","7","7","7","7","6","7","7","7","7","7","7","7","7","619618027951882240","张","268","Male","[""好我"",""坏他"",""坏我"",""好他""]","[""强我"",""弱他"",""弱我"",""强他""]","","","","","","","","yes","","","","","","","","","SRET","EW_formal","","key","f","16.666000000000057","768","428","自己","廉正","Positive","morality","","","","","","","","","","",""
"695","","j","psychophysics","20","108084","0.0-7.0-3.0-0.6","7","7","7","7","7","5","4","5","5","5","5","2","1","2","2","1","2","2","2","5","5","5","5","5","5","5","5","5","5","6","7","7","8","7","5","7","8","7","7","7","7","7","7","6","7","1","7","7","1","7","7","7","7","7","7","7","7","7","7","7","7","7","7","7","7","7","7","7","7","7","6","7","7","7","7","7","7","7","7","619618027951882240","张","268","Male","[""好我"",""坏他"",""坏我"",""好他""]","[""强我"",""弱他"",""弱我"",""强他""]","","","","","","","","no","","","","","","","","","SRET","EW_formal","","key","j","16.665","768","428","自己","毛糙","Negative","ability","","","","","","","","","","",""
"678","","j","psychophysics","21","109764","0.0-7.0-3.0-0.7","7","7","7","7","7","5","4","5","5","5","5","2","1","2","2","1","2","2","2","5","5","5","5","5","5","5","5","5","5","6","7","7","8","7","5","7","8","7","7","7","7","7","7","6","7","1","7","7","1","7","7","7","7","7","7","7","7","7","7","7","7","7","7","7","7","7","7","7","7","7","6","7","7","7","7","7","7","7","7","619618027951882240","张","268","Male","[""好我"",""坏他"",""坏我"",""好他""]","[""强我"",""弱他"",""弱我"",""强他""]","","","","","","","","no","","","","","","","","","SRET","EW_formal","","key","j","16.66399999999994","768","428","朋友","奸诈","Negative","morality","","","","","","","","","","",""
"938","","f","psychophysics","22","111708","0.0-7.0-3.0-0.8","7","7","7","7","7","5","4","5","5","5","5","2","1","2","2","1","2","2","2","5","5","5","5","5","5","5","5","5","5","6","7","7","8","7","5","7","8","7","7","7","7","7","7","6","7","1","7","7","1","7","7","7","7","7","7","7","7","7","7","7","7","7","7","7","7","7","7","7","7","7","6","7","7","7","7","7","7","7","7","619618027951882240","张","268","Male","[""好我"",""坏他"",""坏我"",""好他""]","[""强我"",""弱他"",""弱我"",""强他""]","","","","","","","","yes","","","","","","","","","SRET","EW_formal","","key","f","16.664655172413845","768","428","朋友","刻苦","Positive","ability","","","","","","","","","","",""
"910","","j","psychophysics","23","113620","0.0-7.0-3.0-0.9","7","7","7","7","7","5","4","5","5","5","5","2","1","2","2","1","2","2","2","5","5","5","5","5","5","5","5","5","5","6","7","7","8","7","5","7","8","7","7","7","7","7","7","6","7","1","7","7","1","7","7","7","7","7","7","7","7","7","7","7","7","7","7","7","7","7","7","7","7","7","6","7","7","7","7","7","7","7","7","619618027951882240","张","268","Male","[""好我"",""坏他"",""坏我"",""好他""]","[""强我"",""弱他"",""弱我"",""强他""]","","","","","","","","no","","","","","","","","","SRET","EW_formal","","key","j","16.66548672566382","768","428","朋友","庸碌","Negative","ability","","","","","","","","","","",""
"758","","j","psychophysics","24","115380","0.0-7.0-3.0-0.10","7","7","7","7","7","5","4","5","5","5","5","2","1","2","2","1","2","2","2","5","5","5","5","5","5","5","5","5","5","6","7","7","8","7","5","7","8","7","7","7","7","7","7","6","7","1","7","7","1","7","7","7","7","7","7","7","7","7","7","7","7","7","7","7","7","7","7","7","7","7","6","7","7","7","7","7","7","7","7","619618027951882240","张","268","Male","[""好我"",""坏他"",""坏我"",""好他""]","[""强我"",""弱他"",""弱我"",""强他""]","","","","","","","","no","","","","","","","","","SRET","EW_formal","","key","j","16.66476190476193","768","428","自己","无知","Negative","ability","","","","","","","","","","",""
"656","","j","psychophysics","25","117037","0.0-7.0-3.0-0.11","7","7","7","7","7","5","4","5","5","5","5","2","1","2","2","1","2","2","2","5","5","5","5","5","5","5","5","5","5","6","7","7","8","7","5","7","8","7","7","7","7","7","7","6","7","1","7","7","1","7","7","7","7","7","7","7","7","7","7","7","7","7","7","7","7","7","7","7","7","7","6","7","7","7","7","7","7","7","7","619618027951882240","张","268","Male","[""好我"",""坏他"",""坏我"",""好他""]","[""强我"",""弱他"",""弱我"",""强他""]","","","","","","","","no","","","","","","","","","SRET","EW_formal","","key","j","16.66565656565651","768","428","朋友","愚钝","Negative","ability","","","","","","","","","","",""
"614","","j","psychophysics","26","118652","0.0-7.0-3.0-0.12","7","7","7","7","7","5","4","5","5","5","5","2","1","2","2","1","2","2","2","5","5","5","5","5","5","5","5","5","5","6","7","7","8","7","5","7","8","7","7","7","7","7","7","6","7","1","7","7","1","7","7","7","7","7","7","7","7","7","7","7","7","7","7","7","7","7","7","7","7","7","6","7","7","7","7","7","7","7","7","619618027951882240","张","268","Male","[""好我"",""坏他"",""坏我"",""好他""]","[""强我"",""弱他"",""弱我"",""强他""]","","","","","","","","no","","","","","","","","","SRET","EW_formal","","key","j","16.665263157894707","768","428","自己","下流","Negative","morality","","","","","","","","","","",""
"1031","","j","psychophysics","27","120684","0.0-7.0-3.0-0.13","7","7","7","7","7","5","4","5","5","5","5","2","1","2","2","1","2","2","2","5","5","5","5","5","5","5","5","5","5","6","7","7","8","7","5","7","8","7","7","7","7","7","7","6","7","1","7","7","1","7","7","7","7","7","7","7","7","7","7","7","7","7","7","7","7","7","7","7","7","7","6","7","7","7","7","7","7","7","7","619618027951882240","张","268","Male","[""好我"",""坏他"",""坏我"",""好他""]","[""强我"",""弱他"",""弱我"",""强他""]","","","","","","","","no","","","","","","","","","SRET","EW_formal","","key","j","16.66363636363639","768","428","自己","不仁","Negative","morality","","","","","","","","","","",""
"846","","j","psychophysics","28","122532","0.0-7.0-3.0-0.14","7","7","7","7","7","5","4","5","5","5","5","2","1","2","2","1","2","2","2","5","5","5","5","5","5","5","5","5","5","6","7","7","8","7","5","7","8","7","7","7","7","7","7","6","7","1","7","7","1","7","7","7","7","7","7","7","7","7","7","7","7","7","7","7","7","7","7","7","7","7","6","7","7","7","7","7","7","7","7","619618027951882240","张","268","Male","[""好我"",""坏他"",""坏我"",""好他""]","[""强我"",""弱他"",""弱我"",""强他""]","","","","","","","","no","","","","","","","","","SRET","EW_formal","","key","j","16.664545454545376","768","428","朋友","无私","Positive","morality","","","","","","","","","","",""
"679","","f","psychophysics","29","124212","0.0-7.0-3.0-0.15","7","7","7","7","7","5","4","5","5","5","5","2","1","2","2","1","2","2","2","5","5","5","5","5","5","5","5","5","5","6","7","7","8","7","5","7","8","7","7","7","7","7","7","6","7","1","7","7","1","7","7","7","7","7","7","7","7","7","7","7","7","7","7","7","7","7","7","7","7","7","6","7","7","7","7","7","7","7","7","619618027951882240","张","268","Male","[""好我"",""坏他"",""坏我"",""好他""]","[""强我"",""弱他"",""弱我"",""强他""]","","","","","","","","yes","","","","","","","","","SRET","EW_formal","","key","f","16.66599999999991","768","428","朋友","爱国","Positive","morality","","","","","","","","","","",""
"1150","","j","psychophysics","30","126364","0.0-7.0-3.0-0.16","7","7","7","7","7","5","4","5","5","5","5","2","1","2","2","1","2","2","2","5","5","5","5","5","5","5","5","5","5","6","7","7","8","7","5","7","8","7","7","7","7","7","7","6","7","1","7","7","1","7","7","7","7","7","7","7","7","7","7","7","7","7","7","7","7","7","7","7","7","7","6","7","7","7","7","7","7","7","7","619618027951882240","张","268","Male","[""好我"",""坏他"",""坏我"",""好他""]","[""强我"",""弱他"",""弱我"",""强他""]","","","","","","","","no","","","","","","","","","SRET","EW_formal","","key","j","16.6640625","768","428","自己","势利","Negative","morality","","","","","","","","","","",""
"638","","f","psychophysics","31","128004","0.0-7.0-3.0-0.17","7","7","7","7","7","5","4","5","5","5","5","2","1","2","2","1","2","2","2","5","5","5","5","5","5","5","5","5","5","6","7","7","8","7","5","7","8","7","7","7","7","7","7","6","7","1","7","7","1","7","7","7","7","7","7","7","7","7","7","7","7","7","7","7","7","7","7","7","7","7","6","7","7","7","7","7","7","7","7","619618027951882240","张","268","Male","[""好我"",""坏他"",""坏我"",""好他""]","[""强我"",""弱他"",""弱我"",""强他""]","","","","","","","","yes","","","","","","","","","SRET","EW_formal","","key","f","16.664285714285626","768","428","自己","博学","Positive","ability","","","","","","","","","","",""
"719","","f","psychophysics","32","129724","0.0-7.0-3.0-0.18","7","7","7","7","7","5","4","5","5","5","5","2","1","2","2","1","2","2","2","5","5","5","5","5","5","5","5","5","5","6","7","7","8","7","5","7","8","7","7","7","7","7","7","6","7","1","7","7","1","7","7","7","7","7","7","7","7","7","7","7","7","7","7","7","7","7","7","7","7","7","6","7","7","7","7","7","7","7","7","619618027951882240","张","268","Male","[""好我"",""坏他"",""坏我"",""好他""]","[""强我"",""弱他"",""弱我"",""强他""]","","","","","","","","yes","","","","","","","","","SRET","EW_formal","","key","f","16.664705882352827","768","428","朋友","能干","Positive","ability","","","","","","","","","","",""
"767","","f","psychophysics","33","131492","0.0-7.0-3.0-0.19","7","7","7","7","7","5","4","5","5","5","5","2","1","2","2","1","2","2","2","5","5","5","5","5","5","5","5","5","5","6","7","7","8","7","5","7","8","7","7","7","7","7","7","6","7","1","7","7","1","7","7","7","7","7","7","7","7","7","7","7","7","7","7","7","7","7","7","7","7","7","6","7","7","7","7","7","7","7","7","619618027951882240","张","268","Male","[""好我"",""坏他"",""坏我"",""好他""]","[""强我"",""弱他"",""弱我"",""强他""]","","","","","","","","yes","","","","","","","","","SRET","EW_formal","","key","f","16.664761904761793","768","428","自己","依靠","Negative","ability","","","","","","","","","","",""
"623","","f","psychophysics","34","133116","0.0-7.0-3.0-0.20","7","7","7","7","7","5","4","5","5","5","5","2","1","2","2","1","2","2","2","5","5","5","5","5","5","5","5","5","5","6","7","7","8","7","5","7","8","7","7","7","7","7","7","6","7","1","7","7","1","7","7","7","7","7","7","7","7","7","7","7","7","7","7","7","7","7","7","7","7","7","6","7","7","7","7","7","7","7","7","619618027951882240","张","268","Male","[""好我"",""坏他"",""坏我"",""好他""]","[""强我"",""弱他"",""弱我"",""强他""]","","","","","","","","yes","","","","","","","","","SRET","EW_formal","","key","f","16.665624999999938","768","428","自己","高洁","Positive","morality","","","","","","","","","","",""
"773","","f","psychophysics","35","134892","0.0-7.0-3.0-0.21","7","7","7","7","7","5","4","5","5","5","5","2","1","2","2","1","2","2","2","5","5","5","5","5","5","5","5","5","5","6","7","7","8","7","5","7","8","7","7","7","7","7","7","6","7","1","7","7","1","7","7","7","7","7","7","7","7","7","7","7","7","7","7","7","7","7","7","7","7","7","6","7","7","7","7","7","7","7","7","619618027951882240","张","268","Male","[""好我"",""坏他"",""坏我"",""好他""]","[""强我"",""弱他"",""弱我"",""强他""]","","","","","","","","yes","","","","","","","","","SRET","EW_formal","","key","f","16.666037735849113","768","428","自己","中用","Positive","ability","","","","","","","","","","",""
"838","","f","psychophysics","36","136732","0.0-7.0-3.0-0.22","7","7","7","7","7","5","4","5","5","5","5","2","1","2","2","1","2","2","2","5","5","5","5","5","5","5","5","5","5","6","7","7","8","7","5","7","8","7","7","7","7","7","7","6","7","1","7","7","1","7","7","7","7","7","7","7","7","7","7","7","7","7","7","7","7","7","7","7","7","7","6","7","7","7","7","7","7","7","7","619618027951882240","张","268","Male","[""好我"",""坏他"",""坏我"",""好他""]","[""强我"",""弱他"",""弱我"",""强他""]","","","","","","","","yes","","","","","","","","","SRET","EW_formal","","key","f","16.664220183486186","768","428","自己","淡泊","Positive","morality","","","","","","","","","","",""
"607","","j","psychophysics","37","138340","0.0-7.0-3.0-0.23","7","7","7","7","7","5","4","5","5","5","5","2","1","2","2","1","2","2","2","5","5","5","5","5","5","5","5","5","5","6","7","7","8","7","5","7","8","7","7","7","7","7","7","6","7","1","7","7","1","7","7","7","7","7","7","7","7","7","7","7","7","7","7","7","7","7","7","7","7","7","6","7","7","7","7","7","7","7","7","619618027951882240","张","268","Male","[""好我"",""坏他"",""坏我"",""好他""]","[""强我"",""弱他"",""弱我"",""强他""]","","","","","","","","no","","","","","","","","","SRET","EW_formal","","key","j","16.664583333333514","768","428","自己","狡诈","Negative","morality","","","","","","","","","","",""
"615","","f","psychophysics","38","139956","0.0-7.0-3.0-0.24","7","7","7","7","7","5","4","5","5","5","5","2","1","2","2","1","2","2","2","5","5","5","5","5","5","5","5","5","5","6","7","7","8","7","5","7","8","7","7","7","7","7","7","6","7","1","7","7","1","7","7","7","7","7","7","7","7","7","7","7","7","7","7","7","7","7","7","7","7","7","6","7","7","7","7","7","7","7","7","619618027951882240","张","268","Male","[""好我"",""坏他"",""坏我"",""好他""]","[""强我"",""弱他"",""弱我"",""强他""]","","","","","","","","yes","","","","","","","","","SRET","EW_formal","","key","f","16.664583333333212","768","428","自己","努力","Positive","ability","","","","","","","","","","",""
"958","","j","psychophysics","39","141916","0.0-7.0-3.0-0.25","7","7","7","7","7","5","4","5","5","5","5","2","1","2","2","1","2","2","2","5","5","5","5","5","5","5","5","5","5","6","7","7","8","7","5","7","8","7","7","7","7","7","7","6","7","1","7","7","1","7","7","7","7","7","7","7","7","7","7","7","7","7","7","7","7","7","7","7","7","7","6","7","7","7","7","7","7","7","7","619618027951882240","张","268","Male","[""好我"",""坏他"",""坏我"",""好他""]","[""强我"",""弱他"",""弱我"",""强他""]","","","","","","","","no","","","","","","","","","SRET","EW_formal","","key","j","16.664655172413593","768","428","自己","无敌","Positive","ability","","","","","","","","","","",""
"1239","","f","psychophysics","40","144156","0.0-7.0-3.0-0.26","7","7","7","7","7","5","4","5","5","5","5","2","1","2","2","1","2","2","2","5","5","5","5","5","5","5","5","5","5","6","7","7","8","7","5","7","8","7","7","7","7","7","7","6","7","1","7","7","1","7","7","7","7","7","7","7","7","7","7","7","7","7","7","7","7","7","7","7","7","7","6","7","7","7","7","7","7","7","7","619618027951882240","张","268","Male","[""好我"",""坏他"",""坏我"",""好他""]","[""强我"",""弱他"",""弱我"",""强他""]","","","","","","","","yes","","","","","","","","","SRET","EW_formal","","key","f","16.664925373134373","768","428","朋友","礼貌","Positive","morality","","","","","","","","","","",""
"1624","","j","psychophysics","41","146781","0.0-7.0-3.0-0.27","7","7","7","7","7","5","4","5","5","5","5","2","1","2","2","1","2","2","2","5","5","5","5","5","5","5","5","5","5","6","7","7","8","7","5","7","8","7","7","7","7","7","7","6","7","1","7","7","1","7","7","7","7","7","7","7","7","7","7","7","7","7","7","7","7","7","7","7","7","7","6","7","7","7","7","7","7","7","7","619618027951882240","张","268","Male","[""好我"",""坏他"",""坏我"",""好他""]","[""强我"",""弱他"",""弱我"",""强他""]","","","","","","","","no","","","","","","","","","SRET","EW_formal","","key","j","16.664743589743477","768","428","朋友","无赖","Negative","morality","","","","","","","","","","",""
"518","","f","psychophysics","42","148300","0.0-7.0-3.0-0.28","7","7","7","7","7","5","4","5","5","5","5","2","1","2","2","1","2","2","2","5","5","5","5","5","5","5","5","5","5","6","7","7","8","7","5","7","8","7","7","7","7","7","7","6","7","1","7","7","1","7","7","7","7","7","7","7","7","7","7","7","7","7","7","7","7","7","7","7","7","7","6","7","7","7","7","7","7","7","7","619618027951882240","张","268","Male","[""好我"",""坏他"",""坏我"",""好他""]","[""强我"",""弱他"",""弱我"",""强他""]","","","","","","","","yes","","","","","","","","","SRET","EW_formal","","key","f","16.664835164835164","768","428","朋友","周到","Positive","ability","","","","","","","","","","",""
"951","","j","psychophysics","43","150252","0.0-7.0-3.0-0.29","7","7","7","7","7","5","4","5","5","5","5","2","1","2","2","1","2","2","2","5","5","5","5","5","5","5","5","5","5","6","7","7","8","7","5","7","8","7","7","7","7","7","7","6","7","1","7","7","1","7","7","7","7","7","7","7","7","7","7","7","7","7","7","7","7","7","7","7","7","7","6","7","7","7","7","7","7","7","7","619618027951882240","张","268","Male","[""好我"",""坏他"",""坏我"",""好他""]","[""强我"",""弱他"",""弱我"",""强他""]","","","","","","","","no","","","","","","","","","SRET","EW_formal","","key","j","16.664655172413845","768","428","自己","愚蠢","Negative","ability","","","","","","","","","","",""
"782","","f","psychophysics","44","152036","0.0-7.0-3.0-0.30","7","7","7","7","7","5","4","5","5","5","5","2","1","2","2","1","2","2","2","5","5","5","5","5","5","5","5","5","5","6","7","7","8","7","5","7","8","7","7","7","7","7","7","6","7","1","7","7","1","7","7","7","7","7","7","7","7","7","7","7","7","7","7","7","7","7","7","7","7","7","6","7","7","7","7","7","7","7","7","619618027951882240","张","268","Male","[""好我"",""坏他"",""坏我"",""好他""]","[""强我"",""弱他"",""弱我"",""强他""]","","","","","","","","yes","","","","","","","","","SRET","EW_formal","","key","f","16.664150943396173","768","428","朋友","独断","Negative","ability","","","","","","","","","","",""
"662","","f","psychophysics","45","153700","0.0-7.0-3.0-0.31","7","7","7","7","7","5","4","5","5","5","5","2","1","2","2","1","2","2","2","5","5","5","5","5","5","5","5","5","5","6","7","7","8","7","5","7","8","7","7","7","7","7","7","6","7","1","7","7","1","7","7","7","7","7","7","7","7","7","7","7","7","7","7","7","7","7","7","7","7","7","6","7","7","7","7","7","7","7","7","619618027951882240","张","268","Male","[""好我"",""坏他"",""坏我"",""好他""]","[""强我"",""弱他"",""弱我"",""强他""]","","","","","","","","yes","","","","","","","","","SRET","EW_formal","","key","f","16.663636363636186","768","428","自己","高效","Positive","ability","","","","","","","","","","",""
"663","","f","psychophysics","46","155364","0.0-7.0-3.0-0.32","7","7","7","7","7","5","4","5","5","5","5","2","1","2","2","1","2","2","2","5","5","5","5","5","5","5","5","5","5","6","7","7","8","7","5","7","8","7","7","7","7","7","7","6","7","1","7","7","1","7","7","7","7","7","7","7","7","7","7","7","7","7","7","7","7","7","7","7","7","7","6","7","7","7","7","7","7","7","7","619618027951882240","张","268","Male","[""好我"",""坏他"",""坏我"",""好他""]","[""强我"",""弱他"",""弱我"",""强他""]","","","","","","","","yes","","","","","","","","","SRET","EW_formal","","key","f","16.664285714285775","768","428","朋友","骁勇","Positive","ability","","","","","","","","","","",""
"774","","j","psychophysics","47","157140","0.0-7.0-3.0-0.33","7","7","7","7","7","5","4","5","5","5","5","2","1","2","2","1","2","2","2","5","5","5","5","5","5","5","5","5","5","6","7","7","8","7","5","7","8","7","7","7","7","7","7","6","7","1","7","7","1","7","7","7","7","7","7","7","7","7","7","7","7","7","7","7","7","7","7","7","7","7","6","7","7","7","7","7","7","7","7","619618027951882240","张","268","Male","[""好我"",""坏他"",""坏我"",""好他""]","[""强我"",""弱他"",""弱我"",""强他""]","","","","","","","","no","","","","","","","","","SRET","EW_formal","","key","j","16.66698113207558","768","428","朋友","淫乱","Negative","morality","","","","","","","","","","",""
"607","","f","psychophysics","48","158748","0.0-7.0-3.0-0.34","7","7","7","7","7","5","4","5","5","5","5","2","1","2","2","1","2","2","2","5","5","5","5","5","5","5","5","5","5","6","7","7","8","7","5","7","8","7","7","7","7","7","7","6","7","1","7","7","1","7","7","7","7","7","7","7","7","7","7","7","7","7","7","7","7","7","7","7","7","7","6","7","7","7","7","7","7","7","7","619618027951882240","张","268","Male","[""好我"",""坏他"",""坏我"",""好他""]","[""强我"",""弱他"",""弱我"",""强他""]","","","","","","","","yes","","","","","","","","","SRET","EW_formal","","key","f","16.665263157894554","768","428","朋友","愚痴","Negative","ability","","","","","","","","","","",""
"575","","f","psychophysics","49","160324","0.0-7.0-3.0-0.35","7","7","7","7","7","5","4","5","5","5","5","2","1","2","2","1","2","2","2","5","5","5","5","5","5","5","5","5","5","6","7","7","8","7","5","7","8","7","7","7","7","7","7","6","7","1","7","7","1","7","7","7","7","7","7","7","7","7","7","7","7","7","7","7","7","7","7","7","7","7","6","7","7","7","7","7","7","7","7","619618027951882240","张","268","Male","[""好我"",""坏他"",""坏我"",""好他""]","[""强我"",""弱他"",""弱我"",""强他""]","","","","","","","","yes","","","","","","","","","SRET","EW_formal","","key","f","16.665957446808573","768","428","自己","善良","Positive","morality","","","","","","","","","","",""
"815","","j","psychophysics","50","162140","0.0-7.0-3.0-0.36","7","7","7","7","7","5","4","5","5","5","5","2","1","2","2","1","2","2","2","5","5","5","5","5","5","5","5","5","5","6","7","7","8","7","5","7","8","7","7","7","7","7","7","6","7","1","7","7","1","7","7","7","7","7","7","7","7","7","7","7","7","7","7","7","7","7","7","7","7","7","6","7","7","7","7","7","7","7","7","619618027951882240","张","268","Male","[""好我"",""坏他"",""坏我"",""好他""]","[""强我"",""弱他"",""弱我"",""强他""]","","","","","","","","no","","","","","","","","","SRET","EW_formal","","key","j","16.665740740740688","768","428","自己","无耻","Negative","morality","","","","","","","","","","",""
"893","","j","psychophysics","51","164036","0.0-7.0-3.0-0.37","7","7","7","7","7","5","4","5","5","5","5","2","1","2","2","1","2","2","2","5","5","5","5","5","5","5","5","5","5","6","7","7","8","7","5","7","8","7","7","7","7","7","7","6","7","1","7","7","1","7","7","7","7","7","7","7","7","7","7","7","7","7","7","7","7","7","7","7","7","7","6","7","7","7","7","7","7","7","7","619618027951882240","张","268","Male","[""好我"",""坏他"",""坏我"",""好他""]","[""强我"",""弱他"",""弱我"",""强他""]","","","","","","","","no","","","","","","","","","SRET","EW_formal","","key","j","16.664601769911556","768","428","自己","新手","Negative","ability","","","","","","","","","","",""
"695","","j","psychophysics","52","165731","0.0-7.0-3.0-0.38","7","7","7","7","7","5","4","5","5","5","5","2","1","2","2","1","2","2","2","5","5","5","5","5","5","5","5","5","5","6","7","7","8","7","5","7","8","7","7","7","7","7","7","6","7","1","7","7","1","7","7","7","7","7","7","7","7","7","7","7","7","7","7","7","7","7","7","7","7","7","6","7","7","7","7","7","7","7","7","619618027951882240","张","268","Male","[""好我"",""坏他"",""坏我"",""好他""]","[""强我"",""弱他"",""弱我"",""强他""]","","","","","","","","no","","","","","","","","","SRET","EW_formal","","key","j","16.663366336633665","768","428","自己","拙笨","Negative","ability","","","","","","","","","","",""
"951","","j","psychophysics","53","167684","0.0-7.0-3.0-0.39","7","7","7","7","7","5","4","5","5","5","5","2","1","2","2","1","2","2","2","5","5","5","5","5","5","5","5","5","5","6","7","7","8","7","5","7","8","7","7","7","7","7","7","6","7","1","7","7","1","7","7","7","7","7","7","7","7","7","7","7","7","7","7","7","7","7","7","7","7","7","6","7","7","7","7","7","7","7","7","619618027951882240","张","268","Male","[""好我"",""坏他"",""坏我"",""好他""]","[""强我"",""弱他"",""弱我"",""强他""]","","","","","","","","no","","","","","","","","","SRET","EW_formal","","key","j","16.664655172413845","768","428","朋友","逞强","Negative","ability","","","","","","","","","","",""
"886","","f","psychophysics","54","169572","0.0-7.0-3.0-0.40","7","7","7","7","7","5","4","5","5","5","5","2","1","2","2","1","2","2","2","5","5","5","5","5","5","5","5","5","5","6","7","7","8","7","5","7","8","7","7","7","7","7","7","6","7","1","7","7","1","7","7","7","7","7","7","7","7","7","7","7","7","7","7","7","7","7","7","7","7","7","6","7","7","7","7","7","7","7","7","619618027951882240","张","268","Male","[""好我"",""坏他"",""坏我"",""好他""]","[""强我"",""弱他"",""弱我"",""强他""]","","","","","","","","yes","","","","","","","","","SRET","EW_formal","","key","f","16.66607142857148","768","428","朋友","慈悲","Positive","morality","","","","","","","","","","",""
"590","","f","psychophysics","55","171164","0.0-7.0-3.0-0.41","7","7","7","7","7","5","4","5","5","5","5","2","1","2","2","1","2","2","2","5","5","5","5","5","5","5","5","5","5","6","7","7","8","7","5","7","8","7","7","7","7","7","7","6","7","1","7","7","1","7","7","7","7","7","7","7","7","7","7","7","7","7","7","7","7","7","7","7","7","7","6","7","7","7","7","7","7","7","7","619618027951882240","张","268","Male","[""好我"",""坏他"",""坏我"",""好他""]","[""强我"",""弱他"",""弱我"",""强他""]","","","","","","","","yes","","","","","","","","","SRET","EW_formal","","key","f","16.664210526315852","768","428","朋友","好心","Positive","morality","","","","","","","","","","",""
"759","","j","psychophysics","56","172924","0.0-7.0-3.0-0.42","7","7","7","7","7","5","4","5","5","5","5","2","1","2","2","1","2","2","2","5","5","5","5","5","5","5","5","5","5","6","7","7","8","7","5","7","8","7","7","7","7","7","7","6","7","1","7","7","1","7","7","7","7","7","7","7","7","7","7","7","7","7","7","7","7","7","7","7","7","7","6","7","7","7","7","7","7","7","7","619618027951882240","张","268","Male","[""好我"",""坏他"",""坏我"",""好他""]","[""强我"",""弱他"",""弱我"",""强他""]","","","","","","","","no","","","","","","","","","SRET","EW_formal","","key","j","16.66346153846154","768","428","自己","犹豫","Negative","ability","","","","","","","","","","",""
"646","","f","psychophysics","57","174571","0.0-7.0-3.0-0.43","7","7","7","7","7","5","4","5","5","5","5","2","1","2","2","1","2","2","2","5","5","5","5","5","5","5","5","5","5","6","7","7","8","7","5","7","8","7","7","7","7","7","7","6","7","1","7","7","1","7","7","7","7","7","7","7","7","7","7","7","7","7","7","7","7","7","7","7","7","7","6","7","7","7","7","7","7","7","7","619618027951882240","张","268","Male","[""好我"",""坏他"",""坏我"",""好他""]","[""强我"",""弱他"",""弱我"",""强他""]","","","","","","","","yes","","","","","","","","","SRET","EW_formal","","key","f","16.6653061224488","768","428","朋友","自律","Positive","ability","","","","","","","","","","",""
"791","","j","psychophysics","58","176364","0.0-7.0-3.0-0.44","7","7","7","7","7","5","4","5","5","5","5","2","1","2","2","1","2","2","2","5","5","5","5","5","5","5","5","5","5","6","7","7","8","7","5","7","8","7","7","7","7","7","7","6","7","1","7","7","1","7","7","7","7","7","7","7","7","7","7","7","7","7","7","7","7","7","7","7","7","7","6","7","7","7","7","7","7","7","7","619618027951882240","张","268","Male","[""好我"",""坏他"",""坏我"",""好他""]","[""强我"",""弱他"",""弱我"",""强他""]","","","","","","","","no","","","","","","","","","SRET","EW_formal","","key","j","16.665420560747773","768","428","朋友","罪恶","Negative","morality","","","","","","","","","","",""
"1006","","f","psychophysics","59","178371","0.0-7.0-3.0-0.45","7","7","7","7","7","5","4","5","5","5","5","2","1","2","2","1","2","2","2","5","5","5","5","5","5","5","5","5","5","6","7","7","8","7","5","7","8","7","7","7","7","7","7","6","7","1","7","7","1","7","7","7","7","7","7","7","7","7","7","7","7","7","7","7","7","7","7","7","7","7","6","7","7","7","7","7","7","7","7","619618027951882240","张","268","Male","[""好我"",""坏他"",""坏我"",""好他""]","[""强我"",""弱他"",""弱我"",""强他""]","","","","","","","","yes","","","","","","","","","SRET","EW_formal","","key","f","16.66386554621849","768","428","自己","学霸","Positive","ability","","","","","","","","","","",""
"943","","j","psychophysics","60","180316","0.0-7.0-3.0-0.46","7","7","7","7","7","5","4","5","5","5","5","2","1","2","2","1","2","2","2","5","5","5","5","5","5","5","5","5","5","6","7","7","8","7","5","7","8","7","7","7","7","7","7","6","7","1","7","7","1","7","7","7","7","7","7","7","7","7","7","7","7","7","7","7","7","7","7","7","7","7","6","7","7","7","7","7","7","7","7","619618027951882240","张","268","Male","[""好我"",""坏他"",""坏我"",""好他""]","[""强我"",""弱他"",""弱我"",""强他""]","","","","","","","","no","","","","","","","","","SRET","EW_formal","","key","j","16.664655172413845","768","428","朋友","短浅","Negative","ability","","","","","","","","","","",""
"1142","","f","psychophysics","61","182460","0.0-7.0-3.0-0.47","7","7","7","7","7","5","4","5","5","5","5","2","1","2","2","1","2","2","2","5","5","5","5","5","5","5","5","5","5","6","7","7","8","7","5","7","8","7","7","7","7","7","7","6","7","1","7","7","1","7","7","7","7","7","7","7","7","7","7","7","7","7","7","7","7","7","7","7","7","7","6","7","7","7","7","7","7","7","7","619618027951882240","张","268","Male","[""好我"",""坏他"",""坏我"",""好他""]","[""强我"",""弱他"",""弱我"",""强他""]","","","","","","","","yes","","","","","","","","","SRET","EW_formal","","key","f","16.664566929134043","768","428","朋友","君子","Positive","morality","","","","","","","","","","",""
"807","","f","psychophysics","62","184267","0.0-7.0-3.0-0.48","7","7","7","7","7","5","4","5","5","5","5","2","1","2","2","1","2","2","2","5","5","5","5","5","5","5","5","5","5","6","7","7","8","7","5","7","8","7","7","7","7","7","7","6","7","1","7","7","1","7","7","7","7","7","7","7","7","7","7","7","7","7","7","7","7","7","7","7","7","7","6","7","7","7","7","7","7","7","7","619618027951882240","张","268","Male","[""好我"",""坏他"",""坏我"",""好他""]","[""强我"",""弱他"",""弱我"",""强他""]","","","","","","","","yes","","","","","","","","","SRET","EW_formal","","key","f","16.663888888888998","768","428","朋友","娴熟","Positive","ability","","","","","","","","","","",""
"879","","j","psychophysics","63","186148","0.0-7.0-3.0-0.49","7","7","7","7","7","5","4","5","5","5","5","2","1","2","2","1","2","2","2","5","5","5","5","5","5","5","5","5","5","6","7","7","8","7","5","7","8","7","7","7","7","7","7","6","7","1","7","7","1","7","7","7","7","7","7","7","7","7","7","7","7","7","7","7","7","7","7","7","7","7","6","7","7","7","7","7","7","7","7","619618027951882240","张","268","Male","[""好我"",""坏他"",""坏我"",""好他""]","[""强我"",""弱他"",""弱我"",""强他""]","","","","","","","","no","","","","","","","","","SRET","EW_formal","","key","j","16.665178571428573","768","428","朋友","弱智","Negative","ability","","","","","","","","","","",""
"918","","j","psychophysics","64","188068","0.0-7.0-3.0-0.50","7","7","7","7","7","5","4","5","5","5","5","2","1","2","2","1","2","2","2","5","5","5","5","5","5","5","5","5","5","6","7","7","8","7","5","7","8","7","7","7","7","7","7","6","7","1","7","7","1","7","7","7","7","7","7","7","7","7","7","7","7","7","7","7","7","7","7","7","7","7","6","7","7","7","7","7","7","7","7","619618027951882240","张","268","Male","[""好我"",""坏他"",""坏我"",""好他""]","[""强我"",""弱他"",""弱我"",""强他""]","","","","","","","","no","","","","","","","","","SRET","EW_formal","","key","j","16.6640350877194","768","428","朋友","业余","Negative","ability","","","","","","","","","","",""
"967","","j","psychophysics","65","190036","0.0-7.0-3.0-0.51","7","7","7","7","7","5","4","5","5","5","5","2","1","2","2","1","2","2","2","5","5","5","5","5","5","5","5","5","5","6","7","7","8","7","5","7","8","7","7","7","7","7","7","6","7","1","7","7","1","7","7","7","7","7","7","7","7","7","7","7","7","7","7","7","7","7","7","7","7","7","6","7","7","7","7","7","7","7","7","619618027951882240","张","268","Male","[""好我"",""坏他"",""坏我"",""好他""]","[""强我"",""弱他"",""弱我"",""强他""]","","","","","","","","no","","","","","","","","","SRET","EW_formal","","key","j","16.664957264957415","768","428","朋友","贪腐","Negative","morality","","","","","","","","","","",""
"998","","f","psychophysics","66","192036","0.0-7.0-3.0-0.52","7","7","7","7","7","5","4","5","5","5","5","2","1","2","2","1","2","2","2","5","5","5","5","5","5","5","5","5","5","6","7","7","8","7","5","7","8","7","7","7","7","7","7","6","7","1","7","7","1","7","7","7","7","7","7","7","7","7","7","7","7","7","7","7","7","7","7","7","7","7","6","7","7","7","7","7","7","7","7","619618027951882240","张","268","Male","[""好我"",""坏他"",""坏我"",""好他""]","[""强我"",""弱他"",""弱我"",""强他""]","","","","","","","","yes","","","","","","","","","SRET","EW_formal","","key","f","16.665546218487492","768","428","朋友","文明","Positive","morality","","","","","","","","","","",""
"886","","j","psychophysics","67","193924","0.0-7.0-3.0-0.53","7","7","7","7","7","5","4","5","5","5","5","2","1","2","2","1","2","2","2","5","5","5","5","5","5","5","5","5","5","6","7","7","8","7","5","7","8","7","7","7","7","7","7","6","7","1","7","7","1","7","7","7","7","7","7","7","7","7","7","7","7","7","7","7","7","7","7","7","7","7","6","7","7","7","7","7","7","7","7","619618027951882240","张","268","Male","[""好我"",""坏他"",""坏我"",""好他""]","[""强我"",""弱他"",""弱我"",""强他""]","","","","","","","","no","","","","","","","","","SRET","EW_formal","","key","j","16.663392857142753","768","428","朋友","卑鄙","Negative","morality","","","","","","","","","","",""
"814","","f","psychophysics","68","195740","0.0-7.0-3.0-0.54","7","7","7","7","7","5","4","5","5","5","5","2","1","2","2","1","2","2","2","5","5","5","5","5","5","5","5","5","5","6","7","7","8","7","5","7","8","7","7","7","7","7","7","6","7","1","7","7","1","7","7","7","7","7","7","7","7","7","7","7","7","7","7","7","7","7","7","7","7","7","6","7","7","7","7","7","7","7","7","619618027951882240","张","268","Male","[""好我"",""坏他"",""坏我"",""好他""]","[""强我"",""弱他"",""弱我"",""强他""]","","","","","","","","yes","","","","","","","","","SRET","EW_formal","","key","f","16.665740740740688","768","428","朋友","忠勇","Positive","morality","","","","","","","","","","",""
"1071","","f","psychophysics","69","197812","0.0-7.0-3.0-0.55","7","7","7","7","7","5","4","5","5","5","5","2","1","2","2","1","2","2","2","5","5","5","5","5","5","5","5","5","5","6","7","7","8","7","5","7","8","7","7","7","7","7","7","6","7","1","7","7","1","7","7","7","7","7","7","7","7","7","7","7","7","7","7","7","7","7","7","7","7","7","6","7","7","7","7","7","7","7","7","619618027951882240","张","268","Male","[""好我"",""坏他"",""坏我"",""好他""]","[""强我"",""弱他"",""弱我"",""强他""]","","","","","","","","yes","","","","","","","","","SRET","EW_formal","","key","f","16.66532258064516","768","428","自己","坦荡","Positive","morality","","","","","","","","","","",""
"999","","j","psychophysics","70","199811","0.0-7.0-3.0-0.56","7","7","7","7","7","5","4","5","5","5","5","2","1","2","2","1","2","2","2","5","5","5","5","5","5","5","5","5","5","6","7","7","8","7","5","7","8","7","7","7","7","7","7","6","7","1","7","7","1","7","7","7","7","7","7","7","7","7","7","7","7","7","7","7","7","7","7","7","7","7","6","7","7","7","7","7","7","7","7","619618027951882240","张","268","Male","[""好我"",""坏他"",""坏我"",""好他""]","[""强我"",""弱他"",""弱我"",""强他""]","","","","","","","","no","","","","","","","","","SRET","EW_formal","","key","j","16.66470588235299","768","428","自己","刻薄","Negative","morality","","","","","","","","","","",""
"599","","f","psychophysics","71","201412","0.0-7.0-3.0-0.57","7","7","7","7","7","5","4","5","5","5","5","2","1","2","2","1","2","2","2","5","5","5","5","5","5","5","5","5","5","6","7","7","8","7","5","7","8","7","7","7","7","7","7","6","7","1","7","7","1","7","7","7","7","7","7","7","7","7","7","7","7","7","7","7","7","7","7","7","7","7","6","7","7","7","7","7","7","7","7","619618027951882240","张","268","Male","[""好我"",""坏他"",""坏我"",""好他""]","[""强我"",""弱他"",""弱我"",""强他""]","","","","","","","","yes","","","","","","","","","SRET","EW_formal","","key","f","16.665263157894554","768","428","朋友","孝顺","Positive","morality","","","","","","","","","","",""
"712","","j","psychophysics","72","203125","0.0-7.0-3.0-0.58","7","7","7","7","7","5","4","5","5","5","5","2","1","2","2","1","2","2","2","5","5","5","5","5","5","5","5","5","5","6","7","7","8","7","5","7","8","7","7","7","7","7","7","6","7","1","7","7","1","7","7","7","7","7","7","7","7","7","7","7","7","7","7","7","7","7","7","7","7","7","6","7","7","7","7","7","7","7","7","619618027951882240","张","268","Male","[""好我"",""坏他"",""坏我"",""好他""]","[""强我"",""弱他"",""弱我"",""强他""]","","","","","","","","no","","","","","","","","","SRET","EW_formal","","key","j","16.663366336633665","768","428","朋友","窝囊","Negative","ability","","","","","","","","","","",""
"766","","f","psychophysics","73","204892","0.0-7.0-3.0-0.59","7","7","7","7","7","5","4","5","5","5","5","2","1","2","2","1","2","2","2","5","5","5","5","5","5","5","5","5","5","6","7","7","8","7","5","7","8","7","7","7","7","7","7","6","7","1","7","7","1","7","7","7","7","7","7","7","7","7","7","7","7","7","7","7","7","7","7","7","7","7","6","7","7","7","7","7","7","7","7","619618027951882240","张","268","Male","[""好我"",""坏他"",""坏我"",""好他""]","[""强我"",""弱他"",""弱我"",""强他""]","","","","","","","","yes","","","","","","","","","SRET","EW_formal","","key","f","16.664761904761793","768","428","自己","干练","Positive","ability","","","","","","","","","","",""
"591","","j","psychophysics","74","206484","0.0-7.0-3.0-0.60","7","7","7","7","7","5","4","5","5","5","5","2","1","2","2","1","2","2","2","5","5","5","5","5","5","5","5","5","5","6","7","7","8","7","5","7","8","7","7","7","7","7","7","6","7","1","7","7","1","7","7","7","7","7","7","7","7","7","7","7","7","7","7","7","7","7","7","7","7","7","6","7","7","7","7","7","7","7","7","619618027951882240","张","268","Male","[""好我"",""坏他"",""坏我"",""好他""]","[""强我"",""弱他"",""弱我"",""强他""]","","","","","","","","no","","","","","","","","","SRET","EW_formal","","key","j","16.664210526315543","768","428","朋友","混账","Negative","morality","","","","","","","","","","",""
"1055","","j","psychophysics","75","208540","0.0-7.0-3.0-0.61","7","7","7","7","7","5","4","5","5","5","5","2","1","2","2","1","2","2","2","5","5","5","5","5","5","5","5","5","5","6","7","7","8","7","5","7","8","7","7","7","7","7","7","6","7","1","7","7","1","7","7","7","7","7","7","7","7","7","7","7","7","7","7","7","7","7","7","7","7","7","6","7","7","7","7","7","7","7","7","619618027951882240","张","268","Male","[""好我"",""坏他"",""坏我"",""好他""]","[""强我"",""弱他"",""弱我"",""强他""]","","","","","","","","no","","","","","","","","","SRET","EW_formal","","key","j","16.664754098360703","768","428","自己","草率","Negative","ability","","","","","","","","","","",""
"664","","j","psychophysics","76","210204","0.0-7.0-3.0-0.62","7","7","7","7","7","5","4","5","5","5","5","2","1","2","2","1","2","2","2","5","5","5","5","5","5","5","5","5","5","6","7","7","8","7","5","7","8","7","7","7","7","7","7","6","7","1","7","7","1","7","7","7","7","7","7","7","7","7","7","7","7","7","7","7","7","7","7","7","7","7","6","7","7","7","7","7","7","7","7","619618027951882240","张","268","Male","[""好我"",""坏他"",""坏我"",""好他""]","[""强我"",""弱他"",""弱我"",""强他""]","","","","","","","","no","","","","","","","","","SRET","EW_formal","","key","j","16.66565656565651","768","428","自己","恶劣","Negative","morality","","","","","","","","","","",""
"855","","j","psychophysics","77","212060","0.0-7.0-3.0-0.63","7","7","7","7","7","5","4","5","5","5","5","2","1","2","2","1","2","2","2","5","5","5","5","5","5","5","5","5","5","6","7","7","8","7","5","7","8","7","7","7","7","7","7","6","7","1","7","7","1","7","7","7","7","7","7","7","7","7","7","7","7","7","7","7","7","7","7","7","7","7","6","7","7","7","7","7","7","7","7","619618027951882240","张","268","Male","[""好我"",""坏他"",""坏我"",""好他""]","[""强我"",""弱他"",""弱我"",""强他""]","","","","","","","","no","","","","","","","","","SRET","EW_formal","","key","j","16.66396396396407","768","428","朋友","外行","Negative","ability","","","","","","","","","","",""
"614","","f","psychophysics","78","213676","0.0-7.0-3.0-0.64","7","7","7","7","7","5","4","5","5","5","5","2","1","2","2","1","2","2","2","5","5","5","5","5","5","5","5","5","5","6","7","7","8","7","5","7","8","7","7","7","7","7","7","6","7","1","7","7","1","7","7","7","7","7","7","7","7","7","7","7","7","7","7","7","7","7","7","7","7","7","6","7","7","7","7","7","7","7","7","619618027951882240","张","268","Male","[""好我"",""坏他"",""坏我"",""好他""]","[""强我"",""弱他"",""弱我"",""强他""]","","","","","","","","yes","","","","","","","","","SRET","EW_formal","","key","f","16.664583333333212","768","428","自己","守时","Positive","morality","","","","","","","","","","",""
"607","","f","psychophysics","79","215284","0.0-7.0-3.0-0.65","7","7","7","7","7","5","4","5","5","5","5","2","1","2","2","1","2","2","2","5","5","5","5","5","5","5","5","5","5","6","7","7","8","7","5","7","8","7","7","7","7","7","7","6","7","1","7","7","1","7","7","7","7","7","7","7","7","7","7","7","7","7","7","7","7","7","7","7","7","7","6","7","7","7","7","7","7","7","7","619618027951882240","张","268","Male","[""好我"",""坏他"",""坏我"",""好他""]","[""强我"",""弱他"",""弱我"",""强他""]","","","","","","","","yes","","","","","","","","","SRET","EW_formal","","key","f","16.66631578947356","768","428","自己","慷慨","Positive","morality","","","","","","","","","","",""
"640","","f","psychophysics","80","216924","0.0-7.0-3.0-0.66","7","7","7","7","7","5","4","5","5","5","5","2","1","2","2","1","2","2","2","5","5","5","5","5","5","5","5","5","5","6","7","7","8","7","5","7","8","7","7","7","7","7","7","6","7","1","7","7","1","7","7","7","7","7","7","7","7","7","7","7","7","7","7","7","7","7","7","7","7","7","6","7","7","7","7","7","7","7","7","619618027951882240","张","268","Male","[""好我"",""坏他"",""坏我"",""好他""]","[""强我"",""弱他"",""弱我"",""强他""]","","","","","","","","yes","","","","","","","","","SRET","EW_formal","","key","f","16.664948453608247","768","428","自己","细心","Positive","ability","","","","","","","","","","",""
"632","","j","psychophysics","81","218556","0.0-7.0-3.0-0.67","7","7","7","7","7","5","4","5","5","5","5","2","1","2","2","1","2","2","2","5","5","5","5","5","5","5","5","5","5","6","7","7","8","7","5","7","8","7","7","7","7","7","7","6","7","1","7","7","1","7","7","7","7","7","7","7","7","7","7","7","7","7","7","7","7","7","7","7","7","7","6","7","7","7","7","7","7","7","7","619618027951882240","张","268","Male","[""好我"",""坏他"",""坏我"",""好他""]","[""强我"",""弱他"",""弱我"",""强他""]","","","","","","","","no","","","","","","","","","SRET","EW_formal","","key","j","16.664948453608247","768","428","自己","笨蛋","Negative","ability","","","","","","","","","","",""
"663","","f","psychophysics","82","220220","0.0-7.0-3.0-0.68","7","7","7","7","7","5","4","5","5","5","5","2","1","2","2","1","2","2","2","5","5","5","5","5","5","5","5","5","5","6","7","7","8","7","5","7","8","7","7","7","7","7","7","6","7","1","7","7","1","7","7","7","7","7","7","7","7","7","7","7","7","7","7","7","7","7","7","7","7","7","6","7","7","7","7","7","7","7","7","619618027951882240","张","268","Male","[""好我"",""坏他"",""坏我"",""好他""]","[""强我"",""弱他"",""弱我"",""强他""]","","","","","","","","yes","","","","","","","","","SRET","EW_formal","","key","f","16.66464646464664","768","428","自己","忠良","Positive","morality","","","","","","","","","","",""
"542","","f","psychophysics","83","221764","0.0-7.0-3.0-0.69","7","7","7","7","7","5","4","5","5","5","5","2","1","2","2","1","2","2","2","5","5","5","5","5","5","5","5","5","5","6","7","7","8","7","5","7","8","7","7","7","7","7","7","6","7","1","7","7","1","7","7","7","7","7","7","7","7","7","7","7","7","7","7","7","7","7","7","7","7","7","6","7","7","7","7","7","7","7","7","619618027951882240","张","268","Male","[""好我"",""坏他"",""坏我"",""好他""]","[""强我"",""弱他"",""弱我"",""强他""]","","","","","","","","yes","","","","","","","","","SRET","EW_formal","","key","f","16.66413043478267","768","428","自己","利己","Negative","morality","","","","","","","","","","",""
"694","","f","psychophysics","84","223460","0.0-7.0-3.0-0.70","7","7","7","7","7","5","4","5","5","5","5","2","1","2","2","1","2","2","2","5","5","5","5","5","5","5","5","5","5","6","7","7","8","7","5","7","8","7","7","7","7","7","7","6","7","1","7","7","1","7","7","7","7","7","7","7","7","7","7","7","7","7","7","7","7","7","7","7","7","7","6","7","7","7","7","7","7","7","7","619618027951882240","张","268","Male","[""好我"",""坏他"",""坏我"",""好他""]","[""强我"",""弱他"",""弱我"",""强他""]","","","","","","","","yes","","","","","","","","","SRET","EW_formal","","key","f","16.665346534653292","768","428","自己","聪明","Positive","ability","","","","","","","","","","",""
"863","","j","psychophysics","85","225325","0.0-7.0-3.0-0.71","7","7","7","7","7","5","4","5","5","5","5","2","1","2","2","1","2","2","2","5","5","5","5","5","5","5","5","5","5","6","7","7","8","7","5","7","8","7","7","7","7","7","7","6","7","1","7","7","1","7","7","7","7","7","7","7","7","7","7","7","7","7","7","7","7","7","7","7","7","7","6","7","7","7","7","7","7","7","7","619618027951882240","张","268","Male","[""好我"",""坏他"",""坏我"",""好他""]","[""强我"",""弱他"",""弱我"",""强他""]","","","","","","","","no","","","","","","","","","SRET","EW_formal","","key","j","16.664864864865024","768","428","朋友","龌龊","Negative","morality","","","","","","","","","","",""
"1061","","f","psychophysics","86","227387","0.0-7.0-3.0-0.72","7","7","7","7","7","5","4","5","5","5","5","2","1","2","2","1","2","2","2","5","5","5","5","5","5","5","5","5","5","6","7","7","8","7","5","7","8","7","7","7","7","7","7","6","7","1","7","7","1","7","7","7","7","7","7","7","7","7","7","7","7","7","7","7","7","7","7","7","7","7","6","7","7","7","7","7","7","7","7","619618027951882240","张","268","Male","[""好我"",""坏他"",""坏我"",""好他""]","[""强我"",""弱他"",""弱我"",""强他""]","","","","","","","","yes","","","","","","","","","SRET","EW_formal","","key","f","16.6655737704919","768","428","朋友","远见","Positive","ability","","","","","","","","","","",""
"583","","f","psychophysics","87","228971","0.0-7.0-3.0-0.73","7","7","7","7","7","5","4","5","5","5","5","2","1","2","2","1","2","2","2","5","5","5","5","5","5","5","5","5","5","6","7","7","8","7","5","7","8","7","7","7","7","7","7","6","7","1","7","7","1","7","7","7","7","7","7","7","7","7","7","7","7","7","7","7","7","7","7","7","7","7","6","7","7","7","7","7","7","7","7","619618027951882240","张","268","Male","[""好我"",""坏他"",""坏我"",""好他""]","[""强我"",""弱他"",""弱我"",""强他""]","","","","","","","","yes","","","","","","","","","SRET","EW_formal","","key","f","16.665957446808573","768","428","朋友","忠诚","Positive","morality","","","","","","","","","","",""
"902","","j","psychophysics","88","230875","0.0-7.0-3.0-0.74","7","7","7","7","7","5","4","5","5","5","5","2","1","2","2","1","2","2","2","5","5","5","5","5","5","5","5","5","5","6","7","7","8","7","5","7","8","7","7","7","7","7","7","6","7","1","7","7","1","7","7","7","7","7","7","7","7","7","7","7","7","7","7","7","7","7","7","7","7","7","6","7","7","7","7","7","7","7","7","619618027951882240","张","268","Male","[""好我"",""坏他"",""坏我"",""好他""]","[""强我"",""弱他"",""弱我"",""强他""]","","","","","","","","no","","","","","","","","","SRET","EW_formal","","key","j","16.6640350877194","768","428","自己","伪善","Negative","morality","","","","","","","","","","",""
"670","","j","psychophysics","89","232548","0.0-7.0-3.0-0.75","7","7","7","7","7","5","4","5","5","5","5","2","1","2","2","1","2","2","2","5","5","5","5","5","5","5","5","5","5","6","7","7","8","7","5","7","8","7","7","7","7","7","7","6","7","1","7","7","1","7","7","7","7","7","7","7","7","7","7","7","7","7","7","7","7","7","7","7","7","7","6","7","7","7","7","7","7","7","7","619618027951882240","张","268","Male","[""好我"",""坏他"",""坏我"",""好他""]","[""强我"",""弱他"",""弱我"",""强他""]","","","","","","","","no","","","","","","","","","SRET","EW_formal","","key","j","16.66565656565651","768","428","自己","不孝","Negative","morality","","","","","","","","","","",""
"695","","f","psychophysics","90","234244","0.0-7.0-3.0-0.76","7","7","7","7","7","5","4","5","5","5","5","2","1","2","2","1","2","2","2","5","5","5","5","5","5","5","5","5","5","6","7","7","8","7","5","7","8","7","7","7","7","7","7","6","7","1","7","7","1","7","7","7","7","7","7","7","7","7","7","7","7","7","7","7","7","7","7","7","7","7","6","7","7","7","7","7","7","7","7","619618027951882240","张","268","Male","[""好我"",""坏他"",""坏我"",""好他""]","[""强我"",""弱他"",""弱我"",""强他""]","","","","","","","","yes","","","","","","","","","SRET","EW_formal","","key","f","16.664356435643334","768","428","朋友","博识","Positive","ability","","","","","","","","","","",""
"608","","f","psychophysics","91","235852","0.0-7.0-3.0-0.77","7","7","7","7","7","5","4","5","5","5","5","2","1","2","2","1","2","2","2","5","5","5","5","5","5","5","5","5","5","6","7","7","8","7","5","7","8","7","7","7","7","7","7","6","7","1","7","7","1","7","7","7","7","7","7","7","7","7","7","7","7","7","7","7","7","7","7","7","7","7","6","7","7","7","7","7","7","7","7","619618027951882240","张","268","Male","[""好我"",""坏他"",""坏我"",""好他""]","[""强我"",""弱他"",""弱我"",""强他""]","","","","","","","","yes","","","","","","","","","SRET","EW_formal","","key","f","16.66526315789486","768","428","朋友","勤奋","Positive","ability","","","","","","","","","","",""
"950","","j","psychophysics","92","237804","0.0-7.0-3.0-0.78","7","7","7","7","7","5","4","5","5","5","5","2","1","2","2","1","2","2","2","5","5","5","5","5","5","5","5","5","5","6","7","7","8","7","5","7","8","7","7","7","7","7","7","6","7","1","7","7","1","7","7","7","7","7","7","7","7","7","7","7","7","7","7","7","7","7","7","7","7","7","6","7","7","7","7","7","7","7","7","619618027951882240","张","268","Male","[""好我"",""坏他"",""坏我"",""好他""]","[""强我"",""弱他"",""弱我"",""强他""]","","","","","","","","no","","","","","","","","","SRET","EW_formal","","key","j","16.664655172413845","768","428","朋友","腐败","Negative","morality","","","","","","","","","","",""
"710","","j","psychophysics","93","239515","0.0-7.0-3.0-0.79","7","7","7","7","7","5","4","5","5","5","5","2","1","2","2","1","2","2","2","5","5","5","5","5","5","5","5","5","5","6","7","7","8","7","5","7","8","7","7","7","7","7","7","6","7","1","7","7","1","7","7","7","7","7","7","7","7","7","7","7","7","7","7","7","7","7","7","7","7","7","6","7","7","7","7","7","7","7","7","619618027951882240","张","268","Male","[""好我"",""坏他"",""坏我"",""好他""]","[""强我"",""弱他"",""弱我"",""强他""]","","","","","","","","no","","","","","","","","","SRET","EW_formal","","key","j","16.664705882352827","768","428","自己","马虎","Negative","ability","","","","","","","","","","",""
"495","","f","psychophysics","94","241012","0.0-7.0-3.0-0.80","7","7","7","7","7","5","4","5","5","5","5","2","1","2","2","1","2","2","2","5","5","5","5","5","5","5","5","5","5","6","7","7","8","7","5","7","8","7","7","7","7","7","7","6","7","1","7","7","1","7","7","7","7","7","7","7","7","7","7","7","7","7","7","7","7","7","7","7","7","7","6","7","7","7","7","7","7","7","7","619618027951882240","张","268","Male","[""好我"",""坏他"",""坏我"",""好他""]","[""强我"",""弱他"",""弱我"",""强他""]","","","","","","","","yes","","","","","","","","","SRET","EW_formal","","key","f","16.662921348314608","768","428","自己","坚持","Positive","ability","","","","","","","","","","",""
"910","","f","psychophysics","95","242924","0.0-7.0-3.0-0.81","7","7","7","7","7","5","4","5","5","5","5","2","1","2","2","1","2","2","2","5","5","5","5","5","5","5","5","5","5","6","7","7","8","7","5","7","8","7","7","7","7","7","7","6","7","1","7","7","1","7","7","7","7","7","7","7","7","7","7","7","7","7","7","7","7","7","7","7","7","7","6","7","7","7","7","7","7","7","7","619618027951882240","张","268","Male","[""好我"",""坏他"",""坏我"",""好他""]","[""强我"",""弱他"",""弱我"",""强他""]","","","","","","","","yes","","","","","","","","","SRET","EW_formal","","key","f","16.66491228070191","768","428","自己","勤恳","Positive","morality","","","","","","","","","","",""
"613","","f","psychophysics","96","244539","0.0-7.0-3.0-0.82","7","7","7","7","7","5","4","5","5","5","5","2","1","2","2","1","2","2","2","5","5","5","5","5","5","5","5","5","5","6","7","7","8","7","5","7","8","7","7","7","7","7","7","6","7","1","7","7","1","7","7","7","7","7","7","7","7","7","7","7","7","7","7","7","7","7","7","7","7","7","6","7","7","7","7","7","7","7","7","619618027951882240","张","268","Male","[""好我"",""坏他"",""坏我"",""好他""]","[""强我"",""弱他"",""弱我"",""强他""]","","","","","","","","yes","","","","","","","","","SRET","EW_formal","","key","f","16.664583333333514","768","428","朋友","高明","Positive","ability","","","","","","","","","","",""
"559","","j","psychophysics","97","246099","0.0-7.0-3.0-0.83","7","7","7","7","7","5","4","5","5","5","5","2","1","2","2","1","2","2","2","5","5","5","5","5","5","5","5","5","5","6","7","7","8","7","5","7","8","7","7","7","7","7","7","6","7","1","7","7","1","7","7","7","7","7","7","7","7","7","7","7","7","7","7","7","7","7","7","7","7","7","6","7","7","7","7","7","7","7","7","619618027951882240","张","268","Male","[""好我"",""坏他"",""坏我"",""好他""]","[""强我"",""弱他"",""弱我"",""强他""]","","","","","","","","no","","","","","","","","","SRET","EW_formal","","key","j","16.665217391304473","768","428","朋友","背叛","Negative","morality","","","","","","","","","","",""
"679","","j","psychophysics","98","247779","0.0-7.0-3.0-0.84","7","7","7","7","7","5","4","5","5","5","5","2","1","2","2","1","2","2","2","5","5","5","5","5","5","5","5","5","5","6","7","7","8","7","5","7","8","7","7","7","7","7","7","6","7","1","7","7","1","7","7","7","7","7","7","7","7","7","7","7","7","7","7","7","7","7","7","7","7","7","6","7","7","7","7","7","7","7","7","619618027951882240","张","268","Male","[""好我"",""坏他"",""坏我"",""好他""]","[""强我"",""弱他"",""弱我"",""强他""]","","","","","","","","no","","","","","","","","","SRET","EW_formal","","key","j","16.666000000000057","768","428","朋友","低俗","Negative","morality","","","","","","","","","","",""
"598","","f","psychophysics","99","249379","0.0-7.0-3.0-0.85","7","7","7","7","7","5","4","5","5","5","5","2","1","2","2","1","2","2","2","5","5","5","5","5","5","5","5","5","5","6","7","7","8","7","5","7","8","7","7","7","7","7","7","6","7","1","7","7","1","7","7","7","7","7","7","7","7","7","7","7","7","7","7","7","7","7","7","7","7","7","6","7","7","7","7","7","7","7","7","619618027951882240","张","268","Male","[""好我"",""坏他"",""坏我"",""好他""]","[""强我"",""弱他"",""弱我"",""强他""]","","","","","","","","yes","","","","","","","","","SRET","EW_formal","","key","f","16.664210526315852","768","428","自己","主见","Positive","ability","","","","","","","","","","",""
"799","","f","psychophysics","100","251179","0.0-7.0-3.0-0.86","7","7","7","7","7","5","4","5","5","5","5","2","1","2","2","1","2","2","2","5","5","5","5","5","5","5","5","5","5","6","7","7","8","7","5","7","8","7","7","7","7","7","7","6","7","1","7","7","1","7","7","7","7","7","7","7","7","7","7","7","7","7","7","7","7","7","7","7","7","7","6","7","7","7","7","7","7","7","7","619618027951882240","张","268","Male","[""好我"",""坏他"",""坏我"",""好他""]","[""强我"",""弱他"",""弱我"",""强他""]","","","","","","","","yes","","","","","","","","","SRET","EW_formal","","key","f","16.66355140186916","768","428","朋友","素养","Positive","morality","","","","","","","","","","",""
"703","","j","psychophysics","101","252883","0.0-7.0-3.0-0.87","7","7","7","7","7","5","4","5","5","5","5","2","1","2","2","1","2","2","2","5","5","5","5","5","5","5","5","5","5","6","7","7","8","7","5","7","8","7","7","7","7","7","7","6","7","1","7","7","1","7","7","7","7","7","7","7","7","7","7","7","7","7","7","7","7","7","7","7","7","7","6","7","7","7","7","7","7","7","7","619618027951882240","张","268","Male","[""好我"",""坏他"",""坏我"",""好他""]","[""强我"",""弱他"",""弱我"",""强他""]","","","","","","","","no","","","","","","","","","SRET","EW_formal","","key","j","16.664356435643622","768","428","自己","缓慢","Negative","ability","","","","","","","","","","",""
"2848","
    <p><div style='color:white;font-size:35px; line-height:20px;'>计算任务</div></p><br>
    <p><div style='color:red;font-size:25px; line-height:20px;'>接下来，您将看到一些四则运算题，<b>请从键盘选择 0-9 进行反应。</b></div></p>
    <p><div style='color:red;font-size:25px; line-height:20px;'>请尽可能快地进行计算，计算的速度和正确率将影响报酬的发放。</div></p>
    <p><div class='footer' style='color:white;font-size:25px; line-height:20px;'>如果对本实验还有不清楚之处，请立即向实验员咨询。</p><p style='color:white;font-size:25px; line-height:20px;'>如果您明白了规则：</p><p style='color:white;font-size:22px; line-height:20px;'>请按 继续 进入练习</p>
    </div>
    ","0","html-button-response","102","255732","0.0-7.0-4.0","7","7","7","7","7","5","4","5","5","5","5","2","1","2","2","1","2","2","2","5","5","5","5","5","5","5","5","5","5","6","7","7","8","7","5","7","8","7","7","7","7","7","7","6","7","1","7","7","1","7","7","7","7","7","7","7","7","7","7","7","7","7","7","7","7","7","7","7","7","7","6","7","7","7","7","7","7","7","7","619618027951882240","张","268","Male","[""好我"",""坏他"",""坏我"",""好他""]","[""强我"",""弱他"",""弱我"",""强他""]","","","","","","","","","","","","","","","","","SRET_math","math_instructions","Sun Jan 07 2024 17:16:31 GMT+0800 (中国标准时间)","","","","","","","","","","","","","","","","","","","",""
"1886","","7","psychophysics","103","257620","0.0-7.0-5.0-0.0","7","7","7","7","7","5","4","5","5","5","5","2","1","2","2","1","2","2","2","5","5","5","5","5","5","5","5","5","5","6","7","7","8","7","5","7","8","7","7","7","7","7","7","6","7","1","7","7","1","7","7","7","7","7","7","7","7","7","7","7","7","7","7","7","7","7","7","7","7","7","6","7","7","7","7","7","7","7","7","619618027951882240","张","268","Male","[""好我"",""坏他"",""坏我"",""好他""]","[""强我"",""弱他"",""弱我"",""强他""]","","","","","","","","7","","","","","","","","","SRET","SRET_math_calculate","","key","7","16.664912280701653","768","428","","","","","8-1= ?","7","1","","","","","","","",""
"2440","","8","psychophysics","104","260061","0.0-7.0-5.0-0.1","7","7","7","7","7","5","4","5","5","5","5","2","1","2","2","1","2","2","2","5","5","5","5","5","5","5","5","5","5","6","7","7","8","7","5","7","8","7","7","7","7","7","7","6","7","1","7","7","1","7","7","7","7","7","7","7","7","7","7","7","7","7","7","7","7","7","7","7","7","7","6","7","7","7","7","7","7","7","7","619618027951882240","张","268","Male","[""好我"",""坏他"",""坏我"",""好他""]","[""强我"",""弱他"",""弱我"",""强他""]","","","","","","","","8","","","","","","","","","SRET","SRET_math_calculate","","key","8","16.664137931034404","768","428","","","","","11-3= ?","8","1","","","","","","","",""
"1678","","9","psychophysics","105","261739","0.0-7.0-5.0-0.2","7","7","7","7","7","5","4","5","5","5","5","2","1","2","2","1","2","2","2","5","5","5","5","5","5","5","5","5","5","6","7","7","8","7","5","7","8","7","7","7","7","7","7","6","7","1","7","7","1","7","7","7","7","7","7","7","7","7","7","7","7","7","7","7","7","7","7","7","7","7","6","7","7","7","7","7","7","7","7","619618027951882240","张","268","Male","[""好我"",""坏他"",""坏我"",""好他""]","[""强我"",""弱他"",""弱我"",""强他""]","","","","","","","","9","","","","","","","","","SRET","SRET_math_calculate","","key","9","16.664999999999708","768","428","","","","","1+8= ?","9","1","","","","","","","",""
"1840","","8","psychophysics","106","263580","0.0-7.0-5.0-0.3","7","7","7","7","7","5","4","5","5","5","5","2","1","2","2","1","2","2","2","5","5","5","5","5","5","5","5","5","5","6","7","7","8","7","5","7","8","7","7","7","7","7","7","6","7","1","7","7","1","7","7","7","7","7","7","7","7","7","7","7","7","7","7","7","7","7","7","7","7","7","6","7","7","7","7","7","7","7","7","619618027951882240","张","268","Male","[""好我"",""坏他"",""坏我"",""好他""]","[""强我"",""弱他"",""弱我"",""强他""]","","","","","","","","8","","","","","","","","","SRET","SRET_math_calculate","","key","8","16.665137614678898","768","428","","","","","72/9= ?","8","1","","","","","","","",""
"1895","","3","psychophysics","107","265476","0.0-7.0-5.0-0.4","7","7","7","7","7","5","4","5","5","5","5","2","1","2","2","1","2","2","2","5","5","5","5","5","5","5","5","5","5","6","7","7","8","7","5","7","8","7","7","7","7","7","7","6","7","1","7","7","1","7","7","7","7","7","7","7","7","7","7","7","7","7","7","7","7","7","7","7","7","7","6","7","7","7","7","7","7","7","7","619618027951882240","张","268","Male","[""好我"",""坏他"",""坏我"",""好他""]","[""强我"",""弱他"",""弱我"",""强他""]","","","","","","","","3","","","","","","","","","SRET","SRET_math_calculate","","key","3","16.664601769911297","768","428","","","","","12/4= ?","3","1","","","","","","","",""
"1743","","6","psychophysics","108","267219","0.0-7.0-5.0-0.5","7","7","7","7","7","5","4","5","5","5","5","2","1","2","2","1","2","2","2","5","5","5","5","5","5","5","5","5","5","6","7","7","8","7","5","7","8","7","7","7","7","7","7","6","7","1","7","7","1","7","7","7","7","7","7","7","7","7","7","7","7","7","7","7","7","7","7","7","7","7","6","7","7","7","7","7","7","7","7","619618027951882240","张","268","Male","[""好我"",""坏他"",""坏我"",""好他""]","[""强我"",""弱他"",""弱我"",""强他""]","","","","","","","","6","","","","","","","","","SRET","SRET_math_calculate","","key","6","16.66442307692285","768","428","","","","","3*2= ?","6","1","","","","","","","",""
"1815","","2","psychophysics","109","269036","0.0-7.0-5.0-0.6","7","7","7","7","7","5","4","5","5","5","5","2","1","2","2","1","2","2","2","5","5","5","5","5","5","5","5","5","5","6","7","7","8","7","5","7","8","7","7","7","7","7","7","6","7","1","7","7","1","7","7","7","7","7","7","7","7","7","7","7","7","7","7","7","7","7","7","7","7","7","6","7","7","7","7","7","7","7","7","619618027951882240","张","268","Male","[""好我"",""坏他"",""坏我"",""好他""]","[""强我"",""弱他"",""弱我"",""强他""]","","","","","","","","2","","","","","","","","","SRET","SRET_math_calculate","","key","2","16.664814814814708","768","428","","","","","12/6= ?","2","1","","","","","","","",""
"1767","","3","psychophysics","110","270803","0.0-7.0-5.0-0.7","7","7","7","7","7","5","4","5","5","5","5","2","1","2","2","1","2","2","2","5","5","5","5","5","5","5","5","5","5","6","7","7","8","7","5","7","8","7","7","7","7","7","7","6","7","1","7","7","1","7","7","7","7","7","7","7","7","7","7","7","7","7","7","7","7","7","7","7","7","7","6","7","7","7","7","7","7","7","7","619618027951882240","张","268","Male","[""好我"",""坏他"",""坏我"",""好他""]","[""强我"",""弱他"",""弱我"",""强他""]","","","","","","","","3","","","","","","","","","SRET","SRET_math_calculate","","key","3","16.665714285713953","768","428","","","","","8-5= ?","3","1","","","","","","","",""
"1759","","8","psychophysics","111","272563","0.0-7.0-5.0-0.8","7","7","7","7","7","5","4","5","5","5","5","2","1","2","2","1","2","2","2","5","5","5","5","5","5","5","5","5","5","6","7","7","8","7","5","7","8","7","7","7","7","7","7","6","7","1","7","7","1","7","7","7","7","7","7","7","7","7","7","7","7","7","7","7","7","7","7","7","7","7","6","7","7","7","7","7","7","7","7","619618027951882240","张","268","Male","[""好我"",""坏他"",""坏我"",""好他""]","[""强我"",""弱他"",""弱我"",""强他""]","","","","","","","","8","","","","","","","","","SRET","SRET_math_calculate","","key","8","16.665384615384166","768","428","","","","","2*4= ?","8","1","","","","","","","",""
"1727","","9","psychophysics","112","274291","0.0-7.0-5.0-0.9","7","7","7","7","7","5","4","5","5","5","5","2","1","2","2","1","2","2","2","5","5","5","5","5","5","5","5","5","5","6","7","7","8","7","5","7","8","7","7","7","7","7","7","6","7","1","7","7","1","7","7","7","7","7","7","7","7","7","7","7","7","7","7","7","7","7","7","7","7","7","6","7","7","7","7","7","7","7","7","619618027951882240","张","268","Male","[""好我"",""坏他"",""坏我"",""好他""]","[""强我"",""弱他"",""弱我"",""强他""]","","","","","","","","9","","","","","","","","","SRET","SRET_math_calculate","","key","9","16.666019417475503","768","428","","","","","3+6= ?","9","1","","","","","","","",""
"1711","","9","psychophysics","113","276004","0.0-7.0-5.0-0.10","7","7","7","7","7","5","4","5","5","5","5","2","1","2","2","1","2","2","2","5","5","5","5","5","5","5","5","5","5","6","7","7","8","7","5","7","8","7","7","7","7","7","7","6","7","1","7","7","1","7","7","7","7","7","7","7","7","7","7","7","7","7","7","7","7","7","7","7","7","7","6","7","7","7","7","7","7","7","7","619618027951882240","张","268","Male","[""好我"",""坏他"",""坏我"",""好他""]","[""强我"",""弱他"",""弱我"",""强他""]","","","","","","","","9","","","","","","","","","SRET","SRET_math_calculate","","key","9","16.663725490196192","768","428","","","","","6+3= ?","9","1","","","","","","","",""
"2295","","7","psychophysics","114","278299","0.0-7.0-5.0-0.11","7","7","7","7","7","5","4","5","5","5","5","2","1","2","2","1","2","2","2","5","5","5","5","5","5","5","5","5","5","6","7","7","8","7","5","7","8","7","7","7","7","7","7","6","7","1","7","7","1","7","7","7","7","7","7","7","7","7","7","7","7","7","7","7","7","7","7","7","7","7","6","7","7","7","7","7","7","7","7","619618027951882240","张","268","Male","[""好我"",""坏他"",""坏我"",""好他""]","[""强我"",""弱他"",""弱我"",""强他""]","","","","","","","","7","","","","","","","","","SRET","SRET_math_calculate","","key","7","16.66397058823521","768","428","","","","","13-6= ?","7","1","","","","","","","",""
"1806","","5","psychophysics","115","280108","0.0-7.0-5.0-0.12","7","7","7","7","7","5","4","5","5","5","5","2","1","2","2","1","2","2","2","5","5","5","5","5","5","5","5","5","5","6","7","7","8","7","5","7","8","7","7","7","7","7","7","6","7","1","7","7","1","7","7","7","7","7","7","7","7","7","7","7","7","7","7","7","7","7","7","7","7","7","6","7","7","7","7","7","7","7","7","619618027951882240","张","268","Male","[""好我"",""坏他"",""坏我"",""好他""]","[""强我"",""弱他"",""弱我"",""强他""]","","","","","","","","5","","","","","","","","","SRET","SRET_math_calculate","","key","5","16.664814814814708","768","428","","","","","4+1= ?","5","1","","","","","","","",""
"1839","","8","psychophysics","116","281947","0.0-7.0-5.0-0.13","7","7","7","7","7","5","4","5","5","5","5","2","1","2","2","1","2","2","2","5","5","5","5","5","5","5","5","5","5","6","7","7","8","7","5","7","8","7","7","7","7","7","7","6","7","1","7","7","1","7","7","7","7","7","7","7","7","7","7","7","7","7","7","7","7","7","7","7","7","7","6","7","7","7","7","7","7","7","7","619618027951882240","张","268","Male","[""好我"",""坏他"",""坏我"",""好他""]","[""强我"",""弱他"",""弱我"",""强他""]","","","","","","","","8","","","","","","","","","SRET","SRET_math_calculate","","key","8","16.664220183486453","768","428","","","","","8*1= ?","8","1","","","","","","","",""
"1720","","6","psychophysics","117","283668","0.0-7.0-5.0-0.14","7","7","7","7","7","5","4","5","5","5","5","2","1","2","2","1","2","2","2","5","5","5","5","5","5","5","5","5","5","6","7","7","8","7","5","7","8","7","7","7","7","7","7","6","7","1","7","7","1","7","7","7","7","7","7","7","7","7","7","7","7","7","7","7","7","7","7","7","7","7","6","7","7","7","7","7","7","7","7","619618027951882240","张","268","Male","[""好我"",""坏他"",""坏我"",""好他""]","[""强我"",""弱他"",""弱我"",""强他""]","","","","","","","","6","","","","","","","","","SRET","SRET_math_calculate","","key","6","16.66407766990314","768","428","","","","","8-2= ?","6","1","","","","","","","",""
"1712","","8","psychophysics","118","285381","0.0-7.0-5.0-0.15","7","7","7","7","7","5","4","5","5","5","5","2","1","2","2","1","2","2","2","5","5","5","5","5","5","5","5","5","5","6","7","7","8","7","5","7","8","7","7","7","7","7","7","6","7","1","7","7","1","7","7","7","7","7","7","7","7","7","7","7","7","7","7","7","7","7","7","7","7","7","6","7","7","7","7","7","7","7","7","619618027951882240","张","268","Male","[""好我"",""坏他"",""坏我"",""好他""]","[""强我"",""弱他"",""弱我"",""强他""]","","","","","","","","8","","","","","","","","","SRET","SRET_math_calculate","","key","8","16.66534653465358","768","428","","","","","13-5= ?","8","1","","","","","","","",""
"1718","","8","psychophysics","119","287100","0.0-7.0-5.0-0.16","7","7","7","7","7","5","4","5","5","5","5","2","1","2","2","1","2","2","2","5","5","5","5","5","5","5","5","5","5","6","7","7","8","7","5","7","8","7","7","7","7","7","7","6","7","1","7","7","1","7","7","7","7","7","7","7","7","7","7","7","7","7","7","7","7","7","7","7","7","7","6","7","7","7","7","7","7","7","7","619618027951882240","张","268","Male","[""好我"",""坏他"",""坏我"",""好他""]","[""强我"",""弱他"",""弱我"",""强他""]","","","","","","","","8","","","","","","","","","SRET","SRET_math_calculate","","key","8","16.66407766990314","768","428","","","","","4*2= ?","8","1","","","","","","","",""
"1775","","9","psychophysics","120","288876","0.0-7.0-5.0-0.17","7","7","7","7","7","5","4","5","5","5","5","2","1","2","2","1","2","2","2","5","5","5","5","5","5","5","5","5","5","6","7","7","8","7","5","7","8","7","7","7","7","7","7","6","7","1","7","7","1","7","7","7","7","7","7","7","7","7","7","7","7","7","7","7","7","7","7","7","7","7","6","7","7","7","7","7","7","7","7","619618027951882240","张","268","Male","[""好我"",""坏他"",""坏我"",""好他""]","[""强我"",""弱他"",""弱我"",""强他""]","","","","","","","","9","","","","","","","","","SRET","SRET_math_calculate","","key","9","16.664761904761793","768","428","","","","","2+7= ?","9","1","","","","","","","",""
"1727","","8","psychophysics","121","290604","0.0-7.0-5.0-0.18","7","7","7","7","7","5","4","5","5","5","5","2","1","2","2","1","2","2","2","5","5","5","5","5","5","5","5","5","5","6","7","7","8","7","5","7","8","7","7","7","7","7","7","6","7","1","7","7","1","7","7","7","7","7","7","7","7","7","7","7","7","7","7","7","7","7","7","7","7","7","6","7","7","7","7","7","7","7","7","619618027951882240","张","268","Male","[""好我"",""坏他"",""坏我"",""好他""]","[""强我"",""弱他"",""弱我"",""强他""]","","","","","","","","8","","","","","","","","","SRET","SRET_math_calculate","","key","8","16.66504854368932","768","428","","","","","9-1= ?","8","1","","","","","","","",""
"1855","","2","psychophysics","122","292460","0.0-7.0-5.0-0.19","7","7","7","7","7","5","4","5","5","5","5","2","1","2","2","1","2","2","2","5","5","5","5","5","5","5","5","5","5","6","7","7","8","7","5","7","8","7","7","7","7","7","7","6","7","1","7","7","1","7","7","7","7","7","7","7","7","7","7","7","7","7","7","7","7","7","7","7","7","7","6","7","7","7","7","7","7","7","7","619618027951882240","张","268","Male","[""好我"",""坏他"",""坏我"",""好他""]","[""强我"",""弱他"",""弱我"",""强他""]","","","","","","","","2","","","","","","","","","SRET","SRET_math_calculate","","key","2","16.66545454545465","768","428","","","","","90/45= ?","2","1","","","","","","","",""
"1639","","5","psychophysics","123","294100","0.0-7.0-5.0-0.20","7","7","7","7","7","5","4","5","5","5","5","2","1","2","2","1","2","2","2","5","5","5","5","5","5","5","5","5","5","6","7","7","8","7","5","7","8","7","7","7","7","7","7","6","7","1","7","7","1","7","7","7","7","7","7","7","7","7","7","7","7","7","7","7","7","7","7","7","7","7","6","7","7","7","7","7","7","7","7","619618027951882240","张","268","Male","[""好我"",""坏他"",""坏我"",""好他""]","[""强我"",""弱他"",""弱我"",""强他""]","","","","","","","","5","","","","","","","","","SRET","SRET_math_calculate","","key","5","16.66428571428607","768","428","","","","","15-10= ?","5","1","","","","","","","",""
"1623","","5","psychophysics","124","295724","0.0-7.0-5.0-0.21","7","7","7","7","7","5","4","5","5","5","5","2","1","2","2","1","2","2","2","5","5","5","5","5","5","5","5","5","5","6","7","7","8","7","5","7","8","7","7","7","7","7","7","6","7","1","7","7","1","7","7","7","7","7","7","7","7","7","7","7","7","7","7","7","7","7","7","7","7","7","6","7","7","7","7","7","7","7","7","619618027951882240","张","268","Male","[""好我"",""坏他"",""坏我"",""好他""]","[""强我"",""弱他"",""弱我"",""强他""]","","","","","","","","5","","","","","","","","","SRET","SRET_math_calculate","","key","5","16.664583333333212","768","428","","","","","8-4= ?","4","0","","","","","","","",""
"200","","4","psychophysics","125","295925","0.0-7.0-5.0-0.22","7","7","7","7","7","5","4","5","5","5","5","2","1","2","2","1","2","2","2","5","5","5","5","5","5","5","5","5","5","6","7","7","8","7","5","7","8","7","7","7","7","7","7","6","7","1","7","7","1","7","7","7","7","7","7","7","7","7","7","7","7","7","7","7","7","7","7","7","7","7","6","7","7","7","7","7","7","7","7","619618027951882240","张","268","Male","[""好我"",""坏他"",""坏我"",""好他""]","[""强我"",""弱他"",""弱我"",""强他""]","","","","","","","","4","","","","","","","","","SRET","SRET_math_calculate","","key","4","16.663636363635305","768","428","","","","","5+4= ?","9","0","","","","","","","",""
"2102","","0","psychophysics","126","298028","0.0-7.0-5.0-0.23","7","7","7","7","7","5","4","5","5","5","5","2","1","2","2","1","2","2","2","5","5","5","5","5","5","5","5","5","5","6","7","7","8","7","5","7","8","7","7","7","7","7","7","6","7","1","7","7","1","7","7","7","7","7","7","7","7","7","7","7","7","7","7","7","7","7","7","7","7","7","6","7","7","7","7","7","7","7","7","619618027951882240","张","268","Male","[""好我"",""坏他"",""坏我"",""好他""]","[""强我"",""弱他"",""弱我"",""强他""]","","","","","","","","0","","","","","","","","","SRET","SRET_math_calculate","","key","0","16.66480000000028","768","428","","","","","9-9= ?","0","1","","","","","","","",""
"1735","","4","psychophysics","127","299764","0.0-7.0-5.0-0.24","7","7","7","7","7","5","4","5","5","5","5","2","1","2","2","1","2","2","2","5","5","5","5","5","5","5","5","5","5","6","7","7","8","7","5","7","8","7","7","7","7","7","7","6","7","1","7","7","1","7","7","7","7","7","7","7","7","7","7","7","7","7","7","7","7","7","7","7","7","7","6","7","7","7","7","7","7","7","7","619618027951882240","张","268","Male","[""好我"",""坏他"",""坏我"",""好他""]","[""强我"",""弱他"",""弱我"",""强他""]","","","","","","","","4","","","","","","","","","SRET","SRET_math_calculate","","key","4","16.66504854368932","768","428","","","","","20/5= ?","4","1","","","","","","","",""
"1830","","2","psychophysics","128","301596","0.0-7.0-5.0-0.25","7","7","7","7","7","5","4","5","5","5","5","2","1","2","2","1","2","2","2","5","5","5","5","5","5","5","5","5","5","6","7","7","8","7","5","7","8","7","7","7","7","7","7","6","7","1","7","7","1","7","7","7","7","7","7","7","7","7","7","7","7","7","7","7","7","7","7","7","7","7","6","7","7","7","7","7","7","7","7","619618027951882240","张","268","Male","[""好我"",""坏他"",""坏我"",""好他""]","[""强我"",""弱他"",""弱我"",""强他""]","","","","","","","","2","","","","","","","","","SRET","SRET_math_calculate","","key","2","16.664220183486453","768","428","","","","","19-17= ?","2","1","","","","","","","",""
"1759","","5","psychophysics","129","303356","0.0-7.0-5.0-0.26","7","7","7","7","7","5","4","5","5","5","5","2","1","2","2","1","2","2","2","5","5","5","5","5","5","5","5","5","5","6","7","7","8","7","5","7","8","7","7","7","7","7","7","6","7","1","7","7","1","7","7","7","7","7","7","7","7","7","7","7","7","7","7","7","7","7","7","7","7","7","6","7","7","7","7","7","7","7","7","619618027951882240","张","268","Male","[""好我"",""坏他"",""坏我"",""好他""]","[""强我"",""弱他"",""弱我"",""强他""]","","","","","","","","5","","","","","","","","","SRET","SRET_math_calculate","","key","5","16.664761904761793","768","428","","","","","8-3= ? ","5","1","","","","","","","",""
"1887","","6","psychophysics","130","305244","0.0-7.0-5.0-0.27","7","7","7","7","7","5","4","5","5","5","5","2","1","2","2","1","2","2","2","5","5","5","5","5","5","5","5","5","5","6","7","7","8","7","5","7","8","7","7","7","7","7","7","6","7","1","7","7","1","7","7","7","7","7","7","7","7","7","7","7","7","7","7","7","7","7","7","7","7","7","6","7","7","7","7","7","7","7","7","619618027951882240","张","268","Male","[""好我"",""坏他"",""坏我"",""好他""]","[""强我"",""弱他"",""弱我"",""强他""]","","","","","","","","6","","","","","","","","","SRET","SRET_math_calculate","","key","6","16.664285714285402","768","428","","","","","2+4= ?","6","1","","","","","","","",""
"1847","","7","psychophysics","131","307092","0.0-7.0-5.0-0.28","7","7","7","7","7","5","4","5","5","5","5","2","1","2","2","1","2","2","2","5","5","5","5","5","5","5","5","5","5","6","7","7","8","7","5","7","8","7","7","7","7","7","7","6","7","1","7","7","1","7","7","7","7","7","7","7","7","7","7","7","7","7","7","7","7","7","7","7","7","7","6","7","7","7","7","7","7","7","7","619618027951882240","张","268","Male","[""好我"",""坏他"",""坏我"",""好他""]","[""强我"",""弱他"",""弱我"",""强他""]","","","","","","","","7","","","","","","","","","SRET","SRET_math_calculate","","key","7","16.664545454545244","768","428","","","","","21/3= ? ","7","1","","","","","","","",""
"1759","","3","psychophysics","132","308852","0.0-7.0-5.0-0.29","7","7","7","7","7","5","4","5","5","5","5","2","1","2","2","1","2","2","2","5","5","5","5","5","5","5","5","5","5","6","7","7","8","7","5","7","8","7","7","7","7","7","7","6","7","1","7","7","1","7","7","7","7","7","7","7","7","7","7","7","7","7","7","7","7","7","7","7","7","7","6","7","7","7","7","7","7","7","7","619618027951882240","张","268","Male","[""好我"",""坏他"",""坏我"",""好他""]","[""强我"",""弱他"",""弱我"",""强他""]","","","","","","","","3","","","","","","","","","SRET","SRET_math_calculate","","key","3","16.664761904761793","768","428","","","","","1+2= ?","3","1","","","","","","","",""
"1783","","8","psychophysics","133","310636","0.0-7.0-5.0-0.30","7","7","7","7","7","5","4","5","5","5","5","2","1","2","2","1","2","2","2","5","5","5","5","5","5","5","5","5","5","6","7","7","8","7","5","7","8","7","7","7","7","7","7","6","7","1","7","7","1","7","7","7","7","7","7","7","7","7","7","7","7","7","7","7","7","7","7","7","7","7","6","7","7","7","7","7","7","7","7","619618027951882240","张","268","Male","[""好我"",""坏他"",""坏我"",""好他""]","[""强我"",""弱他"",""弱我"",""强他""]","","","","","","","","8","","","","","","","","","SRET","SRET_math_calculate","","key","8","16.664150943396447","768","428","","","","","1*8= ?","8","1","","","","","","","",""
"1688","","5","psychophysics","134","312324","0.0-7.0-5.0-0.31","7","7","7","7","7","5","4","5","5","5","5","2","1","2","2","1","2","2","2","5","5","5","5","5","5","5","5","5","5","6","7","7","8","7","5","7","8","7","7","7","7","7","7","6","7","1","7","7","1","7","7","7","7","7","7","7","7","7","7","7","7","7","7","7","7","7","7","7","7","7","6","7","7","7","7","7","7","7","7","619618027951882240","张","268","Male","[""好我"",""坏他"",""坏我"",""好他""]","[""强我"",""弱他"",""弱我"",""强他""]","","","","","","","","5","","","","","","","","","SRET","SRET_math_calculate","","key","5","16.665","768","428","","","","","10-5= ?","5","1","","","","","","","",""
"1790","","9","psychophysics","135","314116","0.0-7.0-5.0-0.32","7","7","7","7","7","5","4","5","5","5","5","2","1","2","2","1","2","2","2","5","5","5","5","5","5","5","5","5","5","6","7","7","8","7","5","7","8","7","7","7","7","7","7","6","7","1","7","7","1","7","7","7","7","7","7","7","7","7","7","7","7","7","7","7","7","7","7","7","7","7","6","7","7","7","7","7","7","7","7","619618027951882240","张","268","Male","[""好我"",""坏他"",""坏我"",""好他""]","[""强我"",""弱他"",""弱我"",""强他""]","","","","","","","","9","","","","","","","","","SRET","SRET_math_calculate","","key","9","16.664485981308193","768","428","","","","","1+8= ?","9","1","","","","","","","",""
"1864","","5","psychophysics","136","315980","0.0-7.0-5.0-0.33","7","7","7","7","7","5","4","5","5","5","5","2","1","2","2","1","2","2","2","5","5","5","5","5","5","5","5","5","5","6","7","7","8","7","5","7","8","7","7","7","7","7","7","6","7","1","7","7","1","7","7","7","7","7","7","7","7","7","7","7","7","7","7","7","7","7","7","7","7","7","6","7","7","7","7","7","7","7","7","619618027951882240","张","268","Male","[""好我"",""坏他"",""坏我"",""好他""]","[""强我"",""弱他"",""弱我"",""强他""]","","","","","","","","5","","","","","","","","","SRET","SRET_math_calculate","","key","5","16.66486486486476","768","428","","","","","14-9= ?","5","1","","","","","","","",""
"1823","","2","psychophysics","137","317804","0.0-7.0-5.0-0.34","7","7","7","7","7","5","4","5","5","5","5","2","1","2","2","1","2","2","2","5","5","5","5","5","5","5","5","5","5","6","7","7","8","7","5","7","8","7","7","7","7","7","7","6","7","1","7","7","1","7","7","7","7","7","7","7","7","7","7","7","7","7","7","7","7","7","7","7","7","7","6","7","7","7","7","7","7","7","7","619618027951882240","张","268","Male","[""好我"",""坏他"",""坏我"",""好他""]","[""强我"",""弱他"",""弱我"",""强他""]","","","","","","","","2","","","","","","","","","SRET","SRET_math_calculate","","key","2","16.664814814814708","768","428","","","","","8/4= ?","2","1","","","","","","","",""
"1767","","0","psychophysics","138","319572","0.0-7.0-5.0-0.35","7","7","7","7","7","5","4","5","5","5","5","2","1","2","2","1","2","2","2","5","5","5","5","5","5","5","5","5","5","6","7","7","8","7","5","7","8","7","7","7","7","7","7","6","7","1","7","7","1","7","7","7","7","7","7","7","7","7","7","7","7","7","7","7","7","7","7","7","7","7","6","7","7","7","7","7","7","7","7","619618027951882240","张","268","Male","[""好我"",""坏他"",""坏我"",""好他""]","[""强我"",""弱他"",""弱我"",""强他""]","","","","","","","","0","","","","","","","","","SRET","SRET_math_calculate","","key","0","16.664761904761793","768","428","","","","","22-22= ?","0","1","","","","","","","",""
"1743","","5","psychophysics","139","321316","0.0-7.0-5.0-0.36","7","7","7","7","7","5","4","5","5","5","5","2","1","2","2","1","2","2","2","5","5","5","5","5","5","5","5","5","5","6","7","7","8","7","5","7","8","7","7","7","7","7","7","6","7","1","7","7","1","7","7","7","7","7","7","7","7","7","7","7","7","7","7","7","7","7","7","7","7","7","6","7","7","7","7","7","7","7","7","619618027951882240","张","268","Male","[""好我"",""坏他"",""坏我"",""好他""]","[""强我"",""弱他"",""弱我"",""强他""]","","","","","","","","5","","","","","","","","","SRET","SRET_math_calculate","","key","5","16.665384615384728","768","428","","","","","16-11= ?","5","1","","","","","","","",""
"1720","","4","psychophysics","140","323036","0.0-7.0-5.0-0.37","7","7","7","7","7","5","4","5","5","5","5","2","1","2","2","1","2","2","2","5","5","5","5","5","5","5","5","5","5","6","7","7","8","7","5","7","8","7","7","7","7","7","7","6","7","1","7","7","1","7","7","7","7","7","7","7","7","7","7","7","7","7","7","7","7","7","7","7","7","7","6","7","7","7","7","7","7","7","7","619618027951882240","张","268","Male","[""好我"",""坏他"",""坏我"",""好他""]","[""强我"",""弱他"",""弱我"",""强他""]","","","","","","","","4","","","","","","","","","SRET","SRET_math_calculate","","key","4","16.664705882352827","768","428","","","","","4*1= ?","4","1","","","","","","","",""
"1791","","1","psychophysics","141","324828","0.0-7.0-5.0-0.38","7","7","7","7","7","5","4","5","5","5","5","2","1","2","2","1","2","2","2","5","5","5","5","5","5","5","5","5","5","6","7","7","8","7","5","7","8","7","7","7","7","7","7","6","7","1","7","7","1","7","7","7","7","7","7","7","7","7","7","7","7","7","7","7","7","7","7","7","7","7","6","7","7","7","7","7","7","7","7","619618027951882240","张","268","Male","[""好我"",""坏他"",""坏我"",""好他""]","[""强我"",""弱他"",""弱我"",""强他""]","","","","","","","","1","","","","","","","","","SRET","SRET_math_calculate","","key","1","16.66509433962264","768","428","","","","","30-29= ?","1","1","","","","","","","",""
"1815","","2","psychophysics","142","326644","0.0-7.0-5.0-0.39","7","7","7","7","7","5","4","5","5","5","5","2","1","2","2","1","2","2","2","5","5","5","5","5","5","5","5","5","5","6","7","7","8","7","5","7","8","7","7","7","7","7","7","6","7","1","7","7","1","7","7","7","7","7","7","7","7","7","7","7","7","7","7","7","7","7","7","7","7","7","6","7","7","7","7","7","7","7","7","619618027951882240","张","268","Male","[""好我"",""坏他"",""坏我"",""好他""]","[""强我"",""弱他"",""弱我"",""强他""]","","","","","","","","2","","","","","","","","","SRET","SRET_math_calculate","","key","2","16.664814814815244","768","428","","","","","9-7= ?","2","1","","","","","","","",""
