"rt","stimulus","response","trial_type","trial_index","time_elapsed","internal_node_id","swb_1","swb_2","swb_3","swb_4","swb_5","LOT_1","LOT_2","LOT_3","LOT_4","LOT_5","LOT_6","IPC_1","IPC_2","IPC_3","IPC_4","IPC_5","IPC_6","IPC_7","IPC_8","MorIden_1","MorIden_2","MorIden_3","MorIden_4","MorIden_5","MorIden_6","MorIden_7","MorIden_8","MorIden_9","MorIden_10","moralSeImag_1","moralSeImag_2","moralSeImag_3","moralSeImag_4","moralSeImag_5","moralSeImag_6","moralSeImag_7","moralSeImag_8","moralSeImag_9","sde_1","sde_2","sde_3","sde_4","sde_5","sde_6","sde_7","sde_8","sde_9","sde_10","trap2","sde_11","sde_12","sde_13","sde_14","sde_15","sde_16","sde_17","sde_18","sde_19","sde_20","IM_1","IM_2","IM_3","IM_4","IM_5","IM_6","IM_7","IM_8","IM_9","IM_10","IM_11","IM_12","IM_13","IM_14","IM_15","IM_16","IM_17","IM_18","IM_19","IM_20","subj_idx","friend_name","ParticipantID","Sex","Word","Word2","value","success","timeout","failed_images","failed_audio","failed_video","user_agent","responses","item_order","radio_event_ids","radio_event_times","key_event_times","mouse_event_times","straightlining","zigzagging","honeypot","task_id","screen_id","time_stamp","response_type","key_press","avg_frame_time","center_x","center_y","person","word","valence","domain","math","correct_response","correct","status","view_history","identity","duration","Image","condition","question_order","trap2_item"
"3760","
   <p><div style='color:white; font-size: 25px'>您好，欢迎参加本次实验。</div></p>
   <p><div style='color:white; font-size: 25px'>为充分保障您的权利，请确保您已经知晓并同意《参与实验同意书》以及《数据公开知情同意书》。</div></p>
   <p><div style='color:white; font-size: 25px'>如果您未见过上述内容，请咨询实验员。</div></p>
   <p style='color:white; font-size: 25px'>如果您选择继续实验，则表示您已经清楚两份知情同意书的内容并同意。</p>
   <p><div style = ""color: pink;font-size:30px;"">请确保您记得day0的实验编号，您将在本次实验输入该编号，若您忘记，请咨询实验员后作答。</div></p>
   <p><div style = ""color:lightblue;font-size:25px;"">请您尽可能认真地作答，我们将依据您在各问卷和按键任务中的作答质量发放报酬。</div></p>
   <p> <div style = ""color: green""><按空格键至下页></div> </p>
   "," ","html-keyboard-response","0","3762","0.0-0.0","7","7","7","7","7","5","5","5","5","5","5","2","2","2","2","2","2","2","2","5","5","5","5","5","4","5","4","5","4","7","7","8","8","7","7","7","8","8","7","7","7","7","7","7","7","1","7","7","1","7","6","7","7","7","7","7","7","7","7","7","7","7","7","6","7","7","7","7","7","7","6","7","7","7","7","7","7","7","7","621363018810261504","袁","700","Male","[""好我"",""坏他"",""坏我"",""好他""]","[""强我"",""弱他"",""弱我"",""强他""]","","","","","","","","","","","","","","","","","","","","","","","","","","","","","","","","","","","","","","",""
"","","","call-function","1","3762","0.0-1.0-0.0","7","7","7","7","7","5","5","5","5","5","5","2","2","2","2","2","2","2","2","5","5","5","5","5","4","5","4","5","4","7","7","8","8","7","7","7","8","8","7","7","7","7","7","7","7","1","7","7","1","7","6","7","7","7","7","7","7","7","7","7","7","7","7","6","7","7","7","7","7","7","6","7","7","7","7","7","7","7","7","621363018810261504","袁","700","Male","[""好我"",""坏他"",""坏我"",""好他""]","[""强我"",""弱他"",""弱我"",""强他""]","","","","","","","","","","","","","","","","","","","","","","","","","","","","","","","","","","","","","","",""
"11767","","[{""name"":""Sex"",""value"":""0""},{""name"":""friend_name"",""value"":""袁""},{""name"":""ParticipantID"",""value"":""700""}]","survey-html-form","2","15530","0.0-1.0-1.0","7","7","7","7","7","5","5","5","5","5","5","2","2","2","2","2","2","2","2","5","5","5","5","5","4","5","4","5","4","7","7","8","8","7","7","7","8","8","7","7","7","7","7","7","7","1","7","7","1","7","6","7","7","7","7","7","7","7","7","7","7","7","7","6","7","7","7","7","7","7","6","7","7","7","7","7","7","7","7","621363018810261504","袁","700","Male","[""好我"",""坏他"",""坏我"",""好他""]","[""强我"",""弱他"",""弱我"",""强他""]","","","","","","","","","","","","","","","","","","","","","","","","","","","","","","","","","","","","","","",""
"","","","preload","3","15853","0.0-2.0","7","7","7","7","7","5","5","5","5","5","5","2","2","2","2","2","2","2","2","5","5","5","5","5","4","5","4","5","4","7","7","8","8","7","7","7","8","8","7","7","7","7","7","7","7","1","7","7","1","7","6","7","7","7","7","7","7","7","7","7","7","7","7","6","7","7","7","7","7","7","6","7","7","7","7","7","7","7","7","621363018810261504","袁","700","Male","[""好我"",""坏他"",""坏我"",""好他""]","[""强我"",""弱他"",""弱我"",""强他""]","","true","false","[]","[]","[]","","","","","","","","","","","","","","","","","","","","","","","","","","","","","","","","",""
"","","","fullscreen","4","16822","0.0-3.0","7","7","7","7","7","5","5","5","5","5","5","2","2","2","2","2","2","2","2","5","5","5","5","5","4","5","4","5","4","7","7","8","8","7","7","7","8","8","7","7","7","7","7","7","7","1","7","7","1","7","6","7","7","7","7","7","7","7","7","7","7","7","7","6","7","7","7","7","7","7","6","7","7","7","7","7","7","7","7","621363018810261504","袁","700","Male","[""好我"",""坏他"",""坏我"",""好他""]","[""强我"",""弱他"",""弱我"",""强他""]","","true","","","","","{}","","","","","","","","","","","","","","","","","","","","","","","","","","","","","","","",""
"72468.70000076294","","{""Q01"":""7"",""Q02"":""7"",""Q03"":""7"",""Q04"":""7"",""Q05"":""7""}","survey-template","5","89293","0.0-4.0","7","7","7","7","7","5","5","5","5","5","5","2","2","2","2","2","2","2","2","5","5","5","5","5","4","5","4","5","4","7","7","8","8","7","7","7","8","8","7","7","7","7","7","7","7","1","7","7","1","7","6","7","7","7","7","7","7","7","7","7","7","7","7","6","7","7","7","7","7","7","6","7","7","7","7","7","7","7","7","621363018810261504","袁","700","Male","[""好我"",""坏他"",""坏我"",""好他""]","[""强我"",""弱他"",""弱我"",""强他""]","","","","","","","","{""Q01"":""7"",""Q02"":""7"",""Q03"":""7"",""Q04"":""7"",""Q05"":""7""}","[0,1,2,3,4]","[""Q01"",""Q02"",""Q03"",""Q04"",""Q05""]","[1850,2258.2000007629395,2618.300001144409,3113.900001525879,5018.10000038147]","[]","[1850,2258.2000007629395,2618.300001144409,3113.900001525879,5018.10000038147,72467.70000076294]","1","0","0","","","","","","","","","","","","","","","","","","","","","","",""
"55723.20000076294","","{""Q01"":""5"",""Q02"":""5"",""Q03"":""5"",""Q04"":""5"",""Q05"":""5"",""Q06"":""5""}","survey-template","6","145018","0.0-5.0","7","7","7","7","7","5","5","5","5","5","5","2","2","2","2","2","2","2","2","5","5","5","5","5","4","5","4","5","4","7","7","8","8","7","7","7","8","8","7","7","7","7","7","7","7","1","7","7","1","7","6","7","7","7","7","7","7","7","7","7","7","7","7","6","7","7","7","7","7","7","6","7","7","7","7","7","7","7","7","621363018810261504","袁","700","Male","[""好我"",""坏他"",""坏我"",""好他""]","[""强我"",""弱他"",""弱我"",""强他""]","","","","","","","","{""Q01"":""5"",""Q02"":""5"",""Q03"":""5"",""Q04"":""5"",""Q05"":""5"",""Q06"":""5""}","[0,1,2,3,4,5]","[""Q01"",""Q02"",""Q03"",""Q04"",""Q05"",""Q06""]","[2884.300001144409,4954.700000762939,6074.5,6754.5,7306.39999961853,9042.39999961853]","[]","[2884.300001144409,4954.700000762939,6074.5,6754.5,7306.39999961853,8810.39999961853,9042.39999961853,55722.70000076294]","0.5","0.8","0","","","","","","","","","","","","","","","","","","","","","","",""
"44126.19999885559","","{""Q01"":""2"",""Q02"":""2"",""Q03"":""2"",""Q04"":""2"",""Q05"":""2"",""Q06"":""2"",""Q07"":""2"",""Q08"":""2""}","survey-template","7","189147","0.0-6.0","7","7","7","7","7","5","5","5","5","5","5","2","2","2","2","2","2","2","2","5","5","5","5","5","4","5","4","5","4","7","7","8","8","7","7","7","8","8","7","7","7","7","7","7","7","1","7","7","1","7","6","7","7","7","7","7","7","7","7","7","7","7","7","6","7","7","7","7","7","7","6","7","7","7","7","7","7","7","7","621363018810261504","袁","700","Male","[""好我"",""坏他"",""坏我"",""好他""]","[""强我"",""弱他"",""弱我"",""强他""]","","","","","","","","{""Q01"":""2"",""Q02"":""2"",""Q03"":""2"",""Q04"":""2"",""Q05"":""2"",""Q06"":""2"",""Q07"":""2"",""Q08"":""2""}","[0,1,2,3,4,5,6,7]","[""Q01"",""Q02"",""Q03"",""Q04"",""Q05"",""Q06"",""Q07"",""Q08""]","[1437.2999992370605,36053.19999885559,36413.09999847412,36997.29999923706,37309.09999847412,38213.09999847412,38509.19999885559,39287.29999923706]","[]","[1437.2999992370605,36053.19999885559,36413.09999847412,36813.5,36997.29999923706,37309.09999847412,37686.09999847412,38213.09999847412,38509.19999885559,38997,39287.29999923706,44125.5]","1","0","0","","","","","","","","","","","","","","","","","","","","","","",""
"42262","
    <p><div style='color:white;font-size:35px; line-height:20px;'>词汇评估任务</div></p><br>
    <p><div style='color:white;font-size:25px; line-height:20px;'>请再次回忆该亲密的朋友，你们至少2年前就认识了，并且最近2年经常见面。</div></p>
    <p><div style='color:white;font-size:25px; line-height:20px;'>在本实验中，您将会看到一些形容词。</div></p>
    <p><div style='color:yellow;font-size:25px; line-height:20px;'>您的任务是判断这些形容词是否符合对您自己或您的朋友的描述。</div></p><p style='font-size:35px'>符合按<span style=""color:lightgreen""> f 键</span>，不符合按<span style=""color:red""> j 键</span></p>","0","html-button-response","8","231410","0.0-7.0-0.0","7","7","7","7","7","5","5","5","5","5","5","2","2","2","2","2","2","2","2","5","5","5","5","5","4","5","4","5","4","7","7","8","8","7","7","7","8","8","7","7","7","7","7","7","7","1","7","7","1","7","6","7","7","7","7","7","7","7","7","7","7","7","7","6","7","7","7","7","7","7","6","7","7","7","7","7","7","7","7","621363018810261504","袁","700","Male","[""好我"",""坏他"",""坏我"",""好他""]","[""强我"",""弱他"",""弱我"",""强他""]","","","","","","","","","","","","","","","","","SRET_EW","EW_instructions","Sun Jan 07 2024 14:17:17 GMT+0800 (中国标准时间)","","","","","","","","","","","","","","","","","","","",""
"684","","f","psychophysics","9","233098","0.0-7.0-1.0-0.0","7","7","7","7","7","5","5","5","5","5","5","2","2","2","2","2","2","2","2","5","5","5","5","5","4","5","4","5","4","7","7","8","8","7","7","7","8","8","7","7","7","7","7","7","7","1","7","7","1","7","6","7","7","7","7","7","7","7","7","7","7","7","7","6","7","7","7","7","7","7","6","7","7","7","7","7","7","7","7","621363018810261504","袁","700","Male","[""好我"",""坏他"",""坏我"",""好他""]","[""强我"",""弱他"",""弱我"",""强他""]","","","","","","","","yes","","","","","","","","","SRET_EW","EW_practice","","key","f","16.645098039215572","768","428","朋友","忠实","Positive","morality","","","","","","","","","","",""
"526","","j","psychophysics","10","234625","0.0-7.0-1.0-0.1","7","7","7","7","7","5","5","5","5","5","5","2","2","2","2","2","2","2","2","5","5","5","5","5","4","5","4","5","4","7","7","8","8","7","7","7","8","8","7","7","7","7","7","7","7","1","7","7","1","7","6","7","7","7","7","7","7","7","7","7","7","7","7","6","7","7","7","7","7","7","6","7","7","7","7","7","7","7","7","621363018810261504","袁","700","Male","[""好我"",""坏他"",""坏我"",""好他""]","[""强我"",""弱他"",""弱我"",""强他""]","","","","","","","","no","","","","","","","","","SRET_EW","EW_practice","","key","j","16.653333333333205","768","428","朋友","徇私","Negative","morality","","","","","","","","","","",""
"630","","j","psychophysics","11","236257","0.0-7.0-1.0-0.2","7","7","7","7","7","5","5","5","5","5","5","2","2","2","2","2","2","2","2","5","5","5","5","5","4","5","4","5","4","7","7","8","8","7","7","7","8","8","7","7","7","7","7","7","7","1","7","7","1","7","6","7","7","7","7","7","7","7","7","7","7","7","7","6","7","7","7","7","7","7","6","7","7","7","7","7","7","7","7","621363018810261504","袁","700","Male","[""好我"",""坏他"",""坏我"",""好他""]","[""强我"",""弱他"",""弱我"",""强他""]","","","","","","","","no","","","","","","","","","SRET_EW","EW_practice","","key","j","16.651546391752397","768","428","自己","刻板","Negative","ability","","","","","","","","","","",""
"606","","f","psychophysics","12","237865","0.0-7.0-1.0-0.3","7","7","7","7","7","5","5","5","5","5","5","2","2","2","2","2","2","2","2","5","5","5","5","5","4","5","4","5","4","7","7","8","8","7","7","7","8","8","7","7","7","7","7","7","7","1","7","7","1","7","6","7","7","7","7","7","7","7","7","7","7","7","7","6","7","7","7","7","7","7","6","7","7","7","7","7","7","7","7","621363018810261504","袁","700","Male","[""好我"",""坏他"",""坏我"",""好他""]","[""强我"",""弱他"",""弱我"",""强他""]","","","","","","","","yes","","","","","","","","","SRET_EW","EW_practice","","key","f","16.65312500000012","768","428","自己","严谨","Positive","ability","","","","","","","","","","",""
"4881","
    <p><div style='color:white;font-size:35px; line-height:20px;'>请您再次阅读实验要求</div></p><br>
    <p><div style='color:white;font-size:25px; line-height:20px;'>请回忆某一个亲密的朋友，你们至少2年前就认识了，并且最近2年经常见面。</div></p>
    <p><div style='color:white;font-size:25px; line-height:20px;'>在本实验中，您将会看到一些形容词。</div></p>
    <p><div style='color:yellow;font-size:25px; line-height:20px;'>您的任务是判断这些形容词是否符合对您自己或您的朋友的描述。</div></p>
    <p><div class='footer' style='font-size:25px; line-height:20px;'>如果对本实验还有不清楚之处，请立即向实验员咨询。</p><p style='font-size:25px; line-height:20px;'>如果您明白了规则：</p><p style='font-size:22px; line-height:20px;'>请按 继续 进入正式实验</p>
    </div>
    <p style='font-size:35px'>符合按<span style=""color:lightgreen""> f 键</span>，不符合按<span style=""color:red""> j 键</span></p>","0","html-button-response","13","242747","0.0-7.0-2.0","7","7","7","7","7","5","5","5","5","5","5","2","2","2","2","2","2","2","2","5","5","5","5","5","4","5","4","5","4","7","7","8","8","7","7","7","8","8","7","7","7","7","7","7","7","1","7","7","1","7","6","7","7","7","7","7","7","7","7","7","7","7","7","6","7","7","7","7","7","7","6","7","7","7","7","7","7","7","7","621363018810261504","袁","700","Male","[""好我"",""坏他"",""坏我"",""好他""]","[""强我"",""弱他"",""弱我"",""强他""]","","","","","","","","","","","","","","","","","SRET_EW","prac_instructions","Sun Jan 07 2024 14:17:17 GMT+0800 (中国标准时间)","","","","","","","","","","","","","","","","","","","",""
"909","","j","psychophysics","14","244658","0.0-7.0-3.0-0.0","7","7","7","7","7","5","5","5","5","5","5","2","2","2","2","2","2","2","2","5","5","5","5","5","4","5","4","5","4","7","7","8","8","7","7","7","8","8","7","7","7","7","7","7","7","1","7","7","1","7","6","7","7","7","7","7","7","7","7","7","7","7","7","6","7","7","7","7","7","7","6","7","7","7","7","7","7","7","7","621363018810261504","袁","700","Male","[""好我"",""坏他"",""坏我"",""好他""]","[""强我"",""弱他"",""弱我"",""强他""]","","","","","","","","no","","","","","","","","","SRET","EW_formal","","key","j","16.64782608695652","768","428","自己","说谎","Negative","morality","","","","","","","","","","",""
"686","","f","psychophysics","15","246346","0.0-7.0-3.0-0.1","7","7","7","7","7","5","5","5","5","5","5","2","2","2","2","2","2","2","2","5","5","5","5","5","4","5","4","5","4","7","7","8","8","7","7","7","8","8","7","7","7","7","7","7","7","1","7","7","1","7","6","7","7","7","7","7","7","7","7","7","7","7","7","6","7","7","7","7","7","7","6","7","7","7","7","7","7","7","7","621363018810261504","袁","700","Male","[""好我"",""坏他"",""坏我"",""好他""]","[""强我"",""弱他"",""弱我"",""强他""]","","","","","","","","yes","","","","","","","","","SRET","EW_formal","","key","f","16.651000000000057","768","428","自己","坚贞","Positive","morality","","","","","","","","","","",""
"582","","f","psychophysics","16","247930","0.0-7.0-3.0-0.2","7","7","7","7","7","5","5","5","5","5","5","2","2","2","2","2","2","2","2","5","5","5","5","5","4","5","4","5","4","7","7","8","8","7","7","7","8","8","7","7","7","7","7","7","7","1","7","7","1","7","6","7","7","7","7","7","7","7","7","7","7","7","7","6","7","7","7","7","7","7","6","7","7","7","7","7","7","7","7","621363018810261504","袁","700","Male","[""好我"",""坏他"",""坏我"",""好他""]","[""强我"",""弱他"",""弱我"",""强他""]","","","","","","","","yes","","","","","","","","","SRET","EW_formal","","key","f","16.65106382978705","768","428","朋友","务实","Positive","ability","","","","","","","","","","",""
"1222","","j","psychophysics","17","250154","0.0-7.0-3.0-0.3","7","7","7","7","7","5","5","5","5","5","5","2","2","2","2","2","2","2","2","5","5","5","5","5","4","5","4","5","4","7","7","8","8","7","7","7","8","8","7","7","7","7","7","7","7","1","7","7","1","7","6","7","7","7","7","7","7","7","7","7","7","7","7","6","7","7","7","7","7","7","6","7","7","7","7","7","7","7","7","621363018810261504","袁","700","Male","[""好我"",""坏他"",""坏我"",""好他""]","[""强我"",""弱他"",""弱我"",""强他""]","","","","","","","","no","","","","","","","","","SRET","EW_formal","","key","j","16.651127819548915","768","428","朋友","迷糊","Negative","ability","","","","","","","","","","",""
"759","","f","psychophysics","18","251914","0.0-7.0-3.0-0.4","7","7","7","7","7","5","5","5","5","5","5","2","2","2","2","2","2","2","2","5","5","5","5","5","4","5","4","5","4","7","7","8","8","7","7","7","8","8","7","7","7","7","7","7","7","1","7","7","1","7","6","7","7","7","7","7","7","7","7","7","7","7","7","6","7","7","7","7","7","7","6","7","7","7","7","7","7","7","7","621363018810261504","袁","700","Male","[""好我"",""坏他"",""坏我"",""好他""]","[""强我"",""弱他"",""弱我"",""强他""]","","","","","","","","yes","","","","","","","","","SRET","EW_formal","","key","f","16.65142857142879","768","428","朋友","清廉","Positive","morality","","","","","","","","","","",""
"950","","j","psychophysics","19","253866","0.0-7.0-3.0-0.5","7","7","7","7","7","5","5","5","5","5","5","2","2","2","2","2","2","2","2","5","5","5","5","5","4","5","4","5","4","7","7","8","8","7","7","7","8","8","7","7","7","7","7","7","7","1","7","7","1","7","6","7","7","7","7","7","7","7","7","7","7","7","7","6","7","7","7","7","7","7","6","7","7","7","7","7","7","7","7","621363018810261504","袁","700","Male","[""好我"",""坏他"",""坏我"",""好他""]","[""强我"",""弱他"",""弱我"",""强他""]","","","","","","","","no","","","","","","","","","SRET","EW_formal","","key","j","16.650862068965516","768","428","自己","畏难","Negative","ability","","","","","","","","","","",""
"574","","f","psychophysics","20","255441","0.0-7.0-3.0-0.6","7","7","7","7","7","5","5","5","5","5","5","2","2","2","2","2","2","2","2","5","5","5","5","5","4","5","4","5","4","7","7","8","8","7","7","7","8","8","7","7","7","7","7","7","7","1","7","7","1","7","6","7","7","7","7","7","7","7","7","7","7","7","7","6","7","7","7","7","7","7","6","7","7","7","7","7","7","7","7","621363018810261504","袁","700","Male","[""好我"",""坏他"",""坏我"",""好他""]","[""强我"",""弱他"",""弱我"",""强他""]","","","","","","","","yes","","","","","","","","","SRET","EW_formal","","key","f","16.651612903225868","768","428","自己","全才","Positive","ability","","","","","","","","","","",""
"791","","j","psychophysics","21","257234","0.0-7.0-3.0-0.7","7","7","7","7","7","5","5","5","5","5","5","2","2","2","2","2","2","2","2","5","5","5","5","5","4","5","4","5","4","7","7","8","8","7","7","7","8","8","7","7","7","7","7","7","7","1","7","7","1","7","6","7","7","7","7","7","7","7","7","7","7","7","7","6","7","7","7","7","7","7","6","7","7","7","7","7","7","7","7","621363018810261504","袁","700","Male","[""好我"",""坏他"",""坏我"",""好他""]","[""强我"",""弱他"",""弱我"",""强他""]","","","","","","","","no","","","","","","","","","SRET","EW_formal","","key","j","16.651401869158715","768","428","朋友","奸诈","Negative","morality","","","","","","","","","","",""
"751","","f","psychophysics","22","258986","0.0-7.0-3.0-0.8","7","7","7","7","7","5","5","5","5","5","5","2","2","2","2","2","2","2","2","5","5","5","5","5","4","5","4","5","4","7","7","8","8","7","7","7","8","8","7","7","7","7","7","7","7","1","7","7","1","7","6","7","7","7","7","7","7","7","7","7","7","7","7","6","7","7","7","7","7","7","6","7","7","7","7","7","7","7","7","621363018810261504","袁","700","Male","[""好我"",""坏他"",""坏我"",""好他""]","[""强我"",""弱他"",""弱我"",""强他""]","","","","","","","","yes","","","","","","","","","SRET","EW_formal","","key","f","16.653846153846153","768","428","自己","毅力","Positive","ability","","","","","","","","","","",""
"999","","j","psychophysics","23","260986","0.0-7.0-3.0-0.9","7","7","7","7","7","5","5","5","5","5","5","2","2","2","2","2","2","2","2","5","5","5","5","5","4","5","4","5","4","7","7","8","8","7","7","7","8","8","7","7","7","7","7","7","7","1","7","7","1","7","6","7","7","7","7","7","7","7","7","7","7","7","7","6","7","7","7","7","7","7","6","7","7","7","7","7","7","7","7","621363018810261504","袁","700","Male","[""好我"",""坏他"",""坏我"",""好他""]","[""强我"",""弱他"",""弱我"",""强他""]","","","","","","","","no","","","","","","","","","SRET","EW_formal","","key","j","16.65546218487395","768","428","自己","奸险","Negative","morality","","","","","","","","","","",""
"718","","j","psychophysics","24","262706","0.0-7.0-3.0-0.10","7","7","7","7","7","5","5","5","5","5","5","2","2","2","2","2","2","2","2","5","5","5","5","5","4","5","4","5","4","7","7","8","8","7","7","7","8","8","7","7","7","7","7","7","7","1","7","7","1","7","6","7","7","7","7","7","7","7","7","7","7","7","7","6","7","7","7","7","7","7","6","7","7","7","7","7","7","7","7","621363018810261504","袁","700","Male","[""好我"",""坏他"",""坏我"",""好他""]","[""强我"",""弱他"",""弱我"",""强他""]","","","","","","","","no","","","","","","","","","SRET","EW_formal","","key","j","16.651456310679386","768","428","自己","无助","Negative","ability","","","","","","","","","","",""
"647","","f","psychophysics","25","264354","0.0-7.0-3.0-0.11","7","7","7","7","7","5","5","5","5","5","5","2","2","2","2","2","2","2","2","5","5","5","5","5","4","5","4","5","4","7","7","8","8","7","7","7","8","8","7","7","7","7","7","7","7","1","7","7","1","7","6","7","7","7","7","7","7","7","7","7","7","7","7","6","7","7","7","7","7","7","6","7","7","7","7","7","7","7","7","621363018810261504","袁","700","Male","[""好我"",""坏他"",""坏我"",""好他""]","[""强我"",""弱他"",""弱我"",""强他""]","","","","","","","","yes","","","","","","","","","SRET","EW_formal","","key","f","16.652040816326767","768","428","朋友","有力","Positive","ability","","","","","","","","","","",""
"790","","j","psychophysics","26","266146","0.0-7.0-3.0-0.12","7","7","7","7","7","5","5","5","5","5","5","2","2","2","2","2","2","2","2","5","5","5","5","5","4","5","4","5","4","7","7","8","8","7","7","7","8","8","7","7","7","7","7","7","7","1","7","7","1","7","6","7","7","7","7","7","7","7","7","7","7","7","7","6","7","7","7","7","7","7","6","7","7","7","7","7","7","7","7","621363018810261504","袁","700","Male","[""好我"",""坏他"",""坏我"",""好他""]","[""强我"",""弱他"",""弱我"",""强他""]","","","","","","","","no","","","","","","","","","SRET","EW_formal","","key","j","16.650943396226417","768","428","朋友","新手","Negative","ability","","","","","","","","","","",""
"766","","f","psychophysics","27","267914","0.0-7.0-3.0-0.13","7","7","7","7","7","5","5","5","5","5","5","2","2","2","2","2","2","2","2","5","5","5","5","5","4","5","4","5","4","7","7","8","8","7","7","7","8","8","7","7","7","7","7","7","7","1","7","7","1","7","6","7","7","7","7","7","7","7","7","7","7","7","7","6","7","7","7","7","7","7","6","7","7","7","7","7","7","7","7","621363018810261504","袁","700","Male","[""好我"",""坏他"",""坏我"",""好他""]","[""强我"",""弱他"",""弱我"",""强他""]","","","","","","","","yes","","","","","","","","","SRET","EW_formal","","key","f","16.652380952380952","768","428","朋友","忠勇","Positive","morality","","","","","","","","","","",""
"751","","f","psychophysics","28","269665","0.0-7.0-3.0-0.14","7","7","7","7","7","5","5","5","5","5","5","2","2","2","2","2","2","2","2","5","5","5","5","5","4","5","4","5","4","7","7","8","8","7","7","7","8","8","7","7","7","7","7","7","7","1","7","7","1","7","6","7","7","7","7","7","7","7","7","7","7","7","7","6","7","7","7","7","7","7","6","7","7","7","7","7","7","7","7","621363018810261504","袁","700","Male","[""好我"",""坏他"",""坏我"",""好他""]","[""强我"",""弱他"",""弱我"",""强他""]","","","","","","","","yes","","","","","","","","","SRET","EW_formal","","key","f","16.651428571428237","768","428","朋友","义气","Positive","morality","","","","","","","","","","",""
"1023","","j","psychophysics","29","271690","0.0-7.0-3.0-0.15","7","7","7","7","7","5","5","5","5","5","5","2","2","2","2","2","2","2","2","5","5","5","5","5","4","5","4","5","4","7","7","8","8","7","7","7","8","8","7","7","7","7","7","7","7","1","7","7","1","7","6","7","7","7","7","7","7","7","7","7","7","7","7","6","7","7","7","7","7","7","6","7","7","7","7","7","7","7","7","621363018810261504","袁","700","Male","[""好我"",""坏他"",""坏我"",""好他""]","[""强我"",""弱他"",""弱我"",""强他""]","","","","","","","","no","","","","","","","","","SRET","EW_formal","","key","j","16.65","768","428","自己","迟钝","Negative","ability","","","","","","","","","","",""
"758","","f","psychophysics","30","273450","0.0-7.0-3.0-0.16","7","7","7","7","7","5","5","5","5","5","5","2","2","2","2","2","2","2","2","5","5","5","5","5","4","5","4","5","4","7","7","8","8","7","7","7","8","8","7","7","7","7","7","7","7","1","7","7","1","7","6","7","7","7","7","7","7","7","7","7","7","7","7","6","7","7","7","7","7","7","6","7","7","7","7","7","7","7","7","621363018810261504","袁","700","Male","[""好我"",""坏他"",""坏我"",""好他""]","[""强我"",""弱他"",""弱我"",""强他""]","","","","","","","","yes","","","","","","","","","SRET","EW_formal","","key","f","16.651428571428237","768","428","朋友","廉明","Positive","morality","","","","","","","","","","",""
"1095","","f","psychophysics","31","275546","0.0-7.0-3.0-0.17","7","7","7","7","7","5","5","5","5","5","5","2","2","2","2","2","2","2","2","5","5","5","5","5","4","5","4","5","4","7","7","8","8","7","7","7","8","8","7","7","7","7","7","7","7","1","7","7","1","7","6","7","7","7","7","7","7","7","7","7","7","7","7","6","7","7","7","7","7","7","6","7","7","7","7","7","7","7","7","621363018810261504","袁","700","Male","[""好我"",""坏他"",""坏我"",""好他""]","[""强我"",""弱他"",""弱我"",""强他""]","","","","","","","","yes","","","","","","","","","SRET","EW_formal","","key","f","16.649599999999626","768","428","自己","果断","Positive","ability","","","","","","","","","","",""
"670","","f","psychophysics","32","277217","0.0-7.0-3.0-0.18","7","7","7","7","7","5","5","5","5","5","5","2","2","2","2","2","2","2","2","5","5","5","5","5","4","5","4","5","4","7","7","8","8","7","7","7","8","8","7","7","7","7","7","7","7","1","7","7","1","7","6","7","7","7","7","7","7","7","7","7","7","7","7","6","7","7","7","7","7","7","6","7","7","7","7","7","7","7","7","621363018810261504","袁","700","Male","[""好我"",""坏他"",""坏我"",""好他""]","[""强我"",""弱他"",""弱我"",""强他""]","","","","","","","","yes","","","","","","","","","SRET","EW_formal","","key","f","16.653535353534885","768","428","朋友","智慧","Positive","ability","","","","","","","","","","",""
"1069","","j","psychophysics","33","279289","0.0-7.0-3.0-0.19","7","7","7","7","7","5","5","5","5","5","5","2","2","2","2","2","2","2","2","5","5","5","5","5","4","5","4","5","4","7","7","8","8","7","7","7","8","8","7","7","7","7","7","7","7","1","7","7","1","7","6","7","7","7","7","7","7","7","7","7","7","7","7","6","7","7","7","7","7","7","6","7","7","7","7","7","7","7","7","621363018810261504","袁","700","Male","[""好我"",""坏他"",""坏我"",""好他""]","[""强我"",""弱他"",""弱我"",""强他""]","","","","","","","","no","","","","","","","","","SRET","EW_formal","","key","j","16.653225806451612","768","428","朋友","自私","Negative","morality","","","","","","","","","","",""
"631","","f","psychophysics","34","280922","0.0-7.0-3.0-0.20","7","7","7","7","7","5","5","5","5","5","5","2","2","2","2","2","2","2","2","5","5","5","5","5","4","5","4","5","4","7","7","8","8","7","7","7","8","8","7","7","7","7","7","7","7","1","7","7","1","7","6","7","7","7","7","7","7","7","7","7","7","7","7","6","7","7","7","7","7","7","6","7","7","7","7","7","7","7","7","621363018810261504","袁","700","Male","[""好我"",""坏他"",""坏我"",""好他""]","[""强我"",""弱他"",""弱我"",""强他""]","","","","","","","","yes","","","","","","","","","SRET","EW_formal","","key","f","16.649484536082475","768","428","朋友","守信","Positive","morality","","","","","","","","","","",""
"838","","f","psychophysics","35","282762","0.0-7.0-3.0-0.21","7","7","7","7","7","5","5","5","5","5","5","2","2","2","2","2","2","2","2","5","5","5","5","5","4","5","4","5","4","7","7","8","8","7","7","7","8","8","7","7","7","7","7","7","7","1","7","7","1","7","6","7","7","7","7","7","7","7","7","7","7","7","7","6","7","7","7","7","7","7","6","7","7","7","7","7","7","7","7","621363018810261504","袁","700","Male","[""好我"",""坏他"",""坏我"",""好他""]","[""强我"",""弱他"",""弱我"",""强他""]","","","","","","","","yes","","","","","","","","","SRET","EW_formal","","key","f","16.652293577981972","768","428","自己","稳健","Positive","ability","","","","","","","","","","",""
"894","","j","psychophysics","36","284658","0.0-7.0-3.0-0.22","7","7","7","7","7","5","5","5","5","5","5","2","2","2","2","2","2","2","2","5","5","5","5","5","4","5","4","5","4","7","7","8","8","7","7","7","8","8","7","7","7","7","7","7","7","1","7","7","1","7","6","7","7","7","7","7","7","7","7","7","7","7","7","6","7","7","7","7","7","7","6","7","7","7","7","7","7","7","7","621363018810261504","袁","700","Male","[""好我"",""坏他"",""坏我"",""好他""]","[""强我"",""弱他"",""弱我"",""强他""]","","","","","","","","no","","","","","","","","","SRET","EW_formal","","key","j","16.654867256637168","768","428","朋友","狡狯","Negative","morality","","","","","","","","","","",""
"943","","j","psychophysics","37","286603","0.0-7.0-3.0-0.23","7","7","7","7","7","5","5","5","5","5","5","2","2","2","2","2","2","2","2","5","5","5","5","5","4","5","4","5","4","7","7","8","8","7","7","7","8","8","7","7","7","7","7","7","7","1","7","7","1","7","6","7","7","7","7","7","7","7","7","7","7","7","7","6","7","7","7","7","7","7","6","7","7","7","7","7","7","7","7","621363018810261504","袁","700","Male","[""好我"",""坏他"",""坏我"",""好他""]","[""强我"",""弱他"",""弱我"",""强他""]","","","","","","","","no","","","","","","","","","SRET","EW_formal","","key","j","16.647413793103247","768","428","自己","弱智","Negative","ability","","","","","","","","","","",""
"645","","f","psychophysics","38","288250","0.0-7.0-3.0-0.24","7","7","7","7","7","5","5","5","5","5","5","2","2","2","2","2","2","2","2","5","5","5","5","5","4","5","4","5","4","7","7","8","8","7","7","7","8","8","7","7","7","7","7","7","7","1","7","7","1","7","6","7","7","7","7","7","7","7","7","7","7","7","7","6","7","7","7","7","7","7","6","7","7","7","7","7","7","7","7","621363018810261504","袁","700","Male","[""好我"",""坏他"",""坏我"",""好他""]","[""强我"",""弱他"",""弱我"",""强他""]","","","","","","","","yes","","","","","","","","","SRET","EW_formal","","key","f","16.651020408163145","768","428","自己","善心","Positive","morality","","","","","","","","","","",""
"710","","f","psychophysics","39","289962","0.0-7.0-3.0-0.25","7","7","7","7","7","5","5","5","5","5","5","2","2","2","2","2","2","2","2","5","5","5","5","5","4","5","4","5","4","7","7","8","8","7","7","7","8","8","7","7","7","7","7","7","7","1","7","7","1","7","6","7","7","7","7","7","7","7","7","7","7","7","7","6","7","7","7","7","7","7","6","7","7","7","7","7","7","7","7","621363018810261504","袁","700","Male","[""好我"",""坏他"",""坏我"",""好他""]","[""强我"",""弱他"",""弱我"",""强他""]","","","","","","","","yes","","","","","","","","","SRET","EW_formal","","key","f","16.65294117647036","768","428","自己","廉正","Positive","morality","","","","","","","","","","",""
"1430","","j","psychophysics","40","292394","0.0-7.0-3.0-0.26","7","7","7","7","7","5","5","5","5","5","5","2","2","2","2","2","2","2","2","5","5","5","5","5","4","5","4","5","4","7","7","8","8","7","7","7","8","8","7","7","7","7","7","7","7","1","7","7","1","7","6","7","7","7","7","7","7","7","7","7","7","7","7","6","7","7","7","7","7","7","6","7","7","7","7","7","7","7","7","621363018810261504","袁","700","Male","[""好我"",""坏他"",""坏我"",""好他""]","[""强我"",""弱他"",""弱我"",""强他""]","","","","","","","","no","","","","","","","","","SRET","EW_formal","","key","j","16.65103448275878","768","428","自己","刻薄","Negative","morality","","","","","","","","","","",""
"943","","j","psychophysics","41","294338","0.0-7.0-3.0-0.27","7","7","7","7","7","5","5","5","5","5","5","2","2","2","2","2","2","2","2","5","5","5","5","5","4","5","4","5","4","7","7","8","8","7","7","7","8","8","7","7","7","7","7","7","7","1","7","7","1","7","6","7","7","7","7","7","7","7","7","7","7","7","7","6","7","7","7","7","7","7","6","7","7","7","7","7","7","7","7","621363018810261504","袁","700","Male","[""好我"",""坏他"",""坏我"",""好他""]","[""强我"",""弱他"",""弱我"",""强他""]","","","","","","","","no","","","","","","","","","SRET","EW_formal","","key","j","16.65130434782629","768","428","朋友","腐败","Negative","morality","","","","","","","","","","",""
"791","","j","psychophysics","42","296130","0.0-7.0-3.0-0.28","7","7","7","7","7","5","5","5","5","5","5","2","2","2","2","2","2","2","2","5","5","5","5","5","4","5","4","5","4","7","7","8","8","7","7","7","8","8","7","7","7","7","7","7","7","1","7","7","1","7","6","7","7","7","7","7","7","7","7","7","7","7","7","6","7","7","7","7","7","7","6","7","7","7","7","7","7","7","7","621363018810261504","袁","700","Male","[""好我"",""坏他"",""坏我"",""好他""]","[""强我"",""弱他"",""弱我"",""强他""]","","","","","","","","no","","","","","","","","","SRET","EW_formal","","key","j","16.65233644859802","768","428","自己","怠惰","Negative","ability","","","","","","","","","","",""
"806","","j","psychophysics","43","297938","0.0-7.0-3.0-0.29","7","7","7","7","7","5","5","5","5","5","5","2","2","2","2","2","2","2","2","5","5","5","5","5","4","5","4","5","4","7","7","8","8","7","7","7","8","8","7","7","7","7","7","7","7","1","7","7","1","7","6","7","7","7","7","7","7","7","7","7","7","7","7","6","7","7","7","7","7","7","6","7","7","7","7","7","7","7","7","621363018810261504","袁","700","Male","[""好我"",""坏他"",""坏我"",""好他""]","[""强我"",""弱他"",""弱我"",""强他""]","","","","","","","","no","","","","","","","","","SRET","EW_formal","","key","j","16.65092592592582","768","428","朋友","愚蠢","Negative","ability","","","","","","","","","","",""
"1143","","j","psychophysics","44","300082","0.0-7.0-3.0-0.30","7","7","7","7","7","5","5","5","5","5","5","2","2","2","2","2","2","2","2","5","5","5","5","5","4","5","4","5","4","7","7","8","8","7","7","7","8","8","7","7","7","7","7","7","7","1","7","7","1","7","6","7","7","7","7","7","7","7","7","7","7","7","7","6","7","7","7","7","7","7","6","7","7","7","7","7","7","7","7","621363018810261504","袁","700","Male","[""好我"",""坏他"",""坏我"",""好他""]","[""强我"",""弱他"",""弱我"",""强他""]","","","","","","","","no","","","","","","","","","SRET","EW_formal","","key","j","16.651968503936917","768","428","自己","短浅","Negative","ability","","","","","","","","","","",""
"862","","f","psychophysics","45","301946","0.0-7.0-3.0-0.31","7","7","7","7","7","5","5","5","5","5","5","2","2","2","2","2","2","2","2","5","5","5","5","5","4","5","4","5","4","7","7","8","8","7","7","7","8","8","7","7","7","7","7","7","7","1","7","7","1","7","6","7","7","7","7","7","7","7","7","7","7","7","7","6","7","7","7","7","7","7","6","7","7","7","7","7","7","7","7","621363018810261504","袁","700","Male","[""好我"",""坏他"",""坏我"",""好他""]","[""强我"",""弱他"",""弱我"",""强他""]","","","","","","","","yes","","","","","","","","","SRET","EW_formal","","key","f","16.65765765765766","768","428","朋友","礼貌","Positive","morality","","","","","","","","","","",""
"863","","j","psychophysics","46","303809","0.0-7.0-3.0-0.32","7","7","7","7","7","5","5","5","5","5","5","2","2","2","2","2","2","2","2","5","5","5","5","5","4","5","4","5","4","7","7","8","8","7","7","7","8","8","7","7","7","7","7","7","7","1","7","7","1","7","6","7","7","7","7","7","7","7","7","7","7","7","7","6","7","7","7","7","7","7","6","7","7","7","7","7","7","7","7","621363018810261504","袁","700","Male","[""好我"",""坏他"",""坏我"",""好他""]","[""强我"",""弱他"",""弱我"",""强他""]","","","","","","","","no","","","","","","","","","SRET","EW_formal","","key","j","16.651351351351245","768","428","朋友","屈才","Negative","ability","","","","","","","","","","",""
"735","","j","psychophysics","47","305545","0.0-7.0-3.0-0.33","7","7","7","7","7","5","5","5","5","5","5","2","2","2","2","2","2","2","2","5","5","5","5","5","4","5","4","5","4","7","7","8","8","7","7","7","8","8","7","7","7","7","7","7","7","1","7","7","1","7","6","7","7","7","7","7","7","7","7","7","7","7","7","6","7","7","7","7","7","7","6","7","7","7","7","7","7","7","7","621363018810261504","袁","700","Male","[""好我"",""坏他"",""坏我"",""好他""]","[""强我"",""弱他"",""弱我"",""强他""]","","","","","","","","no","","","","","","","","","SRET","EW_formal","","key","j","16.650485436893202","768","428","朋友","无赖","Negative","morality","","","","","","","","","","",""
"670","","f","psychophysics","48","307217","0.0-7.0-3.0-0.34","7","7","7","7","7","5","5","5","5","5","5","2","2","2","2","2","2","2","2","5","5","5","5","5","4","5","4","5","4","7","7","8","8","7","7","7","8","8","7","7","7","7","7","7","7","1","7","7","1","7","6","7","7","7","7","7","7","7","7","7","7","7","7","6","7","7","7","7","7","7","6","7","7","7","7","7","7","7","7","621363018810261504","袁","700","Male","[""好我"",""坏他"",""坏我"",""好他""]","[""强我"",""弱他"",""弱我"",""强他""]","","","","","","","","yes","","","","","","","","","SRET","EW_formal","","key","f","16.651000000000348","768","428","自己","精干","Positive","ability","","","","","","","","","","",""
"607","","f","psychophysics","49","308825","0.0-7.0-3.0-0.35","7","7","7","7","7","5","5","5","5","5","5","2","2","2","2","2","2","2","2","5","5","5","5","5","4","5","4","5","4","7","7","8","8","7","7","7","8","8","7","7","7","7","7","7","7","1","7","7","1","7","6","7","7","7","7","7","7","7","7","7","7","7","7","6","7","7","7","7","7","7","6","7","7","7","7","7","7","7","7","621363018810261504","袁","700","Male","[""好我"",""坏他"",""坏我"",""好他""]","[""强我"",""弱他"",""弱我"",""强他""]","","","","","","","","yes","","","","","","","","","SRET","EW_formal","","key","f","16.65052631578935","768","428","自己","热心","Positive","morality","","","","","","","","","","",""
"937","","f","psychophysics","50","310763","0.0-7.0-3.0-0.36","7","7","7","7","7","5","5","5","5","5","5","2","2","2","2","2","2","2","2","5","5","5","5","5","4","5","4","5","4","7","7","8","8","7","7","7","8","8","7","7","7","7","7","7","7","1","7","7","1","7","6","7","7","7","7","7","7","7","7","7","7","7","7","6","7","7","7","7","7","7","6","7","7","7","7","7","7","7","7","621363018810261504","袁","700","Male","[""好我"",""坏他"",""坏我"",""好他""]","[""强我"",""弱他"",""弱我"",""强他""]","","","","","","","","yes","","","","","","","","","SRET","EW_formal","","key","f","16.651724137930835","768","428","自己","高洁","Positive","morality","","","","","","","","","","",""
"1598","","f","psychophysics","51","313361","0.0-7.0-3.0-0.37","7","7","7","7","7","5","5","5","5","5","5","2","2","2","2","2","2","2","2","5","5","5","5","5","4","5","4","5","4","7","7","8","8","7","7","7","8","8","7","7","7","7","7","7","7","1","7","7","1","7","6","7","7","7","7","7","7","7","7","7","7","7","7","6","7","7","7","7","7","7","6","7","7","7","7","7","7","7","7","621363018810261504","袁","700","Male","[""好我"",""坏他"",""坏我"",""好他""]","[""强我"",""弱他"",""弱我"",""强他""]","","","","","","","","yes","","","","","","","","","SRET","EW_formal","","key","f","16.65225806451598","768","428","朋友","无私","Positive","morality","","","","","","","","","","",""
"694","","f","psychophysics","52","315058","0.0-7.0-3.0-0.38","7","7","7","7","7","5","5","5","5","5","5","2","2","2","2","2","2","2","2","5","5","5","5","5","4","5","4","5","4","7","7","8","8","7","7","7","8","8","7","7","7","7","7","7","7","1","7","7","1","7","6","7","7","7","7","7","7","7","7","7","7","7","7","6","7","7","7","7","7","7","6","7","7","7","7","7","7","7","7","621363018810261504","袁","700","Male","[""好我"",""坏他"",""坏我"",""好他""]","[""强我"",""弱他"",""弱我"",""强他""]","","","","","","","","yes","","","","","","","","","SRET","EW_formal","","key","f","16.650495049505064","768","428","朋友","骁勇","Positive","ability","","","","","","","","","","",""
"727","","j","psychophysics","53","316786","0.0-7.0-3.0-0.39","7","7","7","7","7","5","5","5","5","5","5","2","2","2","2","2","2","2","2","5","5","5","5","5","4","5","4","5","4","7","7","8","8","7","7","7","8","8","7","7","7","7","7","7","7","1","7","7","1","7","6","7","7","7","7","7","7","7","7","7","7","7","7","6","7","7","7","7","7","7","6","7","7","7","7","7","7","7","7","621363018810261504","袁","700","Male","[""好我"",""坏他"",""坏我"",""好他""]","[""强我"",""弱他"",""弱我"",""强他""]","","","","","","","","no","","","","","","","","","SRET","EW_formal","","key","j","16.651456310679386","768","428","自己","歹毒","Negative","morality","","","","","","","","","","",""
"693","","f","psychophysics","54","318481","0.0-7.0-3.0-0.40","7","7","7","7","7","5","5","5","5","5","5","2","2","2","2","2","2","2","2","5","5","5","5","5","4","5","4","5","4","7","7","8","8","7","7","7","8","8","7","7","7","7","7","7","7","1","7","7","1","7","6","7","7","7","7","7","7","7","7","7","7","7","7","6","7","7","7","7","7","7","6","7","7","7","7","7","7","7","7","621363018810261504","袁","700","Male","[""好我"",""坏他"",""坏我"",""好他""]","[""强我"",""弱他"",""弱我"",""强他""]","","","","","","","","yes","","","","","","","","","SRET","EW_formal","","key","f","16.65","768","428","朋友","聪明","Positive","ability","","","","","","","","","","",""
"590","","f","psychophysics","55","320073","0.0-7.0-3.0-0.41","7","7","7","7","7","5","5","5","5","5","5","2","2","2","2","2","2","2","2","5","5","5","5","5","4","5","4","5","4","7","7","8","8","7","7","7","8","8","7","7","7","7","7","7","7","1","7","7","1","7","6","7","7","7","7","7","7","7","7","7","7","7","7","6","7","7","7","7","7","7","6","7","7","7","7","7","7","7","7","621363018810261504","袁","700","Male","[""好我"",""坏他"",""坏我"",""好他""]","[""强我"",""弱他"",""弱我"",""强他""]","","","","","","","","yes","","","","","","","","","SRET","EW_formal","","key","f","16.651578947368666","768","428","朋友","正气","Positive","morality","","","","","","","","","","",""
"1143","","f","psychophysics","56","322218","0.0-7.0-3.0-0.42","7","7","7","7","7","5","5","5","5","5","5","2","2","2","2","2","2","2","2","5","5","5","5","5","4","5","4","5","4","7","7","8","8","7","7","7","8","8","7","7","7","7","7","7","7","1","7","7","1","7","6","7","7","7","7","7","7","7","7","7","7","7","7","6","7","7","7","7","7","7","6","7","7","7","7","7","7","7","7","621363018810261504","袁","700","Male","[""好我"",""坏他"",""坏我"",""好他""]","[""强我"",""弱他"",""弱我"",""强他""]","","","","","","","","yes","","","","","","","","","SRET","EW_formal","","key","f","16.650781250000364","768","428","朋友","利落","Positive","ability","","","","","","","","","","",""
"742","","j","psychophysics","57","323961","0.0-7.0-3.0-0.43","7","7","7","7","7","5","5","5","5","5","5","2","2","2","2","2","2","2","2","5","5","5","5","5","4","5","4","5","4","7","7","8","8","7","7","7","8","8","7","7","7","7","7","7","7","1","7","7","1","7","6","7","7","7","7","7","7","7","7","7","7","7","7","6","7","7","7","7","7","7","6","7","7","7","7","7","7","7","7","621363018810261504","袁","700","Male","[""好我"",""坏他"",""坏我"",""好他""]","[""强我"",""弱他"",""弱我"",""强他""]","","","","","","","","no","","","","","","","","","SRET","EW_formal","","key","j","16.649514563106457","768","428","自己","笨蛋","Negative","ability","","","","","","","","","","",""
"671","","f","psychophysics","58","325633","0.0-7.0-3.0-0.44","7","7","7","7","7","5","5","5","5","5","5","2","2","2","2","2","2","2","2","5","5","5","5","5","4","5","4","5","4","7","7","8","8","7","7","7","8","8","7","7","7","7","7","7","7","1","7","7","1","7","6","7","7","7","7","7","7","7","7","7","7","7","7","6","7","7","7","7","7","7","6","7","7","7","7","7","7","7","7","621363018810261504","袁","700","Male","[""好我"",""坏他"",""坏我"",""好他""]","[""强我"",""弱他"",""弱我"",""强他""]","","","","","","","","yes","","","","","","","","","SRET","EW_formal","","key","f","16.652999999999885","768","428","自己","博识","Positive","ability","","","","","","","","","","",""
"631","","f","psychophysics","59","327265","0.0-7.0-3.0-0.45","7","7","7","7","7","5","5","5","5","5","5","2","2","2","2","2","2","2","2","5","5","5","5","5","4","5","4","5","4","7","7","8","8","7","7","7","8","8","7","7","7","7","7","7","7","1","7","7","1","7","6","7","7","7","7","7","7","7","7","7","7","7","7","6","7","7","7","7","7","7","6","7","7","7","7","7","7","7","7","621363018810261504","袁","700","Male","[""好我"",""坏他"",""坏我"",""好他""]","[""强我"",""弱他"",""弱我"",""强他""]","","","","","","","","yes","","","","","","","","","SRET","EW_formal","","key","f","16.650515463917884","768","428","自己","努力","Positive","ability","","","","","","","","","","",""
"646","","f","psychophysics","60","328914","0.0-7.0-3.0-0.46","7","7","7","7","7","5","5","5","5","5","5","2","2","2","2","2","2","2","2","5","5","5","5","5","4","5","4","5","4","7","7","8","8","7","7","7","8","8","7","7","7","7","7","7","7","1","7","7","1","7","6","7","7","7","7","7","7","7","7","7","7","7","7","6","7","7","7","7","7","7","6","7","7","7","7","7","7","7","7","621363018810261504","袁","700","Male","[""好我"",""坏他"",""坏我"",""好他""]","[""强我"",""弱他"",""弱我"",""强他""]","","","","","","","","yes","","","","","","","","","SRET","EW_formal","","key","f","16.652040816326767","768","428","朋友","高明","Positive","ability","","","","","","","","","","",""
"703","","f","psychophysics","61","330618","0.0-7.0-3.0-0.47","7","7","7","7","7","5","5","5","5","5","5","2","2","2","2","2","2","2","2","5","5","5","5","5","4","5","4","5","4","7","7","8","8","7","7","7","8","8","7","7","7","7","7","7","7","1","7","7","1","7","6","7","7","7","7","7","7","7","7","7","7","7","7","6","7","7","7","7","7","7","6","7","7","7","7","7","7","7","7","621363018810261504","袁","700","Male","[""好我"",""坏他"",""坏我"",""好他""]","[""强我"",""弱他"",""弱我"",""强他""]","","","","","","","","yes","","","","","","","","","SRET","EW_formal","","key","f","16.65049504950449","768","428","自己","慷慨","Positive","morality","","","","","","","","","","",""
"701","","j","psychophysics","62","332322","0.0-7.0-3.0-0.48","7","7","7","7","7","5","5","5","5","5","5","2","2","2","2","2","2","2","2","5","5","5","5","5","4","5","4","5","4","7","7","8","8","7","7","7","8","8","7","7","7","7","7","7","7","1","7","7","1","7","6","7","7","7","7","7","7","7","7","7","7","7","7","6","7","7","7","7","7","7","6","7","7","7","7","7","7","7","7","621363018810261504","袁","700","Male","[""好我"",""坏他"",""坏我"",""好他""]","[""强我"",""弱他"",""弱我"",""强他""]","","","","","","","","no","","","","","","","","","SRET","EW_formal","","key","j","16.65098039215709","768","428","朋友","拖拉","Negative","ability","","","","","","","","","","",""
"710","","j","psychophysics","63","334033","0.0-7.0-3.0-0.49","7","7","7","7","7","5","5","5","5","5","5","2","2","2","2","2","2","2","2","5","5","5","5","5","4","5","4","5","4","7","7","8","8","7","7","7","8","8","7","7","7","7","7","7","7","1","7","7","1","7","6","7","7","7","7","7","7","7","7","7","7","7","7","6","7","7","7","7","7","7","6","7","7","7","7","7","7","7","7","621363018810261504","袁","700","Male","[""好我"",""坏他"",""坏我"",""好他""]","[""强我"",""弱他"",""弱我"",""强他""]","","","","","","","","no","","","","","","","","","SRET","EW_formal","","key","j","16.652475247524983","768","428","自己","不端","Negative","morality","","","","","","","","","","",""
"629","","j","psychophysics","64","335665","0.0-7.0-3.0-0.50","7","7","7","7","7","5","5","5","5","5","5","2","2","2","2","2","2","2","2","5","5","5","5","5","4","5","4","5","4","7","7","8","8","7","7","7","8","8","7","7","7","7","7","7","7","1","7","7","1","7","6","7","7","7","7","7","7","7","7","7","7","7","7","6","7","7","7","7","7","7","6","7","7","7","7","7","7","7","7","621363018810261504","袁","700","Male","[""好我"",""坏他"",""坏我"",""好他""]","[""强我"",""弱他"",""弱我"",""强他""]","","","","","","","","no","","","","","","","","","SRET","EW_formal","","key","j","16.651546391752696","768","428","朋友","龌龊","Negative","morality","","","","","","","","","","",""
"735","","j","psychophysics","65","337401","0.0-7.0-3.0-0.51","7","7","7","7","7","5","5","5","5","5","5","2","2","2","2","2","2","2","2","5","5","5","5","5","4","5","4","5","4","7","7","8","8","7","7","7","8","8","7","7","7","7","7","7","7","1","7","7","1","7","6","7","7","7","7","7","7","7","7","7","7","7","7","6","7","7","7","7","7","7","6","7","7","7","7","7","7","7","7","621363018810261504","袁","700","Male","[""好我"",""坏他"",""坏我"",""好他""]","[""强我"",""弱他"",""弱我"",""强他""]","","","","","","","","no","","","","","","","","","SRET","EW_formal","","key","j","16.65096153846165","768","428","自己","不仁","Negative","morality","","","","","","","","","","",""
"806","","f","psychophysics","66","339210","0.0-7.0-3.0-0.52","7","7","7","7","7","5","5","5","5","5","5","2","2","2","2","2","2","2","2","5","5","5","5","5","4","5","4","5","4","7","7","8","8","7","7","7","8","8","7","7","7","7","7","7","7","1","7","7","1","7","6","7","7","7","7","7","7","7","7","7","7","7","7","6","7","7","7","7","7","7","6","7","7","7","7","7","7","7","7","621363018810261504","袁","700","Male","[""好我"",""坏他"",""坏我"",""好他""]","[""强我"",""弱他"",""弱我"",""强他""]","","","","","","","","yes","","","","","","","","","SRET","EW_formal","","key","f","16.65233644859802","768","428","自己","细心","Positive","ability","","","","","","","","","","",""
"558","","f","psychophysics","67","340770","0.0-7.0-3.0-0.53","7","7","7","7","7","5","5","5","5","5","5","2","2","2","2","2","2","2","2","5","5","5","5","5","4","5","4","5","4","7","7","8","8","7","7","7","8","8","7","7","7","7","7","7","7","1","7","7","1","7","6","7","7","7","7","7","7","7","7","7","7","7","7","6","7","7","7","7","7","7","6","7","7","7","7","7","7","7","7","621363018810261504","袁","700","Male","[""好我"",""坏他"",""坏我"",""好他""]","[""强我"",""弱他"",""弱我"",""强他""]","","","","","","","","yes","","","","","","","","","SRET","EW_formal","","key","f","16.650537634408604","768","428","朋友","思辨","Positive","ability","","","","","","","","","","",""
"662","","f","psychophysics","68","342434","0.0-7.0-3.0-0.54","7","7","7","7","7","5","5","5","5","5","5","2","2","2","2","2","2","2","2","5","5","5","5","5","4","5","4","5","4","7","7","8","8","7","7","7","8","8","7","7","7","7","7","7","7","1","7","7","1","7","6","7","7","7","7","7","7","7","7","7","7","7","7","6","7","7","7","7","7","7","6","7","7","7","7","7","7","7","7","621363018810261504","袁","700","Male","[""好我"",""坏他"",""坏我"",""好他""]","[""强我"",""弱他"",""弱我"",""强他""]","","","","","","","","yes","","","","","","","","","SRET","EW_formal","","key","f","16.650505050505284","768","428","自己","中用","Positive","ability","","","","","","","","","","",""
"591","","f","psychophysics","69","344025","0.0-7.0-3.0-0.55","7","7","7","7","7","5","5","5","5","5","5","2","2","2","2","2","2","2","2","5","5","5","5","5","4","5","4","5","4","7","7","8","8","7","7","7","8","8","7","7","7","7","7","7","7","1","7","7","1","7","6","7","7","7","7","7","7","7","7","7","7","7","7","6","7","7","7","7","7","7","6","7","7","7","7","7","7","7","7","621363018810261504","袁","700","Male","[""好我"",""坏他"",""坏我"",""好他""]","[""强我"",""弱他"",""弱我"",""强他""]","","","","","","","","yes","","","","","","","","","SRET","EW_formal","","key","f","16.649999999999753","768","428","自己","爱国","Positive","morality","","","","","","","","","","",""
"673","","f","psychophysics","70","345699","0.0-7.0-3.0-0.56","7","7","7","7","7","5","5","5","5","5","5","2","2","2","2","2","2","2","2","5","5","5","5","5","4","5","4","5","4","7","7","8","8","7","7","7","8","8","7","7","7","7","7","7","7","1","7","7","1","7","6","7","7","7","7","7","7","7","7","7","7","7","7","6","7","7","7","7","7","7","6","7","7","7","7","7","7","7","7","621363018810261504","袁","700","Male","[""好我"",""坏他"",""坏我"",""好他""]","[""强我"",""弱他"",""弱我"",""强他""]","","","","","","","","yes","","","","","","","","","SRET","EW_formal","","key","f","16.652000000000115","768","428","自己","仗义","Positive","morality","","","","","","","","","","",""
"733","","j","psychophysics","71","347434","0.0-7.0-3.0-0.57","7","7","7","7","7","5","5","5","5","5","5","2","2","2","2","2","2","2","2","5","5","5","5","5","4","5","4","5","4","7","7","8","8","7","7","7","8","8","7","7","7","7","7","7","7","1","7","7","1","7","6","7","7","7","7","7","7","7","7","7","7","7","7","6","7","7","7","7","7","7","6","7","7","7","7","7","7","7","7","621363018810261504","袁","700","Male","[""好我"",""坏他"",""坏我"",""好他""]","[""强我"",""弱他"",""弱我"",""强他""]","","","","","","","","no","","","","","","","","","SRET","EW_formal","","key","j","16.651456310679386","768","428","朋友","外行","Negative","ability","","","","","","","","","","",""
"630","","f","psychophysics","72","349065","0.0-7.0-3.0-0.58","7","7","7","7","7","5","5","5","5","5","5","2","2","2","2","2","2","2","2","5","5","5","5","5","4","5","4","5","4","7","7","8","8","7","7","7","8","8","7","7","7","7","7","7","7","1","7","7","1","7","6","7","7","7","7","7","7","7","7","7","7","7","7","6","7","7","7","7","7","7","6","7","7","7","7","7","7","7","7","621363018810261504","袁","700","Male","[""好我"",""坏他"",""坏我"",""好他""]","[""强我"",""弱他"",""弱我"",""强他""]","","","","","","","","yes","","","","","","","","","SRET","EW_formal","","key","f","16.652577319587508","768","428","自己","宽容","Positive","morality","","","","","","","","","","",""
"806","","f","psychophysics","73","350874","0.0-7.0-3.0-0.59","7","7","7","7","7","5","5","5","5","5","5","2","2","2","2","2","2","2","2","5","5","5","5","5","4","5","4","5","4","7","7","8","8","7","7","7","8","8","7","7","7","7","7","7","7","1","7","7","1","7","6","7","7","7","7","7","7","7","7","7","7","7","7","6","7","7","7","7","7","7","6","7","7","7","7","7","7","7","7","621363018810261504","袁","700","Male","[""好我"",""坏他"",""坏我"",""好他""]","[""强我"",""弱他"",""弱我"",""强他""]","","","","","","","","yes","","","","","","","","","SRET","EW_formal","","key","f","16.65277777777778","768","428","自己","淡泊","Positive","morality","","","","","","","","","","",""
"773","","j","psychophysics","74","352649","0.0-7.0-3.0-0.60","7","7","7","7","7","5","5","5","5","5","5","2","2","2","2","2","2","2","2","5","5","5","5","5","4","5","4","5","4","7","7","8","8","7","7","7","8","8","7","7","7","7","7","7","7","1","7","7","1","7","6","7","7","7","7","7","7","7","7","7","7","7","7","6","7","7","7","7","7","7","6","7","7","7","7","7","7","7","7","621363018810261504","袁","700","Male","[""好我"",""坏他"",""坏我"",""好他""]","[""强我"",""弱他"",""弱我"",""强他""]","","","","","","","","no","","","","","","","","","SRET","EW_formal","","key","j","16.65142857142879","768","428","朋友","废物","Negative","ability","","","","","","","","","","",""
"702","","j","psychophysics","75","354354","0.0-7.0-3.0-0.61","7","7","7","7","7","5","5","5","5","5","5","2","2","2","2","2","2","2","2","5","5","5","5","5","4","5","4","5","4","7","7","8","8","7","7","7","8","8","7","7","7","7","7","7","7","1","7","7","1","7","6","7","7","7","7","7","7","7","7","7","7","7","7","6","7","7","7","7","7","7","6","7","7","7","7","7","7","7","7","621363018810261504","袁","700","Male","[""好我"",""坏他"",""坏我"",""好他""]","[""强我"",""弱他"",""弱我"",""强他""]","","","","","","","","no","","","","","","","","","SRET","EW_formal","","key","j","16.65098039215652","768","428","自己","小人","Negative","morality","","","","","","","","","","",""
"654","","j","psychophysics","76","356009","0.0-7.0-3.0-0.62","7","7","7","7","7","5","5","5","5","5","5","2","2","2","2","2","2","2","2","5","5","5","5","5","4","5","4","5","4","7","7","8","8","7","7","7","8","8","7","7","7","7","7","7","7","1","7","7","1","7","6","7","7","7","7","7","7","7","7","7","7","7","7","6","7","7","7","7","7","7","6","7","7","7","7","7","7","7","7","621363018810261504","袁","700","Male","[""好我"",""坏他"",""坏我"",""好他""]","[""强我"",""弱他"",""弱我"",""强他""]","","","","","","","","no","","","","","","","","","SRET","EW_formal","","key","j","16.655102040816445","768","428","自己","窝囊","Negative","ability","","","","","","","","","","",""
"759","","f","psychophysics","77","357770","0.0-7.0-3.0-0.63","7","7","7","7","7","5","5","5","5","5","5","2","2","2","2","2","2","2","2","5","5","5","5","5","4","5","4","5","4","7","7","8","8","7","7","7","8","8","7","7","7","7","7","7","7","1","7","7","1","7","6","7","7","7","7","7","7","7","7","7","7","7","7","6","7","7","7","7","7","7","6","7","7","7","7","7","7","7","7","621363018810261504","袁","700","Male","[""好我"",""坏他"",""坏我"",""好他""]","[""强我"",""弱他"",""弱我"",""强他""]","","","","","","","","yes","","","","","","","","","SRET","EW_formal","","key","f","16.649523809523366","768","428","自己","守法","Positive","morality","","","","","","","","","","",""
"742","","f","psychophysics","78","359513","0.0-7.0-3.0-0.64","7","7","7","7","7","5","5","5","5","5","5","2","2","2","2","2","2","2","2","5","5","5","5","5","4","5","4","5","4","7","7","8","8","7","7","7","8","8","7","7","7","7","7","7","7","1","7","7","1","7","6","7","7","7","7","7","7","7","7","7","7","7","7","6","7","7","7","7","7","7","6","7","7","7","7","7","7","7","7","621363018810261504","袁","700","Male","[""好我"",""坏他"",""坏我"",""好他""]","[""强我"",""弱他"",""弱我"",""强他""]","","","","","","","","yes","","","","","","","","","SRET","EW_formal","","key","f","16.65096153846165","768","428","朋友","依靠","Negative","ability","","","","","","","","","","",""
"606","","j","psychophysics","79","361122","0.0-7.0-3.0-0.65","7","7","7","7","7","5","5","5","5","5","5","2","2","2","2","2","2","2","2","5","5","5","5","5","4","5","4","5","4","7","7","8","8","7","7","7","8","8","7","7","7","7","7","7","7","1","7","7","1","7","6","7","7","7","7","7","7","7","7","7","7","7","7","6","7","7","7","7","7","7","6","7","7","7","7","7","7","7","7","621363018810261504","袁","700","Male","[""好我"",""坏他"",""坏我"",""好他""]","[""强我"",""弱他"",""弱我"",""强他""]","","","","","","","","no","","","","","","","","","SRET","EW_formal","","key","j","16.654736842105386","768","428","朋友","诡诈","Negative","morality","","","","","","","","","","",""
"631","","j","psychophysics","80","362754","0.0-7.0-3.0-0.66","7","7","7","7","7","5","5","5","5","5","5","2","2","2","2","2","2","2","2","5","5","5","5","5","4","5","4","5","4","7","7","8","8","7","7","7","8","8","7","7","7","7","7","7","7","1","7","7","1","7","6","7","7","7","7","7","7","7","7","7","7","7","7","6","7","7","7","7","7","7","6","7","7","7","7","7","7","7","7","621363018810261504","袁","700","Male","[""好我"",""坏他"",""坏我"",""好他""]","[""强我"",""弱他"",""弱我"",""强他""]","","","","","","","","no","","","","","","","","","SRET","EW_formal","","key","j","16.651546391752696","768","428","自己","不孝","Negative","morality","","","","","","","","","","",""
"654","","j","psychophysics","81","364409","0.0-7.0-3.0-0.67","7","7","7","7","7","5","5","5","5","5","5","2","2","2","2","2","2","2","2","5","5","5","5","5","4","5","4","5","4","7","7","8","8","7","7","7","8","8","7","7","7","7","7","7","7","1","7","7","1","7","6","7","7","7","7","7","7","7","7","7","7","7","7","6","7","7","7","7","7","7","6","7","7","7","7","7","7","7","7","621363018810261504","袁","700","Male","[""好我"",""坏他"",""坏我"",""好他""]","[""强我"",""弱他"",""弱我"",""强他""]","","","","","","","","no","","","","","","","","","SRET","EW_formal","","key","j","16.650505050505284","768","428","朋友","浅薄","Negative","ability","","","","","","","","","","",""
"646","","f","psychophysics","82","366057","0.0-7.0-3.0-0.68","7","7","7","7","7","5","5","5","5","5","5","2","2","2","2","2","2","2","2","5","5","5","5","5","4","5","4","5","4","7","7","8","8","7","7","7","8","8","7","7","7","7","7","7","7","1","7","7","1","7","6","7","7","7","7","7","7","7","7","7","7","7","7","6","7","7","7","7","7","7","6","7","7","7","7","7","7","7","7","621363018810261504","袁","700","Male","[""好我"",""坏他"",""坏我"",""好他""]","[""强我"",""弱他"",""弱我"",""强他""]","","","","","","","","yes","","","","","","","","","SRET","EW_formal","","key","f","16.652040816326767","768","428","朋友","高效","Positive","ability","","","","","","","","","","",""
"647","","j","psychophysics","83","367705","0.0-7.0-3.0-0.69","7","7","7","7","7","5","5","5","5","5","5","2","2","2","2","2","2","2","2","5","5","5","5","5","4","5","4","5","4","7","7","8","8","7","7","7","8","8","7","7","7","7","7","7","7","1","7","7","1","7","6","7","7","7","7","7","7","7","7","7","7","7","7","6","7","7","7","7","7","7","6","7","7","7","7","7","7","7","7","621363018810261504","袁","700","Male","[""好我"",""坏他"",""坏我"",""好他""]","[""强我"",""弱他"",""弱我"",""强他""]","","","","","","","","no","","","","","","","","","SRET","EW_formal","","key","j","16.651020408163742","768","428","朋友","不良","Negative","morality","","","","","","","","","","",""
"542","","j","psychophysics","84","369249","0.0-7.0-3.0-0.70","7","7","7","7","7","5","5","5","5","5","5","2","2","2","2","2","2","2","2","5","5","5","5","5","4","5","4","5","4","7","7","8","8","7","7","7","8","8","7","7","7","7","7","7","7","1","7","7","1","7","6","7","7","7","7","7","7","7","7","7","7","7","7","6","7","7","7","7","7","7","6","7","7","7","7","7","7","7","7","621363018810261504","袁","700","Male","[""好我"",""坏他"",""坏我"",""好他""]","[""强我"",""弱他"",""弱我"",""强他""]","","","","","","","","no","","","","","","","","","SRET","EW_formal","","key","j","16.65054945054958","768","428","朋友","低劣","Negative","morality","","","","","","","","","","",""
"598","","j","psychophysics","85","370849","0.0-7.0-3.0-0.71","7","7","7","7","7","5","5","5","5","5","5","2","2","2","2","2","2","2","2","5","5","5","5","5","4","5","4","5","4","7","7","8","8","7","7","7","8","8","7","7","7","7","7","7","7","1","7","7","1","7","6","7","7","7","7","7","7","7","7","7","7","7","7","6","7","7","7","7","7","7","6","7","7","7","7","7","7","7","7","621363018810261504","袁","700","Male","[""好我"",""坏他"",""坏我"",""好他""]","[""强我"",""弱他"",""弱我"",""强他""]","","","","","","","","no","","","","","","","","","SRET","EW_formal","","key","j","16.651578947368666","768","428","朋友","毛糙","Negative","ability","","","","","","","","","","",""
"630","","j","psychophysics","86","372481","0.0-7.0-3.0-0.72","7","7","7","7","7","5","5","5","5","5","5","2","2","2","2","2","2","2","2","5","5","5","5","5","4","5","4","5","4","7","7","8","8","7","7","7","8","8","7","7","7","7","7","7","7","1","7","7","1","7","6","7","7","7","7","7","7","7","7","7","7","7","7","6","7","7","7","7","7","7","6","7","7","7","7","7","7","7","7","621363018810261504","袁","700","Male","[""好我"",""坏他"",""坏我"",""好他""]","[""强我"",""弱他"",""弱我"",""强他""]","","","","","","","","no","","","","","","","","","SRET","EW_formal","","key","j","16.650515463917287","768","428","自己","犹豫","Negative","ability","","","","","","","","","","",""
"647","","j","psychophysics","87","374129","0.0-7.0-3.0-0.73","7","7","7","7","7","5","5","5","5","5","5","2","2","2","2","2","2","2","2","5","5","5","5","5","4","5","4","5","4","7","7","8","8","7","7","7","8","8","7","7","7","7","7","7","7","1","7","7","1","7","6","7","7","7","7","7","7","7","7","7","7","7","7","6","7","7","7","7","7","7","6","7","7","7","7","7","7","7","7","621363018810261504","袁","700","Male","[""好我"",""坏他"",""坏我"",""好他""]","[""强我"",""弱他"",""弱我"",""强他""]","","","","","","","","no","","","","","","","","","SRET","EW_formal","","key","j","16.651020408163145","768","428","朋友","虚伪","Negative","morality","","","","","","","","","","",""
"1015","","j","psychophysics","88","376145","0.0-7.0-3.0-0.74","7","7","7","7","7","5","5","5","5","5","5","2","2","2","2","2","2","2","2","5","5","5","5","5","4","5","4","5","4","7","7","8","8","7","7","7","8","8","7","7","7","7","7","7","7","1","7","7","1","7","6","7","7","7","7","7","7","7","7","7","7","7","7","6","7","7","7","7","7","7","6","7","7","7","7","7","7","7","7","621363018810261504","袁","700","Male","[""好我"",""坏他"",""坏我"",""好他""]","[""强我"",""弱他"",""弱我"",""强他""]","","","","","","","","no","","","","","","","","","SRET","EW_formal","","key","j","16.65333333333304","768","428","朋友","无敌","Positive","ability","","","","","","","","","","",""
"463","","f","psychophysics","89","377609","0.0-7.0-3.0-0.75","7","7","7","7","7","5","5","5","5","5","5","2","2","2","2","2","2","2","2","5","5","5","5","5","4","5","4","5","4","7","7","8","8","7","7","7","8","8","7","7","7","7","7","7","7","1","7","7","1","7","6","7","7","7","7","7","7","7","7","7","7","7","7","6","7","7","7","7","7","7","6","7","7","7","7","7","7","7","7","621363018810261504","袁","700","Male","[""好我"",""坏他"",""坏我"",""好他""]","[""强我"",""弱他"",""弱我"",""强他""]","","","","","","","","yes","","","","","","","","","SRET","EW_formal","","key","f","16.647126436781477","768","428","朋友","文明","Positive","morality","","","","","","","","","","",""
"1014","","j","psychophysics","90","379625","0.0-7.0-3.0-0.76","7","7","7","7","7","5","5","5","5","5","5","2","2","2","2","2","2","2","2","5","5","5","5","5","4","5","4","5","4","7","7","8","8","7","7","7","8","8","7","7","7","7","7","7","7","1","7","7","1","7","6","7","7","7","7","7","7","7","7","7","7","7","7","6","7","7","7","7","7","7","6","7","7","7","7","7","7","7","7","621363018810261504","袁","700","Male","[""好我"",""坏他"",""坏我"",""好他""]","[""强我"",""弱他"",""弱我"",""强他""]","","","","","","","","no","","","","","","","","","SRET","EW_formal","","key","j","16.653333333333528","768","428","自己","才尽","Negative","ability","","","","","","","","","","",""
"752","","j","psychophysics","91","381377","0.0-7.0-3.0-0.77","7","7","7","7","7","5","5","5","5","5","5","2","2","2","2","2","2","2","2","5","5","5","5","5","4","5","4","5","4","7","7","8","8","7","7","7","8","8","7","7","7","7","7","7","7","1","7","7","1","7","6","7","7","7","7","7","7","7","7","7","7","7","7","6","7","7","7","7","7","7","6","7","7","7","7","7","7","7","7","621363018810261504","袁","700","Male","[""好我"",""坏他"",""坏我"",""好他""]","[""强我"",""弱他"",""弱我"",""强他""]","","","","","","","","no","","","","","","","","","SRET","EW_formal","","key","j","16.65047619047608","768","428","朋友","愚痴","Negative","ability","","","","","","","","","","",""
"919","","j","psychophysics","92","383297","0.0-7.0-3.0-0.78","7","7","7","7","7","5","5","5","5","5","5","2","2","2","2","2","2","2","2","5","5","5","5","5","4","5","4","5","4","7","7","8","8","7","7","7","8","8","7","7","7","7","7","7","7","1","7","7","1","7","6","7","7","7","7","7","7","7","7","7","7","7","7","6","7","7","7","7","7","7","6","7","7","7","7","7","7","7","7","621363018810261504","袁","700","Male","[""好我"",""坏他"",""坏我"",""好他""]","[""强我"",""弱他"",""弱我"",""强他""]","","","","","","","","no","","","","","","","","","SRET","EW_formal","","key","j","16.65087719298256","768","428","自己","邪恶","Negative","morality","","","","","","","","","","",""
"616","","f","psychophysics","93","384914","0.0-7.0-3.0-0.79","7","7","7","7","7","5","5","5","5","5","5","2","2","2","2","2","2","2","2","5","5","5","5","5","4","5","4","5","4","7","7","8","8","7","7","7","8","8","7","7","7","7","7","7","7","1","7","7","1","7","6","7","7","7","7","7","7","7","7","7","7","7","7","6","7","7","7","7","7","7","6","7","7","7","7","7","7","7","7","621363018810261504","袁","700","Male","[""好我"",""坏他"",""坏我"",""好他""]","[""强我"",""弱他"",""弱我"",""强他""]","","","","","","","","yes","","","","","","","","","SRET","EW_formal","","key","f","16.65416666666715","768","428","朋友","刚正","Positive","morality","","","","","","","","","","",""
"637","","f","psychophysics","94","386553","0.0-7.0-3.0-0.80","7","7","7","7","7","5","5","5","5","5","5","2","2","2","2","2","2","2","2","5","5","5","5","5","4","5","4","5","4","7","7","8","8","7","7","7","8","8","7","7","7","7","7","7","7","1","7","7","1","7","6","7","7","7","7","7","7","7","7","7","7","7","7","6","7","7","7","7","7","7","6","7","7","7","7","7","7","7","7","621363018810261504","袁","700","Male","[""好我"",""坏他"",""坏我"",""好他""]","[""强我"",""弱他"",""弱我"",""强他""]","","","","","","","","yes","","","","","","","","","SRET","EW_formal","","key","f","16.650515463917884","768","428","朋友","坚持","Positive","ability","","","","","","","","","","",""
"968","","j","psychophysics","95","388521","0.0-7.0-3.0-0.81","7","7","7","7","7","5","5","5","5","5","5","2","2","2","2","2","2","2","2","5","5","5","5","5","4","5","4","5","4","7","7","8","8","7","7","7","8","8","7","7","7","7","7","7","7","1","7","7","1","7","6","7","7","7","7","7","7","7","7","7","7","7","7","6","7","7","7","7","7","7","6","7","7","7","7","7","7","7","7","621363018810261504","袁","700","Male","[""好我"",""坏他"",""坏我"",""好他""]","[""强我"",""弱他"",""弱我"",""强他""]","","","","","","","","no","","","","","","","","","SRET","EW_formal","","key","j","16.651694915254435","768","428","自己","阴毒","Negative","morality","","","","","","","","","","",""
"758","","f","psychophysics","96","390281","0.0-7.0-3.0-0.82","7","7","7","7","7","5","5","5","5","5","5","2","2","2","2","2","2","2","2","5","5","5","5","5","4","5","4","5","4","7","7","8","8","7","7","7","8","8","7","7","7","7","7","7","7","1","7","7","1","7","6","7","7","7","7","7","7","7","7","7","7","7","7","6","7","7","7","7","7","7","6","7","7","7","7","7","7","7","7","621363018810261504","袁","700","Male","[""好我"",""坏他"",""坏我"",""好他""]","[""强我"",""弱他"",""弱我"",""强他""]","","","","","","","","yes","","","","","","","","","SRET","EW_formal","","key","f","16.65288461538484","768","428","自己","独立","Positive","ability","","","","","","","","","","",""
"838","","j","psychophysics","97","392121","0.0-7.0-3.0-0.83","7","7","7","7","7","5","5","5","5","5","5","2","2","2","2","2","2","2","2","5","5","5","5","5","4","5","4","5","4","7","7","8","8","7","7","7","8","8","7","7","7","7","7","7","7","1","7","7","1","7","6","7","7","7","7","7","7","7","7","7","7","7","7","6","7","7","7","7","7","7","6","7","7","7","7","7","7","7","7","621363018810261504","袁","700","Male","[""好我"",""坏他"",""坏我"",""好他""]","[""强我"",""弱他"",""弱我"",""强他""]","","","","","","","","no","","","","","","","","","SRET","EW_formal","","key","j","16.653636363636576","768","428","自己","混账","Negative","morality","","","","","","","","","","",""
"871","","f","psychophysics","98","393993","0.0-7.0-3.0-0.84","7","7","7","7","7","5","5","5","5","5","5","2","2","2","2","2","2","2","2","5","5","5","5","5","4","5","4","5","4","7","7","8","8","7","7","7","8","8","7","7","7","7","7","7","7","1","7","7","1","7","6","7","7","7","7","7","7","7","7","7","7","7","7","6","7","7","7","7","7","7","6","7","7","7","7","7","7","7","7","621363018810261504","袁","700","Male","[""好我"",""坏他"",""坏我"",""好他""]","[""强我"",""弱他"",""弱我"",""强他""]","","","","","","","","yes","","","","","","","","","SRET","EW_formal","","key","f","16.650450450450556","768","428","朋友","素养","Positive","morality","","","","","","","","","","",""
"1023","","f","psychophysics","99","396017","0.0-7.0-3.0-0.85","7","7","7","7","7","5","5","5","5","5","5","2","2","2","2","2","2","2","2","5","5","5","5","5","4","5","4","5","4","7","7","8","8","7","7","7","8","8","7","7","7","7","7","7","7","1","7","7","1","7","6","7","7","7","7","7","7","7","7","7","7","7","7","6","7","7","7","7","7","7","6","7","7","7","7","7","7","7","7","621363018810261504","袁","700","Male","[""好我"",""坏他"",""坏我"",""好他""]","[""强我"",""弱他"",""弱我"",""强他""]","","","","","","","","yes","","","","","","","","","SRET","EW_formal","","key","f","16.65206611570267","768","428","自己","主见","Positive","ability","","","","","","","","","","",""
"1382","","j","psychophysics","100","398401","0.0-7.0-3.0-0.86","7","7","7","7","7","5","5","5","5","5","5","2","2","2","2","2","2","2","2","5","5","5","5","5","4","5","4","5","4","7","7","8","8","7","7","7","8","8","7","7","7","7","7","7","7","1","7","7","1","7","6","7","7","7","7","7","7","7","7","7","7","7","7","6","7","7","7","7","7","7","6","7","7","7","7","7","7","7","7","621363018810261504","袁","700","Male","[""好我"",""坏他"",""坏我"",""好他""]","[""强我"",""弱他"",""弱我"",""强他""]","","","","","","","","no","","","","","","","","","SRET","EW_formal","","key","j","16.652112676056586","768","428","朋友","低俗","Negative","morality","","","","","","","","","","",""
"743","","j","psychophysics","101","400145","0.0-7.0-3.0-0.87","7","7","7","7","7","5","5","5","5","5","5","2","2","2","2","2","2","2","2","5","5","5","5","5","4","5","4","5","4","7","7","8","8","7","7","7","8","8","7","7","7","7","7","7","7","1","7","7","1","7","6","7","7","7","7","7","7","7","7","7","7","7","7","6","7","7","7","7","7","7","6","7","7","7","7","7","7","7","7","621363018810261504","袁","700","Male","[""好我"",""坏他"",""坏我"",""好他""]","[""强我"",""弱他"",""弱我"",""强他""]","","","","","","","","no","","","","","","","","","SRET","EW_formal","","key","j","16.650000000000336","768","428","自己","缓慢","Negative","ability","","","","","","","","","","",""
"47423","
    <p><div style='color:white;font-size:35px; line-height:20px;'>计算任务</div></p><br>
    <p><div style='color:red;font-size:25px; line-height:20px;'>接下来，您将看到一些四则运算题，<b>请从键盘选择 0-9 进行反应。</b></div></p>
    <p><div style='color:red;font-size:25px; line-height:20px;'>请尽可能快地进行计算，计算的速度和正确率将影响报酬的发放。</div></p>
    <p><div class='footer' style='color:white;font-size:25px; line-height:20px;'>如果对本实验还有不清楚之处，请立即向实验员咨询。</p><p style='color:white;font-size:25px; line-height:20px;'>如果您明白了规则：</p><p style='color:white;font-size:22px; line-height:20px;'>请按 继续 进入练习</p>
    </div>
    ","0","html-button-response","102","447569","0.0-7.0-4.0","7","7","7","7","7","5","5","5","5","5","5","2","2","2","2","2","2","2","2","5","5","5","5","5","4","5","4","5","4","7","7","8","8","7","7","7","8","8","7","7","7","7","7","7","7","1","7","7","1","7","6","7","7","7","7","7","7","7","7","7","7","7","7","6","7","7","7","7","7","7","6","7","7","7","7","7","7","7","7","621363018810261504","袁","700","Male","[""好我"",""坏他"",""坏我"",""好他""]","[""强我"",""弱他"",""弱我"",""强他""]","","","","","","","","","","","","","","","","","SRET_math","math_instructions","Sun Jan 07 2024 14:17:17 GMT+0800 (中国标准时间)","","","","","","","","","","","","","","","","","","","",""
"1863","","7","psychophysics","103","449435","0.0-7.0-5.0-0.0","7","7","7","7","7","5","5","5","5","5","5","2","2","2","2","2","2","2","2","5","5","5","5","5","4","5","4","5","4","7","7","8","8","7","7","7","8","8","7","7","7","7","7","7","7","1","7","7","1","7","6","7","7","7","7","7","7","7","7","7","7","7","7","6","7","7","7","7","7","7","6","7","7","7","7","7","7","7","7","621363018810261504","袁","700","Male","[""好我"",""坏他"",""坏我"",""好他""]","[""强我"",""弱他"",""弱我"",""强他""]","","","","","","","","7","","","","","","","","","SRET","SRET_math_calculate","","key","7","16.650892857143067","768","428","","","","","21/3= ? ","7","1","","","","","","","",""
"1830","","6","psychophysics","104","451265","0.0-7.0-5.0-0.1","7","7","7","7","7","5","5","5","5","5","5","2","2","2","2","2","2","2","2","5","5","5","5","5","4","5","4","5","4","7","7","8","8","7","7","7","8","8","7","7","7","7","7","7","7","1","7","7","1","7","6","7","7","7","7","7","7","7","7","7","7","7","7","6","7","7","7","7","7","7","6","7","7","7","7","7","7","7","7","621363018810261504","袁","700","Male","[""好我"",""坏他"",""坏我"",""好他""]","[""强我"",""弱他"",""弱我"",""强他""]","","","","","","","","6","","","","","","","","","SRET","SRET_math_calculate","","key","6","16.649541284404098","768","428","","","","","11-5= ?","6","1","","","","","","","",""
"1783","","3","psychophysics","105","453049","0.0-7.0-5.0-0.2","7","7","7","7","7","5","5","5","5","5","5","2","2","2","2","2","2","2","2","5","5","5","5","5","4","5","4","5","4","7","7","8","8","7","7","7","8","8","7","7","7","7","7","7","7","1","7","7","1","7","6","7","7","7","7","7","7","7","7","7","7","7","7","6","7","7","7","7","7","7","6","7","7","7","7","7","7","7","7","621363018810261504","袁","700","Male","[""好我"",""坏他"",""坏我"",""好他""]","[""强我"",""弱他"",""弱我"",""强他""]","","","","","","","","3","","","","","","","","","SRET","SRET_math_calculate","","key","3","16.64999999999967","768","428","","","","","2+1= ?","3","1","","","","","","","",""
"1791","","0","psychophysics","106","454841","0.0-7.0-5.0-0.3","7","7","7","7","7","5","5","5","5","5","5","2","2","2","2","2","2","2","2","5","5","5","5","5","4","5","4","5","4","7","7","8","8","7","7","7","8","8","7","7","7","7","7","7","7","1","7","7","1","7","6","7","7","7","7","7","7","7","7","7","7","7","7","6","7","7","7","7","7","7","6","7","7","7","7","7","7","7","7","621363018810261504","袁","700","Male","[""好我"",""坏他"",""坏我"",""好他""]","[""强我"",""弱他"",""弱我"",""强他""]","","","","","","","","0","","","","","","","","","SRET","SRET_math_calculate","","key","0","16.65046728971941","768","428","","","","","6*0= ?","0","1","","","","","","","",""
"1799","","2","psychophysics","107","456641","0.0-7.0-5.0-0.4","7","7","7","7","7","5","5","5","5","5","5","2","2","2","2","2","2","2","2","5","5","5","5","5","4","5","4","5","4","7","7","8","8","7","7","7","8","8","7","7","7","7","7","7","7","1","7","7","1","7","6","7","7","7","7","7","7","7","7","7","7","7","7","6","7","7","7","7","7","7","6","7","7","7","7","7","7","7","7","621363018810261504","袁","700","Male","[""好我"",""坏他"",""坏我"",""好他""]","[""强我"",""弱他"",""弱我"",""强他""]","","","","","","","","2","","","","","","","","","SRET","SRET_math_calculate","","key","2","16.649532710280372","768","428","","","","","12/6= ?","2","1","","","","","","","",""
"3599","","8","psychophysics","108","460242","0.0-7.0-5.0-0.5","7","7","7","7","7","5","5","5","5","5","5","2","2","2","2","2","2","2","2","5","5","5","5","5","4","5","4","5","4","7","7","8","8","7","7","7","8","8","7","7","7","7","7","7","7","1","7","7","1","7","6","7","7","7","7","7","7","7","7","7","7","7","7","6","7","7","7","7","7","7","6","7","7","7","7","7","7","7","7","621363018810261504","袁","700","Male","[""好我"",""坏他"",""坏我"",""好他""]","[""强我"",""弱他"",""弱我"",""强他""]","","","","","","","","8","","","","","","","","","SRET","SRET_math_calculate","","key","8","38.91739130434808","768","428","","","","","8*1= ?","8","1","","","","","","","",""
"1742","","8","psychophysics","109","461985","0.0-7.0-5.0-0.6","7","7","7","7","7","5","5","5","5","5","5","2","2","2","2","2","2","2","2","5","5","5","5","5","4","5","4","5","4","7","7","8","8","7","7","7","8","8","7","7","7","7","7","7","7","1","7","7","1","7","6","7","7","7","7","7","7","7","7","7","7","7","7","6","7","7","7","7","7","7","6","7","7","7","7","7","7","7","7","621363018810261504","袁","700","Male","[""好我"",""坏他"",""坏我"",""好他""]","[""强我"",""弱他"",""弱我"",""强他""]","","","","","","","","8","","","","","","","","","SRET","SRET_math_calculate","","key","8","16.653846153846153","768","428","","","","","6+2= ?","8","1","","","","","","","",""
"2367","","8","psychophysics","110","464353","0.0-7.0-5.0-0.7","7","7","7","7","7","5","5","5","5","5","5","2","2","2","2","2","2","2","2","5","5","5","5","5","4","5","4","5","4","7","7","8","8","7","7","7","8","8","7","7","7","7","7","7","7","1","7","7","1","7","6","7","7","7","7","7","7","7","7","7","7","7","7","6","7","7","7","7","7","7","6","7","7","7","7","7","7","7","7","621363018810261504","袁","700","Male","[""好我"",""坏他"",""坏我"",""好他""]","[""强我"",""弱他"",""弱我"",""强他""]","","","","","","","","8","","","","","","","","","SRET","SRET_math_calculate","","key","8","16.65106382978715","768","428","","","","","56/7= ?","8","1","","","","","","","",""
"1807","","3","psychophysics","111","466161","0.0-7.0-5.0-0.8","7","7","7","7","7","5","5","5","5","5","5","2","2","2","2","2","2","2","2","5","5","5","5","5","4","5","4","5","4","7","7","8","8","7","7","7","8","8","7","7","7","7","7","7","7","1","7","7","1","7","6","7","7","7","7","7","7","7","7","7","7","7","7","6","7","7","7","7","7","7","6","7","7","7","7","7","7","7","7","621363018810261504","袁","700","Male","[""好我"",""坏他"",""坏我"",""好他""]","[""强我"",""弱他"",""弱我"",""强他""]","","","","","","","","3","","","","","","","","","SRET","SRET_math_calculate","","key","3","16.65607476635525","768","428","","","","","9/3= ?","3","1","","","","","","","",""
"1823","","4","psychophysics","112","467985","0.0-7.0-5.0-0.9","7","7","7","7","7","5","5","5","5","5","5","2","2","2","2","2","2","2","2","5","5","5","5","5","4","5","4","5","4","7","7","8","8","7","7","7","8","8","7","7","7","7","7","7","7","1","7","7","1","7","6","7","7","7","7","7","7","7","7","7","7","7","7","6","7","7","7","7","7","7","6","7","7","7","7","7","7","7","7","621363018810261504","袁","700","Male","[""好我"",""坏他"",""坏我"",""好他""]","[""强我"",""弱他"",""弱我"",""强他""]","","","","","","","","4","","","","","","","","","SRET","SRET_math_calculate","","key","4","16.65137614678899","768","428","","","","","8-4= ?","4","1","","","","","","","",""
"1815","","2","psychophysics","113","469802","0.0-7.0-5.0-0.10","7","7","7","7","7","5","5","5","5","5","5","2","2","2","2","2","2","2","2","5","5","5","5","5","4","5","4","5","4","7","7","8","8","7","7","7","8","8","7","7","7","7","7","7","7","1","7","7","1","7","6","7","7","7","7","7","7","7","7","7","7","7","7","6","7","7","7","7","7","7","6","7","7","7","7","7","7","7","7","621363018810261504","袁","700","Male","[""好我"",""坏他"",""坏我"",""好他""]","[""强我"",""弱他"",""弱我"",""强他""]","","","","","","","","2","","","","","","","","","SRET","SRET_math_calculate","","key","2","16.6472222222219","768","428","","","","","1+1= ?","2","1","","","","","","","",""
"1975","","6","psychophysics","114","471777","0.0-7.0-5.0-0.11","7","7","7","7","7","5","5","5","5","5","5","2","2","2","2","2","2","2","2","5","5","5","5","5","4","5","4","5","4","7","7","8","8","7","7","7","8","8","7","7","7","7","7","7","7","1","7","7","1","7","6","7","7","7","7","7","7","7","7","7","7","7","7","6","7","7","7","7","7","7","6","7","7","7","7","7","7","7","7","621363018810261504","袁","700","Male","[""好我"",""坏他"",""坏我"",""好他""]","[""强我"",""弱他"",""弱我"",""强他""]","","","","","","","","6","","","","","","","","","SRET","SRET_math_calculate","","key","6","16.6542372881352","768","428","","","","","9-3= ?","6","1","","","","","","","",""
"2166","","5","psychophysics","115","473945","0.0-7.0-5.0-0.12","7","7","7","7","7","5","5","5","5","5","5","2","2","2","2","2","2","2","2","5","5","5","5","5","4","5","4","5","4","7","7","8","8","7","7","7","8","8","7","7","7","7","7","7","7","1","7","7","1","7","6","7","7","7","7","7","7","7","7","7","7","7","7","6","7","7","7","7","7","7","6","7","7","7","7","7","7","7","7","621363018810261504","袁","700","Male","[""好我"",""坏他"",""坏我"",""好他""]","[""强我"",""弱他"",""弱我"",""强他""]","","","","","","","","5","","","","","","","","","SRET","SRET_math_calculate","","key","5","16.646511627907156","768","428","","","","","9-4= ?","5","1","","","","","","","",""
"1871","","4","psychophysics","116","475818","0.0-7.0-5.0-0.13","7","7","7","7","7","5","5","5","5","5","5","2","2","2","2","2","2","2","2","5","5","5","5","5","4","5","4","5","4","7","7","8","8","7","7","7","8","8","7","7","7","7","7","7","7","1","7","7","1","7","6","7","7","7","7","7","7","7","7","7","7","7","7","6","7","7","7","7","7","7","6","7","7","7","7","7","7","7","7","621363018810261504","袁","700","Male","[""好我"",""坏他"",""坏我"",""好他""]","[""强我"",""弱他"",""弱我"",""强他""]","","","","","","","","4","","","","","","","","","SRET","SRET_math_calculate","","key","4","16.650450450450556","768","428","","","","","9-5= ?","4","1","","","","","","","",""
"1942","","3","psychophysics","117","477761","0.0-7.0-5.0-0.14","7","7","7","7","7","5","5","5","5","5","5","2","2","2","2","2","2","2","2","5","5","5","5","5","4","5","4","5","4","7","7","8","8","7","7","7","8","8","7","7","7","7","7","7","7","1","7","7","1","7","6","7","7","7","7","7","7","7","7","7","7","7","7","6","7","7","7","7","7","7","6","7","7","7","7","7","7","7","7","621363018810261504","袁","700","Male","[""好我"",""坏他"",""坏我"",""好他""]","[""强我"",""弱他"",""弱我"",""强他""]","","","","","","","","3","","","","","","","","","SRET","SRET_math_calculate","","key","3","16.651724137930835","768","428","","","","","1+2= ?","3","1","","","","","","","",""
"1815","","7","psychophysics","118","479577","0.0-7.0-5.0-0.15","7","7","7","7","7","5","5","5","5","5","5","2","2","2","2","2","2","2","2","5","5","5","5","5","4","5","4","5","4","7","7","8","8","7","7","7","8","8","7","7","7","7","7","7","7","1","7","7","1","7","6","7","7","7","7","7","7","7","7","7","7","7","7","6","7","7","7","7","7","7","6","7","7","7","7","7","7","7","7","621363018810261504","袁","700","Male","[""好我"",""坏他"",""坏我"",""好他""]","[""强我"",""弱他"",""弱我"",""强他""]","","","","","","","","7","","","","","","","","","SRET","SRET_math_calculate","","key","7","16.65092592592582","768","428","","","","","3+4= ?","7","1","","","","","","","",""
"1743","","8","psychophysics","119","481321","0.0-7.0-5.0-0.16","7","7","7","7","7","5","5","5","5","5","5","2","2","2","2","2","2","2","2","5","5","5","5","5","4","5","4","5","4","7","7","8","8","7","7","7","8","8","7","7","7","7","7","7","7","1","7","7","1","7","6","7","7","7","7","7","7","7","7","7","7","7","7","6","7","7","7","7","7","7","6","7","7","7","7","7","7","7","7","621363018810261504","袁","700","Male","[""好我"",""坏他"",""坏我"",""好他""]","[""强我"",""弱他"",""弱我"",""强他""]","","","","","","","","8","","","","","","","","","SRET","SRET_math_calculate","","key","8","16.651923076923524","768","428","","","","","2+6= ?","8","1","","","","","","","",""
"1863","","3","psychophysics","120","483186","0.0-7.0-5.0-0.17","7","7","7","7","7","5","5","5","5","5","5","2","2","2","2","2","2","2","2","5","5","5","5","5","4","5","4","5","4","7","7","8","8","7","7","7","8","8","7","7","7","7","7","7","7","1","7","7","1","7","6","7","7","7","7","7","7","7","7","7","7","7","7","6","7","7","7","7","7","7","6","7","7","7","7","7","7","7","7","621363018810261504","袁","700","Male","[""好我"",""坏他"",""坏我"",""好他""]","[""强我"",""弱他"",""弱我"",""强他""]","","","","","","","","3","","","","","","","","","SRET","SRET_math_calculate","","key","3","16.654054054053844","768","428","","","","","12/4= ?","3","1","","","","","","","",""
"1863","","4","psychophysics","121","485050","0.0-7.0-5.0-0.18","7","7","7","7","7","5","5","5","5","5","5","2","2","2","2","2","2","2","2","5","5","5","5","5","4","5","4","5","4","7","7","8","8","7","7","7","8","8","7","7","7","7","7","7","7","1","7","7","1","7","6","7","7","7","7","7","7","7","7","7","7","7","7","6","7","7","7","7","7","7","6","7","7","7","7","7","7","7","7","621363018810261504","袁","700","Male","[""好我"",""坏他"",""坏我"",""好他""]","[""强我"",""弱他"",""弱我"",""强他""]","","","","","","","","4","","","","","","","","","SRET","SRET_math_calculate","","key","4","16.651351351351245","768","428","","","","","4*1= ?","4","1","","","","","","","",""
"1790","","0","psychophysics","122","486841","0.0-7.0-5.0-0.19","7","7","7","7","7","5","5","5","5","5","5","2","2","2","2","2","2","2","2","5","5","5","5","5","4","5","4","5","4","7","7","8","8","7","7","7","8","8","7","7","7","7","7","7","7","1","7","7","1","7","6","7","7","7","7","7","7","7","7","7","7","7","7","6","7","7","7","7","7","7","6","7","7","7","7","7","7","7","7","621363018810261504","袁","700","Male","[""好我"",""坏他"",""坏我"",""好他""]","[""强我"",""弱他"",""弱我"",""强他""]","","","","","","","","0","","","","","","","","","SRET","SRET_math_calculate","","key","0","16.650943396226417","768","428","","","","","22-22= ?","0","1","","","","","","","",""
"1679","","4","psychophysics","123","488521","0.0-7.0-5.0-0.20","7","7","7","7","7","5","5","5","5","5","5","2","2","2","2","2","2","2","2","5","5","5","5","5","4","5","4","5","4","7","7","8","8","7","7","7","8","8","7","7","7","7","7","7","7","1","7","7","1","7","6","7","7","7","7","7","7","7","7","7","7","7","7","6","7","7","7","7","7","7","6","7","7","7","7","7","7","7","7","621363018810261504","袁","700","Male","[""好我"",""坏他"",""坏我"",""好他""]","[""强我"",""弱他"",""弱我"",""强他""]","","","","","","","","4","","","","","","","","","SRET","SRET_math_calculate","","key","4","16.652000000000115","768","428","","","","","2+2= ?","4","1","","","","","","","",""
"1840","","7","psychophysics","124","490362","0.0-7.0-5.0-0.21","7","7","7","7","7","5","5","5","5","5","5","2","2","2","2","2","2","2","2","5","5","5","5","5","4","5","4","5","4","7","7","8","8","7","7","7","8","8","7","7","7","7","7","7","7","1","7","7","1","7","6","7","7","7","7","7","7","7","7","7","7","7","7","6","7","7","7","7","7","7","6","7","7","7","7","7","7","7","7","621363018810261504","袁","700","Male","[""好我"",""坏他"",""坏我"",""好他""]","[""强我"",""弱他"",""弱我"",""强他""]","","","","","","","","7","","","","","","","","","SRET","SRET_math_calculate","","key","7","16.65181818181829","768","428","","","","","9-2= ?","7","1","","","","","","","",""
"1702","","6","psychophysics","125","492065","0.0-7.0-5.0-0.22","7","7","7","7","7","5","5","5","5","5","5","2","2","2","2","2","2","2","2","5","5","5","5","5","4","5","4","5","4","7","7","8","8","7","7","7","8","8","7","7","7","7","7","7","7","1","7","7","1","7","6","7","7","7","7","7","7","7","7","7","7","7","7","6","7","7","7","7","7","7","6","7","7","7","7","7","7","7","7","621363018810261504","袁","700","Male","[""好我"",""坏他"",""坏我"",""好他""]","[""强我"",""弱他"",""弱我"",""强他""]","","","","","","","","6","","","","","","","","","SRET","SRET_math_calculate","","key","6","16.651485148515313","768","428","","","","","3+3= ?","6","1","","","","","","","",""
"1807","","0","psychophysics","126","493873","0.0-7.0-5.0-0.23","7","7","7","7","7","5","5","5","5","5","5","2","2","2","2","2","2","2","2","5","5","5","5","5","4","5","4","5","4","7","7","8","8","7","7","7","8","8","7","7","7","7","7","7","7","1","7","7","1","7","6","7","7","7","7","7","7","7","7","7","7","7","7","6","7","7","7","7","7","7","6","7","7","7","7","7","7","7","7","621363018810261504","袁","700","Male","[""好我"",""坏他"",""坏我"",""好他""]","[""强我"",""弱他"",""弱我"",""强他""]","","","","","","","","0","","","","","","","","","SRET","SRET_math_calculate","","key","0","16.65092592592582","768","428","","","","","9-9= ?","0","1","","","","","","","",""
"1742","","2","psychophysics","127","495617","0.0-7.0-5.0-0.24","7","7","7","7","7","5","5","5","5","5","5","2","2","2","2","2","2","2","2","5","5","5","5","5","4","5","4","5","4","7","7","8","8","7","7","7","8","8","7","7","7","7","7","7","7","1","7","7","1","7","6","7","7","7","7","7","7","7","7","7","7","7","7","6","7","7","7","7","7","7","6","7","7","7","7","7","7","7","7","621363018810261504","袁","700","Male","[""好我"",""坏他"",""坏我"",""好他""]","[""强我"",""弱他"",""弱我"",""强他""]","","","","","","","","2","","","","","","","","","SRET","SRET_math_calculate","","key","2","16.650485436893202","768","428","","","","","8-6= ?","2","1","","","","","","","",""
"1767","","1","psychophysics","128","497385","0.0-7.0-5.0-0.25","7","7","7","7","7","5","5","5","5","5","5","2","2","2","2","2","2","2","2","5","5","5","5","5","4","5","4","5","4","7","7","8","8","7","7","7","8","8","7","7","7","7","7","7","7","1","7","7","1","7","6","7","7","7","7","7","7","7","7","7","7","7","7","6","7","7","7","7","7","7","6","7","7","7","7","7","7","7","7","621363018810261504","袁","700","Male","[""好我"",""坏他"",""坏我"",""好他""]","[""强我"",""弱他"",""弱我"",""强他""]","","","","","","","","1","","","","","","","","","SRET","SRET_math_calculate","","key","1","16.650943396226417","768","428","","","","","9-8= ?","1","1","","","","","","","",""
"2471","","8","psychophysics","129","499857","0.0-7.0-5.0-0.26","7","7","7","7","7","5","5","5","5","5","5","2","2","2","2","2","2","2","2","5","5","5","5","5","4","5","4","5","4","7","7","8","8","7","7","7","8","8","7","7","7","7","7","7","7","1","7","7","1","7","6","7","7","7","7","7","7","7","7","7","7","7","7","6","7","7","7","7","7","7","6","7","7","7","7","7","7","7","7","621363018810261504","袁","700","Male","[""好我"",""坏他"",""坏我"",""好他""]","[""强我"",""弱他"",""弱我"",""强他""]","","","","","","","","8","","","","","","","","","SRET","SRET_math_calculate","","key","8","16.64761904761873","768","428","","","","","13-5= ?","8","1","","","","","","","",""
"1751","","7","psychophysics","130","501609","0.0-7.0-5.0-0.27","7","7","7","7","7","5","5","5","5","5","5","2","2","2","2","2","2","2","2","5","5","5","5","5","4","5","4","5","4","7","7","8","8","7","7","7","8","8","7","7","7","7","7","7","7","1","7","7","1","7","6","7","7","7","7","7","7","7","7","7","7","7","7","6","7","7","7","7","7","7","6","7","7","7","7","7","7","7","7","621363018810261504","袁","700","Male","[""好我"",""坏他"",""坏我"",""好他""]","[""强我"",""弱他"",""弱我"",""强他""]","","","","","","","","7","","","","","","","","","SRET","SRET_math_calculate","","key","7","16.65096153846165","768","428","","","","","4+3= ?","7","1","","","","","","","",""
"1807","","6","psychophysics","131","503417","0.0-7.0-5.0-0.28","7","7","7","7","7","5","5","5","5","5","5","2","2","2","2","2","2","2","2","5","5","5","5","5","4","5","4","5","4","7","7","8","8","7","7","7","8","8","7","7","7","7","7","7","7","1","7","7","1","7","6","7","7","7","7","7","7","7","7","7","7","7","7","6","7","7","7","7","7","7","6","7","7","7","7","7","7","7","7","621363018810261504","袁","700","Male","[""好我"",""坏他"",""坏我"",""好他""]","[""强我"",""弱他"",""弱我"",""强他""]","","","","","","","","6","","","","","","","","","SRET","SRET_math_calculate","","key","6","16.65277777777778","768","428","","","","","8-2= ?","6","1","","","","","","","",""
"2527","","9","psychophysics","132","505945","0.0-7.0-5.0-0.29","7","7","7","7","7","5","5","5","5","5","5","2","2","2","2","2","2","2","2","5","5","5","5","5","4","5","4","5","4","7","7","8","8","7","7","7","8","8","7","7","7","7","7","7","7","1","7","7","1","7","6","7","7","7","7","7","7","7","7","7","7","7","7","6","7","7","7","7","7","7","6","7","7","7","7","7","7","7","7","621363018810261504","袁","700","Male","[""好我"",""坏他"",""坏我"",""好他""]","[""强我"",""弱他"",""弱我"",""强他""]","","","","","","","","9","","","","","","","","","SRET","SRET_math_calculate","","key","9","16.650331125827893","768","428","","","","","43-34= ?","9","1","","","","","","","",""
"1638","","7","psychophysics","133","507585","0.0-7.0-5.0-0.30","7","7","7","7","7","5","5","5","5","5","5","2","2","2","2","2","2","2","2","5","5","5","5","5","4","5","4","5","4","7","7","8","8","7","7","7","8","8","7","7","7","7","7","7","7","1","7","7","1","7","6","7","7","7","7","7","7","7","7","7","7","7","7","6","7","7","7","7","7","7","6","7","7","7","7","7","7","7","7","621363018810261504","袁","700","Male","[""好我"",""坏他"",""坏我"",""好他""]","[""强我"",""弱他"",""弱我"",""强他""]","","","","","","","","7","","","","","","","","","SRET","SRET_math_calculate","","key","7","16.651546391752696","768","428","","","","","5+2= ?","7","1","","","","","","","",""
"2103","","1","psychophysics","134","509690","0.0-7.0-5.0-0.31","7","7","7","7","7","5","5","5","5","5","5","2","2","2","2","2","2","2","2","5","5","5","5","5","4","5","4","5","4","7","7","8","8","7","7","7","8","8","7","7","7","7","7","7","7","1","7","7","1","7","6","7","7","7","7","7","7","7","7","7","7","7","7","6","7","7","7","7","7","7","6","7","7","7","7","7","7","7","7","621363018810261504","袁","700","Male","[""好我"",""坏他"",""坏我"",""好他""]","[""强我"",""弱他"",""弱我"",""强他""]","","","","","","","","1","","","","","","","","","SRET","SRET_math_calculate","","key","1","16.650793650793652","768","428","","","","","4/4= ?","1","1","","","","","","","",""
"1711","","0","psychophysics","135","511401","0.0-7.0-5.0-0.32","7","7","7","7","7","5","5","5","5","5","5","2","2","2","2","2","2","2","2","5","5","5","5","5","4","5","4","5","4","7","7","8","8","7","7","7","8","8","7","7","7","7","7","7","7","1","7","7","1","7","6","7","7","7","7","7","7","7","7","7","7","7","7","6","7","7","7","7","7","7","6","7","7","7","7","7","7","7","7","621363018810261504","袁","700","Male","[""好我"",""坏他"",""坏我"",""好他""]","[""强我"",""弱他"",""弱我"",""强他""]","","","","","","","","0","","","","","","","","","SRET","SRET_math_calculate","","key","0","16.64554455445556","768","428","","","","","7*0= ?","0","1","","","","","","","",""
"1887","","7","psychophysics","136","513290","0.0-7.0-5.0-0.33","7","7","7","7","7","5","5","5","5","5","5","2","2","2","2","2","2","2","2","5","5","5","5","5","4","5","4","5","4","7","7","8","8","7","7","7","8","8","7","7","7","7","7","7","7","1","7","7","1","7","6","7","7","7","7","7","7","7","7","7","7","7","7","6","7","7","7","7","7","7","6","7","7","7","7","7","7","7","7","621363018810261504","袁","700","Male","[""好我"",""坏他"",""坏我"",""好他""]","[""强我"",""弱他"",""弱我"",""强他""]","","","","","","","","7","","","","","","","","","SRET","SRET_math_calculate","","key","7","16.654867256637168","768","428","","","","","7*1=  ?","7","1","","","","","","","",""
"1886","","4","psychophysics","137","515177","0.0-7.0-5.0-0.34","7","7","7","7","7","5","5","5","5","5","5","2","2","2","2","2","2","2","2","5","5","5","5","5","4","5","4","5","4","7","7","8","8","7","7","7","8","8","7","7","7","7","7","7","7","1","7","7","1","7","6","7","7","7","7","7","7","7","7","7","7","7","7","6","7","7","7","7","7","7","6","7","7","7","7","7","7","7","7","621363018810261504","袁","700","Male","[""好我"",""坏他"",""坏我"",""好他""]","[""强我"",""弱他"",""弱我"",""强他""]","","","","","","","","4","","","","","","","","","SRET","SRET_math_calculate","","key","4","16.652678571428364","768","428","","","","","20/5= ?","4","1","","","","","","","",""
"2063","","2","psychophysics","138","517241","0.0-7.0-5.0-0.35","7","7","7","7","7","5","5","5","5","5","5","2","2","2","2","2","2","2","2","5","5","5","5","5","4","5","4","5","4","7","7","8","8","7","7","7","8","8","7","7","7","7","7","7","7","1","7","7","1","7","6","7","7","7","7","7","7","7","7","7","7","7","7","6","7","7","7","7","7","7","6","7","7","7","7","7","7","7","7","621363018810261504","袁","700","Male","[""好我"",""坏他"",""坏我"",""好他""]","[""强我"",""弱他"",""弱我"",""强他""]","","","","","","","","2","","","","","","","","","SRET","SRET_math_calculate","","key","2","16.651219512195407","768","428","","","","","5-3= ?","2","1","","","","","","","",""
"1847","","7","psychophysics","139","519089","0.0-7.0-5.0-0.36","7","7","7","7","7","5","5","5","5","5","5","2","2","2","2","2","2","2","2","5","5","5","5","5","4","5","4","5","4","7","7","8","8","7","7","7","8","8","7","7","7","7","7","7","7","1","7","7","1","7","6","7","7","7","7","7","7","7","7","7","7","7","7","6","7","7","7","7","7","7","6","7","7","7","7","7","7","7","7","621363018810261504","袁","700","Male","[""好我"",""坏他"",""坏我"",""好他""]","[""强我"",""弱他"",""弱我"",""强他""]","","","","","","","","7","","","","","","","","","SRET","SRET_math_calculate","","key","7","16.648181818181712","768","428","","","","","8-1= ?","7","1","","","","","","","",""
"1975","","8","psychophysics","140","521066","0.0-7.0-5.0-0.37","7","7","7","7","7","5","5","5","5","5","5","2","2","2","2","2","2","2","2","5","5","5","5","5","4","5","4","5","4","7","7","8","8","7","7","7","8","8","7","7","7","7","7","7","7","1","7","7","1","7","6","7","7","7","7","7","7","7","7","7","7","7","7","6","7","7","7","7","7","7","6","7","7","7","7","7","7","7","7","621363018810261504","袁","700","Male","[""好我"",""坏他"",""坏我"",""好他""]","[""强我"",""弱他"",""弱我"",""强他""]","","","","","","","","8","","","","","","","","","SRET","SRET_math_calculate","","key","8","16.650000000000098","768","428","","","","","1+7= ?","8","1","","","","","","","",""
"1662","","9","psychophysics","141","522729","0.0-7.0-5.0-0.38","7","7","7","7","7","5","5","5","5","5","5","2","2","2","2","2","2","2","2","5","5","5","5","5","4","5","4","5","4","7","7","8","8","7","7","7","8","8","7","7","7","7","7","7","7","1","7","7","1","7","6","7","7","7","7","7","7","7","7","7","7","7","7","6","7","7","7","7","7","7","6","7","7","7","7","7","7","7","7","621363018810261504","袁","700","Male","[""好我"",""坏他"",""坏我"",""好他""]","[""强我"",""弱他"",""弱我"",""强他""]","","","","","","","","9","","","","","","","","","SRET","SRET_math_calculate","","key","9","16.651515151515152","768","428","","","","","1+8= ?","9","1","","","","","","","",""
"2031","","1","psychophysics","142","524762","0.0-7.0-5.0-0.39","7","7","7","7","7","5","5","5","5","5","5","2","2","2","2","2","2","2","2","5","5","5","5","5","4","5","4","5","4","7","7","8","8","7","7","7","8","8","7","7","7","7","7","7","7","1","7","7","1","7","6","7","7","7","7","7","7","7","7","7","7","7","7","6","7","7","7","7","7","7","6","7","7","7","7","7","7","7","7","621363018810261504","袁","700","Male","[""好我"",""坏他"",""坏我"",""好他""]","[""强我"",""弱他"",""弱我"",""强他""]","","","","","","","","1","","","","","","","","","SRET","SRET_math_calculate","","key","1","16.65289256198347","768","428","","","","","30-29= ?","1","1","","","","","","","",""
"1775","","3","psychophysics","143","526538","0.0-7.0-5.0-0.40","7","7","7","7","7","5","5","5","5","5","5","2","2","2","2","2","2","2","2","5","5","5","5","5","4","5","4","5","4","7","7","8","8","7","7","7","8","8","7","7","7","7","7","7","7","1","7","7","1","7","6","7","7","7","7","7","7","7","7","7","7","7","7","6","7","7","7","7","7","7","6","7","7","7","7","7","7","7","7","621363018810261504","袁","700","Male","[""好我"",""坏他"",""坏我"",""好他""]","[""强我"",""弱他"",""弱我"",""强他""]","","","","","","","","3","","","","","","","","","SRET","SRET_math_calculate","","key","3","16.65523809523743","768","428","","","","","8-5= ?","3","1","","","","","","","",""
