"rt","stimulus","response","trial_type","trial_index","time_elapsed","internal_node_id","swb_1","swb_2","swb_3","swb_4","swb_5","LOT_1","LOT_2","LOT_3","LOT_4","LOT_5","LOT_6","IPC_1","IPC_2","IPC_3","IPC_4","IPC_5","IPC_6","IPC_7","IPC_8","MorIden_1","MorIden_2","MorIden_3","MorIden_4","MorIden_5","MorIden_6","MorIden_7","MorIden_8","MorIden_9","MorIden_10","moralSeImag_1","moralSeImag_2","moralSeImag_3","moralSeImag_4","moralSeImag_5","moralSeImag_6","moralSeImag_7","moralSeImag_8","moralSeImag_9","sde_1","sde_2","sde_3","sde_4","sde_5","sde_6","sde_7","sde_8","sde_9","sde_10","trap2","sde_11","sde_12","sde_13","sde_14","sde_15","sde_16","sde_17","sde_18","sde_19","sde_20","IM_1","IM_2","IM_3","IM_4","IM_5","IM_6","IM_7","IM_8","IM_9","IM_10","IM_11","IM_12","IM_13","IM_14","IM_15","IM_16","IM_17","IM_18","IM_19","IM_20","subj_idx","friend_name","ParticipantID","Sex","Word","Word2","value","success","timeout","failed_images","failed_audio","failed_video","user_agent","responses","item_order","radio_event_ids","radio_event_times","key_event_times","mouse_event_times","straightlining","zigzagging","honeypot","view_history","response_type","key_press","avg_frame_time","center_x","center_y","correct_response","correct","identity","Image","word","condition","task_id","screen_id","time_stamp","person","valence","domain","math","status","duration","question_order","trap2_item"
"1224","
   <p><div style='color:white; font-size: 25px'>您好，欢迎参加本次实验。</div></p>
   <p><div style='color:white; font-size: 25px'>为充分保障您的权利，请确保您已经知晓并同意《参与实验同意书》以及《数据公开知情同意书》。</div></p>
   <p><div style='color:white; font-size: 25px'>如果您未见过上述内容，请咨询实验员。</div></p>
   <p style='color:white; font-size: 25px'>如果您选择继续实验，则表示您已经清楚两份知情同意书的内容并同意。</p>
   <p><div style = ""color: pink;font-size:30px;"">请确保您记得day0的实验编号，您将在本次实验输入该编号，若您忘记，请咨询实验员后作答。</div></p>
   <p><div style = ""color:lightblue;font-size:25px;"">请您尽可能认真地作答，我们将依据您在各问卷和按键任务中的作答质量发放报酬。</div></p>
   <p> <div style = ""color: green""><按空格键至下页></div> </p>
   "," ","html-keyboard-response","0","1226","0.0-0.0","7","7","7","6","6","5","5","5","5","5","5","2","2","2","2","2","2","2","2","5","5","5","5","5","5","5","5","5","5","7","6","7","7","7","6","8","7","7","7","7","7","7","7","7","7","1","7","7","1","7","7","7","7","7","7","7","7","6","7","7","7","7","7","7","7","7","7","7","7","7","6","7","7","7","7","7","7","6","7","621383779721674752","周","466","Male","[""坏我"",""坏他"",""好我"",""好他""]","[""弱我"",""弱他"",""强我"",""强他""]","","","","","","","","","","","","","","","","","","","","","","","","","","","","","","","","","","","","","","",""
"","","","call-function","1","1226","0.0-1.0-0.0","7","7","7","6","6","5","5","5","5","5","5","2","2","2","2","2","2","2","2","5","5","5","5","5","5","5","5","5","5","7","6","7","7","7","6","8","7","7","7","7","7","7","7","7","7","1","7","7","1","7","7","7","7","7","7","7","7","6","7","7","7","7","7","7","7","7","7","7","7","7","6","7","7","7","7","7","7","6","7","621383779721674752","周","466","Male","[""坏我"",""坏他"",""好我"",""好他""]","[""弱我"",""弱他"",""强我"",""强他""]","","","","","","","","","","","","","","","","","","","","","","","","","","","","","","","","","","","","","","",""
"12983","","[{""name"":""Sex"",""value"":""0""},{""name"":""friend_name"",""value"":""周""},{""name"":""ParticipantID"",""value"":""466""}]","survey-html-form","2","14210","0.0-1.0-1.0","7","7","7","6","6","5","5","5","5","5","5","2","2","2","2","2","2","2","2","5","5","5","5","5","5","5","5","5","5","7","6","7","7","7","6","8","7","7","7","7","7","7","7","7","7","1","7","7","1","7","7","7","7","7","7","7","7","6","7","7","7","7","7","7","7","7","7","7","7","7","6","7","7","7","7","7","7","6","7","621383779721674752","周","466","Male","[""坏我"",""坏他"",""好我"",""好他""]","[""弱我"",""弱他"",""强我"",""强他""]","","","","","","","","","","","","","","","","","","","","","","","","","","","","","","","","","","","","","","",""
"","","","preload","3","14561","0.0-2.0","7","7","7","6","6","5","5","5","5","5","5","2","2","2","2","2","2","2","2","5","5","5","5","5","5","5","5","5","5","7","6","7","7","7","6","8","7","7","7","7","7","7","7","7","7","1","7","7","1","7","7","7","7","7","7","7","7","6","7","7","7","7","7","7","7","7","7","7","7","7","6","7","7","7","7","7","7","6","7","621383779721674752","周","466","Male","[""坏我"",""坏他"",""好我"",""好他""]","[""弱我"",""弱他"",""强我"",""强他""]","","true","false","[]","[]","[]","","","","","","","","","","","","","","","","","","","","","","","","","","","","","","","","",""
"","","","fullscreen","4","16087","0.0-3.0","7","7","7","6","6","5","5","5","5","5","5","2","2","2","2","2","2","2","2","5","5","5","5","5","5","5","5","5","5","7","6","7","7","7","6","8","7","7","7","7","7","7","7","7","7","1","7","7","1","7","7","7","7","7","7","7","7","6","7","7","7","7","7","7","7","7","7","7","7","7","6","7","7","7","7","7","7","6","7","621383779721674752","周","466","Male","[""坏我"",""坏他"",""好我"",""好他""]","[""弱我"",""弱他"",""强我"",""强他""]","","true","","","","","{}","","","","","","","","","","","","","","","","","","","","","","","","","","","","","","","",""
"7355.700000762939","","{""Q01"":""7"",""Q02"":""7"",""Q03"":""7"",""Q04"":""6"",""Q05"":""6""}","survey-template","5","23444","0.0-4.0","7","7","7","6","6","5","5","5","5","5","5","2","2","2","2","2","2","2","2","5","5","5","5","5","5","5","5","5","5","7","6","7","7","7","6","8","7","7","7","7","7","7","7","7","7","1","7","7","1","7","7","7","7","7","7","7","7","6","7","7","7","7","7","7","7","7","7","7","7","7","6","7","7","7","7","7","7","6","7","621383779721674752","周","466","Male","[""坏我"",""坏他"",""好我"",""好他""]","[""弱我"",""弱他"",""强我"",""强他""]","","","","","","","","{""Q01"":""7"",""Q02"":""7"",""Q03"":""7"",""Q04"":""6"",""Q05"":""6""}","[0,1,2,3,4]","[""Q01"",""Q02"",""Q03"",""Q04"",""Q05"",""Q04"",""Q05""]","[1785.6000003814697,2233.3999996185303,2641.7000007629395,3193.5,4161.799999237061,6122.89999961853,6961.299999237061]","[]","[1274.2999992370605,1785.6000003814697,2233.3999996185303,2641.7000007629395,3193.5,4161.799999237061,6122.89999961853,6961.299999237061,7355]","0.6","0.25","0","","","","","","","","","","","","","","","","","","","","","","",""
"8339.60000038147","","{""Q01"":""5"",""Q02"":""5"",""Q03"":""5"",""Q04"":""5"",""Q05"":""5"",""Q06"":""5""}","survey-template","6","31787","0.0-5.0","7","7","7","6","6","5","5","5","5","5","5","2","2","2","2","2","2","2","2","5","5","5","5","5","5","5","5","5","5","7","6","7","7","7","6","8","7","7","7","7","7","7","7","7","7","1","7","7","1","7","7","7","7","7","7","7","7","6","7","7","7","7","7","7","7","7","7","7","7","7","6","7","7","7","7","7","7","6","7","621383779721674752","周","466","Male","[""坏我"",""坏他"",""好我"",""好他""]","[""弱我"",""弱他"",""强我"",""强他""]","","","","","","","","{""Q01"":""5"",""Q02"":""5"",""Q03"":""5"",""Q04"":""5"",""Q05"":""5"",""Q06"":""5""}","[0,1,2,3,4,5]","[""Q01"",""Q02"",""Q03"",""Q04"",""Q05"",""Q06""]","[1083.1000003814697,1810.8999996185303,2579.1000003814697,3955.2000007629395,4619.10000038147,7563.300001144409]","[]","[1083.1000003814697,1810.8999996185303,2579.1000003814697,3955.2000007629395,4619.10000038147,5659.10000038147,6707.200000762939,7563.300001144409,8339.10000038147]","0.5","0.8","0","","","","","","","","","","","","","","","","","","","","","","",""
"15469.900001525879","","{""Q01"":""2"",""Q02"":""2"",""Q03"":""2"",""Q04"":""2"",""Q05"":""2"",""Q06"":""2"",""Q07"":""2"",""Q08"":""2""}","survey-template","7","47259","0.0-6.0","7","7","7","6","6","5","5","5","5","5","5","2","2","2","2","2","2","2","2","5","5","5","5","5","5","5","5","5","5","7","6","7","7","7","6","8","7","7","7","7","7","7","7","7","7","1","7","7","1","7","7","7","7","7","7","7","7","6","7","7","7","7","7","7","7","7","7","7","7","7","6","7","7","7","7","7","7","6","7","621383779721674752","周","466","Male","[""坏我"",""坏他"",""好我"",""好他""]","[""弱我"",""弱他"",""强我"",""强他""]","","","","","","","","{""Q01"":""2"",""Q02"":""2"",""Q03"":""2"",""Q04"":""2"",""Q05"":""2"",""Q06"":""2"",""Q07"":""2"",""Q08"":""2""}","[0,1,2,3,4,5,6,7]","[""Q01"",""Q05"",""Q06"",""Q04"",""Q03"",""Q02"",""Q08"",""Q02"",""Q07""]","[1381.2000007629395,4757.300001144409,5493.300001144409,6325,7741.5,9029.30000114441,10405.5,11269.20000076294,12989.5]","[]","[1381.2000007629395,4757.300001144409,5085.400001525879,5493.300001144409,6029.200000762939,6325,6655,7133.300001144409,7741.5,8661.20000076294,9029.30000114441,10405.5,11269.20000076294,12989.5,15469.10000038147]","1","0","0","","","","","","","","","","","","","","","","","","","","","","",""
"1557","","","instructions","8","48818","0.0-7.0","7","7","7","6","6","5","5","5","5","5","5","2","2","2","2","2","2","2","2","5","5","5","5","5","5","5","5","5","5","7","6","7","7","7","6","8","7","7","7","7","7","7","7","7","7","1","7","7","1","7","7","7","7","7","7","7","7","6","7","7","7","7","7","7","7","7","7","7","7","7","6","7","7","7","7","7","7","6","7","621383779721674752","周","466","Male","[""坏我"",""坏他"",""好我"",""好他""]","[""弱我"",""弱他"",""强我"",""强他""]","","","","","","","","","","","","","","","","","[{""page_index"":0,""viewing_time"":1557}]","","","","","","","","","","","","","","","","","","","","","",""
"117352","","","instructions","9","166170","0.0-8.0-1.0-0.0","7","7","7","6","6","5","5","5","5","5","5","2","2","2","2","2","2","2","2","5","5","5","5","5","5","5","5","5","5","7","6","7","7","7","6","8","7","7","7","7","7","7","7","7","7","1","7","7","1","7","7","7","7","7","7","7","7","6","7","7","7","7","7","7","7","7","7","7","7","7","6","7","7","7","7","7","7","6","7","621383779721674752","周","466","Male","[""坏我"",""坏他"",""好我"",""好他""]","[""弱我"",""弱他"",""强我"",""强他""]","","","","","","","","","","","","","","","","","[{""page_index"":0,""viewing_time"":43311},{""page_index"":1,""viewing_time"":72104},{""page_index"":2,""viewing_time"":1304},{""page_index"":3,""viewing_time"":632}]","","","","","","","","","","","","","","","","","","","","","",""
"965","","f","psychophysics","10","168138","0.0-8.0-1.0-1.0-0.0-0.0","7","7","7","6","6","5","5","5","5","5","5","2","2","2","2","2","2","2","2","5","5","5","5","5","5","5","5","5","5","7","6","7","7","7","6","8","7","7","7","7","7","7","7","7","7","1","7","7","1","7","7","7","7","7","7","7","7","6","7","7","7","7","7","7","7","7","7","7","7","7","6","7","7","7","7","7","7","6","7","621383779721674752","周","466","Male","[""坏我"",""坏他"",""好我"",""好他""]","[""弱我"",""弱他"",""强我"",""强他""]","","","","","","","","match","","","","","","","","","","key","f","16.651282051282152","768","428","j","false","nonmatch","img/hexagon.png","弱他","弱我","prac_ALT2_ability","practice_ability","","","","","","","","",""
"null","<span style='color:red; font-size: 70px;'>错误! </span>","null","html-keyboard-response","11","168639","0.0-8.0-1.0-1.0-0.0-1.0","7","7","7","6","6","5","5","5","5","5","5","2","2","2","2","2","2","2","2","5","5","5","5","5","5","5","5","5","5","7","6","7","7","7","6","8","7","7","7","7","7","7","7","7","7","1","7","7","1","7","7","7","7","7","7","7","7","6","7","7","7","7","7","7","7","7","7","7","7","7","6","7","7","7","7","7","7","6","7","621383779721674752","周","466","Male","[""坏我"",""坏他"",""好我"",""好他""]","[""弱我"",""弱他"",""强我"",""强他""]","","","","","","","","","","","","","","","","","","","","","","","","","","","","","","feedback_test","","","","","","","","",""
"1057","","f","psychophysics","12","170698","0.0-8.0-1.0-1.0-0.0-0.1","7","7","7","6","6","5","5","5","5","5","5","2","2","2","2","2","2","2","2","5","5","5","5","5","5","5","5","5","5","7","6","7","7","7","6","8","7","7","7","7","7","7","7","7","7","1","7","7","1","7","7","7","7","7","7","7","7","6","7","7","7","7","7","7","7","7","7","7","7","7","6","7","7","7","7","7","7","6","7","621383779721674752","周","466","Male","[""坏我"",""坏他"",""好我"",""好他""]","[""弱我"",""弱他"",""强我"",""强他""]","","","","","","","","match","","","","","","","","","","key","f","16.649999999999906","768","428","f","true","match","img/triangle.png","弱他","弱他","prac_ALT2_ability","practice_ability","","","","","","","","",""
"null","<span style='color:GreenYellow; font-size: 70px;'>正确! </span>","null","html-keyboard-response","13","171200","0.0-8.0-1.0-1.0-0.0-1.1","7","7","7","6","6","5","5","5","5","5","5","2","2","2","2","2","2","2","2","5","5","5","5","5","5","5","5","5","5","7","6","7","7","7","6","8","7","7","7","7","7","7","7","7","7","1","7","7","1","7","7","7","7","7","7","7","7","6","7","7","7","7","7","7","7","7","7","7","7","7","6","7","7","7","7","7","7","6","7","621383779721674752","周","466","Male","[""坏我"",""坏他"",""好我"",""好他""]","[""弱我"",""弱他"",""强我"",""强他""]","","","","","","","","","","","","","","","","","","","","","","","","","","","","","","feedback_test","","","","","","","","",""
"1145","","f","psychophysics","14","173347","0.0-8.0-1.0-1.0-0.0-0.2","7","7","7","6","6","5","5","5","5","5","5","2","2","2","2","2","2","2","2","5","5","5","5","5","5","5","5","5","5","7","6","7","7","7","6","8","7","7","7","7","7","7","7","7","7","1","7","7","1","7","7","7","7","7","7","7","7","6","7","7","7","7","7","7","7","7","7","7","7","7","6","7","7","7","7","7","7","6","7","621383779721674752","周","466","Male","[""坏我"",""坏他"",""好我"",""好他""]","[""弱我"",""弱他"",""强我"",""强他""]","","","","","","","","match","","","","","","","","","","key","f","16.651562499999955","768","428","f","true","match","img/circle.png","强他","强他","prac_ALT2_ability","practice_ability","","","","","","","","",""
"null","<span style='color:GreenYellow; font-size: 70px;'>正确! </span>","null","html-keyboard-response","15","173848","0.0-8.0-1.0-1.0-0.0-1.2","7","7","7","6","6","5","5","5","5","5","5","2","2","2","2","2","2","2","2","5","5","5","5","5","5","5","5","5","5","7","6","7","7","7","6","8","7","7","7","7","7","7","7","7","7","1","7","7","1","7","7","7","7","7","7","7","7","6","7","7","7","7","7","7","7","7","7","7","7","7","6","7","7","7","7","7","7","6","7","621383779721674752","周","466","Male","[""坏我"",""坏他"",""好我"",""好他""]","[""弱我"",""弱他"",""强我"",""强他""]","","","","","","","","","","","","","","","","","","","","","","","","","","","","","","feedback_test","","","","","","","","",""
"1136","","f","psychophysics","16","175987","0.0-8.0-1.0-1.0-0.0-0.3","7","7","7","6","6","5","5","5","5","5","5","2","2","2","2","2","2","2","2","5","5","5","5","5","5","5","5","5","5","7","6","7","7","7","6","8","7","7","7","7","7","7","7","7","7","1","7","7","1","7","7","7","7","7","7","7","7","6","7","7","7","7","7","7","7","7","7","7","7","7","6","7","7","7","7","7","7","6","7","621383779721674752","周","466","Male","[""坏我"",""坏他"",""好我"",""好他""]","[""弱我"",""弱他"",""强我"",""强他""]","","","","","","","","match","","","","","","","","","","key","f","16.652755905511764","768","428","f","true","match","img/hexagon.png","弱我","弱我","prac_ALT2_ability","practice_ability","","","","","","","","",""
"null","<span style='color:GreenYellow; font-size: 70px;'>正确! </span>","null","html-keyboard-response","17","176488","0.0-8.0-1.0-1.0-0.0-1.3","7","7","7","6","6","5","5","5","5","5","5","2","2","2","2","2","2","2","2","5","5","5","5","5","5","5","5","5","5","7","6","7","7","7","6","8","7","7","7","7","7","7","7","7","7","1","7","7","1","7","7","7","7","7","7","7","7","6","7","7","7","7","7","7","7","7","7","7","7","7","6","7","7","7","7","7","7","6","7","621383779721674752","周","466","Male","[""坏我"",""坏他"",""好我"",""好他""]","[""弱我"",""弱他"",""强我"",""强他""]","","","","","","","","","","","","","","","","","","","","","","","","","","","","","","feedback_test","","","","","","","","",""
"784","","f","psychophysics","18","178274","0.0-8.0-1.0-1.0-0.0-0.4","7","7","7","6","6","5","5","5","5","5","5","2","2","2","2","2","2","2","2","5","5","5","5","5","5","5","5","5","5","7","6","7","7","7","6","8","7","7","7","7","7","7","7","7","7","1","7","7","1","7","7","7","7","7","7","7","7","6","7","7","7","7","7","7","7","7","7","7","7","7","6","7","7","7","7","7","7","6","7","621383779721674752","周","466","Male","[""坏我"",""坏他"",""好我"",""好他""]","[""弱我"",""弱他"",""强我"",""强他""]","","","","","","","","match","","","","","","","","","","key","f","16.646728971962727","768","428","f","true","match","img/hexagon.png","弱我","弱我","prac_ALT2_ability","practice_ability","","","","","","","","",""
"null","<span style='color:GreenYellow; font-size: 70px;'>正确! </span>","null","html-keyboard-response","19","178775","0.0-8.0-1.0-1.0-0.0-1.4","7","7","7","6","6","5","5","5","5","5","5","2","2","2","2","2","2","2","2","5","5","5","5","5","5","5","5","5","5","7","6","7","7","7","6","8","7","7","7","7","7","7","7","7","7","1","7","7","1","7","7","7","7","7","7","7","7","6","7","7","7","7","7","7","7","7","7","7","7","7","6","7","7","7","7","7","7","6","7","621383779721674752","周","466","Male","[""坏我"",""坏他"",""好我"",""好他""]","[""弱我"",""弱他"",""强我"",""强他""]","","","","","","","","","","","","","","","","","","","","","","","","","","","","","","feedback_test","","","","","","","","",""
"1178","","f","psychophysics","20","180954","0.0-8.0-1.0-1.0-0.0-0.5","7","7","7","6","6","5","5","5","5","5","5","2","2","2","2","2","2","2","2","5","5","5","5","5","5","5","5","5","5","7","6","7","7","7","6","8","7","7","7","7","7","7","7","7","7","1","7","7","1","7","7","7","7","7","7","7","7","6","7","7","7","7","7","7","7","7","7","7","7","7","6","7","7","7","7","7","7","6","7","621383779721674752","周","466","Male","[""坏我"",""坏他"",""好我"",""好他""]","[""弱我"",""弱他"",""强我"",""强他""]","","","","","","","","match","","","","","","","","","","key","f","16.652713178294665","768","428","f","true","match","img/square.png","强我","强我","prac_ALT2_ability","practice_ability","","","","","","","","",""
"null","<span style='color:GreenYellow; font-size: 70px;'>正确! </span>","null","html-keyboard-response","21","181455","0.0-8.0-1.0-1.0-0.0-1.5","7","7","7","6","6","5","5","5","5","5","5","2","2","2","2","2","2","2","2","5","5","5","5","5","5","5","5","5","5","7","6","7","7","7","6","8","7","7","7","7","7","7","7","7","7","1","7","7","1","7","7","7","7","7","7","7","7","6","7","7","7","7","7","7","7","7","7","7","7","7","6","7","7","7","7","7","7","6","7","621383779721674752","周","466","Male","[""坏我"",""坏他"",""好我"",""好他""]","[""弱我"",""弱他"",""强我"",""强他""]","","","","","","","","","","","","","","","","","","","","","","","","","","","","","","feedback_test","","","","","","","","",""
"514","","f","psychophysics","22","182970","0.0-8.0-1.0-1.0-0.0-0.6","7","7","7","6","6","5","5","5","5","5","5","2","2","2","2","2","2","2","2","5","5","5","5","5","5","5","5","5","5","7","6","7","7","7","6","8","7","7","7","7","7","7","7","7","7","1","7","7","1","7","7","7","7","7","7","7","7","6","7","7","7","7","7","7","7","7","7","7","7","7","6","7","7","7","7","7","7","6","7","621383779721674752","周","466","Male","[""坏我"",""坏他"",""好我"",""好他""]","[""弱我"",""弱他"",""强我"",""强他""]","","","","","","","","match","","","","","","","","","","key","f","16.648314606741376","768","428","f","true","match","img/square.png","强我","强我","prac_ALT2_ability","practice_ability","","","","","","","","",""
"null","<span style='color:GreenYellow; font-size: 70px;'>正确! </span>","null","html-keyboard-response","23","183472","0.0-8.0-1.0-1.0-0.0-1.6","7","7","7","6","6","5","5","5","5","5","5","2","2","2","2","2","2","2","2","5","5","5","5","5","5","5","5","5","5","7","6","7","7","7","6","8","7","7","7","7","7","7","7","7","7","1","7","7","1","7","7","7","7","7","7","7","7","6","7","7","7","7","7","7","7","7","7","7","7","7","6","7","7","7","7","7","7","6","7","621383779721674752","周","466","Male","[""坏我"",""坏他"",""好我"",""好他""]","[""弱我"",""弱他"",""强我"",""强他""]","","","","","","","","","","","","","","","","","","","","","","","","","","","","","","feedback_test","","","","","","","","",""
"1081","","j","psychophysics","24","185554","0.0-8.0-1.0-1.0-0.0-0.7","7","7","7","6","6","5","5","5","5","5","5","2","2","2","2","2","2","2","2","5","5","5","5","5","5","5","5","5","5","7","6","7","7","7","6","8","7","7","7","7","7","7","7","7","7","1","7","7","1","7","7","7","7","7","7","7","7","6","7","7","7","7","7","7","7","7","7","7","7","7","6","7","7","7","7","7","7","6","7","621383779721674752","周","466","Male","[""坏我"",""坏他"",""好我"",""好他""]","[""弱我"",""弱他"",""强我"",""强他""]","","","","","","","","nonmatch","","","","","","","","","","key","j","16.650806451612763","768","428","f","false","match","img/circle.png","强他","强他","prac_ALT2_ability","practice_ability","","","","","","","","",""
"null","<span style='color:red; font-size: 70px;'>错误! </span>","null","html-keyboard-response","25","186055","0.0-8.0-1.0-1.0-0.0-1.7","7","7","7","6","6","5","5","5","5","5","5","2","2","2","2","2","2","2","2","5","5","5","5","5","5","5","5","5","5","7","6","7","7","7","6","8","7","7","7","7","7","7","7","7","7","1","7","7","1","7","7","7","7","7","7","7","7","6","7","7","7","7","7","7","7","7","7","7","7","7","6","7","7","7","7","7","7","6","7","621383779721674752","周","466","Male","[""坏我"",""坏他"",""好我"",""好他""]","[""弱我"",""弱他"",""强我"",""强他""]","","","","","","","","","","","","","","","","","","","","","","","","","","","","","","feedback_test","","","","","","","","",""
"905","","j","psychophysics","26","187962","0.0-8.0-1.0-1.0-0.0-0.8","7","7","7","6","6","5","5","5","5","5","5","2","2","2","2","2","2","2","2","5","5","5","5","5","5","5","5","5","5","7","6","7","7","7","6","8","7","7","7","7","7","7","7","7","7","1","7","7","1","7","7","7","7","7","7","7","7","6","7","7","7","7","7","7","7","7","7","7","7","7","6","7","7","7","7","7","7","6","7","621383779721674752","周","466","Male","[""坏我"",""坏他"",""好我"",""好他""]","[""弱我"",""弱他"",""强我"",""强他""]","","","","","","","","nonmatch","","","","","","","","","","key","j","16.650442477876105","768","428","j","true","nonmatch","img/circle.png","弱他","强他","prac_ALT2_ability","practice_ability","","","","","","","","",""
"null","<span style='color:GreenYellow; font-size: 70px;'>正确! </span>","null","html-keyboard-response","27","188463","0.0-8.0-1.0-1.0-0.0-1.8","7","7","7","6","6","5","5","5","5","5","5","2","2","2","2","2","2","2","2","5","5","5","5","5","5","5","5","5","5","7","6","7","7","7","6","8","7","7","7","7","7","7","7","7","7","1","7","7","1","7","7","7","7","7","7","7","7","6","7","7","7","7","7","7","7","7","7","7","7","7","6","7","7","7","7","7","7","6","7","621383779721674752","周","466","Male","[""坏我"",""坏他"",""好我"",""好他""]","[""弱我"",""弱他"",""强我"",""强他""]","","","","","","","","","","","","","","","","","","","","","","","","","","","","","","feedback_test","","","","","","","","",""
"546","","f","psychophysics","28","190011","0.0-8.0-1.0-1.0-0.0-0.9","7","7","7","6","6","5","5","5","5","5","5","2","2","2","2","2","2","2","2","5","5","5","5","5","5","5","5","5","5","7","6","7","7","7","6","8","7","7","7","7","7","7","7","7","7","1","7","7","1","7","7","7","7","7","7","7","7","6","7","7","7","7","7","7","7","7","7","7","7","7","6","7","7","7","7","7","7","6","7","621383779721674752","周","466","Male","[""坏我"",""坏他"",""好我"",""好他""]","[""弱我"",""弱他"",""强我"",""强他""]","","","","","","","","match","","","","","","","","","","key","f","16.65326086956528","768","428","f","true","match","img/circle.png","强他","强他","prac_ALT2_ability","practice_ability","","","","","","","","",""
"null","<span style='color:GreenYellow; font-size: 70px;'>正确! </span>","null","html-keyboard-response","29","190511","0.0-8.0-1.0-1.0-0.0-1.9","7","7","7","6","6","5","5","5","5","5","5","2","2","2","2","2","2","2","2","5","5","5","5","5","5","5","5","5","5","7","6","7","7","7","6","8","7","7","7","7","7","7","7","7","7","1","7","7","1","7","7","7","7","7","7","7","7","6","7","7","7","7","7","7","7","7","7","7","7","7","6","7","7","7","7","7","7","6","7","621383779721674752","周","466","Male","[""坏我"",""坏他"",""好我"",""好他""]","[""弱我"",""弱他"",""强我"",""强他""]","","","","","","","","","","","","","","","","","","","","","","","","","","","","","","feedback_test","","","","","","","","",""
"625","","j","psychophysics","30","192138","0.0-8.0-1.0-1.0-0.0-0.10","7","7","7","6","6","5","5","5","5","5","5","2","2","2","2","2","2","2","2","5","5","5","5","5","5","5","5","5","5","7","6","7","7","7","6","8","7","7","7","7","7","7","7","7","7","1","7","7","1","7","7","7","7","7","7","7","7","6","7","7","7","7","7","7","7","7","7","7","7","7","6","7","7","7","7","7","7","6","7","621383779721674752","周","466","Male","[""坏我"",""坏他"",""好我"",""好他""]","[""弱我"",""弱他"",""强我"",""强他""]","","","","","","","","nonmatch","","","","","","","","","","key","j","16.651546391752696","768","428","j","true","nonmatch","img/square.png","强他","强我","prac_ALT2_ability","practice_ability","","","","","","","","",""
"null","<span style='color:GreenYellow; font-size: 70px;'>正确! </span>","null","html-keyboard-response","31","192640","0.0-8.0-1.0-1.0-0.0-1.10","7","7","7","6","6","5","5","5","5","5","5","2","2","2","2","2","2","2","2","5","5","5","5","5","5","5","5","5","5","7","6","7","7","7","6","8","7","7","7","7","7","7","7","7","7","1","7","7","1","7","7","7","7","7","7","7","7","6","7","7","7","7","7","7","7","7","7","7","7","7","6","7","7","7","7","7","7","6","7","621383779721674752","周","466","Male","[""坏我"",""坏他"",""好我"",""好他""]","[""弱我"",""弱他"",""强我"",""强他""]","","","","","","","","","","","","","","","","","","","","","","","","","","","","","","feedback_test","","","","","","","","",""
"913","","f","psychophysics","32","194554","0.0-8.0-1.0-1.0-0.0-0.11","7","7","7","6","6","5","5","5","5","5","5","2","2","2","2","2","2","2","2","5","5","5","5","5","5","5","5","5","5","7","6","7","7","7","6","8","7","7","7","7","7","7","7","7","7","1","7","7","1","7","7","7","7","7","7","7","7","6","7","7","7","7","7","7","7","7","7","7","7","7","6","7","7","7","7","7","7","6","7","621383779721674752","周","466","Male","[""坏我"",""坏他"",""好我"",""好他""]","[""弱我"",""弱他"",""强我"",""强他""]","","","","","","","","match","","","","","","","","","","key","f","16.650877192982303","768","428","j","false","nonmatch","img/triangle.png","弱我","弱他","prac_ALT2_ability","practice_ability","","","","","","","","",""
"null","<span style='color:red; font-size: 70px;'>错误! </span>","null","html-keyboard-response","33","195056","0.0-8.0-1.0-1.0-0.0-1.11","7","7","7","6","6","5","5","5","5","5","5","2","2","2","2","2","2","2","2","5","5","5","5","5","5","5","5","5","5","7","6","7","7","7","6","8","7","7","7","7","7","7","7","7","7","1","7","7","1","7","7","7","7","7","7","7","7","6","7","7","7","7","7","7","7","7","7","7","7","7","6","7","7","7","7","7","7","6","7","621383779721674752","周","466","Male","[""坏我"",""坏他"",""好我"",""好他""]","[""弱我"",""弱他"",""强我"",""强他""]","","","","","","","","","","","","","","","","","","","","","","","","","","","","","","feedback_test","","","","","","","","",""
"986","","j","psychophysics","34","197043","0.0-8.0-1.0-1.0-0.0-0.12","7","7","7","6","6","5","5","5","5","5","5","2","2","2","2","2","2","2","2","5","5","5","5","5","5","5","5","5","5","7","6","7","7","7","6","8","7","7","7","7","7","7","7","7","7","1","7","7","1","7","7","7","7","7","7","7","7","6","7","7","7","7","7","7","7","7","7","7","7","7","6","7","7","7","7","7","7","6","7","621383779721674752","周","466","Male","[""坏我"",""坏他"",""好我"",""好他""]","[""弱我"",""弱他"",""强我"",""强他""]","","","","","","","","nonmatch","","","","","","","","","","key","j","16.653781512604944","768","428","j","true","nonmatch","img/square.png","弱他","强我","prac_ALT2_ability","practice_ability","","","","","","","","",""
"null","<span style='color:GreenYellow; font-size: 70px;'>正确! </span>","null","html-keyboard-response","35","197545","0.0-8.0-1.0-1.0-0.0-1.12","7","7","7","6","6","5","5","5","5","5","5","2","2","2","2","2","2","2","2","5","5","5","5","5","5","5","5","5","5","7","6","7","7","7","6","8","7","7","7","7","7","7","7","7","7","1","7","7","1","7","7","7","7","7","7","7","7","6","7","7","7","7","7","7","7","7","7","7","7","7","6","7","7","7","7","7","7","6","7","621383779721674752","周","466","Male","[""坏我"",""坏他"",""好我"",""好他""]","[""弱我"",""弱他"",""强我"",""强他""]","","","","","","","","","","","","","","","","","","","","","","","","","","","","","","feedback_test","","","","","","","","",""
"832","","f","psychophysics","36","199379","0.0-8.0-1.0-1.0-0.0-0.13","7","7","7","6","6","5","5","5","5","5","5","2","2","2","2","2","2","2","2","5","5","5","5","5","5","5","5","5","5","7","6","7","7","7","6","8","7","7","7","7","7","7","7","7","7","1","7","7","1","7","7","7","7","7","7","7","7","6","7","7","7","7","7","7","7","7","7","7","7","7","6","7","7","7","7","7","7","6","7","621383779721674752","周","466","Male","[""坏我"",""坏他"",""好我"",""好他""]","[""弱我"",""弱他"",""强我"",""强他""]","","","","","","","","match","","","","","","","","","","key","f","16.64862385321085","768","428","f","true","match","img/hexagon.png","弱我","弱我","prac_ALT2_ability","practice_ability","","","","","","","","",""
"null","<span style='color:GreenYellow; font-size: 70px;'>正确! </span>","null","html-keyboard-response","37","199879","0.0-8.0-1.0-1.0-0.0-1.13","7","7","7","6","6","5","5","5","5","5","5","2","2","2","2","2","2","2","2","5","5","5","5","5","5","5","5","5","5","7","6","7","7","7","6","8","7","7","7","7","7","7","7","7","7","1","7","7","1","7","7","7","7","7","7","7","7","6","7","7","7","7","7","7","7","7","7","7","7","7","6","7","7","7","7","7","7","6","7","621383779721674752","周","466","Male","[""坏我"",""坏他"",""好我"",""好他""]","[""弱我"",""弱他"",""强我"",""强他""]","","","","","","","","","","","","","","","","","","","","","","","","","","","","","","feedback_test","","","","","","","","",""
"1002","","f","psychophysics","38","201883","0.0-8.0-1.0-1.0-0.0-0.14","7","7","7","6","6","5","5","5","5","5","5","2","2","2","2","2","2","2","2","5","5","5","5","5","5","5","5","5","5","7","6","7","7","7","6","8","7","7","7","7","7","7","7","7","7","1","7","7","1","7","7","7","7","7","7","7","7","6","7","7","7","7","7","7","7","7","7","7","7","7","6","7","7","7","7","7","7","6","7","621383779721674752","周","466","Male","[""坏我"",""坏他"",""好我"",""好他""]","[""弱我"",""弱他"",""强我"",""强他""]","","","","","","","","match","","","","","","","","","","key","f","16.64873949579817","768","428","f","true","match","img/triangle.png","弱他","弱他","prac_ALT2_ability","practice_ability","","","","","","","","",""
"null","<span style='color:GreenYellow; font-size: 70px;'>正确! </span>","null","html-keyboard-response","39","202384","0.0-8.0-1.0-1.0-0.0-1.14","7","7","7","6","6","5","5","5","5","5","5","2","2","2","2","2","2","2","2","5","5","5","5","5","5","5","5","5","5","7","6","7","7","7","6","8","7","7","7","7","7","7","7","7","7","1","7","7","1","7","7","7","7","7","7","7","7","6","7","7","7","7","7","7","7","7","7","7","7","7","6","7","7","7","7","7","7","6","7","621383779721674752","周","466","Male","[""坏我"",""坏他"",""好我"",""好他""]","[""弱我"",""弱他"",""强我"",""强他""]","","","","","","","","","","","","","","","","","","","","","","","","","","","","","","feedback_test","","","","","","","","",""
"969","","f","psychophysics","40","204355","0.0-8.0-1.0-1.0-0.0-0.15","7","7","7","6","6","5","5","5","5","5","5","2","2","2","2","2","2","2","2","5","5","5","5","5","5","5","5","5","5","7","6","7","7","7","6","8","7","7","7","7","7","7","7","7","7","1","7","7","1","7","7","7","7","7","7","7","7","6","7","7","7","7","7","7","7","7","7","7","7","7","6","7","7","7","7","7","7","6","7","621383779721674752","周","466","Male","[""坏我"",""坏他"",""好我"",""好他""]","[""弱我"",""弱他"",""强我"",""强他""]","","","","","","","","match","","","","","","","","","","key","f","16.64017094017089","768","428","f","true","match","img/square.png","强我","强我","prac_ALT2_ability","practice_ability","","","","","","","","",""
"null","<span style='color:GreenYellow; font-size: 70px;'>正确! </span>","null","html-keyboard-response","41","204856","0.0-8.0-1.0-1.0-0.0-1.15","7","7","7","6","6","5","5","5","5","5","5","2","2","2","2","2","2","2","2","5","5","5","5","5","5","5","5","5","5","7","6","7","7","7","6","8","7","7","7","7","7","7","7","7","7","1","7","7","1","7","7","7","7","7","7","7","7","6","7","7","7","7","7","7","7","7","7","7","7","7","6","7","7","7","7","7","7","6","7","621383779721674752","周","466","Male","[""坏我"",""坏他"",""好我"",""好他""]","[""弱我"",""弱他"",""强我"",""强他""]","","","","","","","","","","","","","","","","","","","","","","","","","","","","","","feedback_test","","","","","","","","",""
"762","","j","psychophysics","42","206619","0.0-8.0-1.0-1.0-0.0-0.16","7","7","7","6","6","5","5","5","5","5","5","2","2","2","2","2","2","2","2","5","5","5","5","5","5","5","5","5","5","7","6","7","7","7","6","8","7","7","7","7","7","7","7","7","7","1","7","7","1","7","7","7","7","7","7","7","7","6","7","7","7","7","7","7","7","7","7","7","7","7","6","7","7","7","7","7","7","6","7","621383779721674752","周","466","Male","[""坏我"",""坏他"",""好我"",""好他""]","[""弱我"",""弱他"",""强我"",""强他""]","","","","","","","","nonmatch","","","","","","","","","","key","j","16.651428571428514","768","428","j","true","nonmatch","img/triangle.png","强我","弱他","prac_ALT2_ability","practice_ability","","","","","","","","",""
"null","<span style='color:GreenYellow; font-size: 70px;'>正确! </span>","null","html-keyboard-response","43","207121","0.0-8.0-1.0-1.0-0.0-1.16","7","7","7","6","6","5","5","5","5","5","5","2","2","2","2","2","2","2","2","5","5","5","5","5","5","5","5","5","5","7","6","7","7","7","6","8","7","7","7","7","7","7","7","7","7","1","7","7","1","7","7","7","7","7","7","7","7","6","7","7","7","7","7","7","7","7","7","7","7","7","6","7","7","7","7","7","7","6","7","621383779721674752","周","466","Male","[""坏我"",""坏他"",""好我"",""好他""]","[""弱我"",""弱他"",""强我"",""强他""]","","","","","","","","","","","","","","","","","","","","","","","","","","","","","","feedback_test","","","","","","","","",""
"1009","","f","psychophysics","44","209131","0.0-8.0-1.0-1.0-0.0-0.17","7","7","7","6","6","5","5","5","5","5","5","2","2","2","2","2","2","2","2","5","5","5","5","5","5","5","5","5","5","7","6","7","7","7","6","8","7","7","7","7","7","7","7","7","7","1","7","7","1","7","7","7","7","7","7","7","7","6","7","7","7","7","7","7","7","7","7","7","7","7","6","7","7","7","7","7","7","6","7","621383779721674752","周","466","Male","[""坏我"",""坏他"",""好我"",""好他""]","[""弱我"",""弱他"",""强我"",""强他""]","","","","","","","","match","","","","","","","","","","key","f","16.65083333333338","768","428","j","false","nonmatch","img/circle.png","弱我","强他","prac_ALT2_ability","practice_ability","","","","","","","","",""
"null","<span style='color:red; font-size: 70px;'>错误! </span>","null","html-keyboard-response","45","209634","0.0-8.0-1.0-1.0-0.0-1.17","7","7","7","6","6","5","5","5","5","5","5","2","2","2","2","2","2","2","2","5","5","5","5","5","5","5","5","5","5","7","6","7","7","7","6","8","7","7","7","7","7","7","7","7","7","1","7","7","1","7","7","7","7","7","7","7","7","6","7","7","7","7","7","7","7","7","7","7","7","7","6","7","7","7","7","7","7","6","7","621383779721674752","周","466","Male","[""坏我"",""坏他"",""好我"",""好他""]","[""弱我"",""弱他"",""强我"",""强他""]","","","","","","","","","","","","","","","","","","","","","","","","","","","","","","feedback_test","","","","","","","","",""
"1007","","j","psychophysics","46","211644","0.0-8.0-1.0-1.0-0.0-0.18","7","7","7","6","6","5","5","5","5","5","5","2","2","2","2","2","2","2","2","5","5","5","5","5","5","5","5","5","5","7","6","7","7","7","6","8","7","7","7","7","7","7","7","7","7","1","7","7","1","7","7","7","7","7","7","7","7","6","7","7","7","7","7","7","7","7","7","7","7","7","6","7","7","7","7","7","7","6","7","621383779721674752","周","466","Male","[""坏我"",""坏他"",""好我"",""好他""]","[""弱我"",""弱他"",""强我"",""强他""]","","","","","","","","nonmatch","","","","","","","","","","key","j","16.648739495798416","768","428","j","true","nonmatch","img/square.png","弱我","强我","prac_ALT2_ability","practice_ability","","","","","","","","",""
"null","<span style='color:GreenYellow; font-size: 70px;'>正确! </span>","null","html-keyboard-response","47","212144","0.0-8.0-1.0-1.0-0.0-1.18","7","7","7","6","6","5","5","5","5","5","5","2","2","2","2","2","2","2","2","5","5","5","5","5","5","5","5","5","5","7","6","7","7","7","6","8","7","7","7","7","7","7","7","7","7","1","7","7","1","7","7","7","7","7","7","7","7","6","7","7","7","7","7","7","7","7","7","7","7","7","6","7","7","7","7","7","7","6","7","621383779721674752","周","466","Male","[""坏我"",""坏他"",""好我"",""好他""]","[""弱我"",""弱他"",""强我"",""强他""]","","","","","","","","","","","","","","","","","","","","","","","","","","","","","","feedback_test","","","","","","","","",""
"844","","f","psychophysics","48","213988","0.0-8.0-1.0-1.0-0.0-0.19","7","7","7","6","6","5","5","5","5","5","5","2","2","2","2","2","2","2","2","5","5","5","5","5","5","5","5","5","5","7","6","7","7","7","6","8","7","7","7","7","7","7","7","7","7","1","7","7","1","7","7","7","7","7","7","7","7","6","7","7","7","7","7","7","7","7","7","7","7","7","6","7","7","7","7","7","7","6","7","621383779721674752","周","466","Male","[""坏我"",""坏他"",""好我"",""好他""]","[""弱我"",""弱他"",""强我"",""强他""]","","","","","","","","match","","","","","","","","","","key","f","16.650458715596276","768","428","j","false","nonmatch","img/hexagon.png","强我","弱我","prac_ALT2_ability","practice_ability","","","","","","","","",""
"null","<span style='color:red; font-size: 70px;'>错误! </span>","null","html-keyboard-response","49","214489","0.0-8.0-1.0-1.0-0.0-1.19","7","7","7","6","6","5","5","5","5","5","5","2","2","2","2","2","2","2","2","5","5","5","5","5","5","5","5","5","5","7","6","7","7","7","6","8","7","7","7","7","7","7","7","7","7","1","7","7","1","7","7","7","7","7","7","7","7","6","7","7","7","7","7","7","7","7","7","7","7","7","6","7","7","7","7","7","7","6","7","621383779721674752","周","466","Male","[""坏我"",""坏他"",""好我"",""好他""]","[""弱我"",""弱他"",""强我"",""强他""]","","","","","","","","","","","","","","","","","","","","","","","","","","","","","","feedback_test","","","","","","","","",""
"880","","j","psychophysics","50","216371","0.0-8.0-1.0-1.0-0.0-0.20","7","7","7","6","6","5","5","5","5","5","5","2","2","2","2","2","2","2","2","5","5","5","5","5","5","5","5","5","5","7","6","7","7","7","6","8","7","7","7","7","7","7","7","7","7","1","7","7","1","7","7","7","7","7","7","7","7","6","7","7","7","7","7","7","7","7","7","7","7","7","6","7","7","7","7","7","7","6","7","621383779721674752","周","466","Male","[""坏我"",""坏他"",""好我"",""好他""]","[""弱我"",""弱他"",""强我"",""强他""]","","","","","","","","nonmatch","","","","","","","","","","key","j","16.651785714285715","768","428","j","true","nonmatch","img/circle.png","强我","强他","prac_ALT2_ability","practice_ability","","","","","","","","",""
"null","<span style='color:GreenYellow; font-size: 70px;'>正确! </span>","null","html-keyboard-response","51","216872","0.0-8.0-1.0-1.0-0.0-1.20","7","7","7","6","6","5","5","5","5","5","5","2","2","2","2","2","2","2","2","5","5","5","5","5","5","5","5","5","5","7","6","7","7","7","6","8","7","7","7","7","7","7","7","7","7","1","7","7","1","7","7","7","7","7","7","7","7","6","7","7","7","7","7","7","7","7","7","7","7","7","6","7","7","7","7","7","7","6","7","621383779721674752","周","466","Male","[""坏我"",""坏他"",""好我"",""好他""]","[""弱我"",""弱他"",""强我"",""强他""]","","","","","","","","","","","","","","","","","","","","","","","","","","","","","","feedback_test","","","","","","","","",""
"865","","j","psychophysics","52","218739","0.0-8.0-1.0-1.0-0.0-0.21","7","7","7","6","6","5","5","5","5","5","5","2","2","2","2","2","2","2","2","5","5","5","5","5","5","5","5","5","5","7","6","7","7","7","6","8","7","7","7","7","7","7","7","7","7","1","7","7","1","7","7","7","7","7","7","7","7","6","7","7","7","7","7","7","7","7","7","7","7","7","6","7","7","7","7","7","7","6","7","621383779721674752","周","466","Male","[""坏我"",""坏他"",""好我"",""好他""]","[""弱我"",""弱他"",""强我"",""强他""]","","","","","","","","nonmatch","","","","","","","","","","key","j","16.64594594594605","768","428","j","true","nonmatch","img/triangle.png","强他","弱他","prac_ALT2_ability","practice_ability","","","","","","","","",""
"null","<span style='color:GreenYellow; font-size: 70px;'>正确! </span>","null","html-keyboard-response","53","219239","0.0-8.0-1.0-1.0-0.0-1.21","7","7","7","6","6","5","5","5","5","5","5","2","2","2","2","2","2","2","2","5","5","5","5","5","5","5","5","5","5","7","6","7","7","7","6","8","7","7","7","7","7","7","7","7","7","1","7","7","1","7","7","7","7","7","7","7","7","6","7","7","7","7","7","7","7","7","7","7","7","7","6","7","7","7","7","7","7","6","7","621383779721674752","周","466","Male","[""坏我"",""坏他"",""好我"",""好他""]","[""弱我"",""弱他"",""强我"",""强他""]","","","","","","","","","","","","","","","","","","","","","","","","","","","","","","feedback_test","","","","","","","","",""
"723","","f","psychophysics","54","220964","0.0-8.0-1.0-1.0-0.0-0.22","7","7","7","6","6","5","5","5","5","5","5","2","2","2","2","2","2","2","2","5","5","5","5","5","5","5","5","5","5","7","6","7","7","7","6","8","7","7","7","7","7","7","7","7","7","1","7","7","1","7","7","7","7","7","7","7","7","6","7","7","7","7","7","7","7","7","7","7","7","7","6","7","7","7","7","7","7","6","7","621383779721674752","周","466","Male","[""坏我"",""坏他"",""好我"",""好他""]","[""弱我"",""弱他"",""强我"",""强他""]","","","","","","","","match","","","","","","","","","","key","f","16.64901960784325","768","428","j","false","nonmatch","img/hexagon.png","强他","弱我","prac_ALT2_ability","practice_ability","","","","","","","","",""
"null","<span style='color:red; font-size: 70px;'>错误! </span>","null","html-keyboard-response","55","221464","0.0-8.0-1.0-1.0-0.0-1.22","7","7","7","6","6","5","5","5","5","5","5","2","2","2","2","2","2","2","2","5","5","5","5","5","5","5","5","5","5","7","6","7","7","7","6","8","7","7","7","7","7","7","7","7","7","1","7","7","1","7","7","7","7","7","7","7","7","6","7","7","7","7","7","7","7","7","7","7","7","7","6","7","7","7","7","7","7","6","7","621383779721674752","周","466","Male","[""坏我"",""坏他"",""好我"",""好他""]","[""弱我"",""弱他"",""强我"",""强他""]","","","","","","","","","","","","","","","","","","","","","","","","","","","","","","feedback_test","","","","","","","","",""
"656","","f","psychophysics","56","223123","0.0-8.0-1.0-1.0-0.0-0.23","7","7","7","6","6","5","5","5","5","5","5","2","2","2","2","2","2","2","2","5","5","5","5","5","5","5","5","5","5","7","6","7","7","7","6","8","7","7","7","7","7","7","7","7","7","1","7","7","1","7","7","7","7","7","7","7","7","6","7","7","7","7","7","7","7","7","7","7","7","7","6","7","7","7","7","7","7","6","7","621383779721674752","周","466","Male","[""坏我"",""坏他"",""好我"",""好他""]","[""弱我"",""弱他"",""强我"",""强他""]","","","","","","","","match","","","","","","","","","","key","f","16.651515151515152","768","428","f","true","match","img/triangle.png","弱他","弱他","prac_ALT2_ability","practice_ability","","","","","","","","",""
"null","<span style='color:GreenYellow; font-size: 70px;'>正确! </span>","null","html-keyboard-response","57","223624","0.0-8.0-1.0-1.0-0.0-1.23","7","7","7","6","6","5","5","5","5","5","5","2","2","2","2","2","2","2","2","5","5","5","5","5","5","5","5","5","5","7","6","7","7","7","6","8","7","7","7","7","7","7","7","7","7","1","7","7","1","7","7","7","7","7","7","7","7","6","7","7","7","7","7","7","7","7","7","7","7","7","6","7","7","7","7","7","7","6","7","621383779721674752","周","466","Male","[""坏我"",""坏他"",""好我"",""好他""]","[""弱我"",""弱他"",""强我"",""强他""]","","","","","","","","","","","","","","","","","","","","","","","","","","","","","","feedback_test","","","","","","","","",""
"897","","j","psychophysics","58","225523","0.0-8.0-1.0-1.0-0.0-0.24","7","7","7","6","6","5","5","5","5","5","5","2","2","2","2","2","2","2","2","5","5","5","5","5","5","5","5","5","5","7","6","7","7","7","6","8","7","7","7","7","7","7","7","7","7","1","7","7","1","7","7","7","7","7","7","7","7","6","7","7","7","7","7","7","7","7","7","7","7","7","6","7","7","7","7","7","7","6","7","621383779721674752","周","466","Male","[""坏我"",""坏他"",""好我"",""好他""]","[""弱我"",""弱他"",""强我"",""强他""]","","","","","","","","nonmatch","","","","","","","","","","key","j","16.652212389380633","768","428","f","false","match","img/hexagon.png","弱我","弱我","prac_ALT2_ability","practice_ability","","","","","","","","",""
"null","<span style='color:red; font-size: 70px;'>错误! </span>","null","html-keyboard-response","59","226024","0.0-8.0-1.0-1.0-0.0-1.24","7","7","7","6","6","5","5","5","5","5","5","2","2","2","2","2","2","2","2","5","5","5","5","5","5","5","5","5","5","7","6","7","7","7","6","8","7","7","7","7","7","7","7","7","7","1","7","7","1","7","7","7","7","7","7","7","7","6","7","7","7","7","7","7","7","7","7","7","7","7","6","7","7","7","7","7","7","6","7","621383779721674752","周","466","Male","[""坏我"",""坏他"",""好我"",""好他""]","[""弱我"",""弱他"",""强我"",""强他""]","","","","","","","","","","","","","","","","","","","","","","","","","","","","","","feedback_test","","","","","","","","",""
"1042","","j","psychophysics","60","228067","0.0-8.0-1.0-1.0-0.0-0.25","7","7","7","6","6","5","5","5","5","5","5","2","2","2","2","2","2","2","2","5","5","5","5","5","5","5","5","5","5","7","6","7","7","7","6","8","7","7","7","7","7","7","7","7","7","1","7","7","1","7","7","7","7","7","7","7","7","6","7","7","7","7","7","7","7","7","7","7","7","7","6","7","7","7","7","7","7","6","7","621383779721674752","周","466","Male","[""坏我"",""坏他"",""好我"",""好他""]","[""弱我"",""弱他"",""强我"",""强他""]","","","","","","","","nonmatch","","","","","","","","","","key","j","16.653278688524686","768","428","j","true","nonmatch","img/triangle.png","强我","弱他","prac_ALT2_ability","practice_ability","","","","","","","","",""
"null","<span style='color:GreenYellow; font-size: 70px;'>正确! </span>","null","html-keyboard-response","61","228569","0.0-8.0-1.0-1.0-0.0-1.25","7","7","7","6","6","5","5","5","5","5","5","2","2","2","2","2","2","2","2","5","5","5","5","5","5","5","5","5","5","7","6","7","7","7","6","8","7","7","7","7","7","7","7","7","7","1","7","7","1","7","7","7","7","7","7","7","7","6","7","7","7","7","7","7","7","7","7","7","7","7","6","7","7","7","7","7","7","6","7","621383779721674752","周","466","Male","[""坏我"",""坏他"",""好我"",""好他""]","[""弱我"",""弱他"",""强我"",""强他""]","","","","","","","","","","","","","","","","","","","","","","","","","","","","","","feedback_test","","","","","","","","",""
"712","","f","psychophysics","62","230283","0.0-8.0-1.0-1.0-0.0-0.26","7","7","7","6","6","5","5","5","5","5","5","2","2","2","2","2","2","2","2","5","5","5","5","5","5","5","5","5","5","7","6","7","7","7","6","8","7","7","7","7","7","7","7","7","7","1","7","7","1","7","7","7","7","7","7","7","7","6","7","7","7","7","7","7","7","7","7","7","7","7","6","7","7","7","7","7","7","6","7","621383779721674752","周","466","Male","[""坏我"",""坏他"",""好我"",""好他""]","[""弱我"",""弱他"",""强我"",""强他""]","","","","","","","","match","","","","","","","","","","key","f","16.64607843137249","768","428","f","true","match","img/square.png","强我","强我","prac_ALT2_ability","practice_ability","","","","","","","","",""
"null","<span style='color:GreenYellow; font-size: 70px;'>正确! </span>","null","html-keyboard-response","63","230784","0.0-8.0-1.0-1.0-0.0-1.26","7","7","7","6","6","5","5","5","5","5","5","2","2","2","2","2","2","2","2","5","5","5","5","5","5","5","5","5","5","7","6","7","7","7","6","8","7","7","7","7","7","7","7","7","7","1","7","7","1","7","7","7","7","7","7","7","7","6","7","7","7","7","7","7","7","7","7","7","7","7","6","7","7","7","7","7","7","6","7","621383779721674752","周","466","Male","[""坏我"",""坏他"",""好我"",""好他""]","[""弱我"",""弱他"",""强我"",""强他""]","","","","","","","","","","","","","","","","","","","","","","","","","","","","","","feedback_test","","","","","","","","",""
"969","","f","psychophysics","64","232755","0.0-8.0-1.0-1.0-0.0-0.27","7","7","7","6","6","5","5","5","5","5","5","2","2","2","2","2","2","2","2","5","5","5","5","5","5","5","5","5","5","7","6","7","7","7","6","8","7","7","7","7","7","7","7","7","7","1","7","7","1","7","7","7","7","7","7","7","7","6","7","7","7","7","7","7","7","7","7","7","7","7","6","7","7","7","7","7","7","6","7","621383779721674752","周","466","Male","[""坏我"",""坏他"",""好我"",""好他""]","[""弱我"",""弱他"",""强我"",""强他""]","","","","","","","","match","","","","","","","","","","key","f","16.6504273504274","768","428","f","true","match","img/circle.png","强他","强他","prac_ALT2_ability","practice_ability","","","","","","","","",""
"null","<span style='color:GreenYellow; font-size: 70px;'>正确! </span>","null","html-keyboard-response","65","233256","0.0-8.0-1.0-1.0-0.0-1.27","7","7","7","6","6","5","5","5","5","5","5","2","2","2","2","2","2","2","2","5","5","5","5","5","5","5","5","5","5","7","6","7","7","7","6","8","7","7","7","7","7","7","7","7","7","1","7","7","1","7","7","7","7","7","7","7","7","6","7","7","7","7","7","7","7","7","7","7","7","7","6","7","7","7","7","7","7","6","7","621383779721674752","周","466","Male","[""坏我"",""坏他"",""好我"",""好他""]","[""弱我"",""弱他"",""强我"",""强他""]","","","","","","","","","","","","","","","","","","","","","","","","","","","","","","feedback_test","","","","","","","","",""
"666","","f","psychophysics","66","234923","0.0-8.0-1.0-1.0-0.0-0.28","7","7","7","6","6","5","5","5","5","5","5","2","2","2","2","2","2","2","2","5","5","5","5","5","5","5","5","5","5","7","6","7","7","7","6","8","7","7","7","7","7","7","7","7","7","1","7","7","1","7","7","7","7","7","7","7","7","6","7","7","7","7","7","7","7","7","7","7","7","7","6","7","7","7","7","7","7","6","7","621383779721674752","周","466","Male","[""坏我"",""坏他"",""好我"",""好他""]","[""弱我"",""弱他"",""强我"",""强他""]","","","","","","","","match","","","","","","","","","","key","f","16.646938775510144","768","428","f","true","match","img/triangle.png","弱他","弱他","prac_ALT2_ability","practice_ability","","","","","","","","",""
"null","<span style='color:GreenYellow; font-size: 70px;'>正确! </span>","null","html-keyboard-response","67","235425","0.0-8.0-1.0-1.0-0.0-1.28","7","7","7","6","6","5","5","5","5","5","5","2","2","2","2","2","2","2","2","5","5","5","5","5","5","5","5","5","5","7","6","7","7","7","6","8","7","7","7","7","7","7","7","7","7","1","7","7","1","7","7","7","7","7","7","7","7","6","7","7","7","7","7","7","7","7","7","7","7","7","6","7","7","7","7","7","7","6","7","621383779721674752","周","466","Male","[""坏我"",""坏他"",""好我"",""好他""]","[""弱我"",""弱他"",""强我"",""强他""]","","","","","","","","","","","","","","","","","","","","","","","","","","","","","","feedback_test","","","","","","","","",""
"832","","j","psychophysics","68","237259","0.0-8.0-1.0-1.0-0.0-0.29","7","7","7","6","6","5","5","5","5","5","5","2","2","2","2","2","2","2","2","5","5","5","5","5","5","5","5","5","5","7","6","7","7","7","6","8","7","7","7","7","7","7","7","7","7","1","7","7","1","7","7","7","7","7","7","7","7","6","7","7","7","7","7","7","7","7","7","7","7","7","6","7","7","7","7","7","7","6","7","621383779721674752","周","466","Male","[""坏我"",""坏他"",""好我"",""好他""]","[""弱我"",""弱他"",""强我"",""强他""]","","","","","","","","nonmatch","","","","","","","","","","key","j","16.64862385321085","768","428","j","true","nonmatch","img/hexagon.png","强我","弱我","prac_ALT2_ability","practice_ability","","","","","","","","",""
"null","<span style='color:GreenYellow; font-size: 70px;'>正确! </span>","null","html-keyboard-response","69","237761","0.0-8.0-1.0-1.0-0.0-1.29","7","7","7","6","6","5","5","5","5","5","5","2","2","2","2","2","2","2","2","5","5","5","5","5","5","5","5","5","5","7","6","7","7","7","6","8","7","7","7","7","7","7","7","7","7","1","7","7","1","7","7","7","7","7","7","7","7","6","7","7","7","7","7","7","7","7","7","7","7","7","6","7","7","7","7","7","7","6","7","621383779721674752","周","466","Male","[""坏我"",""坏他"",""好我"",""好他""]","[""弱我"",""弱他"",""强我"",""强他""]","","","","","","","","","","","","","","","","","","","","","","","","","","","","","","feedback_test","","","","","","","","",""
"1097","","j","psychophysics","70","239859","0.0-8.0-1.0-1.0-0.0-0.30","7","7","7","6","6","5","5","5","5","5","5","2","2","2","2","2","2","2","2","5","5","5","5","5","5","5","5","5","5","7","6","7","7","7","6","8","7","7","7","7","7","7","7","7","7","1","7","7","1","7","7","7","7","7","7","7","7","6","7","7","7","7","7","7","7","7","7","7","7","7","6","7","7","7","7","7","7","6","7","621383779721674752","周","466","Male","[""坏我"",""坏他"",""好我"",""好他""]","[""弱我"",""弱他"",""强我"",""强他""]","","","","","","","","nonmatch","","","","","","","","","","key","j","16.651200000000188","768","428","j","true","nonmatch","img/circle.png","强我","强他","prac_ALT2_ability","practice_ability","","","","","","","","",""
"null","<span style='color:GreenYellow; font-size: 70px;'>正确! </span>","null","html-keyboard-response","71","240360","0.0-8.0-1.0-1.0-0.0-1.30","7","7","7","6","6","5","5","5","5","5","5","2","2","2","2","2","2","2","2","5","5","5","5","5","5","5","5","5","5","7","6","7","7","7","6","8","7","7","7","7","7","7","7","7","7","1","7","7","1","7","7","7","7","7","7","7","7","6","7","7","7","7","7","7","7","7","7","7","7","7","6","7","7","7","7","7","7","6","7","621383779721674752","周","466","Male","[""坏我"",""坏他"",""好我"",""好他""]","[""弱我"",""弱他"",""强我"",""强他""]","","","","","","","","","","","","","","","","","","","","","","","","","","","","","","feedback_test","","","","","","","","",""
"858","","j","psychophysics","72","242219","0.0-8.0-1.0-1.0-0.0-0.31","7","7","7","6","6","5","5","5","5","5","5","2","2","2","2","2","2","2","2","5","5","5","5","5","5","5","5","5","5","7","6","7","7","7","6","8","7","7","7","7","7","7","7","7","7","1","7","7","1","7","7","7","7","7","7","7","7","6","7","7","7","7","7","7","7","7","7","7","7","7","6","7","7","7","7","7","7","6","7","621383779721674752","周","466","Male","[""坏我"",""坏他"",""好我"",""好他""]","[""弱我"",""弱他"",""强我"",""强他""]","","","","","","","","nonmatch","","","","","","","","","","key","j","16.646846846847005","768","428","j","true","nonmatch","img/square.png","弱他","强我","prac_ALT2_ability","practice_ability","","","","","","","","",""
"null","<span style='color:GreenYellow; font-size: 70px;'>正确! </span>","null","html-keyboard-response","73","242720","0.0-8.0-1.0-1.0-0.0-1.31","7","7","7","6","6","5","5","5","5","5","5","2","2","2","2","2","2","2","2","5","5","5","5","5","5","5","5","5","5","7","6","7","7","7","6","8","7","7","7","7","7","7","7","7","7","1","7","7","1","7","7","7","7","7","7","7","7","6","7","7","7","7","7","7","7","7","7","7","7","7","6","7","7","7","7","7","7","6","7","621383779721674752","周","466","Male","[""坏我"",""坏他"",""好我"",""好他""]","[""弱我"",""弱他"",""强我"",""强他""]","","","","","","","","","","","","","","","","","","","","","","","","","","","","","","feedback_test","","","","","","","","",""
"890","","f","psychophysics","74","244610","0.0-8.0-1.0-1.0-0.0-0.32","7","7","7","6","6","5","5","5","5","5","5","2","2","2","2","2","2","2","2","5","5","5","5","5","5","5","5","5","5","7","6","7","7","7","6","8","7","7","7","7","7","7","7","7","7","1","7","7","1","7","7","7","7","7","7","7","7","6","7","7","7","7","7","7","7","7","7","7","7","7","6","7","7","7","7","7","7","6","7","621383779721674752","周","466","Male","[""坏我"",""坏他"",""好我"",""好他""]","[""弱我"",""弱他"",""强我"",""强他""]","","","","","","","","match","","","","","","","","","","key","f","16.651785714285715","768","428","f","true","match","img/triangle.png","弱他","弱他","prac_ALT2_ability","practice_ability","","","","","","","","",""
"null","<span style='color:GreenYellow; font-size: 70px;'>正确! </span>","null","html-keyboard-response","75","245112","0.0-8.0-1.0-1.0-0.0-1.32","7","7","7","6","6","5","5","5","5","5","5","2","2","2","2","2","2","2","2","5","5","5","5","5","5","5","5","5","5","7","6","7","7","7","6","8","7","7","7","7","7","7","7","7","7","1","7","7","1","7","7","7","7","7","7","7","7","6","7","7","7","7","7","7","7","7","7","7","7","7","6","7","7","7","7","7","7","6","7","621383779721674752","周","466","Male","[""坏我"",""坏他"",""好我"",""好他""]","[""弱我"",""弱他"",""强我"",""强他""]","","","","","","","","","","","","","","","","","","","","","","","","","","","","","","feedback_test","","","","","","","","",""
"865","","f","psychophysics","76","246979","0.0-8.0-1.0-1.0-0.0-0.33","7","7","7","6","6","5","5","5","5","5","5","2","2","2","2","2","2","2","2","5","5","5","5","5","5","5","5","5","5","7","6","7","7","7","6","8","7","7","7","7","7","7","7","7","7","1","7","7","1","7","7","7","7","7","7","7","7","6","7","7","7","7","7","7","7","7","7","7","7","7","6","7","7","7","7","7","7","6","7","621383779721674752","周","466","Male","[""坏我"",""坏他"",""好我"",""好他""]","[""弱我"",""弱他"",""强我"",""强他""]","","","","","","","","match","","","","","","","","","","key","f","16.64324324324319","768","428","f","true","match","img/hexagon.png","弱我","弱我","prac_ALT2_ability","practice_ability","","","","","","","","",""
"null","<span style='color:GreenYellow; font-size: 70px;'>正确! </span>","null","html-keyboard-response","77","247480","0.0-8.0-1.0-1.0-0.0-1.33","7","7","7","6","6","5","5","5","5","5","5","2","2","2","2","2","2","2","2","5","5","5","5","5","5","5","5","5","5","7","6","7","7","7","6","8","7","7","7","7","7","7","7","7","7","1","7","7","1","7","7","7","7","7","7","7","7","6","7","7","7","7","7","7","7","7","7","7","7","7","6","7","7","7","7","7","7","6","7","621383779721674752","周","466","Male","[""坏我"",""坏他"",""好我"",""好他""]","[""弱我"",""弱他"",""强我"",""强他""]","","","","","","","","","","","","","","","","","","","","","","","","","","","","","","feedback_test","","","","","","","","",""
"609","","f","psychophysics","78","249090","0.0-8.0-1.0-1.0-0.0-0.34","7","7","7","6","6","5","5","5","5","5","5","2","2","2","2","2","2","2","2","5","5","5","5","5","5","5","5","5","5","7","6","7","7","7","6","8","7","7","7","7","7","7","7","7","7","1","7","7","1","7","7","7","7","7","7","7","7","6","7","7","7","7","7","7","7","7","7","7","7","7","6","7","7","7","7","7","7","6","7","621383779721674752","周","466","Male","[""坏我"",""坏他"",""好我"",""好他""]","[""弱我"",""弱他"",""强我"",""强他""]","","","","","","","","match","","","","","","","","","","key","f","16.65157894736836","768","428","j","false","nonmatch","img/square.png","弱我","强我","prac_ALT2_ability","practice_ability","","","","","","","","",""
"null","<span style='color:red; font-size: 70px;'>错误! </span>","null","html-keyboard-response","79","249593","0.0-8.0-1.0-1.0-0.0-1.34","7","7","7","6","6","5","5","5","5","5","5","2","2","2","2","2","2","2","2","5","5","5","5","5","5","5","5","5","5","7","6","7","7","7","6","8","7","7","7","7","7","7","7","7","7","1","7","7","1","7","7","7","7","7","7","7","7","6","7","7","7","7","7","7","7","7","7","7","7","7","6","7","7","7","7","7","7","6","7","621383779721674752","周","466","Male","[""坏我"",""坏他"",""好我"",""好他""]","[""弱我"",""弱他"",""强我"",""强他""]","","","","","","","","","","","","","","","","","","","","","","","","","","","","","","feedback_test","","","","","","","","",""
"555","","j","psychophysics","80","251148","0.0-8.0-1.0-1.0-0.0-0.35","7","7","7","6","6","5","5","5","5","5","5","2","2","2","2","2","2","2","2","5","5","5","5","5","5","5","5","5","5","7","6","7","7","7","6","8","7","7","7","7","7","7","7","7","7","1","7","7","1","7","7","7","7","7","7","7","7","6","7","7","7","7","7","7","7","7","7","7","7","7","6","7","7","7","7","7","7","6","7","621383779721674752","周","466","Male","[""坏我"",""坏他"",""好我"",""好他""]","[""弱我"",""弱他"",""强我"",""强他""]","","","","","","","","nonmatch","","","","","","","","","","key","j","16.645652173912982","768","428","j","true","nonmatch","img/triangle.png","强他","弱他","prac_ALT2_ability","practice_ability","","","","","","","","",""
"null","<span style='color:GreenYellow; font-size: 70px;'>正确! </span>","null","html-keyboard-response","81","251649","0.0-8.0-1.0-1.0-0.0-1.35","7","7","7","6","6","5","5","5","5","5","5","2","2","2","2","2","2","2","2","5","5","5","5","5","5","5","5","5","5","7","6","7","7","7","6","8","7","7","7","7","7","7","7","7","7","1","7","7","1","7","7","7","7","7","7","7","7","6","7","7","7","7","7","7","7","7","7","7","7","7","6","7","7","7","7","7","7","6","7","621383779721674752","周","466","Male","[""坏我"",""坏他"",""好我"",""好他""]","[""弱我"",""弱他"",""强我"",""强他""]","","","","","","","","","","","","","","","","","","","","","","","","","","","","","","feedback_test","","","","","","","","",""
"665","","f","psychophysics","82","253315","0.0-8.0-1.0-1.0-0.0-0.36","7","7","7","6","6","5","5","5","5","5","5","2","2","2","2","2","2","2","2","5","5","5","5","5","5","5","5","5","5","7","6","7","7","7","6","8","7","7","7","7","7","7","7","7","7","1","7","7","1","7","7","7","7","7","7","7","7","6","7","7","7","7","7","7","7","7","7","7","7","7","6","7","7","7","7","7","7","6","7","621383779721674752","周","466","Male","[""坏我"",""坏他"",""好我"",""好他""]","[""弱我"",""弱他"",""强我"",""强他""]","","","","","","","","match","","","","","","","","","","key","f","16.648484848484966","768","428","f","true","match","img/hexagon.png","弱我","弱我","prac_ALT2_ability","practice_ability","","","","","","","","",""
"null","<span style='color:GreenYellow; font-size: 70px;'>正确! </span>","null","html-keyboard-response","83","253818","0.0-8.0-1.0-1.0-0.0-1.36","7","7","7","6","6","5","5","5","5","5","5","2","2","2","2","2","2","2","2","5","5","5","5","5","5","5","5","5","5","7","6","7","7","7","6","8","7","7","7","7","7","7","7","7","7","1","7","7","1","7","7","7","7","7","7","7","7","6","7","7","7","7","7","7","7","7","7","7","7","7","6","7","7","7","7","7","7","6","7","621383779721674752","周","466","Male","[""坏我"",""坏他"",""好我"",""好他""]","[""弱我"",""弱他"",""强我"",""强他""]","","","","","","","","","","","","","","","","","","","","","","","","","","","","","","feedback_test","","","","","","","","",""
"647","","f","psychophysics","84","255467","0.0-8.0-1.0-1.0-0.0-0.37","7","7","7","6","6","5","5","5","5","5","5","2","2","2","2","2","2","2","2","5","5","5","5","5","5","5","5","5","5","7","6","7","7","7","6","8","7","7","7","7","7","7","7","7","7","1","7","7","1","7","7","7","7","7","7","7","7","6","7","7","7","7","7","7","7","7","7","7","7","7","6","7","7","7","7","7","7","6","7","621383779721674752","周","466","Male","[""坏我"",""坏他"",""好我"",""好他""]","[""弱我"",""弱他"",""强我"",""强他""]","","","","","","","","match","","","","","","","","","","key","f","16.652040816326473","768","428","j","false","nonmatch","img/hexagon.png","弱他","弱我","prac_ALT2_ability","practice_ability","","","","","","","","",""
"null","<span style='color:red; font-size: 70px;'>错误! </span>","null","html-keyboard-response","85","255967","0.0-8.0-1.0-1.0-0.0-1.37","7","7","7","6","6","5","5","5","5","5","5","2","2","2","2","2","2","2","2","5","5","5","5","5","5","5","5","5","5","7","6","7","7","7","6","8","7","7","7","7","7","7","7","7","7","1","7","7","1","7","7","7","7","7","7","7","7","6","7","7","7","7","7","7","7","7","7","7","7","7","6","7","7","7","7","7","7","6","7","621383779721674752","周","466","Male","[""坏我"",""坏他"",""好我"",""好他""]","[""弱我"",""弱他"",""强我"",""强他""]","","","","","","","","","","","","","","","","","","","","","","","","","","","","","","feedback_test","","","","","","","","",""
"466","","j","psychophysics","86","257435","0.0-8.0-1.0-1.0-0.0-0.38","7","7","7","6","6","5","5","5","5","5","5","2","2","2","2","2","2","2","2","5","5","5","5","5","5","5","5","5","5","7","6","7","7","7","6","8","7","7","7","7","7","7","7","7","7","1","7","7","1","7","7","7","7","7","7","7","7","6","7","7","7","7","7","7","7","7","7","7","7","7","6","7","7","7","7","7","7","6","7","621383779721674752","周","466","Male","[""坏我"",""坏他"",""好我"",""好他""]","[""弱我"",""弱他"",""强我"",""强他""]","","","","","","","","nonmatch","","","","","","","","","","key","j","16.65402298850568","768","428","f","false","match","img/triangle.png","弱他","弱他","prac_ALT2_ability","practice_ability","","","","","","","","",""
"null","<span style='color:red; font-size: 70px;'>错误! </span>","null","html-keyboard-response","87","257936","0.0-8.0-1.0-1.0-0.0-1.38","7","7","7","6","6","5","5","5","5","5","5","2","2","2","2","2","2","2","2","5","5","5","5","5","5","5","5","5","5","7","6","7","7","7","6","8","7","7","7","7","7","7","7","7","7","1","7","7","1","7","7","7","7","7","7","7","7","6","7","7","7","7","7","7","7","7","7","7","7","7","6","7","7","7","7","7","7","6","7","621383779721674752","周","466","Male","[""坏我"",""坏他"",""好我"",""好他""]","[""弱我"",""弱他"",""强我"",""强他""]","","","","","","","","","","","","","","","","","","","","","","","","","","","","","","feedback_test","","","","","","","","",""
"777","","j","psychophysics","88","259715","0.0-8.0-1.0-1.0-0.0-0.39","7","7","7","6","6","5","5","5","5","5","5","2","2","2","2","2","2","2","2","5","5","5","5","5","5","5","5","5","5","7","6","7","7","7","6","8","7","7","7","7","7","7","7","7","7","1","7","7","1","7","7","7","7","7","7","7","7","6","7","7","7","7","7","7","7","7","7","7","7","7","6","7","7","7","7","7","7","6","7","621383779721674752","周","466","Male","[""坏我"",""坏他"",""好我"",""好他""]","[""弱我"",""弱他"",""强我"",""强他""]","","","","","","","","nonmatch","","","","","","","","","","key","j","16.651428571428514","768","428","j","true","nonmatch","img/circle.png","弱他","强他","prac_ALT2_ability","practice_ability","","","","","","","","",""
"null","<span style='color:GreenYellow; font-size: 70px;'>正确! </span>","null","html-keyboard-response","89","260216","0.0-8.0-1.0-1.0-0.0-1.39","7","7","7","6","6","5","5","5","5","5","5","2","2","2","2","2","2","2","2","5","5","5","5","5","5","5","5","5","5","7","6","7","7","7","6","8","7","7","7","7","7","7","7","7","7","1","7","7","1","7","7","7","7","7","7","7","7","6","7","7","7","7","7","7","7","7","7","7","7","7","6","7","7","7","7","7","7","6","7","621383779721674752","周","466","Male","[""坏我"",""坏他"",""好我"",""好他""]","[""弱我"",""弱他"",""强我"",""强他""]","","","","","","","","","","","","","","","","","","","","","","","","","","","","","","feedback_test","","","","","","","","",""
"681","","f","psychophysics","90","261898","0.0-8.0-1.0-1.0-0.0-0.40","7","7","7","6","6","5","5","5","5","5","5","2","2","2","2","2","2","2","2","5","5","5","5","5","5","5","5","5","5","7","6","7","7","7","6","8","7","7","7","7","7","7","7","7","7","1","7","7","1","7","7","7","7","7","7","7","7","6","7","7","7","7","7","7","7","7","7","7","7","7","6","7","7","7","7","7","7","6","7","621383779721674752","周","466","Male","[""坏我"",""坏他"",""好我"",""好他""]","[""弱我"",""弱他"",""强我"",""强他""]","","","","","","","","match","","","","","","","","","","key","f","16.652000000000115","768","428","f","true","match","img/square.png","强我","强我","prac_ALT2_ability","practice_ability","","","","","","","","",""
"null","<span style='color:GreenYellow; font-size: 70px;'>正确! </span>","null","html-keyboard-response","91","262399","0.0-8.0-1.0-1.0-0.0-1.40","7","7","7","6","6","5","5","5","5","5","5","2","2","2","2","2","2","2","2","5","5","5","5","5","5","5","5","5","5","7","6","7","7","7","6","8","7","7","7","7","7","7","7","7","7","1","7","7","1","7","7","7","7","7","7","7","7","6","7","7","7","7","7","7","7","7","7","7","7","7","6","7","7","7","7","7","7","6","7","621383779721674752","周","466","Male","[""坏我"",""坏他"",""好我"",""好他""]","[""弱我"",""弱他"",""强我"",""强他""]","","","","","","","","","","","","","","","","","","","","","","","","","","","","","","feedback_test","","","","","","","","",""
"833","","j","psychophysics","92","264234","0.0-8.0-1.0-1.0-0.0-0.41","7","7","7","6","6","5","5","5","5","5","5","2","2","2","2","2","2","2","2","5","5","5","5","5","5","5","5","5","5","7","6","7","7","7","6","8","7","7","7","7","7","7","7","7","7","1","7","7","1","7","7","7","7","7","7","7","7","6","7","7","7","7","7","7","7","7","7","7","7","7","6","7","7","7","7","7","7","6","7","621383779721674752","周","466","Male","[""坏我"",""坏他"",""好我"",""好他""]","[""弱我"",""弱他"",""强我"",""强他""]","","","","","","","","nonmatch","","","","","","","","","","key","j","16.650458715596542","768","428","j","true","nonmatch","img/square.png","强他","强我","prac_ALT2_ability","practice_ability","","","","","","","","",""
"null","<span style='color:GreenYellow; font-size: 70px;'>正确! </span>","null","html-keyboard-response","93","264735","0.0-8.0-1.0-1.0-0.0-1.41","7","7","7","6","6","5","5","5","5","5","5","2","2","2","2","2","2","2","2","5","5","5","5","5","5","5","5","5","5","7","6","7","7","7","6","8","7","7","7","7","7","7","7","7","7","1","7","7","1","7","7","7","7","7","7","7","7","6","7","7","7","7","7","7","7","7","7","7","7","7","6","7","7","7","7","7","7","6","7","621383779721674752","周","466","Male","[""坏我"",""坏他"",""好我"",""好他""]","[""弱我"",""弱他"",""强我"",""强他""]","","","","","","","","","","","","","","","","","","","","","","","","","","","","","","feedback_test","","","","","","","","",""
"897","","j","psychophysics","94","266634","0.0-8.0-1.0-1.0-0.0-0.42","7","7","7","6","6","5","5","5","5","5","5","2","2","2","2","2","2","2","2","5","5","5","5","5","5","5","5","5","5","7","6","7","7","7","6","8","7","7","7","7","7","7","7","7","7","1","7","7","1","7","7","7","7","7","7","7","7","6","7","7","7","7","7","7","7","7","7","7","7","7","6","7","7","7","7","7","7","6","7","621383779721674752","周","466","Male","[""坏我"",""坏他"",""好我"",""好他""]","[""弱我"",""弱他"",""强我"",""强他""]","","","","","","","","nonmatch","","","","","","","","","","key","j","16.65309734513264","768","428","f","false","match","img/circle.png","强他","强他","prac_ALT2_ability","practice_ability","","","","","","","","",""
"null","<span style='color:red; font-size: 70px;'>错误! </span>","null","html-keyboard-response","95","267135","0.0-8.0-1.0-1.0-0.0-1.42","7","7","7","6","6","5","5","5","5","5","5","2","2","2","2","2","2","2","2","5","5","5","5","5","5","5","5","5","5","7","6","7","7","7","6","8","7","7","7","7","7","7","7","7","7","1","7","7","1","7","7","7","7","7","7","7","7","6","7","7","7","7","7","7","7","7","7","7","7","7","6","7","7","7","7","7","7","6","7","621383779721674752","周","466","Male","[""坏我"",""坏他"",""好我"",""好他""]","[""弱我"",""弱他"",""强我"",""强他""]","","","","","","","","","","","","","","","","","","","","","","","","","","","","","","feedback_test","","","","","","","","",""
"618","","j","psychophysics","96","268755","0.0-8.0-1.0-1.0-0.0-0.43","7","7","7","6","6","5","5","5","5","5","5","2","2","2","2","2","2","2","2","5","5","5","5","5","5","5","5","5","5","7","6","7","7","7","6","8","7","7","7","7","7","7","7","7","7","1","7","7","1","7","7","7","7","7","7","7","7","6","7","7","7","7","7","7","7","7","7","7","7","7","6","7","7","7","7","7","7","6","7","621383779721674752","周","466","Male","[""坏我"",""坏他"",""好我"",""好他""]","[""弱我"",""弱他"",""强我"",""强他""]","","","","","","","","nonmatch","","","","","","","","","","key","j","16.651041666666668","768","428","f","false","match","img/square.png","强我","强我","prac_ALT2_ability","practice_ability","","","","","","","","",""
"null","<span style='color:red; font-size: 70px;'>错误! </span>","null","html-keyboard-response","97","269256","0.0-8.0-1.0-1.0-0.0-1.43","7","7","7","6","6","5","5","5","5","5","5","2","2","2","2","2","2","2","2","5","5","5","5","5","5","5","5","5","5","7","6","7","7","7","6","8","7","7","7","7","7","7","7","7","7","1","7","7","1","7","7","7","7","7","7","7","7","6","7","7","7","7","7","7","7","7","7","7","7","7","6","7","7","7","7","7","7","6","7","621383779721674752","周","466","Male","[""坏我"",""坏他"",""好我"",""好他""]","[""弱我"",""弱他"",""强我"",""强他""]","","","","","","","","","","","","","","","","","","","","","","","","","","","","","","feedback_test","","","","","","","","",""
"602","","f","psychophysics","98","270858","0.0-8.0-1.0-1.0-0.0-0.44","7","7","7","6","6","5","5","5","5","5","5","2","2","2","2","2","2","2","2","5","5","5","5","5","5","5","5","5","5","7","6","7","7","7","6","8","7","7","7","7","7","7","7","7","7","1","7","7","1","7","7","7","7","7","7","7","7","6","7","7","7","7","7","7","7","7","7","7","7","7","6","7","7","7","7","7","7","6","7","621383779721674752","周","466","Male","[""坏我"",""坏他"",""好我"",""好他""]","[""弱我"",""弱他"",""强我"",""强他""]","","","","","","","","match","","","","","","","","","","key","f","16.648421052631946","768","428","f","true","match","img/circle.png","强他","强他","prac_ALT2_ability","practice_ability","","","","","","","","",""
"null","<span style='color:GreenYellow; font-size: 70px;'>正确! </span>","null","html-keyboard-response","99","271359","0.0-8.0-1.0-1.0-0.0-1.44","7","7","7","6","6","5","5","5","5","5","5","2","2","2","2","2","2","2","2","5","5","5","5","5","5","5","5","5","5","7","6","7","7","7","6","8","7","7","7","7","7","7","7","7","7","1","7","7","1","7","7","7","7","7","7","7","7","6","7","7","7","7","7","7","7","7","7","7","7","7","6","7","7","7","7","7","7","6","7","621383779721674752","周","466","Male","[""坏我"",""坏他"",""好我"",""好他""]","[""弱我"",""弱他"",""强我"",""强他""]","","","","","","","","","","","","","","","","","","","","","","","","","","","","","","feedback_test","","","","","","","","",""
"1163","","j","psychophysics","100","273524","0.0-8.0-1.0-1.0-0.0-0.45","7","7","7","6","6","5","5","5","5","5","5","2","2","2","2","2","2","2","2","5","5","5","5","5","5","5","5","5","5","7","6","7","7","7","6","8","7","7","7","7","7","7","7","7","7","1","7","7","1","7","7","7","7","7","7","7","7","6","7","7","7","7","7","7","7","7","7","7","7","7","6","7","7","7","7","7","7","6","7","621383779721674752","周","466","Male","[""坏我"",""坏他"",""好我"",""好他""]","[""弱我"",""弱他"",""强我"",""强他""]","","","","","","","","nonmatch","","","","","","","","","","key","j","16.653488372092934","768","428","j","true","nonmatch","img/circle.png","弱我","强他","prac_ALT2_ability","practice_ability","","","","","","","","",""
"null","<span style='color:GreenYellow; font-size: 70px;'>正确! </span>","null","html-keyboard-response","101","274025","0.0-8.0-1.0-1.0-0.0-1.45","7","7","7","6","6","5","5","5","5","5","5","2","2","2","2","2","2","2","2","5","5","5","5","5","5","5","5","5","5","7","6","7","7","7","6","8","7","7","7","7","7","7","7","7","7","1","7","7","1","7","7","7","7","7","7","7","7","6","7","7","7","7","7","7","7","7","7","7","7","7","6","7","7","7","7","7","7","6","7","621383779721674752","周","466","Male","[""坏我"",""坏他"",""好我"",""好他""]","[""弱我"",""弱他"",""强我"",""强他""]","","","","","","","","","","","","","","","","","","","","","","","","","","","","","","feedback_test","","","","","","","","",""
"824","","j","psychophysics","102","275850","0.0-8.0-1.0-1.0-0.0-0.46","7","7","7","6","6","5","5","5","5","5","5","2","2","2","2","2","2","2","2","5","5","5","5","5","5","5","5","5","5","7","6","7","7","7","6","8","7","7","7","7","7","7","7","7","7","1","7","7","1","7","7","7","7","7","7","7","7","6","7","7","7","7","7","7","7","7","7","7","7","7","6","7","7","7","7","7","7","6","7","621383779721674752","周","466","Male","[""坏我"",""坏他"",""好我"",""好他""]","[""弱我"",""弱他"",""强我"",""强他""]","","","","","","","","nonmatch","","","","","","","","","","key","j","16.65000000000011","768","428","j","true","nonmatch","img/triangle.png","弱我","弱他","prac_ALT2_ability","practice_ability","","","","","","","","",""
"null","<span style='color:GreenYellow; font-size: 70px;'>正确! </span>","null","html-keyboard-response","103","276351","0.0-8.0-1.0-1.0-0.0-1.46","7","7","7","6","6","5","5","5","5","5","5","2","2","2","2","2","2","2","2","5","5","5","5","5","5","5","5","5","5","7","6","7","7","7","6","8","7","7","7","7","7","7","7","7","7","1","7","7","1","7","7","7","7","7","7","7","7","6","7","7","7","7","7","7","7","7","7","7","7","7","6","7","7","7","7","7","7","6","7","621383779721674752","周","466","Male","[""坏我"",""坏他"",""好我"",""好他""]","[""弱我"",""弱他"",""强我"",""强他""]","","","","","","","","","","","","","","","","","","","","","","","","","","","","","","feedback_test","","","","","","","","",""
"844","","j","psychophysics","104","278195","0.0-8.0-1.0-1.0-0.0-0.47","7","7","7","6","6","5","5","5","5","5","5","2","2","2","2","2","2","2","2","5","5","5","5","5","5","5","5","5","5","7","6","7","7","7","6","8","7","7","7","7","7","7","7","7","7","1","7","7","1","7","7","7","7","7","7","7","7","6","7","7","7","7","7","7","7","7","7","7","7","7","6","7","7","7","7","7","7","6","7","621383779721674752","周","466","Male","[""坏我"",""坏他"",""好我"",""好他""]","[""弱我"",""弱他"",""强我"",""强他""]","","","","","","","","nonmatch","","","","","","","","","","key","j","16.65137614678899","768","428","j","true","nonmatch","img/hexagon.png","强他","弱我","prac_ALT2_ability","practice_ability","","","","","","","","",""
"null","<span style='color:GreenYellow; font-size: 70px;'>正确! </span>","null","html-keyboard-response","105","278697","0.0-8.0-1.0-1.0-0.0-1.47","7","7","7","6","6","5","5","5","5","5","5","2","2","2","2","2","2","2","2","5","5","5","5","5","5","5","5","5","5","7","6","7","7","7","6","8","7","7","7","7","7","7","7","7","7","1","7","7","1","7","7","7","7","7","7","7","7","6","7","7","7","7","7","7","7","7","7","7","7","7","6","7","7","7","7","7","7","6","7","621383779721674752","周","466","Male","[""坏我"",""坏他"",""好我"",""好他""]","[""弱我"",""弱他"",""强我"",""强他""]","","","","","","","","","","","","","","","","","","","","","","","","","","","","","","feedback_test","","","","","","","","",""
"74592","<style>.context{color:white; font-size: 35px; line-height:40px}</style>                          <div><p class='context'>您正确回答了75% 的试次。</p><p class='context'>您的平均反应时为853毫秒。</p><p class='context'>恭喜您完成练习。按空格键进入正式实验。</p><p class='footer' style='color:white;font-size: 35px; line-height:40px;'>请在进入正式实验实验之前将您的<span style='color: lightgreen;'>食指</span>放在电脑键盘的相应键位上进行按键。</p>"," ","html-keyboard-response","106","353291","0.0-8.0-1.0-2.0","7","7","7","6","6","5","5","5","5","5","5","2","2","2","2","2","2","2","2","5","5","5","5","5","5","5","5","5","5","7","6","7","7","7","6","8","7","7","7","7","7","7","7","7","7","1","7","7","1","7","7","7","7","7","7","7","7","6","7","7","7","7","7","7","7","7","7","7","7","7","6","7","7","7","7","7","7","6","7","621383779721674752","周","466","Male","[""坏我"",""坏他"",""好我"",""好他""]","[""弱我"",""弱他"",""强我"",""强他""]","","","","","","","","","","","","","","","","","","","","","","","","","","","","","","","","","","","","","","",""
"966","
  <p style='color: white; font-size: 22px'>请您将手指放在按键上，准备进入正式的匹配任务。</p>
  <p> <div style = ""color: green""><按空格键进入下一阶段的匹配任务></div></p>
  "," ","html-keyboard-response","107","354259","0.0-8.0-1.0-3.0","7","7","7","6","6","5","5","5","5","5","5","2","2","2","2","2","2","2","2","5","5","5","5","5","5","5","5","5","5","7","6","7","7","7","6","8","7","7","7","7","7","7","7","7","7","1","7","7","1","7","7","7","7","7","7","7","7","6","7","7","7","7","7","7","7","7","7","7","7","7","6","7","7","7","7","7","7","6","7","621383779721674752","周","466","Male","[""坏我"",""坏他"",""好我"",""好他""]","[""弱我"",""弱他"",""强我"",""强他""]","","","","","","","","","","","","","","","","","","","","","","","","","","","","","","","","","","","","","","",""
"750","","f","psychophysics","108","356011","0.0-8.0-1.0-4.0-0.0-0.0","7","7","7","6","6","5","5","5","5","5","5","2","2","2","2","2","2","2","2","5","5","5","5","5","5","5","5","5","5","7","6","7","7","7","6","8","7","7","7","7","7","7","7","7","7","1","7","7","1","7","7","7","7","7","7","7","7","6","7","7","7","7","7","7","7","7","7","7","7","7","6","7","7","7","7","7","7","6","7","621383779721674752","周","466","Male","[""坏我"",""坏他"",""好我"",""好他""]","[""弱我"",""弱他"",""强我"",""强他""]","","","","","","","","match","","","","","","","","","","key","f","16.65047619047608","768","428","f","true","match","img/circle.png","强他","强他","ALT2","ability","","","","","","","","",""
"null","<span style='color:GreenYellow; font-size: 70px;'>正确! </span>","null","html-keyboard-response","109","356512","0.0-8.0-1.0-4.0-0.0-1.0","7","7","7","6","6","5","5","5","5","5","5","2","2","2","2","2","2","2","2","5","5","5","5","5","5","5","5","5","5","7","6","7","7","7","6","8","7","7","7","7","7","7","7","7","7","1","7","7","1","7","7","7","7","7","7","7","7","6","7","7","7","7","7","7","7","7","7","7","7","7","6","7","7","7","7","7","7","6","7","621383779721674752","周","466","Male","[""坏我"",""坏他"",""好我"",""好他""]","[""弱我"",""弱他"",""强我"",""强他""]","","","","","","","","","","","","","","","","","","","","","","","","","","","","","","feedback_test","","","","","","","","",""
"802","","j","psychophysics","110","358316","0.0-8.0-1.0-4.0-0.0-0.1","7","7","7","6","6","5","5","5","5","5","5","2","2","2","2","2","2","2","2","5","5","5","5","5","5","5","5","5","5","7","6","7","7","7","6","8","7","7","7","7","7","7","7","7","7","1","7","7","1","7","7","7","7","7","7","7","7","6","7","7","7","7","7","7","7","7","7","7","7","7","6","7","7","7","7","7","7","6","7","621383779721674752","周","466","Male","[""坏我"",""坏他"",""好我"",""好他""]","[""弱我"",""弱他"",""强我"",""强他""]","","","","","","","","nonmatch","","","","","","","","","","key","j","16.65233644859802","768","428","f","false","match","img/triangle.png","弱他","弱他","ALT2","ability","","","","","","","","",""
"null","<span style='color:red; font-size: 70px;'>错误! </span>","null","html-keyboard-response","111","358818","0.0-8.0-1.0-4.0-0.0-1.1","7","7","7","6","6","5","5","5","5","5","5","2","2","2","2","2","2","2","2","5","5","5","5","5","5","5","5","5","5","7","6","7","7","7","6","8","7","7","7","7","7","7","7","7","7","1","7","7","1","7","7","7","7","7","7","7","7","6","7","7","7","7","7","7","7","7","7","7","7","7","6","7","7","7","7","7","7","6","7","621383779721674752","周","466","Male","[""坏我"",""坏他"",""好我"",""好他""]","[""弱我"",""弱他"",""强我"",""强他""]","","","","","","","","","","","","","","","","","","","","","","","","","","","","","","feedback_test","","","","","","","","",""
"711","","f","psychophysics","112","360531","0.0-8.0-1.0-4.0-0.0-0.2","7","7","7","6","6","5","5","5","5","5","5","2","2","2","2","2","2","2","2","5","5","5","5","5","5","5","5","5","5","7","6","7","7","7","6","8","7","7","7","7","7","7","7","7","7","1","7","7","1","7","7","7","7","7","7","7","7","6","7","7","7","7","7","7","7","7","7","7","7","7","6","7","7","7","7","7","7","6","7","621383779721674752","周","466","Male","[""坏我"",""坏他"",""好我"",""好他""]","[""弱我"",""弱他"",""强我"",""强他""]","","","","","","","","match","","","","","","","","","","key","f","16.65098039215652","768","428","f","true","match","img/hexagon.png","弱我","弱我","ALT2","ability","","","","","","","","",""
"null","<span style='color:GreenYellow; font-size: 70px;'>正确! </span>","null","html-keyboard-response","113","361032","0.0-8.0-1.0-4.0-0.0-1.2","7","7","7","6","6","5","5","5","5","5","5","2","2","2","2","2","2","2","2","5","5","5","5","5","5","5","5","5","5","7","6","7","7","7","6","8","7","7","7","7","7","7","7","7","7","1","7","7","1","7","7","7","7","7","7","7","7","6","7","7","7","7","7","7","7","7","7","7","7","7","6","7","7","7","7","7","7","6","7","621383779721674752","周","466","Male","[""坏我"",""坏他"",""好我"",""好他""]","[""弱我"",""弱他"",""强我"",""强他""]","","","","","","","","","","","","","","","","","","","","","","","","","","","","","","feedback_test","","","","","","","","",""
"594","","f","psychophysics","114","362627","0.0-8.0-1.0-4.0-0.0-0.3","7","7","7","6","6","5","5","5","5","5","5","2","2","2","2","2","2","2","2","5","5","5","5","5","5","5","5","5","5","7","6","7","7","7","6","8","7","7","7","7","7","7","7","7","7","1","7","7","1","7","7","7","7","7","7","7","7","6","7","7","7","7","7","7","7","7","7","7","7","7","6","7","7","7","7","7","7","6","7","621383779721674752","周","466","Male","[""坏我"",""坏他"",""好我"",""好他""]","[""弱我"",""弱他"",""强我"",""强他""]","","","","","","","","match","","","","","","","","","","key","f","16.649473684210648","768","428","j","false","nonmatch","img/triangle.png","强他","弱他","ALT2","ability","","","","","","","","",""
"null","<span style='color:red; font-size: 70px;'>错误! </span>","null","html-keyboard-response","115","363128","0.0-8.0-1.0-4.0-0.0-1.3","7","7","7","6","6","5","5","5","5","5","5","2","2","2","2","2","2","2","2","5","5","5","5","5","5","5","5","5","5","7","6","7","7","7","6","8","7","7","7","7","7","7","7","7","7","1","7","7","1","7","7","7","7","7","7","7","7","6","7","7","7","7","7","7","7","7","7","7","7","7","6","7","7","7","7","7","7","6","7","621383779721674752","周","466","Male","[""坏我"",""坏他"",""好我"",""好他""]","[""弱我"",""弱他"",""强我"",""强他""]","","","","","","","","","","","","","","","","","","","","","","","","","","","","","","feedback_test","","","","","","","","",""
"649","","f","psychophysics","116","364779","0.0-8.0-1.0-4.0-0.0-0.4","7","7","7","6","6","5","5","5","5","5","5","2","2","2","2","2","2","2","2","5","5","5","5","5","5","5","5","5","5","7","6","7","7","7","6","8","7","7","7","7","7","7","7","7","7","1","7","7","1","7","7","7","7","7","7","7","7","6","7","7","7","7","7","7","7","7","7","7","7","7","6","7","7","7","7","7","7","6","7","621383779721674752","周","466","Male","[""坏我"",""坏他"",""好我"",""好他""]","[""弱我"",""弱他"",""强我"",""强他""]","","","","","","","","match","","","","","","","","","","key","f","16.651020408163742","768","428","f","true","match","img/square.png","强我","强我","ALT2","ability","","","","","","","","",""
"null","<span style='color:GreenYellow; font-size: 70px;'>正确! </span>","null","html-keyboard-response","117","365279","0.0-8.0-1.0-4.0-0.0-1.4","7","7","7","6","6","5","5","5","5","5","5","2","2","2","2","2","2","2","2","5","5","5","5","5","5","5","5","5","5","7","6","7","7","7","6","8","7","7","7","7","7","7","7","7","7","1","7","7","1","7","7","7","7","7","7","7","7","6","7","7","7","7","7","7","7","7","7","7","7","7","6","7","7","7","7","7","7","6","7","621383779721674752","周","466","Male","[""坏我"",""坏他"",""好我"",""好他""]","[""弱我"",""弱他"",""强我"",""强他""]","","","","","","","","","","","","","","","","","","","","","","","","","","","","","","feedback_test","","","","","","","","",""
"794","","f","psychophysics","118","367075","0.0-8.0-1.0-4.0-0.0-0.5","7","7","7","6","6","5","5","5","5","5","5","2","2","2","2","2","2","2","2","5","5","5","5","5","5","5","5","5","5","7","6","7","7","7","6","8","7","7","7","7","7","7","7","7","7","1","7","7","1","7","7","7","7","7","7","7","7","6","7","7","7","7","7","7","7","7","7","7","7","7","6","7","7","7","7","7","7","6","7","621383779721674752","周","466","Male","[""坏我"",""坏他"",""好我"",""好他""]","[""弱我"",""弱他"",""强我"",""强他""]","","","","","","","","match","","","","","","","","","","key","f","16.654205607476637","768","428","f","true","match","img/triangle.png","弱他","弱他","ALT2","ability","","","","","","","","",""
"null","<span style='color:GreenYellow; font-size: 70px;'>正确! </span>","null","html-keyboard-response","119","367575","0.0-8.0-1.0-4.0-0.0-1.5","7","7","7","6","6","5","5","5","5","5","5","2","2","2","2","2","2","2","2","5","5","5","5","5","5","5","5","5","5","7","6","7","7","7","6","8","7","7","7","7","7","7","7","7","7","1","7","7","1","7","7","7","7","7","7","7","7","6","7","7","7","7","7","7","7","7","7","7","7","7","6","7","7","7","7","7","7","6","7","621383779721674752","周","466","Male","[""坏我"",""坏他"",""好我"",""好他""]","[""弱我"",""弱他"",""强我"",""强他""]","","","","","","","","","","","","","","","","","","","","","","","","","","","","","","feedback_test","","","","","","","","",""
"633","","j","psychophysics","120","369211","0.0-8.0-1.0-4.0-0.0-0.6","7","7","7","6","6","5","5","5","5","5","5","2","2","2","2","2","2","2","2","5","5","5","5","5","5","5","5","5","5","7","6","7","7","7","6","8","7","7","7","7","7","7","7","7","7","1","7","7","1","7","7","7","7","7","7","7","7","6","7","7","7","7","7","7","7","7","7","7","7","7","6","7","7","7","7","7","7","6","7","621383779721674752","周","466","Male","[""坏我"",""坏他"",""好我"",""好他""]","[""弱我"",""弱他"",""强我"",""强他""]","","","","","","","","nonmatch","","","","","","","","","","key","j","16.6515463917521","768","428","j","true","nonmatch","img/hexagon.png","强我","弱我","ALT2","ability","","","","","","","","",""
"null","<span style='color:GreenYellow; font-size: 70px;'>正确! </span>","null","html-keyboard-response","121","369711","0.0-8.0-1.0-4.0-0.0-1.6","7","7","7","6","6","5","5","5","5","5","5","2","2","2","2","2","2","2","2","5","5","5","5","5","5","5","5","5","5","7","6","7","7","7","6","8","7","7","7","7","7","7","7","7","7","1","7","7","1","7","7","7","7","7","7","7","7","6","7","7","7","7","7","7","7","7","7","7","7","7","6","7","7","7","7","7","7","6","7","621383779721674752","周","466","Male","[""坏我"",""坏他"",""好我"",""好他""]","[""弱我"",""弱他"",""强我"",""强他""]","","","","","","","","","","","","","","","","","","","","","","","","","","","","","","feedback_test","","","","","","","","",""
"898","","j","psychophysics","122","371611","0.0-8.0-1.0-4.0-0.0-0.7","7","7","7","6","6","5","5","5","5","5","5","2","2","2","2","2","2","2","2","5","5","5","5","5","5","5","5","5","5","7","6","7","7","7","6","8","7","7","7","7","7","7","7","7","7","1","7","7","1","7","7","7","7","7","7","7","7","6","7","7","7","7","7","7","7","7","7","7","7","7","6","7","7","7","7","7","7","6","7","621383779721674752","周","466","Male","[""坏我"",""坏他"",""好我"",""好他""]","[""弱我"",""弱他"",""强我"",""强他""]","","","","","","","","nonmatch","","","","","","","","","","key","j","16.652212389380633","768","428","j","true","nonmatch","img/triangle.png","弱我","弱他","ALT2","ability","","","","","","","","",""
"null","<span style='color:GreenYellow; font-size: 70px;'>正确! </span>","null","html-keyboard-response","123","372111","0.0-8.0-1.0-4.0-0.0-1.7","7","7","7","6","6","5","5","5","5","5","5","2","2","2","2","2","2","2","2","5","5","5","5","5","5","5","5","5","5","7","6","7","7","7","6","8","7","7","7","7","7","7","7","7","7","1","7","7","1","7","7","7","7","7","7","7","7","6","7","7","7","7","7","7","7","7","7","7","7","7","6","7","7","7","7","7","7","6","7","621383779721674752","周","466","Male","[""坏我"",""坏他"",""好我"",""好他""]","[""弱我"",""弱他"",""强我"",""强他""]","","","","","","","","","","","","","","","","","","","","","","","","","","","","","","feedback_test","","","","","","","","",""
"770","","j","psychophysics","124","373883","0.0-8.0-1.0-4.0-0.0-0.8","7","7","7","6","6","5","5","5","5","5","5","2","2","2","2","2","2","2","2","5","5","5","5","5","5","5","5","5","5","7","6","7","7","7","6","8","7","7","7","7","7","7","7","7","7","1","7","7","1","7","7","7","7","7","7","7","7","6","7","7","7","7","7","7","7","7","7","7","7","7","6","7","7","7","7","7","7","6","7","621383779721674752","周","466","Male","[""坏我"",""坏他"",""好我"",""好他""]","[""弱我"",""弱他"",""强我"",""强他""]","","","","","","","","nonmatch","","","","","","","","","","key","j","16.64666666666689","768","428","j","true","nonmatch","img/circle.png","弱我","强他","ALT2","ability","","","","","","","","",""
"null","<span style='color:GreenYellow; font-size: 70px;'>正确! </span>","null","html-keyboard-response","125","374384","0.0-8.0-1.0-4.0-0.0-1.8","7","7","7","6","6","5","5","5","5","5","5","2","2","2","2","2","2","2","2","5","5","5","5","5","5","5","5","5","5","7","6","7","7","7","6","8","7","7","7","7","7","7","7","7","7","1","7","7","1","7","7","7","7","7","7","7","7","6","7","7","7","7","7","7","7","7","7","7","7","7","6","7","7","7","7","7","7","6","7","621383779721674752","周","466","Male","[""坏我"",""坏他"",""好我"",""好他""]","[""弱我"",""弱他"",""强我"",""强他""]","","","","","","","","","","","","","","","","","","","","","","","","","","","","","","feedback_test","","","","","","","","",""
"721","","j","psychophysics","126","376107","0.0-8.0-1.0-4.0-0.0-0.9","7","7","7","6","6","5","5","5","5","5","5","2","2","2","2","2","2","2","2","5","5","5","5","5","5","5","5","5","5","7","6","7","7","7","6","8","7","7","7","7","7","7","7","7","7","1","7","7","1","7","7","7","7","7","7","7","7","6","7","7","7","7","7","7","7","7","7","7","7","7","6","7","7","7","7","7","7","6","7","621383779721674752","周","466","Male","[""坏我"",""坏他"",""好我"",""好他""]","[""弱我"",""弱他"",""强我"",""强他""]","","","","","","","","nonmatch","","","","","","","","","","key","j","16.65098039215652","768","428","f","false","match","img/hexagon.png","弱我","弱我","ALT2","ability","","","","","","","","",""
"null","<span style='color:red; font-size: 70px;'>错误! </span>","null","html-keyboard-response","127","376609","0.0-8.0-1.0-4.0-0.0-1.9","7","7","7","6","6","5","5","5","5","5","5","2","2","2","2","2","2","2","2","5","5","5","5","5","5","5","5","5","5","7","6","7","7","7","6","8","7","7","7","7","7","7","7","7","7","1","7","7","1","7","7","7","7","7","7","7","7","6","7","7","7","7","7","7","7","7","7","7","7","7","6","7","7","7","7","7","7","6","7","621383779721674752","周","466","Male","[""坏我"",""坏他"",""好我"",""好他""]","[""弱我"",""弱他"",""强我"",""强他""]","","","","","","","","","","","","","","","","","","","","","","","","","","","","","","feedback_test","","","","","","","","",""
"480","","f","psychophysics","128","378091","0.0-8.0-1.0-4.0-0.0-0.10","7","7","7","6","6","5","5","5","5","5","5","2","2","2","2","2","2","2","2","5","5","5","5","5","5","5","5","5","5","7","6","7","7","7","6","8","7","7","7","7","7","7","7","7","7","1","7","7","1","7","7","7","7","7","7","7","7","6","7","7","7","7","7","7","7","7","7","7","7","7","6","7","7","7","7","7","7","6","7","621383779721674752","周","466","Male","[""坏我"",""坏他"",""好我"",""好他""]","[""弱我"",""弱他"",""强我"",""强他""]","","","","","","","","match","","","","","","","","","","key","f","16.65113636363623","768","428","f","true","match","img/square.png","强我","强我","ALT2","ability","","","","","","","","",""
"null","<span style='color:GreenYellow; font-size: 70px;'>正确! </span>","null","html-keyboard-response","129","378591","0.0-8.0-1.0-4.0-0.0-1.10","7","7","7","6","6","5","5","5","5","5","5","2","2","2","2","2","2","2","2","5","5","5","5","5","5","5","5","5","5","7","6","7","7","7","6","8","7","7","7","7","7","7","7","7","7","1","7","7","1","7","7","7","7","7","7","7","7","6","7","7","7","7","7","7","7","7","7","7","7","7","6","7","7","7","7","7","7","6","7","621383779721674752","周","466","Male","[""坏我"",""坏他"",""好我"",""好他""]","[""弱我"",""弱他"",""强我"",""强他""]","","","","","","","","","","","","","","","","","","","","","","","","","","","","","","feedback_test","","","","","","","","",""
"690","","j","psychophysics","130","380283","0.0-8.0-1.0-4.0-0.0-0.11","7","7","7","6","6","5","5","5","5","5","5","2","2","2","2","2","2","2","2","5","5","5","5","5","5","5","5","5","5","7","6","7","7","7","6","8","7","7","7","7","7","7","7","7","7","1","7","7","1","7","7","7","7","7","7","7","7","6","7","7","7","7","7","7","7","7","7","7","7","7","6","7","7","7","7","7","7","6","7","621383779721674752","周","466","Male","[""坏我"",""坏他"",""好我"",""好他""]","[""弱我"",""弱他"",""强我"",""强他""]","","","","","","","","nonmatch","","","","","","","","","","key","j","16.65099999999977","768","428","j","true","nonmatch","img/triangle.png","强我","弱他","ALT2","ability","","","","","","","","",""
"null","<span style='color:GreenYellow; font-size: 70px;'>正确! </span>","null","html-keyboard-response","131","380784","0.0-8.0-1.0-4.0-0.0-1.11","7","7","7","6","6","5","5","5","5","5","5","2","2","2","2","2","2","2","2","5","5","5","5","5","5","5","5","5","5","7","6","7","7","7","6","8","7","7","7","7","7","7","7","7","7","1","7","7","1","7","7","7","7","7","7","7","7","6","7","7","7","7","7","7","7","7","7","7","7","7","6","7","7","7","7","7","7","6","7","621383779721674752","周","466","Male","[""坏我"",""坏他"",""好我"",""好他""]","[""弱我"",""弱他"",""强我"",""强他""]","","","","","","","","","","","","","","","","","","","","","","","","","","","","","","feedback_test","","","","","","","","",""
"696","","j","psychophysics","132","382483","0.0-8.0-1.0-4.0-0.0-0.12","7","7","7","6","6","5","5","5","5","5","5","2","2","2","2","2","2","2","2","5","5","5","5","5","5","5","5","5","5","7","6","7","7","7","6","8","7","7","7","7","7","7","7","7","7","1","7","7","1","7","7","7","7","7","7","7","7","6","7","7","7","7","7","7","7","7","7","7","7","7","6","7","7","7","7","7","7","6","7","621383779721674752","周","466","Male","[""坏我"",""坏他"",""好我"",""好他""]","[""弱我"",""弱他"",""强我"",""强他""]","","","","","","","","nonmatch","","","","","","","","","","key","j","16.650495049505064","768","428","f","false","match","img/triangle.png","弱他","弱他","ALT2","ability","","","","","","","","",""
"null","<span style='color:red; font-size: 70px;'>错误! </span>","null","html-keyboard-response","133","382985","0.0-8.0-1.0-4.0-0.0-1.12","7","7","7","6","6","5","5","5","5","5","5","2","2","2","2","2","2","2","2","5","5","5","5","5","5","5","5","5","5","7","6","7","7","7","6","8","7","7","7","7","7","7","7","7","7","1","7","7","1","7","7","7","7","7","7","7","7","6","7","7","7","7","7","7","7","7","7","7","7","7","6","7","7","7","7","7","7","6","7","621383779721674752","周","466","Male","[""坏我"",""坏他"",""好我"",""好他""]","[""弱我"",""弱他"",""强我"",""强他""]","","","","","","","","","","","","","","","","","","","","","","","","","","","","","","feedback_test","","","","","","","","",""
"770","","j","psychophysics","134","384756","0.0-8.0-1.0-4.0-0.0-0.13","7","7","7","6","6","5","5","5","5","5","5","2","2","2","2","2","2","2","2","5","5","5","5","5","5","5","5","5","5","7","6","7","7","7","6","8","7","7","7","7","7","7","7","7","7","1","7","7","1","7","7","7","7","7","7","7","7","6","7","7","7","7","7","7","7","7","7","7","7","7","6","7","7","7","7","7","7","6","7","621383779721674752","周","466","Male","[""坏我"",""坏他"",""好我"",""好他""]","[""弱我"",""弱他"",""强我"",""强他""]","","","","","","","","nonmatch","","","","","","","","","","key","j","16.645714285714174","768","428","j","true","nonmatch","img/hexagon.png","弱他","弱我","ALT2","ability","","","","","","","","",""
"null","<span style='color:GreenYellow; font-size: 70px;'>正确! </span>","null","html-keyboard-response","135","385256","0.0-8.0-1.0-4.0-0.0-1.13","7","7","7","6","6","5","5","5","5","5","5","2","2","2","2","2","2","2","2","5","5","5","5","5","5","5","5","5","5","7","6","7","7","7","6","8","7","7","7","7","7","7","7","7","7","1","7","7","1","7","7","7","7","7","7","7","7","6","7","7","7","7","7","7","7","7","7","7","7","7","6","7","7","7","7","7","7","6","7","621383779721674752","周","466","Male","[""坏我"",""坏他"",""好我"",""好他""]","[""弱我"",""弱他"",""强我"",""强他""]","","","","","","","","","","","","","","","","","","","","","","","","","","","","","","feedback_test","","","","","","","","",""
"705","","f","psychophysics","136","386963","0.0-8.0-1.0-4.0-0.0-0.14","7","7","7","6","6","5","5","5","5","5","5","2","2","2","2","2","2","2","2","5","5","5","5","5","5","5","5","5","5","7","6","7","7","7","6","8","7","7","7","7","7","7","7","7","7","1","7","7","1","7","7","7","7","7","7","7","7","6","7","7","7","7","7","7","7","7","7","7","7","7","6","7","7","7","7","7","7","6","7","621383779721674752","周","466","Male","[""坏我"",""坏他"",""好我"",""好他""]","[""弱我"",""弱他"",""强我"",""强他""]","","","","","","","","match","","","","","","","","","","key","f","16.651485148514737","768","428","f","true","match","img/circle.png","强他","强他","ALT2","ability","","","","","","","","",""
"null","<span style='color:GreenYellow; font-size: 70px;'>正确! </span>","null","html-keyboard-response","137","387464","0.0-8.0-1.0-4.0-0.0-1.14","7","7","7","6","6","5","5","5","5","5","5","2","2","2","2","2","2","2","2","5","5","5","5","5","5","5","5","5","5","7","6","7","7","7","6","8","7","7","7","7","7","7","7","7","7","1","7","7","1","7","7","7","7","7","7","7","7","6","7","7","7","7","7","7","7","7","7","7","7","7","6","7","7","7","7","7","7","6","7","621383779721674752","周","466","Male","[""坏我"",""坏他"",""好我"",""好他""]","[""弱我"",""弱他"",""强我"",""强他""]","","","","","","","","","","","","","","","","","","","","","","","","","","","","","","feedback_test","","","","","","","","",""
"826","","j","psychophysics","138","389291","0.0-8.0-1.0-4.0-0.0-0.15","7","7","7","6","6","5","5","5","5","5","5","2","2","2","2","2","2","2","2","5","5","5","5","5","5","5","5","5","5","7","6","7","7","7","6","8","7","7","7","7","7","7","7","7","7","1","7","7","1","7","7","7","7","7","7","7","7","6","7","7","7","7","7","7","7","7","7","7","7","7","6","7","7","7","7","7","7","6","7","621383779721674752","周","466","Male","[""坏我"",""坏他"",""好我"",""好他""]","[""弱我"",""弱他"",""强我"",""强他""]","","","","","","","","nonmatch","","","","","","","","","","key","j","16.65185185185207","768","428","f","false","match","img/square.png","强我","强我","ALT2","ability","","","","","","","","",""
