"rt","stimulus","response","trial_type","trial_index","time_elapsed","internal_node_id","swb_1","swb_2","swb_3","swb_4","swb_5","LOT_1","LOT_2","LOT_3","LOT_4","LOT_5","LOT_6","IPC_1","IPC_2","IPC_3","IPC_4","IPC_5","IPC_6","IPC_7","IPC_8","MorIden_1","MorIden_2","MorIden_3","MorIden_4","MorIden_5","MorIden_6","MorIden_7","MorIden_8","MorIden_9","MorIden_10","moralSeImag_1","moralSeImag_2","moralSeImag_3","moralSeImag_4","moralSeImag_5","moralSeImag_6","moralSeImag_7","moralSeImag_8","moralSeImag_9","sde_1","sde_2","sde_3","sde_4","sde_5","sde_6","sde_7","sde_8","sde_9","sde_10","trap2","sde_11","sde_12","sde_13","sde_14","sde_15","sde_16","sde_17","sde_18","sde_19","sde_20","IM_1","IM_2","IM_3","IM_4","IM_5","IM_6","IM_7","IM_8","IM_9","IM_10","IM_11","IM_12","IM_13","IM_14","IM_15","IM_16","IM_17","IM_18","IM_19","IM_20","subj_idx","friend_name","ParticipantID","Sex","Word","Word2","value","success","timeout","failed_images","failed_audio","failed_video","user_agent","responses","item_order","radio_event_ids","radio_event_times","key_event_times","mouse_event_times","straightlining","zigzagging","honeypot","view_history","response_type","key_press","avg_frame_time","center_x","center_y","correct_response","correct","identity","Image","word","condition","task_id","screen_id","time_stamp","person","valence","domain","math","status","duration","question_order","trap2_item"
"783","
   <p><div style='color:white; font-size: 25px'>您好，欢迎参加本次实验。</div></p>
   <p><div style='color:white; font-size: 25px'>为充分保障您的权利，请确保您已经知晓并同意《参与实验同意书》以及《数据公开知情同意书》。</div></p>
   <p><div style='color:white; font-size: 25px'>如果您未见过上述内容，请咨询实验员。</div></p>
   <p style='color:white; font-size: 25px'>如果您选择继续实验，则表示您已经清楚两份知情同意书的内容并同意。</p>
   <p><div style = ""color: pink;font-size:30px;"">请确保您记得day0的实验编号，您将在本次实验输入该编号，若您忘记，请咨询实验员后作答。</div></p>
   <p><div style = ""color:lightblue;font-size:25px;"">请您尽可能认真地作答，我们将依据您在各问卷和按键任务中的作答质量发放报酬。</div></p>
   <p> <div style = ""color: green""><按空格键至下页></div> </p>
   "," ","html-keyboard-response","0","785","0.0-0.0","7","7","7","7","7","5","5","5","5","5","5","2","1","2","2","2","2","2","2","5","5","5","5","5","5","4","4","5","4","7","6","8","8","7","6","6","8","6","7","7","7","7","7","6","7","1","7","7","1","7","7","7","7","6","7","7","7","7","7","7","7","7","7","7","7","6","7","7","7","7","7","7","7","7","7","7","7","6","7","602303969804419072","刘","658","Male","[""坏我"",""坏他"",""好我"",""好他""]","[""弱我"",""弱他"",""强我"",""强他""]","","","","","","","","","","","","","","","","","","","","","","","","","","","","","","","","","","","","","","",""
"","","","call-function","1","785","0.0-1.0-0.0","7","7","7","7","7","5","5","5","5","5","5","2","1","2","2","2","2","2","2","5","5","5","5","5","5","4","4","5","4","7","6","8","8","7","6","6","8","6","7","7","7","7","7","6","7","1","7","7","1","7","7","7","7","6","7","7","7","7","7","7","7","7","7","7","7","6","7","7","7","7","7","7","7","7","7","7","7","6","7","602303969804419072","刘","658","Male","[""坏我"",""坏他"",""好我"",""好他""]","[""弱我"",""弱他"",""强我"",""强他""]","","","","","","","","","","","","","","","","","","","","","","","","","","","","","","","","","","","","","","",""
"16540","","[{""name"":""Sex"",""value"":""0""},{""name"":""friend_name"",""value"":""刘""},{""name"":""ParticipantID"",""value"":""658""}]","survey-html-form","2","17326","0.0-1.0-1.0","7","7","7","7","7","5","5","5","5","5","5","2","1","2","2","2","2","2","2","5","5","5","5","5","5","4","4","5","4","7","6","8","8","7","6","6","8","6","7","7","7","7","7","6","7","1","7","7","1","7","7","7","7","6","7","7","7","7","7","7","7","7","7","7","7","6","7","7","7","7","7","7","7","7","7","7","7","6","7","602303969804419072","刘","658","Male","[""坏我"",""坏他"",""好我"",""好他""]","[""弱我"",""弱他"",""强我"",""强他""]","","","","","","","","","","","","","","","","","","","","","","","","","","","","","","","","","","","","","","",""
"","","","preload","3","17662","0.0-2.0","7","7","7","7","7","5","5","5","5","5","5","2","1","2","2","2","2","2","2","5","5","5","5","5","5","4","4","5","4","7","6","8","8","7","6","6","8","6","7","7","7","7","7","6","7","1","7","7","1","7","7","7","7","6","7","7","7","7","7","7","7","7","7","7","7","6","7","7","7","7","7","7","7","7","7","7","7","6","7","602303969804419072","刘","658","Male","[""坏我"",""坏他"",""好我"",""好他""]","[""弱我"",""弱他"",""强我"",""强他""]","","true","false","[]","[]","[]","","","","","","","","","","","","","","","","","","","","","","","","","","","","","","","","",""
"","","","fullscreen","4","18679","0.0-3.0","7","7","7","7","7","5","5","5","5","5","5","2","1","2","2","2","2","2","2","5","5","5","5","5","5","4","4","5","4","7","6","8","8","7","6","6","8","6","7","7","7","7","7","6","7","1","7","7","1","7","7","7","7","6","7","7","7","7","7","7","7","7","7","7","7","6","7","7","7","7","7","7","7","7","7","7","7","6","7","602303969804419072","刘","658","Male","[""坏我"",""坏他"",""好我"",""好他""]","[""弱我"",""弱他"",""强我"",""强他""]","","true","","","","","{}","","","","","","","","","","","","","","","","","","","","","","","","","","","","","","","",""
"6037.099999904633","","{""Q01"":""7"",""Q02"":""7"",""Q03"":""7"",""Q04"":""7"",""Q05"":""7""}","survey-template","5","24719","0.0-4.0","7","7","7","7","7","5","5","5","5","5","5","2","1","2","2","2","2","2","2","5","5","5","5","5","5","4","4","5","4","7","6","8","8","7","6","6","8","6","7","7","7","7","7","6","7","1","7","7","1","7","7","7","7","6","7","7","7","7","7","7","7","7","7","7","7","6","7","7","7","7","7","7","7","7","7","7","7","6","7","602303969804419072","刘","658","Male","[""坏我"",""坏他"",""好我"",""好他""]","[""弱我"",""弱他"",""强我"",""强他""]","","","","","","","","{""Q01"":""7"",""Q02"":""7"",""Q03"":""7"",""Q04"":""7"",""Q05"":""7""}","[0,1,2,3,4]","[""Q01"",""Q02"",""Q03"",""Q04"",""Q05""]","[1396.0999999046326,2052.2000000476837,2564,3876.5,4491.900000095367]","[]","[1396.0999999046326,2052.2000000476837,2564,3084.0999999046326,3876.5,4491.900000095367,6036]","1","0","0","","","","","","","","","","","","","","","","","","","","","","",""
"9579.600000143051","","{""Q01"":""5"",""Q02"":""5"",""Q03"":""5"",""Q04"":""5"",""Q05"":""5"",""Q06"":""5""}","survey-template","6","34302","0.0-5.0","7","7","7","7","7","5","5","5","5","5","5","2","1","2","2","2","2","2","2","5","5","5","5","5","5","4","4","5","4","7","6","8","8","7","6","6","8","6","7","7","7","7","7","6","7","1","7","7","1","7","7","7","7","6","7","7","7","7","7","7","7","7","7","7","7","6","7","7","7","7","7","7","7","7","7","7","7","6","7","602303969804419072","刘","658","Male","[""坏我"",""坏他"",""好我"",""好他""]","[""弱我"",""弱他"",""强我"",""强他""]","","","","","","","","{""Q01"":""5"",""Q02"":""5"",""Q03"":""5"",""Q04"":""5"",""Q05"":""5"",""Q06"":""5""}","[0,1,2,3,4,5]","[""Q03"",""Q06"",""Q04"",""Q05"",""Q02"",""Q01""]","[2299,2908.4000000953674,3706.7000000476837,4291.100000143051,5058.900000095367,6123.100000143051]","[]","[2034.9000000953674,2299,2908.4000000953674,3706.7000000476837,4083.300000190735,4291.100000143051,5058.900000095367,6123.100000143051,9579]","0.5","0.8","0","","","","","","","","","","","","","","","","","","","","","","",""
"8941.799999952316","","{""Q01"":""2"",""Q02"":""1"",""Q03"":""2"",""Q04"":""2"",""Q05"":""2"",""Q06"":""2"",""Q07"":""2"",""Q08"":""2""}","survey-template","7","43248","0.0-6.0","7","7","7","7","7","5","5","5","5","5","5","2","1","2","2","2","2","2","2","5","5","5","5","5","5","4","4","5","4","7","6","8","8","7","6","6","8","6","7","7","7","7","7","6","7","1","7","7","1","7","7","7","7","6","7","7","7","7","7","7","7","7","7","7","7","6","7","7","7","7","7","7","7","7","7","7","7","6","7","602303969804419072","刘","658","Male","[""坏我"",""坏他"",""好我"",""好他""]","[""弱我"",""弱他"",""强我"",""强他""]","","","","","","","","{""Q01"":""2"",""Q02"":""1"",""Q03"":""2"",""Q04"":""2"",""Q05"":""2"",""Q06"":""2"",""Q07"":""2"",""Q08"":""2""}","[0,1,2,3,4,5,6,7]","[""Q01"",""Q02"",""Q03"",""Q04"",""Q05"",""Q06"",""Q07"",""Q08"",""Q02""]","[1460.6999998092651,1956.2999999523163,2557,2908.399999856949,3468.699999809265,3965.0999999046326,4356.099999904633,5116.199999809265,8012.099999904633]","[]","[1460.6999998092651,1956.2999999523163,2557,2908.399999856949,3468.699999809265,3965.0999999046326,4356.099999904633,4780.099999904633,5116.199999809265,8012.099999904633,8940.199999809265]","0.875","0.2857142857142857","0","","","","","","","","","","","","","","","","","","","","","","",""
"1940","","","instructions","8","45190","0.0-7.0","7","7","7","7","7","5","5","5","5","5","5","2","1","2","2","2","2","2","2","5","5","5","5","5","5","4","4","5","4","7","6","8","8","7","6","6","8","6","7","7","7","7","7","6","7","1","7","7","1","7","7","7","7","6","7","7","7","7","7","7","7","7","7","7","7","6","7","7","7","7","7","7","7","7","7","7","7","6","7","602303969804419072","刘","658","Male","[""坏我"",""坏他"",""好我"",""好他""]","[""弱我"",""弱他"",""强我"",""强他""]","","","","","","","","","","","","","","","","","[{""page_index"":0,""viewing_time"":1939}]","","","","","","","","","","","","","","","","","","","","","",""
"186015","","","instructions","9","231206","0.0-8.0-1.0-0.0","7","7","7","7","7","5","5","5","5","5","5","2","1","2","2","2","2","2","2","5","5","5","5","5","5","4","4","5","4","7","6","8","8","7","6","6","8","6","7","7","7","7","7","6","7","1","7","7","1","7","7","7","7","6","7","7","7","7","7","7","7","7","7","7","7","6","7","7","7","7","7","7","7","7","7","7","7","6","7","602303969804419072","刘","658","Male","[""坏我"",""坏他"",""好我"",""好他""]","[""弱我"",""弱他"",""强我"",""强他""]","","","","","","","","","","","","","","","","","[{""page_index"":0,""viewing_time"":54791},{""page_index"":1,""viewing_time"":129120},{""page_index"":2,""viewing_time"":1392},{""page_index"":3,""viewing_time"":712}]","","","","","","","","","","","","","","","","","","","","","",""
"861","","j","psychophysics","10","233070","0.0-8.0-1.0-1.0-0.0-0.0","7","7","7","7","7","5","5","5","5","5","5","2","1","2","2","2","2","2","2","5","5","5","5","5","5","4","4","5","4","7","6","8","8","7","6","6","8","6","7","7","7","7","7","6","7","1","7","7","1","7","7","7","7","6","7","7","7","7","7","7","7","7","7","7","7","6","7","7","7","7","7","7","7","7","7","7","7","6","7","602303969804419072","刘","658","Male","[""坏我"",""坏他"",""好我"",""好他""]","[""弱我"",""弱他"",""强我"",""强他""]","","","","","","","","nonmatch","","","","","","","","","","key","j","16.652727272727432","768","428","f","false","match","img/trapezoid.png","强他","强他","prac_ALT2_ability","practice_ability","","","","","","","","",""
"null","<span style='color:red; font-size: 70px;'>错误! </span>","null","html-keyboard-response","11","233571","0.0-8.0-1.0-1.0-0.0-1.0","7","7","7","7","7","5","5","5","5","5","5","2","1","2","2","2","2","2","2","5","5","5","5","5","5","4","4","5","4","7","6","8","8","7","6","6","8","6","7","7","7","7","7","6","7","1","7","7","1","7","7","7","7","6","7","7","7","7","7","7","7","7","7","7","7","6","7","7","7","7","7","7","7","7","7","7","7","6","7","602303969804419072","刘","658","Male","[""坏我"",""坏他"",""好我"",""好他""]","[""弱我"",""弱他"",""强我"",""强他""]","","","","","","","","","","","","","","","","","","","","","","","","","","","","","","feedback_test","","","","","","","","",""
"769","","f","psychophysics","12","235342","0.0-8.0-1.0-1.0-0.0-0.1","7","7","7","7","7","5","5","5","5","5","5","2","1","2","2","2","2","2","2","5","5","5","5","5","5","4","4","5","4","7","6","8","8","7","6","6","8","6","7","7","7","7","7","6","7","1","7","7","1","7","7","7","7","6","7","7","7","7","7","7","7","7","7","7","7","6","7","7","7","7","7","7","7","7","7","7","7","6","7","602303969804419072","刘","658","Male","[""坏我"",""坏他"",""好我"",""好他""]","[""弱我"",""弱他"",""强我"",""强他""]","","","","","","","","match","","","","","","","","","","key","f","16.6632075471697","768","428","f","true","match","img/ellipse.png","弱他","弱他","prac_ALT2_ability","practice_ability","","","","","","","","",""
"null","<span style='color:GreenYellow; font-size: 70px;'>正确! </span>","null","html-keyboard-response","13","235844","0.0-8.0-1.0-1.0-0.0-1.1","7","7","7","7","7","5","5","5","5","5","5","2","1","2","2","2","2","2","2","5","5","5","5","5","5","4","4","5","4","7","6","8","8","7","6","6","8","6","7","7","7","7","7","6","7","1","7","7","1","7","7","7","7","6","7","7","7","7","7","7","7","7","7","7","7","6","7","7","7","7","7","7","7","7","7","7","7","6","7","602303969804419072","刘","658","Male","[""坏我"",""坏他"",""好我"",""好他""]","[""弱我"",""弱他"",""强我"",""强他""]","","","","","","","","","","","","","","","","","","","","","","","","","","","","","","feedback_test","","","","","","","","",""
"721","","j","psychophysics","14","237566","0.0-8.0-1.0-1.0-0.0-0.2","7","7","7","7","7","5","5","5","5","5","5","2","1","2","2","2","2","2","2","5","5","5","5","5","5","4","4","5","4","7","6","8","8","7","6","6","8","6","7","7","7","7","7","6","7","1","7","7","1","7","7","7","7","6","7","7","7","7","7","7","7","7","7","7","7","6","7","7","7","7","7","7","7","7","7","7","7","6","7","602303969804419072","刘","658","Male","[""坏我"",""坏他"",""好我"",""好他""]","[""弱我"",""弱他"",""强我"",""强他""]","","","","","","","","nonmatch","","","","","","","","","","key","j","16.66470588235311","768","428","j","true","nonmatch","img/ellipse.png","弱我","弱他","prac_ALT2_ability","practice_ability","","","","","","","","",""
"null","<span style='color:GreenYellow; font-size: 70px;'>正确! </span>","null","html-keyboard-response","15","238067","0.0-8.0-1.0-1.0-0.0-1.2","7","7","7","7","7","5","5","5","5","5","5","2","1","2","2","2","2","2","2","5","5","5","5","5","5","4","4","5","4","7","6","8","8","7","6","6","8","6","7","7","7","7","7","6","7","1","7","7","1","7","7","7","7","6","7","7","7","7","7","7","7","7","7","7","7","6","7","7","7","7","7","7","7","7","7","7","7","6","7","602303969804419072","刘","658","Male","[""坏我"",""坏他"",""好我"",""好他""]","[""弱我"",""弱他"",""强我"",""强他""]","","","","","","","","","","","","","","","","","","","","","","","","","","","","","","feedback_test","","","","","","","","",""
"673","","f","psychophysics","16","239742","0.0-8.0-1.0-1.0-0.0-0.3","7","7","7","7","7","5","5","5","5","5","5","2","1","2","2","2","2","2","2","5","5","5","5","5","5","4","4","5","4","7","6","8","8","7","6","6","8","6","7","7","7","7","7","6","7","1","7","7","1","7","7","7","7","6","7","7","7","7","7","7","7","7","7","7","7","6","7","7","7","7","7","7","7","7","7","7","7","6","7","602303969804419072","刘","658","Male","[""坏我"",""坏他"",""好我"",""好他""]","[""弱我"",""弱他"",""强我"",""强他""]","","","","","","","","match","","","","","","","","","","key","f","16.666999999999824","768","428","j","false","nonmatch","img/pentagon.png","强我","弱我","prac_ALT2_ability","practice_ability","","","","","","","","",""
"null","<span style='color:red; font-size: 70px;'>错误! </span>","null","html-keyboard-response","17","240243","0.0-8.0-1.0-1.0-0.0-1.3","7","7","7","7","7","5","5","5","5","5","5","2","1","2","2","2","2","2","2","5","5","5","5","5","5","4","4","5","4","7","6","8","8","7","6","6","8","6","7","7","7","7","7","6","7","1","7","7","1","7","7","7","7","6","7","7","7","7","7","7","7","7","7","7","7","6","7","7","7","7","7","7","7","7","7","7","7","6","7","602303969804419072","刘","658","Male","[""坏我"",""坏他"",""好我"",""好他""]","[""弱我"",""弱他"",""强我"",""强他""]","","","","","","","","","","","","","","","","","","","","","","","","","","","","","","feedback_test","","","","","","","","",""
"785","","f","psychophysics","18","242030","0.0-8.0-1.0-1.0-0.0-0.4","7","7","7","7","7","5","5","5","5","5","5","2","1","2","2","2","2","2","2","5","5","5","5","5","5","4","4","5","4","7","6","8","8","7","6","6","8","6","7","7","7","7","7","6","7","1","7","7","1","7","7","7","7","6","7","7","7","7","7","7","7","7","7","7","7","6","7","7","7","7","7","7","7","7","7","7","7","6","7","602303969804419072","刘","658","Male","[""坏我"",""坏他"",""好我"",""好他""]","[""弱我"",""弱他"",""强我"",""强他""]","","","","","","","","match","","","","","","","","","","key","f","16.666037735849113","768","428","f","true","match","img/pentagon.png","弱我","弱我","prac_ALT2_ability","practice_ability","","","","","","","","",""
"null","<span style='color:GreenYellow; font-size: 70px;'>正确! </span>","null","html-keyboard-response","19","242531","0.0-8.0-1.0-1.0-0.0-1.4","7","7","7","7","7","5","5","5","5","5","5","2","1","2","2","2","2","2","2","5","5","5","5","5","5","4","4","5","4","7","6","8","8","7","6","6","8","6","7","7","7","7","7","6","7","1","7","7","1","7","7","7","7","6","7","7","7","7","7","7","7","7","7","7","7","6","7","7","7","7","7","7","7","7","7","7","7","6","7","602303969804419072","刘","658","Male","[""坏我"",""坏他"",""好我"",""好他""]","[""弱我"",""弱他"",""强我"",""强他""]","","","","","","","","","","","","","","","","","","","","","","","","","","","","","","feedback_test","","","","","","","","",""
"858","","f","psychophysics","20","244390","0.0-8.0-1.0-1.0-0.0-0.5","7","7","7","7","7","5","5","5","5","5","5","2","1","2","2","2","2","2","2","5","5","5","5","5","5","4","4","5","4","7","6","8","8","7","6","6","8","6","7","7","7","7","7","6","7","1","7","7","1","7","7","7","7","6","7","7","7","7","7","7","7","7","7","7","7","6","7","7","7","7","7","7","7","7","7","7","7","6","7","602303969804419072","刘","658","Male","[""坏我"",""坏他"",""好我"",""好他""]","[""弱我"",""弱他"",""强我"",""强他""]","","","","","","","","match","","","","","","","","","","key","f","16.666666666666668","768","428","f","true","match","img/triangle.png","强我","强我","prac_ALT2_ability","practice_ability","","","","","","","","",""
"null","<span style='color:GreenYellow; font-size: 70px;'>正确! </span>","null","html-keyboard-response","21","244892","0.0-8.0-1.0-1.0-0.0-1.5","7","7","7","7","7","5","5","5","5","5","5","2","1","2","2","2","2","2","2","5","5","5","5","5","5","4","4","5","4","7","6","8","8","7","6","6","8","6","7","7","7","7","7","6","7","1","7","7","1","7","7","7","7","6","7","7","7","7","7","7","7","7","7","7","7","6","7","7","7","7","7","7","7","7","7","7","7","6","7","602303969804419072","刘","658","Male","[""坏我"",""坏他"",""好我"",""好他""]","[""弱我"",""弱他"",""强我"",""强他""]","","","","","","","","","","","","","","","","","","","","","","","","","","","","","","feedback_test","","","","","","","","",""
"784","","j","psychophysics","22","246678","0.0-8.0-1.0-1.0-0.0-0.6","7","7","7","7","7","5","5","5","5","5","5","2","1","2","2","2","2","2","2","5","5","5","5","5","5","4","4","5","4","7","6","8","8","7","6","6","8","6","7","7","7","7","7","6","7","1","7","7","1","7","7","7","7","6","7","7","7","7","7","7","7","7","7","7","7","6","7","7","7","7","7","7","7","7","7","7","7","6","7","602303969804419072","刘","658","Male","[""坏我"",""坏他"",""好我"",""好他""]","[""弱我"",""弱他"",""强我"",""强他""]","","","","","","","","nonmatch","","","","","","","","","","key","j","16.66509433962264","768","428","j","true","nonmatch","img/triangle.png","强他","强我","prac_ALT2_ability","practice_ability","","","","","","","","",""
"null","<span style='color:GreenYellow; font-size: 70px;'>正确! </span>","null","html-keyboard-response","23","247179","0.0-8.0-1.0-1.0-0.0-1.6","7","7","7","7","7","5","5","5","5","5","5","2","1","2","2","2","2","2","2","5","5","5","5","5","5","4","4","5","4","7","6","8","8","7","6","6","8","6","7","7","7","7","7","6","7","1","7","7","1","7","7","7","7","6","7","7","7","7","7","7","7","7","7","7","7","6","7","7","7","7","7","7","7","7","7","7","7","6","7","602303969804419072","刘","658","Male","[""坏我"",""坏他"",""好我"",""好他""]","[""弱我"",""弱他"",""强我"",""强他""]","","","","","","","","","","","","","","","","","","","","","","","","","","","","","","feedback_test","","","","","","","","",""
"945","","j","psychophysics","24","249126","0.0-8.0-1.0-1.0-0.0-0.7","7","7","7","7","7","5","5","5","5","5","5","2","1","2","2","2","2","2","2","5","5","5","5","5","5","4","4","5","4","7","6","8","8","7","6","6","8","6","7","7","7","7","7","6","7","1","7","7","1","7","7","7","7","6","7","7","7","7","7","7","7","7","7","7","7","6","7","7","7","7","7","7","7","7","7","7","7","6","7","602303969804419072","刘","658","Male","[""坏我"",""坏他"",""好我"",""好他""]","[""弱我"",""弱他"",""强我"",""强他""]","","","","","","","","nonmatch","","","","","","","","","","key","j","16.665517241379412","768","428","j","true","nonmatch","img/ellipse.png","强我","弱他","prac_ALT2_ability","practice_ability","","","","","","","","",""
"null","<span style='color:GreenYellow; font-size: 70px;'>正确! </span>","null","html-keyboard-response","25","249639","0.0-8.0-1.0-1.0-0.0-1.7","7","7","7","7","7","5","5","5","5","5","5","2","1","2","2","2","2","2","2","5","5","5","5","5","5","4","4","5","4","7","6","8","8","7","6","6","8","6","7","7","7","7","7","6","7","1","7","7","1","7","7","7","7","6","7","7","7","7","7","7","7","7","7","7","7","6","7","7","7","7","7","7","7","7","7","7","7","6","7","602303969804419072","刘","658","Male","[""坏我"",""坏他"",""好我"",""好他""]","[""弱我"",""弱他"",""强我"",""强他""]","","","","","","","","","","","","","","","","","","","","","","","","","","","","","","feedback_test","","","","","","","","",""
"941","","j","psychophysics","26","251582","0.0-8.0-1.0-1.0-0.0-0.8","7","7","7","7","7","5","5","5","5","5","5","2","1","2","2","2","2","2","2","5","5","5","5","5","5","4","4","5","4","7","6","8","8","7","6","6","8","6","7","7","7","7","7","6","7","1","7","7","1","7","7","7","7","6","7","7","7","7","7","7","7","7","7","7","7","6","7","7","7","7","7","7","7","7","7","7","7","6","7","602303969804419072","刘","658","Male","[""坏我"",""坏他"",""好我"",""好他""]","[""弱我"",""弱他"",""强我"",""强他""]","","","","","","","","nonmatch","","","","","","","","","","key","j","16.66434782608716","768","428","j","true","nonmatch","img/trapezoid.png","弱他","强他","prac_ALT2_ability","practice_ability","","","","","","","","",""
"null","<span style='color:GreenYellow; font-size: 70px;'>正确! </span>","null","html-keyboard-response","27","252084","0.0-8.0-1.0-1.0-0.0-1.8","7","7","7","7","7","5","5","5","5","5","5","2","1","2","2","2","2","2","2","5","5","5","5","5","5","4","4","5","4","7","6","8","8","7","6","6","8","6","7","7","7","7","7","6","7","1","7","7","1","7","7","7","7","6","7","7","7","7","7","7","7","7","7","7","7","6","7","7","7","7","7","7","7","7","7","7","7","6","7","602303969804419072","刘","658","Male","[""坏我"",""坏他"",""好我"",""好他""]","[""弱我"",""弱他"",""强我"",""强他""]","","","","","","","","","","","","","","","","","","","","","","","","","","","","","","feedback_test","","","","","","","","",""
"880","","j","psychophysics","28","253966","0.0-8.0-1.0-1.0-0.0-0.9","7","7","7","7","7","5","5","5","5","5","5","2","1","2","2","2","2","2","2","5","5","5","5","5","5","4","4","5","4","7","6","8","8","7","6","6","8","6","7","7","7","7","7","6","7","1","7","7","1","7","7","7","7","6","7","7","7","7","7","7","7","7","7","7","7","6","7","7","7","7","7","7","7","7","7","7","7","6","7","602303969804419072","刘","658","Male","[""坏我"",""坏他"",""好我"",""好他""]","[""弱我"",""弱他"",""强我"",""强他""]","","","","","","","","nonmatch","","","","","","","","","","key","j","16.66428571428592","768","428","j","true","nonmatch","img/pentagon.png","弱他","弱我","prac_ALT2_ability","practice_ability","","","","","","","","",""
"null","<span style='color:GreenYellow; font-size: 70px;'>正确! </span>","null","html-keyboard-response","29","254481","0.0-8.0-1.0-1.0-0.0-1.9","7","7","7","7","7","5","5","5","5","5","5","2","1","2","2","2","2","2","2","5","5","5","5","5","5","4","4","5","4","7","6","8","8","7","6","6","8","6","7","7","7","7","7","6","7","1","7","7","1","7","7","7","7","6","7","7","7","7","7","7","7","7","7","7","7","6","7","7","7","7","7","7","7","7","7","7","7","6","7","602303969804419072","刘","658","Male","[""坏我"",""坏他"",""好我"",""好他""]","[""弱我"",""弱他"",""强我"",""强他""]","","","","","","","","","","","","","","","","","","","","","","","","","","","","","","feedback_test","","","","","","","","",""
"515","","f","psychophysics","30","255998","0.0-8.0-1.0-1.0-0.0-0.10","7","7","7","7","7","5","5","5","5","5","5","2","1","2","2","2","2","2","2","5","5","5","5","5","5","4","4","5","4","7","6","8","8","7","6","6","8","6","7","7","7","7","7","6","7","1","7","7","1","7","7","7","7","6","7","7","7","7","7","7","7","7","7","7","7","6","7","7","7","7","7","7","7","7","7","7","7","6","7","602303969804419072","刘","658","Male","[""坏我"",""坏他"",""好我"",""好他""]","[""弱我"",""弱他"",""强我"",""强他""]","","","","","","","","match","","","","","","","","","","key","f","16.665555555555493","768","428","j","false","nonmatch","img/triangle.png","弱我","强我","prac_ALT2_ability","practice_ability","","","","","","","","",""
"null","<span style='color:red; font-size: 70px;'>错误! </span>","null","html-keyboard-response","31","256498","0.0-8.0-1.0-1.0-0.0-1.10","7","7","7","7","7","5","5","5","5","5","5","2","1","2","2","2","2","2","2","5","5","5","5","5","5","4","4","5","4","7","6","8","8","7","6","6","8","6","7","7","7","7","7","6","7","1","7","7","1","7","7","7","7","6","7","7","7","7","7","7","7","7","7","7","7","6","7","7","7","7","7","7","7","7","7","7","7","6","7","602303969804419072","刘","658","Male","[""坏我"",""坏他"",""好我"",""好他""]","[""弱我"",""弱他"",""强我"",""强他""]","","","","","","","","","","","","","","","","","","","","","","","","","","","","","","feedback_test","","","","","","","","",""
"555","","f","psychophysics","32","258055","0.0-8.0-1.0-1.0-0.0-0.11","7","7","7","7","7","5","5","5","5","5","5","2","1","2","2","2","2","2","2","5","5","5","5","5","5","4","4","5","4","7","6","8","8","7","6","6","8","6","7","7","7","7","7","6","7","1","7","7","1","7","7","7","7","6","7","7","7","7","7","7","7","7","7","7","7","6","7","7","7","7","7","7","7","7","7","7","7","6","7","602303969804419072","刘","658","Male","[""坏我"",""坏他"",""好我"",""好他""]","[""弱我"",""弱他"",""强我"",""强他""]","","","","","","","","match","","","","","","","","","","key","f","16.664516129032446","768","428","j","false","nonmatch","img/ellipse.png","强他","弱他","prac_ALT2_ability","practice_ability","","","","","","","","",""
"null","<span style='color:red; font-size: 70px;'>错误! </span>","null","html-keyboard-response","33","258556","0.0-8.0-1.0-1.0-0.0-1.11","7","7","7","7","7","5","5","5","5","5","5","2","1","2","2","2","2","2","2","5","5","5","5","5","5","4","4","5","4","7","6","8","8","7","6","6","8","6","7","7","7","7","7","6","7","1","7","7","1","7","7","7","7","6","7","7","7","7","7","7","7","7","7","7","7","6","7","7","7","7","7","7","7","7","7","7","7","6","7","602303969804419072","刘","658","Male","[""坏我"",""坏他"",""好我"",""好他""]","[""弱我"",""弱他"",""强我"",""强他""]","","","","","","","","","","","","","","","","","","","","","","","","","","","","","","feedback_test","","","","","","","","",""
"833","","f","psychophysics","34","260390","0.0-8.0-1.0-1.0-0.0-0.12","7","7","7","7","7","5","5","5","5","5","5","2","1","2","2","2","2","2","2","5","5","5","5","5","5","4","4","5","4","7","6","8","8","7","6","6","8","6","7","7","7","7","7","6","7","1","7","7","1","7","7","7","7","6","7","7","7","7","7","7","7","7","7","7","7","6","7","7","7","7","7","7","7","7","7","7","7","6","7","602303969804419072","刘","658","Male","[""坏我"",""坏他"",""好我"",""好他""]","[""弱我"",""弱他"",""强我"",""强他""]","","","","","","","","match","","","","","","","","","","key","f","16.664220183486186","768","428","j","false","nonmatch","img/trapezoid.png","弱我","强他","prac_ALT2_ability","practice_ability","","","","","","","","",""
"null","<span style='color:red; font-size: 70px;'>错误! </span>","null","html-keyboard-response","35","260892","0.0-8.0-1.0-1.0-0.0-1.12","7","7","7","7","7","5","5","5","5","5","5","2","1","2","2","2","2","2","2","5","5","5","5","5","5","4","4","5","4","7","6","8","8","7","6","6","8","6","7","7","7","7","7","6","7","1","7","7","1","7","7","7","7","6","7","7","7","7","7","7","7","7","7","7","7","6","7","7","7","7","7","7","7","7","7","7","7","6","7","602303969804419072","刘","658","Male","[""坏我"",""坏他"",""好我"",""好他""]","[""弱我"",""弱他"",""强我"",""强他""]","","","","","","","","","","","","","","","","","","","","","","","","","","","","","","feedback_test","","","","","","","","",""
"720","","f","psychophysics","36","262614","0.0-8.0-1.0-1.0-0.0-0.13","7","7","7","7","7","5","5","5","5","5","5","2","1","2","2","2","2","2","2","5","5","5","5","5","5","4","4","5","4","7","6","8","8","7","6","6","8","6","7","7","7","7","7","6","7","1","7","7","1","7","7","7","7","6","7","7","7","7","7","7","7","7","7","7","7","6","7","7","7","7","7","7","7","7","7","7","7","6","7","602303969804419072","刘","658","Male","[""坏我"",""坏他"",""好我"",""好他""]","[""弱我"",""弱他"",""强我"",""强他""]","","","","","","","","match","","","","","","","","","","key","f","16.659803921568514","768","428","f","true","match","img/pentagon.png","弱我","弱我","prac_ALT2_ability","practice_ability","","","","","","","","",""
"null","<span style='color:GreenYellow; font-size: 70px;'>正确! </span>","null","html-keyboard-response","37","263116","0.0-8.0-1.0-1.0-0.0-1.13","7","7","7","7","7","5","5","5","5","5","5","2","1","2","2","2","2","2","2","5","5","5","5","5","5","4","4","5","4","7","6","8","8","7","6","6","8","6","7","7","7","7","7","6","7","1","7","7","1","7","7","7","7","6","7","7","7","7","7","7","7","7","7","7","7","6","7","7","7","7","7","7","7","7","7","7","7","6","7","602303969804419072","刘","658","Male","[""坏我"",""坏他"",""好我"",""好他""]","[""弱我"",""弱他"",""强我"",""强他""]","","","","","","","","","","","","","","","","","","","","","","","","","","","","","","feedback_test","","","","","","","","",""
"848","","f","psychophysics","38","264966","0.0-8.0-1.0-1.0-0.0-0.14","7","7","7","7","7","5","5","5","5","5","5","2","1","2","2","2","2","2","2","5","5","5","5","5","5","4","4","5","4","7","6","8","8","7","6","6","8","6","7","7","7","7","7","6","7","1","7","7","1","7","7","7","7","6","7","7","7","7","7","7","7","7","7","7","7","6","7","7","7","7","7","7","7","7","7","7","7","6","7","602303969804419072","刘","658","Male","[""坏我"",""坏他"",""好我"",""好他""]","[""弱我"",""弱他"",""强我"",""强他""]","","","","","","","","match","","","","","","","","","","key","f","16.66545454545465","768","428","j","false","nonmatch","img/trapezoid.png","强我","强他","prac_ALT2_ability","practice_ability","","","","","","","","",""
"null","<span style='color:red; font-size: 70px;'>错误! </span>","null","html-keyboard-response","39","265466","0.0-8.0-1.0-1.0-0.0-1.14","7","7","7","7","7","5","5","5","5","5","5","2","1","2","2","2","2","2","2","5","5","5","5","5","5","4","4","5","4","7","6","8","8","7","6","6","8","6","7","7","7","7","7","6","7","1","7","7","1","7","7","7","7","6","7","7","7","7","7","7","7","7","7","7","7","6","7","7","7","7","7","7","7","7","7","7","7","6","7","602303969804419072","刘","658","Male","[""坏我"",""坏他"",""好我"",""好他""]","[""弱我"",""弱他"",""强我"",""强他""]","","","","","","","","","","","","","","","","","","","","","","","","","","","","","","feedback_test","","","","","","","","",""
"993","","j","psychophysics","40","267462","0.0-8.0-1.0-1.0-0.0-0.15","7","7","7","7","7","5","5","5","5","5","5","2","1","2","2","2","2","2","2","5","5","5","5","5","5","4","4","5","4","7","6","8","8","7","6","6","8","6","7","7","7","7","7","6","7","1","7","7","1","7","7","7","7","6","7","7","7","7","7","7","7","7","7","7","7","6","7","7","7","7","7","7","7","7","7","7","7","6","7","602303969804419072","刘","658","Male","[""坏我"",""坏他"",""好我"",""好他""]","[""弱我"",""弱他"",""强我"",""强他""]","","","","","","","","nonmatch","","","","","","","","","","key","j","16.66386554621849","768","428","f","false","match","img/ellipse.png","弱他","弱他","prac_ALT2_ability","practice_ability","","","","","","","","",""
"null","<span style='color:red; font-size: 70px;'>错误! </span>","null","html-keyboard-response","41","267963","0.0-8.0-1.0-1.0-0.0-1.15","7","7","7","7","7","5","5","5","5","5","5","2","1","2","2","2","2","2","2","5","5","5","5","5","5","4","4","5","4","7","6","8","8","7","6","6","8","6","7","7","7","7","7","6","7","1","7","7","1","7","7","7","7","6","7","7","7","7","7","7","7","7","7","7","7","6","7","7","7","7","7","7","7","7","7","7","7","6","7","602303969804419072","刘","658","Male","[""坏我"",""坏他"",""好我"",""好他""]","[""弱我"",""弱他"",""强我"",""强他""]","","","","","","","","","","","","","","","","","","","","","","","","","","","","","","feedback_test","","","","","","","","",""
"833","","f","psychophysics","42","269798","0.0-8.0-1.0-1.0-0.0-0.16","7","7","7","7","7","5","5","5","5","5","5","2","1","2","2","2","2","2","2","5","5","5","5","5","5","4","4","5","4","7","6","8","8","7","6","6","8","6","7","7","7","7","7","6","7","1","7","7","1","7","7","7","7","6","7","7","7","7","7","7","7","7","7","7","7","6","7","7","7","7","7","7","7","7","7","7","7","6","7","602303969804419072","刘","658","Male","[""坏我"",""坏他"",""好我"",""好他""]","[""弱我"",""弱他"",""强我"",""强他""]","","","","","","","","match","","","","","","","","","","key","f","16.664220183485916","768","428","f","true","match","img/triangle.png","强我","强我","prac_ALT2_ability","practice_ability","","","","","","","","",""
"null","<span style='color:GreenYellow; font-size: 70px;'>正确! </span>","null","html-keyboard-response","43","270299","0.0-8.0-1.0-1.0-0.0-1.16","7","7","7","7","7","5","5","5","5","5","5","2","1","2","2","2","2","2","2","5","5","5","5","5","5","4","4","5","4","7","6","8","8","7","6","6","8","6","7","7","7","7","7","6","7","1","7","7","1","7","7","7","7","6","7","7","7","7","7","7","7","7","7","7","7","6","7","7","7","7","7","7","7","7","7","7","7","6","7","602303969804419072","刘","658","Male","[""坏我"",""坏他"",""好我"",""好他""]","[""弱我"",""弱他"",""强我"",""强他""]","","","","","","","","","","","","","","","","","","","","","","","","","","","","","","feedback_test","","","","","","","","",""
"960","","j","psychophysics","44","272262","0.0-8.0-1.0-1.0-0.0-0.17","7","7","7","7","7","5","5","5","5","5","5","2","1","2","2","2","2","2","2","5","5","5","5","5","5","4","4","5","4","7","6","8","8","7","6","6","8","6","7","7","7","7","7","6","7","1","7","7","1","7","7","7","7","6","7","7","7","7","7","7","7","7","7","7","7","6","7","7","7","7","7","7","7","7","7","7","7","6","7","602303969804419072","刘","658","Male","[""坏我"",""坏他"",""好我"",""好他""]","[""弱我"",""弱他"",""强我"",""强他""]","","","","","","","","nonmatch","","","","","","","","","","key","j","16.664957264957167","768","428","f","false","match","img/trapezoid.png","强他","强他","prac_ALT2_ability","practice_ability","","","","","","","","",""
"null","<span style='color:red; font-size: 70px;'>错误! </span>","null","html-keyboard-response","45","272764","0.0-8.0-1.0-1.0-0.0-1.17","7","7","7","7","7","5","5","5","5","5","5","2","1","2","2","2","2","2","2","5","5","5","5","5","5","4","4","5","4","7","6","8","8","7","6","6","8","6","7","7","7","7","7","6","7","1","7","7","1","7","7","7","7","6","7","7","7","7","7","7","7","7","7","7","7","6","7","7","7","7","7","7","7","7","7","7","7","6","7","602303969804419072","刘","658","Male","[""坏我"",""坏他"",""好我"",""好他""]","[""弱我"",""弱他"",""强我"",""强他""]","","","","","","","","","","","","","","","","","","","","","","","","","","","","","","feedback_test","","","","","","","","",""
"801","","j","psychophysics","46","274566","0.0-8.0-1.0-1.0-0.0-0.18","7","7","7","7","7","5","5","5","5","5","5","2","1","2","2","2","2","2","2","5","5","5","5","5","5","4","4","5","4","7","6","8","8","7","6","6","8","6","7","7","7","7","7","6","7","1","7","7","1","7","7","7","7","6","7","7","7","7","7","7","7","7","7","7","7","6","7","7","7","7","7","7","7","7","7","7","7","6","7","602303969804419072","刘","658","Male","[""坏我"",""坏他"",""好我"",""好他""]","[""弱我"",""弱他"",""强我"",""强他""]","","","","","","","","nonmatch","","","","","","","","","","key","j","16.66168224299109","768","428","j","true","nonmatch","img/pentagon.png","强他","弱我","prac_ALT2_ability","practice_ability","","","","","","","","",""
"null","<span style='color:GreenYellow; font-size: 70px;'>正确! </span>","null","html-keyboard-response","47","275067","0.0-8.0-1.0-1.0-0.0-1.18","7","7","7","7","7","5","5","5","5","5","5","2","1","2","2","2","2","2","2","5","5","5","5","5","5","4","4","5","4","7","6","8","8","7","6","6","8","6","7","7","7","7","7","6","7","1","7","7","1","7","7","7","7","6","7","7","7","7","7","7","7","7","7","7","7","6","7","7","7","7","7","7","7","7","7","7","7","6","7","602303969804419072","刘","658","Male","[""坏我"",""坏他"",""好我"",""好他""]","[""弱我"",""弱他"",""强我"",""强他""]","","","","","","","","","","","","","","","","","","","","","","","","","","","","","","feedback_test","","","","","","","","",""
"1026","","j","psychophysics","48","277094","0.0-8.0-1.0-1.0-0.0-0.19","7","7","7","7","7","5","5","5","5","5","5","2","1","2","2","2","2","2","2","5","5","5","5","5","5","4","4","5","4","7","6","8","8","7","6","6","8","6","7","7","7","7","7","6","7","1","7","7","1","7","7","7","7","6","7","7","7","7","7","7","7","7","7","7","7","6","7","7","7","7","7","7","7","7","7","7","7","6","7","602303969804419072","刘","658","Male","[""坏我"",""坏他"",""好我"",""好他""]","[""弱我"",""弱他"",""强我"",""强他""]","","","","","","","","nonmatch","","","","","","","","","","key","j","16.66446280991755","768","428","j","true","nonmatch","img/triangle.png","弱他","强我","prac_ALT2_ability","practice_ability","","","","","","","","",""
"null","<span style='color:GreenYellow; font-size: 70px;'>正确! </span>","null","html-keyboard-response","49","277608","0.0-8.0-1.0-1.0-0.0-1.19","7","7","7","7","7","5","5","5","5","5","5","2","1","2","2","2","2","2","2","5","5","5","5","5","5","4","4","5","4","7","6","8","8","7","6","6","8","6","7","7","7","7","7","6","7","1","7","7","1","7","7","7","7","6","7","7","7","7","7","7","7","7","7","7","7","6","7","7","7","7","7","7","7","7","7","7","7","6","7","602303969804419072","刘","658","Male","[""坏我"",""坏他"",""好我"",""好他""]","[""弱我"",""弱他"",""强我"",""强他""]","","","","","","","","","","","","","","","","","","","","","","","","","","","","","","feedback_test","","","","","","","","",""
"573","","f","psychophysics","50","279182","0.0-8.0-1.0-1.0-0.0-0.20","7","7","7","7","7","5","5","5","5","5","5","2","1","2","2","2","2","2","2","5","5","5","5","5","5","4","4","5","4","7","6","8","8","7","6","6","8","6","7","7","7","7","7","6","7","1","7","7","1","7","7","7","7","6","7","7","7","7","7","7","7","7","7","7","7","6","7","7","7","7","7","7","7","7","7","7","7","6","7","602303969804419072","刘","658","Male","[""坏我"",""坏他"",""好我"",""好他""]","[""弱我"",""弱他"",""强我"",""强他""]","","","","","","","","match","","","","","","","","","","key","f","16.664516129032133","768","428","f","true","match","img/triangle.png","强我","强我","prac_ALT2_ability","practice_ability","","","","","","","","",""
"null","<span style='color:GreenYellow; font-size: 70px;'>正确! </span>","null","html-keyboard-response","51","279683","0.0-8.0-1.0-1.0-0.0-1.20","7","7","7","7","7","5","5","5","5","5","5","2","1","2","2","2","2","2","2","5","5","5","5","5","5","4","4","5","4","7","6","8","8","7","6","6","8","6","7","7","7","7","7","6","7","1","7","7","1","7","7","7","7","6","7","7","7","7","7","7","7","7","7","7","7","6","7","7","7","7","7","7","7","7","7","7","7","6","7","602303969804419072","刘","658","Male","[""坏我"",""坏他"",""好我"",""好他""]","[""弱我"",""弱他"",""强我"",""强他""]","","","","","","","","","","","","","","","","","","","","","","","","","","","","","","feedback_test","","","","","","","","",""
"802","","f","psychophysics","52","281486","0.0-8.0-1.0-1.0-0.0-0.21","7","7","7","7","7","5","5","5","5","5","5","2","1","2","2","2","2","2","2","5","5","5","5","5","5","4","4","5","4","7","6","8","8","7","6","6","8","6","7","7","7","7","7","6","7","1","7","7","1","7","7","7","7","6","7","7","7","7","7","7","7","7","7","7","7","6","7","7","7","7","7","7","7","7","7","7","7","6","7","602303969804419072","刘","658","Male","[""坏我"",""坏他"",""好我"",""好他""]","[""弱我"",""弱他"",""强我"",""强他""]","","","","","","","","match","","","","","","","","","","key","f","16.66074766355151","768","428","f","true","match","img/ellipse.png","弱他","弱他","prac_ALT2_ability","practice_ability","","","","","","","","",""
"null","<span style='color:GreenYellow; font-size: 70px;'>正确! </span>","null","html-keyboard-response","53","281987","0.0-8.0-1.0-1.0-0.0-1.21","7","7","7","7","7","5","5","5","5","5","5","2","1","2","2","2","2","2","2","5","5","5","5","5","5","4","4","5","4","7","6","8","8","7","6","6","8","6","7","7","7","7","7","6","7","1","7","7","1","7","7","7","7","6","7","7","7","7","7","7","7","7","7","7","7","6","7","7","7","7","7","7","7","7","7","7","7","6","7","602303969804419072","刘","658","Male","[""坏我"",""坏他"",""好我"",""好他""]","[""弱我"",""弱他"",""强我"",""强他""]","","","","","","","","","","","","","","","","","","","","","","","","","","","","","","feedback_test","","","","","","","","",""
"762","","f","psychophysics","54","283749","0.0-8.0-1.0-1.0-0.0-0.22","7","7","7","7","7","5","5","5","5","5","5","2","1","2","2","2","2","2","2","5","5","5","5","5","5","4","4","5","4","7","6","8","8","7","6","6","8","6","7","7","7","7","7","6","7","1","7","7","1","7","7","7","7","6","7","7","7","7","7","7","7","7","7","7","7","6","7","7","7","7","7","7","7","7","7","7","7","6","7","602303969804419072","刘","658","Male","[""坏我"",""坏他"",""好我"",""好他""]","[""弱我"",""弱他"",""强我"",""强他""]","","","","","","","","match","","","","","","","","","","key","f","16.6663461538466","768","428","f","true","match","img/trapezoid.png","强他","强他","prac_ALT2_ability","practice_ability","","","","","","","","",""
"null","<span style='color:GreenYellow; font-size: 70px;'>正确! </span>","null","html-keyboard-response","55","284251","0.0-8.0-1.0-1.0-0.0-1.22","7","7","7","7","7","5","5","5","5","5","5","2","1","2","2","2","2","2","2","5","5","5","5","5","5","4","4","5","4","7","6","8","8","7","6","6","8","6","7","7","7","7","7","6","7","1","7","7","1","7","7","7","7","6","7","7","7","7","7","7","7","7","7","7","7","6","7","7","7","7","7","7","7","7","7","7","7","6","7","602303969804419072","刘","658","Male","[""坏我"",""坏他"",""好我"",""好他""]","[""弱我"",""弱他"",""强我"",""强他""]","","","","","","","","","","","","","","","","","","","","","","","","","","","","","","feedback_test","","","","","","","","",""
"745","","f","psychophysics","56","285997","0.0-8.0-1.0-1.0-0.0-0.23","7","7","7","7","7","5","5","5","5","5","5","2","1","2","2","2","2","2","2","5","5","5","5","5","5","4","4","5","4","7","6","8","8","7","6","6","8","6","7","7","7","7","7","6","7","1","7","7","1","7","7","7","7","6","7","7","7","7","7","7","7","7","7","7","7","6","7","7","7","7","7","7","7","7","7","7","7","6","7","602303969804419072","刘","658","Male","[""坏我"",""坏他"",""好我"",""好他""]","[""弱我"",""弱他"",""强我"",""强他""]","","","","","","","","match","","","","","","","","","","key","f","16.66504854368932","768","428","f","true","match","img/pentagon.png","弱我","弱我","prac_ALT2_ability","practice_ability","","","","","","","","",""
"null","<span style='color:GreenYellow; font-size: 70px;'>正确! </span>","null","html-keyboard-response","57","286498","0.0-8.0-1.0-1.0-0.0-1.23","7","7","7","7","7","5","5","5","5","5","5","2","1","2","2","2","2","2","2","5","5","5","5","5","5","4","4","5","4","7","6","8","8","7","6","6","8","6","7","7","7","7","7","6","7","1","7","7","1","7","7","7","7","6","7","7","7","7","7","7","7","7","7","7","7","6","7","7","7","7","7","7","7","7","7","7","7","6","7","602303969804419072","刘","658","Male","[""坏我"",""坏他"",""好我"",""好他""]","[""弱我"",""弱他"",""强我"",""强他""]","","","","","","","","","","","","","","","","","","","","","","","","","","","","","","feedback_test","","","","","","","","",""
"705","","f","psychophysics","58","288205","0.0-8.0-1.0-1.0-0.0-0.24","7","7","7","7","7","5","5","5","5","5","5","2","1","2","2","2","2","2","2","5","5","5","5","5","5","4","4","5","4","7","6","8","8","7","6","6","8","6","7","7","7","7","7","6","7","1","7","7","1","7","7","7","7","6","7","7","7","7","7","7","7","7","7","7","7","6","7","7","7","7","7","7","7","7","7","7","7","6","7","602303969804419072","刘","658","Male","[""坏我"",""坏他"",""好我"",""好他""]","[""弱我"",""弱他"",""强我"",""强他""]","","","","","","","","match","","","","","","","","","","key","f","16.652475247524983","768","428","f","true","match","img/trapezoid.png","强他","强他","prac_ALT2_ability","practice_ability","","","","","","","","",""
"null","<span style='color:GreenYellow; font-size: 70px;'>正确! </span>","null","html-keyboard-response","59","288705","0.0-8.0-1.0-1.0-0.0-1.24","7","7","7","7","7","5","5","5","5","5","5","2","1","2","2","2","2","2","2","5","5","5","5","5","5","4","4","5","4","7","6","8","8","7","6","6","8","6","7","7","7","7","7","6","7","1","7","7","1","7","7","7","7","6","7","7","7","7","7","7","7","7","7","7","7","6","7","7","7","7","7","7","7","7","7","7","7","6","7","602303969804419072","刘","658","Male","[""坏我"",""坏他"",""好我"",""好他""]","[""弱我"",""弱他"",""强我"",""强他""]","","","","","","","","","","","","","","","","","","","","","","","","","","","","","","feedback_test","","","","","","","","",""
"721","","f","psychophysics","60","290429","0.0-8.0-1.0-1.0-0.0-0.25","7","7","7","7","7","5","5","5","5","5","5","2","1","2","2","2","2","2","2","5","5","5","5","5","5","4","4","5","4","7","6","8","8","7","6","6","8","6","7","7","7","7","7","6","7","1","7","7","1","7","7","7","7","6","7","7","7","7","7","7","7","7","7","7","7","6","7","7","7","7","7","7","7","7","7","7","7","6","7","602303969804419072","刘","658","Male","[""坏我"",""坏他"",""好我"",""好他""]","[""弱我"",""弱他"",""强我"",""强他""]","","","","","","","","match","","","","","","","","","","key","f","16.667647058823302","768","428","j","false","nonmatch","img/pentagon.png","弱他","弱我","prac_ALT2_ability","practice_ability","","","","","","","","",""
"null","<span style='color:red; font-size: 70px;'>错误! </span>","null","html-keyboard-response","61","290929","0.0-8.0-1.0-1.0-0.0-1.25","7","7","7","7","7","5","5","5","5","5","5","2","1","2","2","2","2","2","2","5","5","5","5","5","5","4","4","5","4","7","6","8","8","7","6","6","8","6","7","7","7","7","7","6","7","1","7","7","1","7","7","7","7","6","7","7","7","7","7","7","7","7","7","7","7","6","7","7","7","7","7","7","7","7","7","7","7","6","7","602303969804419072","刘","658","Male","[""坏我"",""坏他"",""好我"",""好他""]","[""弱我"",""弱他"",""强我"",""强他""]","","","","","","","","","","","","","","","","","","","","","","","","","","","","","","feedback_test","","","","","","","","",""
"585","","f","psychophysics","62","292517","0.0-8.0-1.0-1.0-0.0-0.26","7","7","7","7","7","5","5","5","5","5","5","2","1","2","2","2","2","2","2","5","5","5","5","5","5","4","4","5","4","7","6","8","8","7","6","6","8","6","7","7","7","7","7","6","7","1","7","7","1","7","7","7","7","6","7","7","7","7","7","7","7","7","7","7","7","6","7","7","7","7","7","7","7","7","7","7","7","6","7","602303969804419072","刘","658","Male","[""坏我"",""坏他"",""好我"",""好他""]","[""弱我"",""弱他"",""强我"",""强他""]","","","","","","","","match","","","","","","","","","","key","f","16.66526315789486","768","428","j","false","nonmatch","img/pentagon.png","强我","弱我","prac_ALT2_ability","practice_ability","","","","","","","","",""
"null","<span style='color:red; font-size: 70px;'>错误! </span>","null","html-keyboard-response","63","293018","0.0-8.0-1.0-1.0-0.0-1.26","7","7","7","7","7","5","5","5","5","5","5","2","1","2","2","2","2","2","2","5","5","5","5","5","5","4","4","5","4","7","6","8","8","7","6","6","8","6","7","7","7","7","7","6","7","1","7","7","1","7","7","7","7","6","7","7","7","7","7","7","7","7","7","7","7","6","7","7","7","7","7","7","7","7","7","7","7","6","7","602303969804419072","刘","658","Male","[""坏我"",""坏他"",""好我"",""好他""]","[""弱我"",""弱他"",""强我"",""强他""]","","","","","","","","","","","","","","","","","","","","","","","","","","","","","","feedback_test","","","","","","","","",""
"922","","f","psychophysics","64","294941","0.0-8.0-1.0-1.0-0.0-0.27","7","7","7","7","7","5","5","5","5","5","5","2","1","2","2","2","2","2","2","5","5","5","5","5","5","4","4","5","4","7","6","8","8","7","6","6","8","6","7","7","7","7","7","6","7","1","7","7","1","7","7","7","7","6","7","7","7","7","7","7","7","7","7","7","7","6","7","7","7","7","7","7","7","7","7","7","7","6","7","602303969804419072","刘","658","Male","[""坏我"",""坏他"",""好我"",""好他""]","[""弱我"",""弱他"",""强我"",""强他""]","","","","","","","","match","","","","","","","","","","key","f","16.664912280701653","768","428","f","true","match","img/trapezoid.png","强他","强他","prac_ALT2_ability","practice_ability","","","","","","","","",""
"null","<span style='color:GreenYellow; font-size: 70px;'>正确! </span>","null","html-keyboard-response","65","295441","0.0-8.0-1.0-1.0-0.0-1.27","7","7","7","7","7","5","5","5","5","5","5","2","1","2","2","2","2","2","2","5","5","5","5","5","5","4","4","5","4","7","6","8","8","7","6","6","8","6","7","7","7","7","7","6","7","1","7","7","1","7","7","7","7","6","7","7","7","7","7","7","7","7","7","7","7","6","7","7","7","7","7","7","7","7","7","7","7","6","7","602303969804419072","刘","658","Male","[""坏我"",""坏他"",""好我"",""好他""]","[""弱我"",""弱他"",""强我"",""强他""]","","","","","","","","","","","","","","","","","","","","","","","","","","","","","","feedback_test","","","","","","","","",""
"1051","","j","psychophysics","66","297493","0.0-8.0-1.0-1.0-0.0-0.28","7","7","7","7","7","5","5","5","5","5","5","2","1","2","2","2","2","2","2","5","5","5","5","5","5","4","4","5","4","7","6","8","8","7","6","6","8","6","7","7","7","7","7","6","7","1","7","7","1","7","7","7","7","6","7","7","7","7","7","7","7","7","7","7","7","6","7","7","7","7","7","7","7","7","7","7","7","6","7","602303969804419072","刘","658","Male","[""坏我"",""坏他"",""好我"",""好他""]","[""弱我"",""弱他"",""强我"",""强他""]","","","","","","","","nonmatch","","","","","","","","","","key","j","16.6655737704919","768","428","j","true","nonmatch","img/triangle.png","强他","强我","prac_ALT2_ability","practice_ability","","","","","","","","",""
"null","<span style='color:GreenYellow; font-size: 70px;'>正确! </span>","null","html-keyboard-response","67","297994","0.0-8.0-1.0-1.0-0.0-1.28","7","7","7","7","7","5","5","5","5","5","5","2","1","2","2","2","2","2","2","5","5","5","5","5","5","4","4","5","4","7","6","8","8","7","6","6","8","6","7","7","7","7","7","6","7","1","7","7","1","7","7","7","7","6","7","7","7","7","7","7","7","7","7","7","7","6","7","7","7","7","7","7","7","7","7","7","7","6","7","602303969804419072","刘","658","Male","[""坏我"",""坏他"",""好我"",""好他""]","[""弱我"",""弱他"",""强我"",""强他""]","","","","","","","","","","","","","","","","","","","","","","","","","","","","","","feedback_test","","","","","","","","",""
"1056","","f","psychophysics","68","300053","0.0-8.0-1.0-1.0-0.0-0.29","7","7","7","7","7","5","5","5","5","5","5","2","1","2","2","2","2","2","2","5","5","5","5","5","5","4","4","5","4","7","6","8","8","7","6","6","8","6","7","7","7","7","7","6","7","1","7","7","1","7","7","7","7","6","7","7","7","7","7","7","7","7","7","7","7","6","7","7","7","7","7","7","7","7","7","7","7","6","7","602303969804419072","刘","658","Male","[""坏我"",""坏他"",""好我"",""好他""]","[""弱我"",""弱他"",""强我"",""强他""]","","","","","","","","match","","","","","","","","","","key","f","16.665853658536303","768","428","j","false","nonmatch","img/trapezoid.png","弱他","强他","prac_ALT2_ability","practice_ability","","","","","","","","",""
"null","<span style='color:red; font-size: 70px;'>错误! </span>","null","html-keyboard-response","69","300555","0.0-8.0-1.0-1.0-0.0-1.29","7","7","7","7","7","5","5","5","5","5","5","2","1","2","2","2","2","2","2","5","5","5","5","5","5","4","4","5","4","7","6","8","8","7","6","6","8","6","7","7","7","7","7","6","7","1","7","7","1","7","7","7","7","6","7","7","7","7","7","7","7","7","7","7","7","6","7","7","7","7","7","7","7","7","7","7","7","6","7","602303969804419072","刘","658","Male","[""坏我"",""坏他"",""好我"",""好他""]","[""弱我"",""弱他"",""强我"",""强他""]","","","","","","","","","","","","","","","","","","","","","","","","","","","","","","feedback_test","","","","","","","","",""
"801","","f","psychophysics","70","302357","0.0-8.0-1.0-1.0-0.0-0.30","7","7","7","7","7","5","5","5","5","5","5","2","1","2","2","2","2","2","2","5","5","5","5","5","5","4","4","5","4","7","6","8","8","7","6","6","8","6","7","7","7","7","7","6","7","1","7","7","1","7","7","7","7","6","7","7","7","7","7","7","7","7","7","7","7","6","7","7","7","7","7","7","7","7","7","7","7","6","7","602303969804419072","刘","658","Male","[""坏我"",""坏他"",""好我"",""好他""]","[""弱我"",""弱他"",""强我"",""强他""]","","","","","","","","match","","","","","","","","","","key","f","16.666355140187353","768","428","f","true","match","img/triangle.png","强我","强我","prac_ALT2_ability","practice_ability","","","","","","","","",""
"null","<span style='color:GreenYellow; font-size: 70px;'>正确! </span>","null","html-keyboard-response","71","302857","0.0-8.0-1.0-1.0-0.0-1.30","7","7","7","7","7","5","5","5","5","5","5","2","1","2","2","2","2","2","2","5","5","5","5","5","5","4","4","5","4","7","6","8","8","7","6","6","8","6","7","7","7","7","7","6","7","1","7","7","1","7","7","7","7","6","7","7","7","7","7","7","7","7","7","7","7","6","7","7","7","7","7","7","7","7","7","7","7","6","7","602303969804419072","刘","658","Male","[""坏我"",""坏他"",""好我"",""好他""]","[""弱我"",""弱他"",""强我"",""强他""]","","","","","","","","","","","","","","","","","","","","","","","","","","","","","","feedback_test","","","","","","","","",""
"914","","f","psychophysics","72","304773","0.0-8.0-1.0-1.0-0.0-0.31","7","7","7","7","7","5","5","5","5","5","5","2","1","2","2","2","2","2","2","5","5","5","5","5","5","4","4","5","4","7","6","8","8","7","6","6","8","6","7","7","7","7","7","6","7","1","7","7","1","7","7","7","7","6","7","7","7","7","7","7","7","7","7","7","7","6","7","7","7","7","7","7","7","7","7","7","7","6","7","602303969804419072","刘","658","Male","[""坏我"",""坏他"",""好我"",""好他""]","[""弱我"",""弱他"",""强我"",""强他""]","","","","","","","","match","","","","","","","","","","key","f","16.666666666666668","768","428","f","true","match","img/triangle.png","强我","强我","prac_ALT2_ability","practice_ability","","","","","","","","",""
"null","<span style='color:GreenYellow; font-size: 70px;'>正确! </span>","null","html-keyboard-response","73","305282","0.0-8.0-1.0-1.0-0.0-1.31","7","7","7","7","7","5","5","5","5","5","5","2","1","2","2","2","2","2","2","5","5","5","5","5","5","4","4","5","4","7","6","8","8","7","6","6","8","6","7","7","7","7","7","6","7","1","7","7","1","7","7","7","7","6","7","7","7","7","7","7","7","7","7","7","7","6","7","7","7","7","7","7","7","7","7","7","7","6","7","602303969804419072","刘","658","Male","[""坏我"",""坏他"",""好我"",""好他""]","[""弱我"",""弱他"",""强我"",""强他""]","","","","","","","","","","","","","","","","","","","","","","","","","","","","","","feedback_test","","","","","","","","",""
"761","","j","psychophysics","74","307045","0.0-8.0-1.0-1.0-0.0-0.32","7","7","7","7","7","5","5","5","5","5","5","2","1","2","2","2","2","2","2","5","5","5","5","5","5","4","4","5","4","7","6","8","8","7","6","6","8","6","7","7","7","7","7","6","7","1","7","7","1","7","7","7","7","6","7","7","7","7","7","7","7","7","7","7","7","6","7","7","7","7","7","7","7","7","7","7","7","6","7","602303969804419072","刘","658","Male","[""坏我"",""坏他"",""好我"",""好他""]","[""弱我"",""弱他"",""强我"",""强他""]","","","","","","","","nonmatch","","","","","","","","","","key","j","16.65961538461572","768","428","j","true","nonmatch","img/triangle.png","弱我","强我","prac_ALT2_ability","practice_ability","","","","","","","","",""
"null","<span style='color:GreenYellow; font-size: 70px;'>正确! </span>","null","html-keyboard-response","75","307546","0.0-8.0-1.0-1.0-0.0-1.32","7","7","7","7","7","5","5","5","5","5","5","2","1","2","2","2","2","2","2","5","5","5","5","5","5","4","4","5","4","7","6","8","8","7","6","6","8","6","7","7","7","7","7","6","7","1","7","7","1","7","7","7","7","6","7","7","7","7","7","7","7","7","7","7","7","6","7","7","7","7","7","7","7","7","7","7","7","6","7","602303969804419072","刘","658","Male","[""坏我"",""坏他"",""好我"",""好他""]","[""弱我"",""弱他"",""强我"",""强他""]","","","","","","","","","","","","","","","","","","","","","","","","","","","","","","feedback_test","","","","","","","","",""
"1106","","f","psychophysics","76","309653","0.0-8.0-1.0-1.0-0.0-0.33","7","7","7","7","7","5","5","5","5","5","5","2","1","2","2","2","2","2","2","5","5","5","5","5","5","4","4","5","4","7","6","8","8","7","6","6","8","6","7","7","7","7","7","6","7","1","7","7","1","7","7","7","7","6","7","7","7","7","7","7","7","7","7","7","7","6","7","7","7","7","7","7","7","7","7","7","7","6","7","602303969804419072","刘","658","Male","[""坏我"",""坏他"",""好我"",""好他""]","[""弱我"",""弱他"",""强我"",""强他""]","","","","","","","","match","","","","","","","","","","key","f","16.664799999999815","768","428","f","true","match","img/ellipse.png","弱他","弱他","prac_ALT2_ability","practice_ability","","","","","","","","",""
"null","<span style='color:GreenYellow; font-size: 70px;'>正确! </span>","null","html-keyboard-response","77","310154","0.0-8.0-1.0-1.0-0.0-1.33","7","7","7","7","7","5","5","5","5","5","5","2","1","2","2","2","2","2","2","5","5","5","5","5","5","4","4","5","4","7","6","8","8","7","6","6","8","6","7","7","7","7","7","6","7","1","7","7","1","7","7","7","7","6","7","7","7","7","7","7","7","7","7","7","7","6","7","7","7","7","7","7","7","7","7","7","7","6","7","602303969804419072","刘","658","Male","[""坏我"",""坏他"",""好我"",""好他""]","[""弱我"",""弱他"",""强我"",""强他""]","","","","","","","","","","","","","","","","","","","","","","","","","","","","","","feedback_test","","","","","","","","",""
"672","","f","psychophysics","78","311829","0.0-8.0-1.0-1.0-0.0-0.34","7","7","7","7","7","5","5","5","5","5","5","2","1","2","2","2","2","2","2","5","5","5","5","5","5","4","4","5","4","7","6","8","8","7","6","6","8","6","7","7","7","7","7","6","7","1","7","7","1","7","7","7","7","6","7","7","7","7","7","7","7","7","7","7","7","6","7","7","7","7","7","7","7","7","7","7","7","6","7","602303969804419072","刘","658","Male","[""坏我"",""坏他"",""好我"",""好他""]","[""弱我"",""弱他"",""强我"",""强他""]","","","","","","","","match","","","","","","","","","","key","f","16.6656565656568","768","428","f","true","match","img/ellipse.png","弱他","弱他","prac_ALT2_ability","practice_ability","","","","","","","","",""
"null","<span style='color:GreenYellow; font-size: 70px;'>正确! </span>","null","html-keyboard-response","79","312330","0.0-8.0-1.0-1.0-0.0-1.34","7","7","7","7","7","5","5","5","5","5","5","2","1","2","2","2","2","2","2","5","5","5","5","5","5","4","4","5","4","7","6","8","8","7","6","6","8","6","7","7","7","7","7","6","7","1","7","7","1","7","7","7","7","6","7","7","7","7","7","7","7","7","7","7","7","6","7","7","7","7","7","7","7","7","7","7","7","6","7","602303969804419072","刘","658","Male","[""坏我"",""坏他"",""好我"",""好他""]","[""弱我"",""弱他"",""强我"",""强他""]","","","","","","","","","","","","","","","","","","","","","","","","","","","","","","feedback_test","","","","","","","","",""
"795","","j","psychophysics","80","314125","0.0-8.0-1.0-1.0-0.0-0.35","7","7","7","7","7","5","5","5","5","5","5","2","1","2","2","2","2","2","2","5","5","5","5","5","5","4","4","5","4","7","6","8","8","7","6","6","8","6","7","7","7","7","7","6","7","1","7","7","1","7","7","7","7","6","7","7","7","7","7","7","7","7","7","7","7","6","7","7","7","7","7","7","7","7","7","7","7","6","7","602303969804419072","刘","658","Male","[""坏我"",""坏他"",""好我"",""好他""]","[""弱我"",""弱他"",""强我"",""强他""]","","","","","","","","nonmatch","","","","","","","","","","key","j","16.666037735849386","768","428","j","true","nonmatch","img/ellipse.png","弱我","弱他","prac_ALT2_ability","practice_ability","","","","","","","","",""
"null","<span style='color:GreenYellow; font-size: 70px;'>正确! </span>","null","html-keyboard-response","81","314626","0.0-8.0-1.0-1.0-0.0-1.35","7","7","7","7","7","5","5","5","5","5","5","2","1","2","2","2","2","2","2","5","5","5","5","5","5","4","4","5","4","7","6","8","8","7","6","6","8","6","7","7","7","7","7","6","7","1","7","7","1","7","7","7","7","6","7","7","7","7","7","7","7","7","7","7","7","6","7","7","7","7","7","7","7","7","7","7","7","6","7","602303969804419072","刘","658","Male","[""坏我"",""坏他"",""好我"",""好他""]","[""弱我"",""弱他"",""强我"",""强他""]","","","","","","","","","","","","","","","","","","","","","","","","","","","","","","feedback_test","","","","","","","","",""
"818","","j","psychophysics","82","316445","0.0-8.0-1.0-1.0-0.0-0.36","7","7","7","7","7","5","5","5","5","5","5","2","1","2","2","2","2","2","2","5","5","5","5","5","5","4","4","5","4","7","6","8","8","7","6","6","8","6","7","7","7","7","7","6","7","1","7","7","1","7","7","7","7","6","7","7","7","7","7","7","7","7","7","7","7","6","7","7","7","7","7","7","7","7","7","7","7","6","7","602303969804419072","刘","658","Male","[""坏我"",""坏他"",""好我"",""好他""]","[""弱我"",""弱他"",""强我"",""强他""]","","","","","","","","nonmatch","","","","","","","","","","key","j","16.666666666666668","768","428","j","true","nonmatch","img/ellipse.png","强他","弱他","prac_ALT2_ability","practice_ability","","","","","","","","",""
"null","<span style='color:GreenYellow; font-size: 70px;'>正确! </span>","null","html-keyboard-response","83","316946","0.0-8.0-1.0-1.0-0.0-1.36","7","7","7","7","7","5","5","5","5","5","5","2","1","2","2","2","2","2","2","5","5","5","5","5","5","4","4","5","4","7","6","8","8","7","6","6","8","6","7","7","7","7","7","6","7","1","7","7","1","7","7","7","7","6","7","7","7","7","7","7","7","7","7","7","7","6","7","7","7","7","7","7","7","7","7","7","7","6","7","602303969804419072","刘","658","Male","[""坏我"",""坏他"",""好我"",""好他""]","[""弱我"",""弱他"",""强我"",""强他""]","","","","","","","","","","","","","","","","","","","","","","","","","","","","","","feedback_test","","","","","","","","",""
"914","","j","psychophysics","84","318861","0.0-8.0-1.0-1.0-0.0-0.37","7","7","7","7","7","5","5","5","5","5","5","2","1","2","2","2","2","2","2","5","5","5","5","5","5","4","4","5","4","7","6","8","8","7","6","6","8","6","7","7","7","7","7","6","7","1","7","7","1","7","7","7","7","6","7","7","7","7","7","7","7","7","7","7","7","6","7","7","7","7","7","7","7","7","7","7","7","6","7","602303969804419072","刘","658","Male","[""坏我"",""坏他"",""好我"",""好他""]","[""弱我"",""弱他"",""强我"",""强他""]","","","","","","","","nonmatch","","","","","","","","","","key","j","16.664601769911297","768","428","f","false","match","img/pentagon.png","弱我","弱我","prac_ALT2_ability","practice_ability","","","","","","","","",""
"null","<span style='color:red; font-size: 70px;'>错误! </span>","null","html-keyboard-response","85","319362","0.0-8.0-1.0-1.0-0.0-1.37","7","7","7","7","7","5","5","5","5","5","5","2","1","2","2","2","2","2","2","5","5","5","5","5","5","4","4","5","4","7","6","8","8","7","6","6","8","6","7","7","7","7","7","6","7","1","7","7","1","7","7","7","7","6","7","7","7","7","7","7","7","7","7","7","7","6","7","7","7","7","7","7","7","7","7","7","7","6","7","602303969804419072","刘","658","Male","[""坏我"",""坏他"",""好我"",""好他""]","[""弱我"",""弱他"",""强我"",""强他""]","","","","","","","","","","","","","","","","","","","","","","","","","","","","","","feedback_test","","","","","","","","",""
"1144","","j","psychophysics","86","321509","0.0-8.0-1.0-1.0-0.0-0.38","7","7","7","7","7","5","5","5","5","5","5","2","1","2","2","2","2","2","2","5","5","5","5","5","5","4","4","5","4","7","6","8","8","7","6","6","8","6","7","7","7","7","7","6","7","1","7","7","1","7","7","7","7","6","7","7","7","7","7","7","7","7","7","7","7","6","7","7","7","7","7","7","7","7","7","7","7","6","7","602303969804419072","刘","658","Male","[""坏我"",""坏他"",""好我"",""好他""]","[""弱我"",""弱他"",""强我"",""强他""]","","","","","","","","nonmatch","","","","","","","","","","key","j","16.664566929134043","768","428","j","true","nonmatch","img/trapezoid.png","强我","强他","prac_ALT2_ability","practice_ability","","","","","","","","",""
"null","<span style='color:GreenYellow; font-size: 70px;'>正确! </span>","null","html-keyboard-response","87","322011","0.0-8.0-1.0-1.0-0.0-1.38","7","7","7","7","7","5","5","5","5","5","5","2","1","2","2","2","2","2","2","5","5","5","5","5","5","4","4","5","4","7","6","8","8","7","6","6","8","6","7","7","7","7","7","6","7","1","7","7","1","7","7","7","7","6","7","7","7","7","7","7","7","7","7","7","7","6","7","7","7","7","7","7","7","7","7","7","7","6","7","602303969804419072","刘","658","Male","[""坏我"",""坏他"",""好我"",""好他""]","[""弱我"",""弱他"",""强我"",""强他""]","","","","","","","","","","","","","","","","","","","","","","","","","","","","","","feedback_test","","","","","","","","",""
"785","","f","psychophysics","88","323797","0.0-8.0-1.0-1.0-0.0-0.39","7","7","7","7","7","5","5","5","5","5","5","2","1","2","2","2","2","2","2","5","5","5","5","5","5","4","4","5","4","7","6","8","8","7","6","6","8","6","7","7","7","7","7","6","7","1","7","7","1","7","7","7","7","6","7","7","7","7","7","7","7","7","7","7","7","6","7","7","7","7","7","7","7","7","7","7","7","6","7","602303969804419072","刘","658","Male","[""坏我"",""坏他"",""好我"",""好他""]","[""弱我"",""弱他"",""强我"",""强他""]","","","","","","","","match","","","","","","","","","","key","f","16.664150943396447","768","428","f","true","match","img/pentagon.png","弱我","弱我","prac_ALT2_ability","practice_ability","","","","","","","","",""
"null","<span style='color:GreenYellow; font-size: 70px;'>正确! </span>","null","html-keyboard-response","89","324299","0.0-8.0-1.0-1.0-0.0-1.39","7","7","7","7","7","5","5","5","5","5","5","2","1","2","2","2","2","2","2","5","5","5","5","5","5","4","4","5","4","7","6","8","8","7","6","6","8","6","7","7","7","7","7","6","7","1","7","7","1","7","7","7","7","6","7","7","7","7","7","7","7","7","7","7","7","6","7","7","7","7","7","7","7","7","7","7","7","6","7","602303969804419072","刘","658","Male","[""坏我"",""坏他"",""好我"",""好他""]","[""弱我"",""弱他"",""强我"",""强他""]","","","","","","","","","","","","","","","","","","","","","","","","","","","","","","feedback_test","","","","","","","","",""
"857","","f","psychophysics","90","326157","0.0-8.0-1.0-1.0-0.0-0.40","7","7","7","7","7","5","5","5","5","5","5","2","1","2","2","2","2","2","2","5","5","5","5","5","5","4","4","5","4","7","6","8","8","7","6","6","8","6","7","7","7","7","7","6","7","1","7","7","1","7","7","7","7","6","7","7","7","7","7","7","7","7","7","7","7","6","7","7","7","7","7","7","7","7","7","7","7","6","7","602303969804419072","刘","658","Male","[""坏我"",""坏他"",""好我"",""好他""]","[""弱我"",""弱他"",""强我"",""强他""]","","","","","","","","match","","","","","","","","","","key","f","16.66454545454577","768","428","f","true","match","img/trapezoid.png","强他","强他","prac_ALT2_ability","practice_ability","","","","","","","","",""
"null","<span style='color:GreenYellow; font-size: 70px;'>正确! </span>","null","html-keyboard-response","91","326659","0.0-8.0-1.0-1.0-0.0-1.40","7","7","7","7","7","5","5","5","5","5","5","2","1","2","2","2","2","2","2","5","5","5","5","5","5","4","4","5","4","7","6","8","8","7","6","6","8","6","7","7","7","7","7","6","7","1","7","7","1","7","7","7","7","6","7","7","7","7","7","7","7","7","7","7","7","6","7","7","7","7","7","7","7","7","7","7","7","6","7","602303969804419072","刘","658","Male","[""坏我"",""坏他"",""好我"",""好他""]","[""弱我"",""弱他"",""强我"",""强他""]","","","","","","","","","","","","","","","","","","","","","","","","","","","","","","feedback_test","","","","","","","","",""
"896","","j","psychophysics","92","328557","0.0-8.0-1.0-1.0-0.0-0.41","7","7","7","7","7","5","5","5","5","5","5","2","1","2","2","2","2","2","2","5","5","5","5","5","5","4","4","5","4","7","6","8","8","7","6","6","8","6","7","7","7","7","7","6","7","1","7","7","1","7","7","7","7","6","7","7","7","7","7","7","7","7","7","7","7","6","7","7","7","7","7","7","7","7","7","7","7","6","7","602303969804419072","刘","658","Male","[""坏我"",""坏他"",""好我"",""好他""]","[""弱我"",""弱他"",""强我"",""强他""]","","","","","","","","nonmatch","","","","","","","","","","key","j","16.664601769911812","768","428","j","true","nonmatch","img/trapezoid.png","弱我","强他","prac_ALT2_ability","practice_ability","","","","","","","","",""
"null","<span style='color:GreenYellow; font-size: 70px;'>正确! </span>","null","html-keyboard-response","93","329059","0.0-8.0-1.0-1.0-0.0-1.41","7","7","7","7","7","5","5","5","5","5","5","2","1","2","2","2","2","2","2","5","5","5","5","5","5","4","4","5","4","7","6","8","8","7","6","6","8","6","7","7","7","7","7","6","7","1","7","7","1","7","7","7","7","6","7","7","7","7","7","7","7","7","7","7","7","6","7","7","7","7","7","7","7","7","7","7","7","6","7","602303969804419072","刘","658","Male","[""坏我"",""坏他"",""好我"",""好他""]","[""弱我"",""弱他"",""强我"",""强他""]","","","","","","","","","","","","","","","","","","","","","","","","","","","","","","feedback_test","","","","","","","","",""
"880","","j","psychophysics","94","330941","0.0-8.0-1.0-1.0-0.0-0.42","7","7","7","7","7","5","5","5","5","5","5","2","1","2","2","2","2","2","2","5","5","5","5","5","5","4","4","5","4","7","6","8","8","7","6","6","8","6","7","7","7","7","7","6","7","1","7","7","1","7","7","7","7","6","7","7","7","7","7","7","7","7","7","7","7","6","7","7","7","7","7","7","7","7","7","7","7","6","7","602303969804419072","刘","658","Male","[""坏我"",""坏他"",""好我"",""好他""]","[""弱我"",""弱他"",""强我"",""强他""]","","","","","","","","nonmatch","","","","","","","","","","key","j","16.663392857143272","768","428","j","true","nonmatch","img/triangle.png","弱他","强我","prac_ALT2_ability","practice_ability","","","","","","","","",""
"null","<span style='color:GreenYellow; font-size: 70px;'>正确! </span>","null","html-keyboard-response","95","331457","0.0-8.0-1.0-1.0-0.0-1.42","7","7","7","7","7","5","5","5","5","5","5","2","1","2","2","2","2","2","2","5","5","5","5","5","5","4","4","5","4","7","6","8","8","7","6","6","8","6","7","7","7","7","7","6","7","1","7","7","1","7","7","7","7","6","7","7","7","7","7","7","7","7","7","7","7","6","7","7","7","7","7","7","7","7","7","7","7","6","7","602303969804419072","刘","658","Male","[""坏我"",""坏他"",""好我"",""好他""]","[""弱我"",""弱他"",""强我"",""强他""]","","","","","","","","","","","","","","","","","","","","","","","","","","","","","","feedback_test","","","","","","","","",""
"899","","j","psychophysics","96","333358","0.0-8.0-1.0-1.0-0.0-0.43","7","7","7","7","7","5","5","5","5","5","5","2","1","2","2","2","2","2","2","5","5","5","5","5","5","4","4","5","4","7","6","8","8","7","6","6","8","6","7","7","7","7","7","6","7","1","7","7","1","7","7","7","7","6","7","7","7","7","7","7","7","7","7","7","7","6","7","7","7","7","7","7","7","7","7","7","7","6","7","602303969804419072","刘","658","Male","[""坏我"",""坏他"",""好我"",""好他""]","[""弱我"",""弱他"",""强我"",""强他""]","","","","","","","","nonmatch","","","","","","","","","","key","j","16.664601769911812","768","428","j","true","nonmatch","img/pentagon.png","强他","弱我","prac_ALT2_ability","practice_ability","","","","","","","","",""
"null","<span style='color:GreenYellow; font-size: 70px;'>正确! </span>","null","html-keyboard-response","97","333859","0.0-8.0-1.0-1.0-0.0-1.43","7","7","7","7","7","5","5","5","5","5","5","2","1","2","2","2","2","2","2","5","5","5","5","5","5","4","4","5","4","7","6","8","8","7","6","6","8","6","7","7","7","7","7","6","7","1","7","7","1","7","7","7","7","6","7","7","7","7","7","7","7","7","7","7","7","6","7","7","7","7","7","7","7","7","7","7","7","6","7","602303969804419072","刘","658","Male","[""坏我"",""坏他"",""好我"",""好他""]","[""弱我"",""弱他"",""强我"",""强他""]","","","","","","","","","","","","","","","","","","","","","","","","","","","","","","feedback_test","","","","","","","","",""
"888","","f","psychophysics","98","335749","0.0-8.0-1.0-1.0-0.0-0.44","7","7","7","7","7","5","5","5","5","5","5","2","1","2","2","2","2","2","2","5","5","5","5","5","5","4","4","5","4","7","6","8","8","7","6","6","8","6","7","7","7","7","7","6","7","1","7","7","1","7","7","7","7","6","7","7","7","7","7","7","7","7","7","7","7","6","7","7","7","7","7","7","7","7","7","7","7","6","7","602303969804419072","刘","658","Male","[""坏我"",""坏他"",""好我"",""好他""]","[""弱我"",""弱他"",""强我"",""强他""]","","","","","","","","match","","","","","","","","","","key","f","16.66548672566382","768","428","f","true","match","img/pentagon.png","弱我","弱我","prac_ALT2_ability","practice_ability","","","","","","","","",""
"null","<span style='color:GreenYellow; font-size: 70px;'>正确! </span>","null","html-keyboard-response","99","336249","0.0-8.0-1.0-1.0-0.0-1.44","7","7","7","7","7","5","5","5","5","5","5","2","1","2","2","2","2","2","2","5","5","5","5","5","5","4","4","5","4","7","6","8","8","7","6","6","8","6","7","7","7","7","7","6","7","1","7","7","1","7","7","7","7","6","7","7","7","7","7","7","7","7","7","7","7","6","7","7","7","7","7","7","7","7","7","7","7","6","7","602303969804419072","刘","658","Male","[""坏我"",""坏他"",""好我"",""好他""]","[""弱我"",""弱他"",""强我"",""强他""]","","","","","","","","","","","","","","","","","","","","","","","","","","","","","","feedback_test","","","","","","","","",""
"873","","f","psychophysics","100","338125","0.0-8.0-1.0-1.0-0.0-0.45","7","7","7","7","7","5","5","5","5","5","5","2","1","2","2","2","2","2","2","5","5","5","5","5","5","4","4","5","4","7","6","8","8","7","6","6","8","6","7","7","7","7","7","6","7","1","7","7","1","7","7","7","7","6","7","7","7","7","7","7","7","7","7","7","7","6","7","7","7","7","7","7","7","7","7","7","7","6","7","602303969804419072","刘","658","Male","[""坏我"",""坏他"",""好我"",""好他""]","[""弱我"",""弱他"",""强我"",""强他""]","","","","","","","","match","","","","","","","","","","key","f","16.665765765765975","768","428","f","true","match","img/ellipse.png","弱他","弱他","prac_ALT2_ability","practice_ability","","","","","","","","",""
"null","<span style='color:GreenYellow; font-size: 70px;'>正确! </span>","null","html-keyboard-response","101","338626","0.0-8.0-1.0-1.0-0.0-1.45","7","7","7","7","7","5","5","5","5","5","5","2","1","2","2","2","2","2","2","5","5","5","5","5","5","4","4","5","4","7","6","8","8","7","6","6","8","6","7","7","7","7","7","6","7","1","7","7","1","7","7","7","7","6","7","7","7","7","7","7","7","7","7","7","7","6","7","7","7","7","7","7","7","7","7","7","7","6","7","602303969804419072","刘","658","Male","[""坏我"",""坏他"",""好我"",""好他""]","[""弱我"",""弱他"",""强我"",""强他""]","","","","","","","","","","","","","","","","","","","","","","","","","","","","","","feedback_test","","","","","","","","",""
"1114","","j","psychophysics","102","340741","0.0-8.0-1.0-1.0-0.0-0.46","7","7","7","7","7","5","5","5","5","5","5","2","1","2","2","2","2","2","2","5","5","5","5","5","5","4","4","5","4","7","6","8","8","7","6","6","8","6","7","7","7","7","7","6","7","1","7","7","1","7","7","7","7","6","7","7","7","7","7","7","7","7","7","7","7","6","7","7","7","7","7","7","7","7","7","7","7","6","7","602303969804419072","刘","658","Male","[""坏我"",""坏他"",""好我"",""好他""]","[""弱我"",""弱他"",""强我"",""强他""]","","","","","","","","nonmatch","","","","","","","","","","key","j","16.658399999999908","768","428","f","false","match","img/triangle.png","强我","强我","prac_ALT2_ability","practice_ability","","","","","","","","",""
"null","<span style='color:red; font-size: 70px;'>错误! </span>","null","html-keyboard-response","103","341243","0.0-8.0-1.0-1.0-0.0-1.46","7","7","7","7","7","5","5","5","5","5","5","2","1","2","2","2","2","2","2","5","5","5","5","5","5","4","4","5","4","7","6","8","8","7","6","6","8","6","7","7","7","7","7","6","7","1","7","7","1","7","7","7","7","6","7","7","7","7","7","7","7","7","7","7","7","6","7","7","7","7","7","7","7","7","7","7","7","6","7","602303969804419072","刘","658","Male","[""坏我"",""坏他"",""好我"",""好他""]","[""弱我"",""弱他"",""强我"",""强他""]","","","","","","","","","","","","","","","","","","","","","","","","","","","","","","feedback_test","","","","","","","","",""
"897","","j","psychophysics","104","343142","0.0-8.0-1.0-1.0-0.0-0.47","7","7","7","7","7","5","5","5","5","5","5","2","1","2","2","2","2","2","2","5","5","5","5","5","5","4","4","5","4","7","6","8","8","7","6","6","8","6","7","7","7","7","7","6","7","1","7","7","1","7","7","7","7","6","7","7","7","7","7","7","7","7","7","7","7","6","7","7","7","7","7","7","7","7","7","7","7","6","7","602303969804419072","刘","658","Male","[""坏我"",""坏他"",""好我"",""好他""]","[""弱我"",""弱他"",""强我"",""强他""]","","","","","","","","nonmatch","","","","","","","","","","key","j","16.665178571428573","768","428","j","true","nonmatch","img/ellipse.png","强我","弱他","prac_ALT2_ability","practice_ability","","","","","","","","",""
"null","<span style='color:GreenYellow; font-size: 70px;'>正确! </span>","null","html-keyboard-response","105","343643","0.0-8.0-1.0-1.0-0.0-1.47","7","7","7","7","7","5","5","5","5","5","5","2","1","2","2","2","2","2","2","5","5","5","5","5","5","4","4","5","4","7","6","8","8","7","6","6","8","6","7","7","7","7","7","6","7","1","7","7","1","7","7","7","7","6","7","7","7","7","7","7","7","7","7","7","7","6","7","7","7","7","7","7","7","7","7","7","7","6","7","602303969804419072","刘","658","Male","[""坏我"",""坏他"",""好我"",""好他""]","[""弱我"",""弱他"",""强我"",""强他""]","","","","","","","","","","","","","","","","","","","","","","","","","","","","","","feedback_test","","","","","","","","",""
"1194","<style>.context{color:white; font-size: 35px; line-height:40px}</style>                          <div><p class='context'>您正确回答了73% 的试次。</p><p class='context'>您的平均反应时为846毫秒。</p><p class='context'>恭喜您完成练习。按空格键进入正式实验。</p><p class='footer' style='color:white;font-size: 35px; line-height:40px;'>请在进入正式实验实验之前将您的<span style='color: lightgreen;'>食指</span>放在电脑键盘的相应键位上进行按键。</p>"," ","html-keyboard-response","106","344838","0.0-8.0-1.0-2.0","7","7","7","7","7","5","5","5","5","5","5","2","1","2","2","2","2","2","2","5","5","5","5","5","5","4","4","5","4","7","6","8","8","7","6","6","8","6","7","7","7","7","7","6","7","1","7","7","1","7","7","7","7","6","7","7","7","7","7","7","7","7","7","7","7","6","7","7","7","7","7","7","7","7","7","7","7","6","7","602303969804419072","刘","658","Male","[""坏我"",""坏他"",""好我"",""好他""]","[""弱我"",""弱他"",""强我"",""强他""]","","","","","","","","","","","","","","","","","","","","","","","","","","","","","","","","","","","","","","",""
"3389","
  <p style='color: white; font-size: 22px'>请您将手指放在按键上，准备进入正式的匹配任务。</p>
  <p> <div style = ""color: green""><按空格键进入下一阶段的匹配任务></div></p>
  "," ","html-keyboard-response","107","348230","0.0-8.0-1.0-3.0","7","7","7","7","7","5","5","5","5","5","5","2","1","2","2","2","2","2","2","5","5","5","5","5","5","4","4","5","4","7","6","8","8","7","6","6","8","6","7","7","7","7","7","6","7","1","7","7","1","7","7","7","7","6","7","7","7","7","7","7","7","7","7","7","7","6","7","7","7","7","7","7","7","7","7","7","7","6","7","602303969804419072","刘","658","Male","[""坏我"",""坏他"",""好我"",""好他""]","[""弱我"",""弱他"",""强我"",""强他""]","","","","","","","","","","","","","","","","","","","","","","","","","","","","","","","","","","","","","","",""
"759","","j","psychophysics","108","349990","0.0-8.0-1.0-4.0-0.0-0.0","7","7","7","7","7","5","5","5","5","5","5","2","1","2","2","2","2","2","2","5","5","5","5","5","5","4","4","5","4","7","6","8","8","7","6","6","8","6","7","7","7","7","7","6","7","1","7","7","1","7","7","7","7","6","7","7","7","7","7","7","7","7","7","7","7","6","7","7","7","7","7","7","7","7","7","7","7","6","7","602303969804419072","刘","658","Male","[""坏我"",""坏他"",""好我"",""好他""]","[""弱我"",""弱他"",""强我"",""强他""]","","","","","","","","nonmatch","","","","","","","","","","key","j","16.665384615384728","768","428","j","true","nonmatch","img/trapezoid.png","强我","强他","ALT2","ability","","","","","","","","",""
"null","<span style='color:GreenYellow; font-size: 70px;'>正确! </span>","null","html-keyboard-response","109","350491","0.0-8.0-1.0-4.0-0.0-1.0","7","7","7","7","7","5","5","5","5","5","5","2","1","2","2","2","2","2","2","5","5","5","5","5","5","4","4","5","4","7","6","8","8","7","6","6","8","6","7","7","7","7","7","6","7","1","7","7","1","7","7","7","7","6","7","7","7","7","7","7","7","7","7","7","7","6","7","7","7","7","7","7","7","7","7","7","7","6","7","602303969804419072","刘","658","Male","[""坏我"",""坏他"",""好我"",""好他""]","[""弱我"",""弱他"",""强我"",""强他""]","","","","","","","","","","","","","","","","","","","","","","","","","","","","","","feedback_test","","","","","","","","",""
"993","","j","psychophysics","110","352486","0.0-8.0-1.0-4.0-0.0-0.1","7","7","7","7","7","5","5","5","5","5","5","2","1","2","2","2","2","2","2","5","5","5","5","5","5","4","4","5","4","7","6","8","8","7","6","6","8","6","7","7","7","7","7","6","7","1","7","7","1","7","7","7","7","6","7","7","7","7","7","7","7","7","7","7","7","6","7","7","7","7","7","7","7","7","7","7","7","6","7","602303969804419072","刘","658","Male","[""坏我"",""坏他"",""好我"",""好他""]","[""弱我"",""弱他"",""强我"",""强他""]","","","","","","","","nonmatch","","","","","","","","","","key","j","16.664705882353235","768","428","j","true","nonmatch","img/pentagon.png","弱他","弱我","ALT2","ability","","","","","","","","",""
"null","<span style='color:GreenYellow; font-size: 70px;'>正确! </span>","null","html-keyboard-response","111","352995","0.0-8.0-1.0-4.0-0.0-1.1","7","7","7","7","7","5","5","5","5","5","5","2","1","2","2","2","2","2","2","5","5","5","5","5","5","4","4","5","4","7","6","8","8","7","6","6","8","6","7","7","7","7","7","6","7","1","7","7","1","7","7","7","7","6","7","7","7","7","7","7","7","7","7","7","7","6","7","7","7","7","7","7","7","7","7","7","7","6","7","602303969804419072","刘","658","Male","[""坏我"",""坏他"",""好我"",""好他""]","[""弱我"",""弱他"",""强我"",""强他""]","","","","","","","","","","","","","","","","","","","","","","","","","","","","","","feedback_test","","","","","","","","",""
"1154","","j","psychophysics","112","355150","0.0-8.0-1.0-4.0-0.0-0.2","7","7","7","7","7","5","5","5","5","5","5","2","1","2","2","2","2","2","2","5","5","5","5","5","5","4","4","5","4","7","6","8","8","7","6","6","8","6","7","7","7","7","7","6","7","1","7","7","1","7","7","7","7","6","7","7","7","7","7","7","7","7","7","7","7","6","7","7","7","7","7","7","7","7","7","7","7","6","7","602303969804419072","刘","658","Male","[""坏我"",""坏他"",""好我"",""好他""]","[""弱我"",""弱他"",""强我"",""强他""]","","","","","","","","nonmatch","","","","","","","","","","key","j","16.664843749999818","768","428","j","true","nonmatch","img/pentagon.png","强他","弱我","ALT2","ability","","","","","","","","",""
"null","<span style='color:GreenYellow; font-size: 70px;'>正确! </span>","null","html-keyboard-response","113","355651","0.0-8.0-1.0-4.0-0.0-1.2","7","7","7","7","7","5","5","5","5","5","5","2","1","2","2","2","2","2","2","5","5","5","5","5","5","4","4","5","4","7","6","8","8","7","6","6","8","6","7","7","7","7","7","6","7","1","7","7","1","7","7","7","7","6","7","7","7","7","7","7","7","7","7","7","7","6","7","7","7","7","7","7","7","7","7","7","7","6","7","602303969804419072","刘","658","Male","[""坏我"",""坏他"",""好我"",""好他""]","[""弱我"",""弱他"",""强我"",""强他""]","","","","","","","","","","","","","","","","","","","","","","","","","","","","","","feedback_test","","","","","","","","",""
"929","","f","psychophysics","114","357582","0.0-8.0-1.0-4.0-0.0-0.3","7","7","7","7","7","5","5","5","5","5","5","2","1","2","2","2","2","2","2","5","5","5","5","5","5","4","4","5","4","7","6","8","8","7","6","6","8","6","7","7","7","7","7","6","7","1","7","7","1","7","7","7","7","6","7","7","7","7","7","7","7","7","7","7","7","6","7","7","7","7","7","7","7","7","7","7","7","6","7","602303969804419072","刘","658","Male","[""坏我"",""坏他"",""好我"",""好他""]","[""弱我"",""弱他"",""强我"",""强他""]","","","","","","","","match","","","","","","","","","","key","f","16.66521739130435","768","428","f","true","match","img/ellipse.png","弱他","弱他","ALT2","ability","","","","","","","","",""
"null","<span style='color:GreenYellow; font-size: 70px;'>正确! </span>","null","html-keyboard-response","115","358083","0.0-8.0-1.0-4.0-0.0-1.3","7","7","7","7","7","5","5","5","5","5","5","2","1","2","2","2","2","2","2","5","5","5","5","5","5","4","4","5","4","7","6","8","8","7","6","6","8","6","7","7","7","7","7","6","7","1","7","7","1","7","7","7","7","6","7","7","7","7","7","7","7","7","7","7","7","6","7","7","7","7","7","7","7","7","7","7","7","6","7","602303969804419072","刘","658","Male","[""坏我"",""坏他"",""好我"",""好他""]","[""弱我"",""弱他"",""强我"",""强他""]","","","","","","","","","","","","","","","","","","","","","","","","","","","","","","feedback_test","","","","","","","","",""
"954","","j","psychophysics","116","360038","0.0-8.0-1.0-4.0-0.0-0.4","7","7","7","7","7","5","5","5","5","5","5","2","1","2","2","2","2","2","2","5","5","5","5","5","5","4","4","5","4","7","6","8","8","7","6","6","8","6","7","7","7","7","7","6","7","1","7","7","1","7","7","7","7","6","7","7","7","7","7","7","7","7","7","7","7","6","7","7","7","7","7","7","7","7","7","7","7","6","7","602303969804419072","刘","658","Male","[""坏我"",""坏他"",""好我"",""好他""]","[""弱我"",""弱他"",""强我"",""强他""]","","","","","","","","nonmatch","","","","","","","","","","key","j","16.660344827586005","768","428","j","true","nonmatch","img/ellipse.png","强我","弱他","ALT2","ability","","","","","","","","",""
"null","<span style='color:GreenYellow; font-size: 70px;'>正确! </span>","null","html-keyboard-response","117","360539","0.0-8.0-1.0-4.0-0.0-1.4","7","7","7","7","7","5","5","5","5","5","5","2","1","2","2","2","2","2","2","5","5","5","5","5","5","4","4","5","4","7","6","8","8","7","6","6","8","6","7","7","7","7","7","6","7","1","7","7","1","7","7","7","7","6","7","7","7","7","7","7","7","7","7","7","7","6","7","7","7","7","7","7","7","7","7","7","7","6","7","602303969804419072","刘","658","Male","[""坏我"",""坏他"",""好我"",""好他""]","[""弱我"",""弱他"",""强我"",""强他""]","","","","","","","","","","","","","","","","","","","","","","","","","","","","","","feedback_test","","","","","","","","",""
"753","","f","psychophysics","118","362294","0.0-8.0-1.0-4.0-0.0-0.5","7","7","7","7","7","5","5","5","5","5","5","2","1","2","2","2","2","2","2","5","5","5","5","5","5","4","4","5","4","7","6","8","8","7","6","6","8","6","7","7","7","7","7","6","7","1","7","7","1","7","7","7","7","6","7","7","7","7","7","7","7","7","7","7","7","6","7","7","7","7","7","7","7","7","7","7","7","6","7","602303969804419072","刘","658","Male","[""坏我"",""坏他"",""好我"",""好他""]","[""弱我"",""弱他"",""强我"",""强他""]","","","","","","","","match","","","","","","","","","","key","f","16.665714285713953","768","428","f","true","match","img/triangle.png","强我","强我","ALT2","ability","","","","","","","","",""
"null","<span style='color:GreenYellow; font-size: 70px;'>正确! </span>","null","html-keyboard-response","119","362794","0.0-8.0-1.0-4.0-0.0-1.5","7","7","7","7","7","5","5","5","5","5","5","2","1","2","2","2","2","2","2","5","5","5","5","5","5","4","4","5","4","7","6","8","8","7","6","6","8","6","7","7","7","7","7","6","7","1","7","7","1","7","7","7","7","6","7","7","7","7","7","7","7","7","7","7","7","6","7","7","7","7","7","7","7","7","7","7","7","6","7","602303969804419072","刘","658","Male","[""坏我"",""坏他"",""好我"",""好他""]","[""弱我"",""弱他"",""强我"",""强他""]","","","","","","","","","","","","","","","","","","","","","","","","","","","","","","feedback_test","","","","","","","","",""
"650","","f","psychophysics","120","364446","0.0-8.0-1.0-4.0-0.0-0.6","7","7","7","7","7","5","5","5","5","5","5","2","1","2","2","2","2","2","2","5","5","5","5","5","5","4","4","5","4","7","6","8","8","7","6","6","8","6","7","7","7","7","7","6","7","1","7","7","1","7","7","7","7","6","7","7","7","7","7","7","7","7","7","7","7","6","7","7","7","7","7","7","7","7","7","7","7","6","7","602303969804419072","刘","658","Male","[""坏我"",""坏他"",""好我"",""好他""]","[""弱我"",""弱他"",""强我"",""强他""]","","","","","","","","match","","","","","","","","","","key","f","16.66632653061272","768","428","f","true","match","img/triangle.png","强我","强我","ALT2","ability","","","","","","","","",""
"null","<span style='color:GreenYellow; font-size: 70px;'>正确! </span>","null","html-keyboard-response","121","364948","0.0-8.0-1.0-4.0-0.0-1.6","7","7","7","7","7","5","5","5","5","5","5","2","1","2","2","2","2","2","2","5","5","5","5","5","5","4","4","5","4","7","6","8","8","7","6","6","8","6","7","7","7","7","7","6","7","1","7","7","1","7","7","7","7","6","7","7","7","7","7","7","7","7","7","7","7","6","7","7","7","7","7","7","7","7","7","7","7","6","7","602303969804419072","刘","658","Male","[""坏我"",""坏他"",""好我"",""好他""]","[""弱我"",""弱他"",""强我"",""强他""]","","","","","","","","","","","","","","","","","","","","","","","","","","","","","","feedback_test","","","","","","","","",""
"617","","j","psychophysics","122","366566","0.0-8.0-1.0-4.0-0.0-0.7","7","7","7","7","7","5","5","5","5","5","5","2","1","2","2","2","2","2","2","5","5","5","5","5","5","4","4","5","4","7","6","8","8","7","6","6","8","6","7","7","7","7","7","6","7","1","7","7","1","7","7","7","7","6","7","7","7","7","7","7","7","7","7","7","7","6","7","7","7","7","7","7","7","7","7","7","7","6","7","602303969804419072","刘","658","Male","[""坏我"",""坏他"",""好我"",""好他""]","[""弱我"",""弱他"",""强我"",""强他""]","","","","","","","","nonmatch","","","","","","","","","","key","j","16.665624999999636","768","428","j","true","nonmatch","img/trapezoid.png","弱他","强他","ALT2","ability","","","","","","","","",""
"null","<span style='color:GreenYellow; font-size: 70px;'>正确! </span>","null","html-keyboard-response","123","367067","0.0-8.0-1.0-4.0-0.0-1.7","7","7","7","7","7","5","5","5","5","5","5","2","1","2","2","2","2","2","2","5","5","5","5","5","5","4","4","5","4","7","6","8","8","7","6","6","8","6","7","7","7","7","7","6","7","1","7","7","1","7","7","7","7","6","7","7","7","7","7","7","7","7","7","7","7","6","7","7","7","7","7","7","7","7","7","7","7","6","7","602303969804419072","刘","658","Male","[""坏我"",""坏他"",""好我"",""好他""]","[""弱我"",""弱他"",""强我"",""强他""]","","","","","","","","","","","","","","","","","","","","","","","","","","","","","","feedback_test","","","","","","","","",""
"617","","f","psychophysics","124","368686","0.0-8.0-1.0-4.0-0.0-0.8","7","7","7","7","7","5","5","5","5","5","5","2","1","2","2","2","2","2","2","5","5","5","5","5","5","4","4","5","4","7","6","8","8","7","6","6","8","6","7","7","7","7","7","6","7","1","7","7","1","7","7","7","7","6","7","7","7","7","7","7","7","7","7","7","7","6","7","7","7","7","7","7","7","7","7","7","7","6","7","602303969804419072","刘","658","Male","[""坏我"",""坏他"",""好我"",""好他""]","[""弱我"",""弱他"",""强我"",""强他""]","","","","","","","","match","","","","","","","","","","key","f","16.666666666666668","768","428","j","false","nonmatch","img/pentagon.png","强我","弱我","ALT2","ability","","","","","","","","",""
"null","<span style='color:red; font-size: 70px;'>错误! </span>","null","html-keyboard-response","125","369187","0.0-8.0-1.0-4.0-0.0-1.8","7","7","7","7","7","5","5","5","5","5","5","2","1","2","2","2","2","2","2","5","5","5","5","5","5","4","4","5","4","7","6","8","8","7","6","6","8","6","7","7","7","7","7","6","7","1","7","7","1","7","7","7","7","6","7","7","7","7","7","7","7","7","7","7","7","6","7","7","7","7","7","7","7","7","7","7","7","6","7","602303969804419072","刘","658","Male","[""坏我"",""坏他"",""好我"",""好他""]","[""弱我"",""弱他"",""强我"",""强他""]","","","","","","","","","","","","","","","","","","","","","","","","","","","","","","feedback_test","","","","","","","","",""
"344","","f","psychophysics","126","370534","0.0-8.0-1.0-4.0-0.0-0.9","7","7","7","7","7","5","5","5","5","5","5","2","1","2","2","2","2","2","2","5","5","5","5","5","5","4","4","5","4","7","6","8","8","7","6","6","8","6","7","7","7","7","7","6","7","1","7","7","1","7","7","7","7","6","7","7","7","7","7","7","7","7","7","7","7","6","7","7","7","7","7","7","7","7","7","7","7","6","7","602303969804419072","刘","658","Male","[""坏我"",""坏他"",""好我"",""好他""]","[""弱我"",""弱他"",""强我"",""强他""]","","","","","","","","match","","","","","","","","","","key","f","16.66750000000029","768","428","f","true","match","img/ellipse.png","弱他","弱他","ALT2","ability","","","","","","","","",""
"null","<span style='color:GreenYellow; font-size: 70px;'>正确! </span>","null","html-keyboard-response","127","371036","0.0-8.0-1.0-4.0-0.0-1.9","7","7","7","7","7","5","5","5","5","5","5","2","1","2","2","2","2","2","2","5","5","5","5","5","5","4","4","5","4","7","6","8","8","7","6","6","8","6","7","7","7","7","7","6","7","1","7","7","1","7","7","7","7","6","7","7","7","7","7","7","7","7","7","7","7","6","7","7","7","7","7","7","7","7","7","7","7","6","7","602303969804419072","刘","658","Male","[""坏我"",""坏他"",""好我"",""好他""]","[""弱我"",""弱他"",""强我"",""强他""]","","","","","","","","","","","","","","","","","","","","","","","","","","","","","","feedback_test","","","","","","","","",""
"760","","f","psychophysics","128","372798","0.0-8.0-1.0-4.0-0.0-0.10","7","7","7","7","7","5","5","5","5","5","5","2","1","2","2","2","2","2","2","5","5","5","5","5","5","4","4","5","4","7","6","8","8","7","6","6","8","6","7","7","7","7","7","6","7","1","7","7","1","7","7","7","7","6","7","7","7","7","7","7","7","7","7","7","7","6","7","7","7","7","7","7","7","7","7","7","7","6","7","602303969804419072","刘","658","Male","[""坏我"",""坏他"",""好我"",""好他""]","[""弱我"",""弱他"",""强我"",""强他""]","","","","","","","","match","","","","","","","","","","key","f","16.666666666666668","768","428","f","true","match","img/ellipse.png","弱他","弱他","ALT2","ability","","","","","","","","",""
"null","<span style='color:GreenYellow; font-size: 70px;'>正确! </span>","null","html-keyboard-response","129","373299","0.0-8.0-1.0-4.0-0.0-1.10","7","7","7","7","7","5","5","5","5","5","5","2","1","2","2","2","2","2","2","5","5","5","5","5","5","4","4","5","4","7","6","8","8","7","6","6","8","6","7","7","7","7","7","6","7","1","7","7","1","7","7","7","7","6","7","7","7","7","7","7","7","7","7","7","7","6","7","7","7","7","7","7","7","7","7","7","7","6","7","602303969804419072","刘","658","Male","[""坏我"",""坏他"",""好我"",""好他""]","[""弱我"",""弱他"",""强我"",""强他""]","","","","","","","","","","","","","","","","","","","","","","","","","","","","","","feedback_test","","","","","","","","",""
"713","","j","psychophysics","130","375014","0.0-8.0-1.0-4.0-0.0-0.11","7","7","7","7","7","5","5","5","5","5","5","2","1","2","2","2","2","2","2","5","5","5","5","5","5","4","4","5","4","7","6","8","8","7","6","6","8","6","7","7","7","7","7","6","7","1","7","7","1","7","7","7","7","6","7","7","7","7","7","7","7","7","7","7","7","6","7","7","7","7","7","7","7","7","7","7","7","6","7","602303969804419072","刘","658","Male","[""坏我"",""坏他"",""好我"",""好他""]","[""弱我"",""弱他"",""强我"",""强他""]","","","","","","","","nonmatch","","","","","","","","","","key","j","16.666666666666668","768","428","j","true","nonmatch","img/ellipse.png","弱我","弱他","ALT2","ability","","","","","","","","",""
"null","<span style='color:GreenYellow; font-size: 70px;'>正确! </span>","null","html-keyboard-response","131","375515","0.0-8.0-1.0-4.0-0.0-1.11","7","7","7","7","7","5","5","5","5","5","5","2","1","2","2","2","2","2","2","5","5","5","5","5","5","4","4","5","4","7","6","8","8","7","6","6","8","6","7","7","7","7","7","6","7","1","7","7","1","7","7","7","7","6","7","7","7","7","7","7","7","7","7","7","7","6","7","7","7","7","7","7","7","7","7","7","7","6","7","602303969804419072","刘","658","Male","[""坏我"",""坏他"",""好我"",""好他""]","[""弱我"",""弱他"",""强我"",""强他""]","","","","","","","","","","","","","","","","","","","","","","","","","","","","","","feedback_test","","","","","","","","",""
"898","","j","psychophysics","132","377415","0.0-8.0-1.0-4.0-0.0-0.12","7","7","7","7","7","5","5","5","5","5","5","2","1","2","2","2","2","2","2","5","5","5","5","5","5","4","4","5","4","7","6","8","8","7","6","6","8","6","7","7","7","7","7","6","7","1","7","7","1","7","7","7","7","6","7","7","7","7","7","7","7","7","7","7","7","6","7","7","7","7","7","7","7","7","7","7","7","6","7","602303969804419072","刘","658","Male","[""坏我"",""坏他"",""好我"",""好他""]","[""弱我"",""弱他"",""强我"",""强他""]","","","","","","","","nonmatch","","","","","","","","","","key","j","16.666371681415825","768","428","f","false","match","img/pentagon.png","弱我","弱我","ALT2","ability","","","","","","","","",""
"null","<span style='color:red; font-size: 70px;'>错误! </span>","null","html-keyboard-response","133","377916","0.0-8.0-1.0-4.0-0.0-1.12","7","7","7","7","7","5","5","5","5","5","5","2","1","2","2","2","2","2","2","5","5","5","5","5","5","4","4","5","4","7","6","8","8","7","6","6","8","6","7","7","7","7","7","6","7","1","7","7","1","7","7","7","7","6","7","7","7","7","7","7","7","7","7","7","7","6","7","7","7","7","7","7","7","7","7","7","7","6","7","602303969804419072","刘","658","Male","[""坏我"",""坏他"",""好我"",""好他""]","[""弱我"",""弱他"",""强我"",""强他""]","","","","","","","","","","","","","","","","","","","","","","","","","","","","","","feedback_test","","","","","","","","",""
"904","","j","psychophysics","134","379822","0.0-8.0-1.0-4.0-0.0-0.13","7","7","7","7","7","5","5","5","5","5","5","2","1","2","2","2","2","2","2","5","5","5","5","5","5","4","4","5","4","7","6","8","8","7","6","6","8","6","7","7","7","7","7","6","7","1","7","7","1","7","7","7","7","6","7","7","7","7","7","7","7","7","7","7","7","6","7","7","7","7","7","7","7","7","7","7","7","6","7","602303969804419072","刘","658","Male","[""坏我"",""坏他"",""好我"",""好他""]","[""弱我"",""弱他"",""强我"",""强他""]","","","","","","","","nonmatch","","","","","","","","","","key","j","16.66548672566382","768","428","j","true","nonmatch","img/ellipse.png","强他","弱他","ALT2","ability","","","","","","","","",""
"null","<span style='color:GreenYellow; font-size: 70px;'>正确! </span>","null","html-keyboard-response","135","380323","0.0-8.0-1.0-4.0-0.0-1.13","7","7","7","7","7","5","5","5","5","5","5","2","1","2","2","2","2","2","2","5","5","5","5","5","5","4","4","5","4","7","6","8","8","7","6","6","8","6","7","7","7","7","7","6","7","1","7","7","1","7","7","7","7","6","7","7","7","7","7","7","7","7","7","7","7","6","7","7","7","7","7","7","7","7","7","7","7","6","7","602303969804419072","刘","658","Male","[""坏我"",""坏他"",""好我"",""好他""]","[""弱我"",""弱他"",""强我"",""强他""]","","","","","","","","","","","","","","","","","","","","","","","","","","","","","","feedback_test","","","","","","","","",""
"849","","j","psychophysics","136","382174","0.0-8.0-1.0-4.0-0.0-0.14","7","7","7","7","7","5","5","5","5","5","5","2","1","2","2","2","2","2","2","5","5","5","5","5","5","4","4","5","4","7","6","8","8","7","6","6","8","6","7","7","7","7","7","6","7","1","7","7","1","7","7","7","7","6","7","7","7","7","7","7","7","7","7","7","7","6","7","7","7","7","7","7","7","7","7","7","7","6","7","602303969804419072","刘","658","Male","[""坏我"",""坏他"",""好我"",""好他""]","[""弱我"",""弱他"",""强我"",""强他""]","","","","","","","","nonmatch","","","","","","","","","","key","j","16.65909090909091","768","428","f","false","match","img/pentagon.png","弱我","弱我","ALT2","ability","","","","","","","","",""
"null","<span style='color:red; font-size: 70px;'>错误! </span>","null","html-keyboard-response","137","382675","0.0-8.0-1.0-4.0-0.0-1.14","7","7","7","7","7","5","5","5","5","5","5","2","1","2","2","2","2","2","2","5","5","5","5","5","5","4","4","5","4","7","6","8","8","7","6","6","8","6","7","7","7","7","7","6","7","1","7","7","1","7","7","7","7","6","7","7","7","7","7","7","7","7","7","7","7","6","7","7","7","7","7","7","7","7","7","7","7","6","7","602303969804419072","刘","658","Male","[""坏我"",""坏他"",""好我"",""好他""]","[""弱我"",""弱他"",""强我"",""强他""]","","","","","","","","","","","","","","","","","","","","","","","","","","","","","","feedback_test","","","","","","","","",""
"761","","f","psychophysics","138","384438","0.0-8.0-1.0-4.0-0.0-0.15","7","7","7","7","7","5","5","5","5","5","5","2","1","2","2","2","2","2","2","5","5","5","5","5","5","4","4","5","4","7","6","8","8","7","6","6","8","6","7","7","7","7","7","6","7","1","7","7","1","7","7","7","7","6","7","7","7","7","7","7","7","7","7","7","7","6","7","7","7","7","7","7","7","7","7","7","7","6","7","602303969804419072","刘","658","Male","[""坏我"",""坏他"",""好我"",""好他""]","[""弱我"",""弱他"",""强我"",""强他""]","","","","","","","","match","","","","","","","","","","key","f","16.664423076923413","768","428","f","true","match","img/trapezoid.png","强他","强他","ALT2","ability","","","","","","","","",""
