"rt","stimulus","response","trial_type","trial_index","time_elapsed","internal_node_id","swb_1","swb_2","swb_3","swb_4","swb_5","LOT_1","LOT_2","LOT_3","LOT_4","LOT_5","LOT_6","IPC_1","IPC_2","IPC_3","IPC_4","IPC_5","IPC_6","IPC_7","IPC_8","MorIden_1","MorIden_2","MorIden_3","MorIden_4","MorIden_5","MorIden_6","MorIden_7","MorIden_8","MorIden_9","MorIden_10","moralSeImag_1","moralSeImag_2","moralSeImag_3","moralSeImag_4","moralSeImag_5","moralSeImag_6","moralSeImag_7","moralSeImag_8","moralSeImag_9","sde_1","sde_2","sde_3","sde_4","sde_5","sde_6","sde_7","sde_8","sde_9","sde_10","trap2","sde_11","sde_12","sde_13","sde_14","sde_15","sde_16","sde_17","sde_18","sde_19","sde_20","IM_1","IM_2","IM_3","IM_4","IM_5","IM_6","IM_7","IM_8","IM_9","IM_10","IM_11","IM_12","IM_13","IM_14","IM_15","IM_16","IM_17","IM_18","IM_19","IM_20","subj_idx","friend_name","ParticipantID","Sex","Word","Word2","value","success","timeout","failed_images","failed_audio","failed_video","user_agent","responses","item_order","radio_event_ids","radio_event_times","key_event_times","mouse_event_times","straightlining","zigzagging","honeypot","view_history","response_type","key_press","avg_frame_time","center_x","center_y","correct_response","correct","identity","Image","word","condition","task_id","screen_id","time_stamp","person","valence","domain","math","status","duration","question_order","trap2_item"
"6876","
   <p><div style='color:white; font-size: 25px'>您好，欢迎参加本次实验。</div></p>
   <p><div style='color:white; font-size: 25px'>为充分保障您的权利，请确保您已经知晓并同意《参与实验同意书》以及《数据公开知情同意书》。</div></p>
   <p><div style='color:white; font-size: 25px'>如果您未见过上述内容，请咨询实验员。</div></p>
   <p style='color:white; font-size: 25px'>如果您选择继续实验，则表示您已经清楚两份知情同意书的内容并同意。</p>
   <p><div style = ""color: pink;font-size:30px;"">请确保您记得day0的实验编号，您将在本次实验输入该编号，若您忘记，请咨询实验员后作答。</div></p>
   <p><div style = ""color:lightblue;font-size:25px;"">请您尽可能认真地作答，我们将依据您在各问卷和按键任务中的作答质量发放报酬。</div></p>
   <p> <div style = ""color: green""><按空格键至下页></div> </p>
   "," ","html-keyboard-response","0","6881","0.0-0.0","6","5","7","6","5","5","4","4","5","4","5","-2","-3","1","2","0","1","2","2","4","5","5","5","4","5","4","4","5","4","8","6","8","7","6","9","7","8","6","6","6","7","5","5","7","6","7","5","6","1","6","7","3","6","6","7","5","6","6","7","2","7","2","5","7","5","6","5","7","7","6","6","5","2","7","5","5","7","5","5","714626757918982144","王"," 689 ","Male","[""好他"",""坏他"",""坏我"",""好我""]","[""强他"",""弱他"",""弱我"",""强我""]","","","","","","","","","","","","","","","","","","","","","","","","","","","","","","","","","","","","","","",""
"","","","call-function","1","6882","0.0-1.0-0.0","6","5","7","6","5","5","4","4","5","4","5","-2","-3","1","2","0","1","2","2","4","5","5","5","4","5","4","4","5","4","8","6","8","7","6","9","7","8","6","6","6","7","5","5","7","6","7","5","6","1","6","7","3","6","6","7","5","6","6","7","2","7","2","5","7","5","6","5","7","7","6","6","5","2","7","5","5","7","5","5","714626757918982144","王"," 689 ","Male","[""好他"",""坏他"",""坏我"",""好我""]","[""强他"",""弱他"",""弱我"",""强我""]","","","","","","","","","","","","","","","","","","","","","","","","","","","","","","","","","","","","","","",""
"24002","","[{""name"":""Sex"",""value"":""0""},{""name"":""friend_name"",""value"":""王""},{""name"":""ParticipantID"",""value"":"" 689 ""}]","survey-html-form","2","30888","0.0-1.0-1.0","6","5","7","6","5","5","4","4","5","4","5","-2","-3","1","2","0","1","2","2","4","5","5","5","4","5","4","4","5","4","8","6","8","7","6","9","7","8","6","6","6","7","5","5","7","6","7","5","6","1","6","7","3","6","6","7","5","6","6","7","2","7","2","5","7","5","6","5","7","7","6","6","5","2","7","5","5","7","5","5","714626757918982144","王"," 689 ","Male","[""好他"",""坏他"",""坏我"",""好我""]","[""强他"",""弱他"",""弱我"",""强我""]","","","","","","","","","","","","","","","","","","","","","","","","","","","","","","","","","","","","","","",""
"","","","preload","3","31345","0.0-2.0","6","5","7","6","5","5","4","4","5","4","5","-2","-3","1","2","0","1","2","2","4","5","5","5","4","5","4","4","5","4","8","6","8","7","6","9","7","8","6","6","6","7","5","5","7","6","7","5","6","1","6","7","3","6","6","7","5","6","6","7","2","7","2","5","7","5","6","5","7","7","6","6","5","2","7","5","5","7","5","5","714626757918982144","王"," 689 ","Male","[""好他"",""坏他"",""坏我"",""好我""]","[""强他"",""弱他"",""弱我"",""强我""]","","true","false","[]","[]","[]","","","","","","","","","","","","","","","","","","","","","","","","","","","","","","","","",""
"","","","fullscreen","4","32256","0.0-3.0","6","5","7","6","5","5","4","4","5","4","5","-2","-3","1","2","0","1","2","2","4","5","5","5","4","5","4","4","5","4","8","6","8","7","6","9","7","8","6","6","6","7","5","5","7","6","7","5","6","1","6","7","3","6","6","7","5","6","6","7","2","7","2","5","7","5","6","5","7","7","6","6","5","2","7","5","5","7","5","5","714626757918982144","王"," 689 ","Male","[""好他"",""坏他"",""坏我"",""好我""]","[""强他"",""弱他"",""弱我"",""强我""]","","true","","","","","{""brands"":[{""brand"":""Edge"",""version"":""107""},{""brand"":""Chromium"",""version"":""107""},{""brand"":""Not=A?Brand"",""version"":""24""}],""mobile"":false,""platform"":""macOS""}","","","","","","","","","","","","","","","","","","","","","","","","","","","","","","","",""
"40792.5","","{""Q01"":""6"",""Q02"":""5"",""Q03"":""7"",""Q04"":""6"",""Q05"":""5""}","survey-template","5","73066","0.0-4.0","6","5","7","6","5","5","4","4","5","4","5","-2","-3","1","2","0","1","2","2","4","5","5","5","4","5","4","4","5","4","8","6","8","7","6","9","7","8","6","6","6","7","5","5","7","6","7","5","6","1","6","7","3","6","6","7","5","6","6","7","2","7","2","5","7","5","6","5","7","7","6","6","5","2","7","5","5","7","5","5","714626757918982144","王"," 689 ","Male","[""好他"",""坏他"",""坏我"",""好我""]","[""强他"",""弱他"",""弱我"",""强我""]","","","","","","","","{""Q01"":""6"",""Q02"":""5"",""Q03"":""7"",""Q04"":""6"",""Q05"":""5""}","[0,1,2,3,4]","[""Q01"",""Q02"",""Q03"",""Q04"",""Q05""]","[16418.30000001192,17284.100000023842,18889.899999976158,20436,22098.100000023842]","[]","[15908.5,16418.30000001192,17284.100000023842,18889.899999976158,19560.19999998808,20436,22098.100000023842,40791.19999998808]","0.4","0.75","0","","","","","","","","","","","","","","","","","","","","","","",""
"39754.90000003576","","{""Q01"":""5"",""Q02"":""4"",""Q03"":""4"",""Q04"":""5"",""Q05"":""4"",""Q06"":""5""}","survey-template","6","112832","0.0-5.0","6","5","7","6","5","5","4","4","5","4","5","-2","-3","1","2","0","1","2","2","4","5","5","5","4","5","4","4","5","4","8","6","8","7","6","9","7","8","6","6","6","7","5","5","7","6","7","5","6","1","6","7","3","6","6","7","5","6","6","7","2","7","2","5","7","5","6","5","7","7","6","6","5","2","7","5","5","7","5","5","714626757918982144","王"," 689 ","Male","[""好他"",""坏他"",""坏我"",""好我""]","[""强他"",""弱他"",""弱我"",""强我""]","","","","","","","","{""Q01"":""5"",""Q02"":""4"",""Q03"":""4"",""Q04"":""5"",""Q05"":""4"",""Q06"":""5""}","[0,1,2,3,4,5]","[""Q01"",""Q02"",""Q03"",""Q04"",""Q05"",""Q04"",""Q05"",""Q06""]","[3089.5,5218.800000011921,7283.5,9079.5,11111.600000023842,12425.600000023842,13561.600000023842,19105.700000047684]","[]","[3089.5,3716.800000011921,5218.800000011921,7283.5,9079.5,11111.600000023842,12037.600000023842,12425.600000023842,13076.5,13561.600000023842,16595.700000047684,18417.700000047684,19105.700000047684,39754]","0.3333333333333333","0.2","0","","","","","","","","","","","","","","","","","","","","","","",""
"96801.19999998808","","{""Q01"":""-2"",""Q02"":""-3"",""Q03"":""1"",""Q04"":""2"",""Q05"":""0"",""Q06"":""1"",""Q07"":""2"",""Q08"":""2""}","survey-template","7","209638","0.0-6.0","6","5","7","6","5","5","4","4","5","4","5","-2","-3","1","2","0","1","2","2","4","5","5","5","4","5","4","4","5","4","8","6","8","7","6","9","7","8","6","6","6","7","5","5","7","6","7","5","6","1","6","7","3","6","6","7","5","6","6","7","2","7","2","5","7","5","6","5","7","7","6","6","5","2","7","5","5","7","5","5","714626757918982144","王"," 689 ","Male","[""好他"",""坏他"",""坏我"",""好我""]","[""强他"",""弱他"",""弱我"",""强我""]","","","","","","","","{""Q01"":""-2"",""Q02"":""-3"",""Q03"":""1"",""Q04"":""2"",""Q05"":""0"",""Q06"":""1"",""Q07"":""2"",""Q08"":""2""}","[0,1,2,3,4,5,6,7]","[""Q01"",""Q02"",""Q03"",""Q03"",""Q04"",""Q05"",""Q06"",""Q07"",""Q08""]","[2925.5,6381.599999964237,7261.399999976158,7603.299999952316,9398.5,10949.5,12481.599999964237,14088.599999964237,15425.399999976158]","[]","[2925.5,4167.399999976158,4519.599999964237,6077.5,6381.599999964237,7261.399999976158,7603.299999952316,9398.5,10949.5,12481.599999964237,14088.599999964237,15425.399999976158,96799.59999996424]","0.375","0.5714285714285714","0","","","","","","","","","","","","","","","","","","","","","","",""
"75816","","","instructions","8","285460","0.0-7.0","6","5","7","6","5","5","4","4","5","4","5","-2","-3","1","2","0","1","2","2","4","5","5","5","4","5","4","4","5","4","8","6","8","7","6","9","7","8","6","6","6","7","5","5","7","6","7","5","6","1","6","7","3","6","6","7","5","6","6","7","2","7","2","5","7","5","6","5","7","7","6","6","5","2","7","5","5","7","5","5","714626757918982144","王"," 689 ","Male","[""好他"",""坏他"",""坏我"",""好我""]","[""强他"",""弱他"",""弱我"",""强我""]","","","","","","","","","","","","","","","","","[{""page_index"":0,""viewing_time"":75815}]","","","","","","","","","","","","","","","","","","","","","",""
"67888","","","instructions","9","353350","0.0-8.0-0.0-0.0","6","5","7","6","5","5","4","4","5","4","5","-2","-3","1","2","0","1","2","2","4","5","5","5","4","5","4","4","5","4","8","6","8","7","6","9","7","8","6","6","6","7","5","5","7","6","7","5","6","1","6","7","3","6","6","7","5","6","6","7","2","7","2","5","7","5","6","5","7","7","6","6","5","2","7","5","5","7","5","5","714626757918982144","王"," 689 ","Male","[""好他"",""坏他"",""坏我"",""好我""]","[""强他"",""弱他"",""弱我"",""强我""]","","","","","","","","","","","","","","","","","[{""page_index"":0,""viewing_time"":1462},{""page_index"":1,""viewing_time"":63784},{""page_index"":2,""viewing_time"":1298},{""page_index"":3,""viewing_time"":1344}]","","","","","","","","","","","","","","","","","","","","","",""
"1159","","f","psychophysics","10","355524","0.0-8.0-0.0-1.0-0.0-0.0","6","5","7","6","5","5","4","4","5","4","5","-2","-3","1","2","0","1","2","2","4","5","5","5","4","5","4","4","5","4","8","6","8","7","6","9","7","8","6","6","6","7","5","5","7","6","7","5","6","1","6","7","3","6","6","7","5","6","6","7","2","7","2","5","7","5","6","5","7","7","6","6","5","2","7","5","5","7","5","5","714626757918982144","王"," 689 ","Male","[""好他"",""坏他"",""坏我"",""好我""]","[""强他"",""弱他"",""弱我"",""强我""]","","","","","","","","nonmatch","","","","","","","","","","key","f","16.653317829457297","640","356","j","false","match","img/hexagon.png","好我","好我","prac_ALT2_moral","practice_moral","","","","","","","","",""
"null","<span style='color:red; font-size: 70px;'>错误! </span>","null","html-keyboard-response","11","356030","0.0-8.0-0.0-1.0-0.0-1.0","6","5","7","6","5","5","4","4","5","4","5","-2","-3","1","2","0","1","2","2","4","5","5","5","4","5","4","4","5","4","8","6","8","7","6","9","7","8","6","6","6","7","5","5","7","6","7","5","6","1","6","7","3","6","6","7","5","6","6","7","2","7","2","5","7","5","6","5","7","7","6","6","5","2","7","5","5","7","5","5","714626757918982144","王"," 689 ","Male","[""好他"",""坏他"",""坏我"",""好我""]","[""强他"",""弱他"",""弱我"",""强我""]","","","","","","","","","","","","","","","","","","","","","","","","","","","","","","feedback_test","","","","","","","","",""
"null","","null","psychophysics","12","358233","0.0-8.0-0.0-1.0-0.0-0.1","6","5","7","6","5","5","4","4","5","4","5","-2","-3","1","2","0","1","2","2","4","5","5","5","4","5","4","4","5","4","8","6","8","7","6","9","7","8","6","6","6","7","5","5","7","6","7","5","6","1","6","7","3","6","6","7","5","6","6","7","2","7","2","5","7","5","6","5","7","7","6","6","5","2","7","5","5","7","5","5","714626757918982144","王"," 689 ","Male","[""好他"",""坏他"",""坏我"",""好我""]","[""强他"",""弱他"",""弱我"",""强我""]","","","","","","","","null","","","","","","","","","","key","null","16.6532366412211","640","356","j","false","match","img/ellipse.png","坏我","坏我","prac_ALT2_moral","practice_moral","","","","","","","","",""
"null","<span class='add_' style='color:yellow; font-size: 70px;'> 太慢! </span>","null","html-keyboard-response","13","358734","0.0-8.0-0.0-1.0-0.0-1.1","6","5","7","6","5","5","4","4","5","4","5","-2","-3","1","2","0","1","2","2","4","5","5","5","4","5","4","4","5","4","8","6","8","7","6","9","7","8","6","6","6","7","5","5","7","6","7","5","6","1","6","7","3","6","6","7","5","6","6","7","2","7","2","5","7","5","6","5","7","7","6","6","5","2","7","5","5","7","5","5","714626757918982144","王"," 689 ","Male","[""好他"",""坏他"",""坏我"",""好我""]","[""强他"",""弱他"",""弱我"",""强我""]","","","","","","","","","","","","","","","","","","","","","","","","","","","","","","feedback_test","","","","","","","","",""
"null","","null","psychophysics","14","360970","0.0-8.0-0.0-1.0-0.0-0.2","6","5","7","6","5","5","4","4","5","4","5","-2","-3","1","2","0","1","2","2","4","5","5","5","4","5","4","4","5","4","8","6","8","7","6","9","7","8","6","6","6","7","5","5","7","6","7","5","6","1","6","7","3","6","6","7","5","6","6","7","2","7","2","5","7","5","6","5","7","7","6","6","5","2","7","5","5","7","5","5","714626757918982144","王"," 689 ","Male","[""好他"",""坏他"",""坏我"",""好我""]","[""强他"",""弱他"",""弱我"",""强我""]","","","","","","","","null","","","","","","","","","","key","null","16.65326515151537","640","356","f","false","nonmatch","img/triangle.png","好他","坏他","prac_ALT2_moral","practice_moral","","","","","","","","",""
"null","<span class='add_' style='color:yellow; font-size: 70px;'> 太慢! </span>","null","html-keyboard-response","15","361475","0.0-8.0-0.0-1.0-0.0-1.2","6","5","7","6","5","5","4","4","5","4","5","-2","-3","1","2","0","1","2","2","4","5","5","5","4","5","4","4","5","4","8","6","8","7","6","9","7","8","6","6","6","7","5","5","7","6","7","5","6","1","6","7","3","6","6","7","5","6","6","7","2","7","2","5","7","5","6","5","7","7","6","6","5","2","7","5","5","7","5","5","714626757918982144","王"," 689 ","Male","[""好他"",""坏他"",""坏我"",""好我""]","[""强他"",""弱他"",""弱我"",""强我""]","","","","","","","","","","","","","","","","","","","","","","","","","","","","","","feedback_test","","","","","","","","",""
"857","","f","psychophysics","16","363334","0.0-8.0-0.0-1.0-0.0-0.3","6","5","7","6","5","5","4","4","5","4","5","-2","-3","1","2","0","1","2","2","4","5","5","5","4","5","4","4","5","4","8","6","8","7","6","9","7","8","6","6","6","7","5","5","7","6","7","5","6","1","6","7","3","6","6","7","5","6","6","7","2","7","2","5","7","5","6","5","7","7","6","6","5","2","7","5","5","7","5","5","714626757918982144","王"," 689 ","Male","[""好他"",""坏他"",""坏我"",""好我""]","[""强他"",""弱他"",""弱我"",""强我""]","","","","","","","","nonmatch","","","","","","","","","","key","f","16.653247706422267","640","356","j","false","match","img/triangle.png","坏他","坏他","prac_ALT2_moral","practice_moral","","","","","","","","",""
"null","<span style='color:red; font-size: 70px;'>错误! </span>","null","html-keyboard-response","17","363835","0.0-8.0-0.0-1.0-0.0-1.3","6","5","7","6","5","5","4","4","5","4","5","-2","-3","1","2","0","1","2","2","4","5","5","5","4","5","4","4","5","4","8","6","8","7","6","9","7","8","6","6","6","7","5","5","7","6","7","5","6","1","6","7","3","6","6","7","5","6","6","7","2","7","2","5","7","5","6","5","7","7","6","6","5","2","7","5","5","7","5","5","714626757918982144","王"," 689 ","Male","[""好他"",""坏他"",""坏我"",""好我""]","[""强他"",""弱他"",""弱我"",""强我""]","","","","","","","","","","","","","","","","","","","","","","","","","","","","","","feedback_test","","","","","","","","",""
"971","","f","psychophysics","18","365810","0.0-8.0-0.0-1.0-0.0-0.4","6","5","7","6","5","5","4","4","5","4","5","-2","-3","1","2","0","1","2","2","4","5","5","5","4","5","4","4","5","4","8","6","8","7","6","9","7","8","6","6","6","7","5","5","7","6","7","5","6","1","6","7","3","6","6","7","5","6","6","7","2","7","2","5","7","5","6","5","7","7","6","6","5","2","7","5","5","7","5","5","714626757918982144","王"," 689 ","Male","[""好他"",""坏他"",""坏我"",""好我""]","[""强他"",""弱他"",""弱我"",""强我""]","","","","","","","","nonmatch","","","","","","","","","","key","f","16.653367521367674","640","356","f","true","nonmatch","img/ellipse.png","坏他","坏我","prac_ALT2_moral","practice_moral","","","","","","","","",""
"null","<span style='color:GreenYellow; font-size: 70px;'>正确! </span>","null","html-keyboard-response","19","366311","0.0-8.0-0.0-1.0-0.0-1.4","6","5","7","6","5","5","4","4","5","4","5","-2","-3","1","2","0","1","2","2","4","5","5","5","4","5","4","4","5","4","8","6","8","7","6","9","7","8","6","6","6","7","5","5","7","6","7","5","6","1","6","7","3","6","6","7","5","6","6","7","2","7","2","5","7","5","6","5","7","7","6","6","5","2","7","5","5","7","5","5","714626757918982144","王"," 689 ","Male","[""好他"",""坏他"",""坏我"",""好我""]","[""强他"",""弱他"",""弱我"",""强我""]","","","","","","","","","","","","","","","","","","","","","","","","","","","","","","feedback_test","","","","","","","","",""
"null","","null","psychophysics","20","368544","0.0-8.0-0.0-1.0-0.0-0.5","6","5","7","6","5","5","4","4","5","4","5","-2","-3","1","2","0","1","2","2","4","5","5","5","4","5","4","4","5","4","8","6","8","7","6","9","7","8","6","6","6","7","5","5","7","6","7","5","6","1","6","7","3","6","6","7","5","6","6","7","2","7","2","5","7","5","6","5","7","7","6","6","5","2","7","5","5","7","5","5","714626757918982144","王"," 689 ","Male","[""好他"",""坏他"",""坏我"",""好我""]","[""强他"",""弱他"",""弱我"",""强我""]","","","","","","","","null","","","","","","","","","","key","null","16.653272727272864","640","356","f","false","nonmatch","img/triangle.png","坏我","坏他","prac_ALT2_moral","practice_moral","","","","","","","","",""
"null","<span class='add_' style='color:yellow; font-size: 70px;'> 太慢! </span>","null","html-keyboard-response","21","369047","0.0-8.0-0.0-1.0-0.0-1.5","6","5","7","6","5","5","4","4","5","4","5","-2","-3","1","2","0","1","2","2","4","5","5","5","4","5","4","4","5","4","8","6","8","7","6","9","7","8","6","6","6","7","5","5","7","6","7","5","6","1","6","7","3","6","6","7","5","6","6","7","2","7","2","5","7","5","6","5","7","7","6","6","5","2","7","5","5","7","5","5","714626757918982144","王"," 689 ","Male","[""好他"",""坏他"",""坏我"",""好我""]","[""强他"",""弱他"",""弱我"",""强我""]","","","","","","","","","","","","","","","","","","","","","","","","","","","","","","feedback_test","","","","","","","","",""
"913","","j","psychophysics","22","370966","0.0-8.0-0.0-1.0-0.0-0.6","6","5","7","6","5","5","4","4","5","4","5","-2","-3","1","2","0","1","2","2","4","5","5","5","4","5","4","4","5","4","8","6","8","7","6","9","7","8","6","6","6","7","5","5","7","6","7","5","6","1","6","7","3","6","6","7","5","6","6","7","2","7","2","5","7","5","6","5","7","7","6","6","5","2","7","5","5","7","5","5","714626757918982144","王"," 689 ","Male","[""好他"",""坏他"",""坏我"",""好我""]","[""强他"",""弱他"",""弱我"",""强我""]","","","","","","","","match","","","","","","","","","","key","j","16.65331250000028","640","356","f","false","nonmatch","img/hexagon.png","好他","好我","prac_ALT2_moral","practice_moral","","","","","","","","",""
"null","<span style='color:red; font-size: 70px;'>错误! </span>","null","html-keyboard-response","23","371471","0.0-8.0-0.0-1.0-0.0-1.6","6","5","7","6","5","5","4","4","5","4","5","-2","-3","1","2","0","1","2","2","4","5","5","5","4","5","4","4","5","4","8","6","8","7","6","9","7","8","6","6","6","7","5","5","7","6","7","5","6","1","6","7","3","6","6","7","5","6","6","7","2","7","2","5","7","5","6","5","7","7","6","6","5","2","7","5","5","7","5","5","714626757918982144","王"," 689 ","Male","[""好他"",""坏他"",""坏我"",""好我""]","[""强他"",""弱他"",""弱我"",""强我""]","","","","","","","","","","","","","","","","","","","","","","","","","","","","","","feedback_test","","","","","","","","",""
"1029","","f","psychophysics","24","373504","0.0-8.0-0.0-1.0-0.0-0.7","6","5","7","6","5","5","4","4","5","4","5","-2","-3","1","2","0","1","2","2","4","5","5","5","4","5","4","4","5","4","8","6","8","7","6","9","7","8","6","6","6","7","5","5","7","6","7","5","6","1","6","7","3","6","6","7","5","6","6","7","2","7","2","5","7","5","6","5","7","7","6","6","5","2","7","5","5","7","5","5","714626757918982144","王"," 689 ","Male","[""好他"",""坏他"",""坏我"",""好我""]","[""强他"",""弱他"",""弱我"",""强我""]","","","","","","","","nonmatch","","","","","","","","","","key","f","16.654766666666546","640","356","j","false","match","img/triangle.png","坏他","坏他","prac_ALT2_moral","practice_moral","","","","","","","","",""
"null","<span style='color:red; font-size: 70px;'>错误! </span>","null","html-keyboard-response","25","374004","0.0-8.0-0.0-1.0-0.0-1.7","6","5","7","6","5","5","4","4","5","4","5","-2","-3","1","2","0","1","2","2","4","5","5","5","4","5","4","4","5","4","8","6","8","7","6","9","7","8","6","6","6","7","5","5","7","6","7","5","6","1","6","7","3","6","6","7","5","6","6","7","2","7","2","5","7","5","6","5","7","7","6","6","5","2","7","5","5","7","5","5","714626757918982144","王"," 689 ","Male","[""好他"",""坏他"",""坏我"",""好我""]","[""强他"",""弱他"",""弱我"",""强我""]","","","","","","","","","","","","","","","","","","","","","","","","","","","","","","feedback_test","","","","","","","","",""
"719","","j","psychophysics","26","375732","0.0-8.0-0.0-1.0-0.0-0.8","6","5","7","6","5","5","4","4","5","4","5","-2","-3","1","2","0","1","2","2","4","5","5","5","4","5","4","4","5","4","8","6","8","7","6","9","7","8","6","6","6","7","5","5","7","6","7","5","6","1","6","7","3","6","6","7","5","6","6","7","2","7","2","5","7","5","6","5","7","7","6","6","5","2","7","5","5","7","5","5","714626757918982144","王"," 689 ","Male","[""好他"",""坏他"",""坏我"",""好我""]","[""强他"",""弱他"",""弱我"",""强我""]","","","","","","","","match","","","","","","","","","","key","j","16.653303921568508","640","356","j","true","match","img/triangle.png","坏他","坏他","prac_ALT2_moral","practice_moral","","","","","","","","",""
"null","<span style='color:GreenYellow; font-size: 70px;'>正确! </span>","null","html-keyboard-response","27","376234","0.0-8.0-0.0-1.0-0.0-1.8","6","5","7","6","5","5","4","4","5","4","5","-2","-3","1","2","0","1","2","2","4","5","5","5","4","5","4","4","5","4","8","6","8","7","6","9","7","8","6","6","6","7","5","5","7","6","7","5","6","1","6","7","3","6","6","7","5","6","6","7","2","7","2","5","7","5","6","5","7","7","6","6","5","2","7","5","5","7","5","5","714626757918982144","王"," 689 ","Male","[""好他"",""坏他"",""坏我"",""好我""]","[""强他"",""弱他"",""弱我"",""强我""]","","","","","","","","","","","","","","","","","","","","","","","","","","","","","","feedback_test","","","","","","","","",""
"1001","","f","psychophysics","28","378249","0.0-8.0-0.0-1.0-0.0-0.9","6","5","7","6","5","5","4","4","5","4","5","-2","-3","1","2","0","1","2","2","4","5","5","5","4","5","4","4","5","4","8","6","8","7","6","9","7","8","6","6","6","7","5","5","7","6","7","5","6","1","6","7","3","6","6","7","5","6","6","7","2","7","2","5","7","5","6","5","7","7","6","6","5","2","7","5","5","7","5","5","714626757918982144","王"," 689 ","Male","[""好他"",""坏他"",""坏我"",""好我""]","[""强他"",""弱他"",""弱我"",""强我""]","","","","","","","","nonmatch","","","","","","","","","","key","f","16.65338655462158","640","356","f","true","nonmatch","img/triangle.png","好我","坏他","prac_ALT2_moral","practice_moral","","","","","","","","",""
"null","<span style='color:GreenYellow; font-size: 70px;'>正确! </span>","null","html-keyboard-response","29","378752","0.0-8.0-0.0-1.0-0.0-1.9","6","5","7","6","5","5","4","4","5","4","5","-2","-3","1","2","0","1","2","2","4","5","5","5","4","5","4","4","5","4","8","6","8","7","6","9","7","8","6","6","6","7","5","5","7","6","7","5","6","1","6","7","3","6","6","7","5","6","6","7","2","7","2","5","7","5","6","5","7","7","6","6","5","2","7","5","5","7","5","5","714626757918982144","王"," 689 ","Male","[""好他"",""坏他"",""坏我"",""好我""]","[""强他"",""弱他"",""弱我"",""强我""]","","","","","","","","","","","","","","","","","","","","","","","","","","","","","","feedback_test","","","","","","","","",""
"954","","j","psychophysics","30","380711","0.0-8.0-0.0-1.0-0.0-0.10","6","5","7","6","5","5","4","4","5","4","5","-2","-3","1","2","0","1","2","2","4","5","5","5","4","5","4","4","5","4","8","6","8","7","6","9","7","8","6","6","6","7","5","5","7","6","7","5","6","1","6","7","3","6","6","7","5","6","6","7","2","7","2","5","7","5","6","5","7","7","6","6","5","2","7","5","5","7","5","5","714626757918982144","王"," 689 ","Male","[""好他"",""坏他"",""坏我"",""好我""]","[""强他"",""弱他"",""弱我"",""强我""]","","","","","","","","match","","","","","","","","","","key","j","16.653078947368428","640","356","j","true","match","img/hexagon.png","好我","好我","prac_ALT2_moral","practice_moral","","","","","","","","",""
"null","<span style='color:GreenYellow; font-size: 70px;'>正确! </span>","null","html-keyboard-response","31","381213","0.0-8.0-0.0-1.0-0.0-1.10","6","5","7","6","5","5","4","4","5","4","5","-2","-3","1","2","0","1","2","2","4","5","5","5","4","5","4","4","5","4","8","6","8","7","6","9","7","8","6","6","6","7","5","5","7","6","7","5","6","1","6","7","3","6","6","7","5","6","6","7","2","7","2","5","7","5","6","5","7","7","6","6","5","2","7","5","5","7","5","5","714626757918982144","王"," 689 ","Male","[""好他"",""坏他"",""坏我"",""好我""]","[""强他"",""弱他"",""弱我"",""强我""]","","","","","","","","","","","","","","","","","","","","","","","","","","","","","","feedback_test","","","","","","","","",""
"801","","j","psychophysics","32","383016","0.0-8.0-0.0-1.0-0.0-0.11","6","5","7","6","5","5","4","4","5","4","5","-2","-3","1","2","0","1","2","2","4","5","5","5","4","5","4","4","5","4","8","6","8","7","6","9","7","8","6","6","6","7","5","5","7","6","7","5","6","1","6","7","3","6","6","7","5","6","6","7","2","7","2","5","7","5","6","5","7","7","6","6","5","2","7","5","5","7","5","5","714626757918982144","王"," 689 ","Male","[""好他"",""坏他"",""坏我"",""好我""]","[""强他"",""弱他"",""弱我"",""强我""]","","","","","","","","match","","","","","","","","","","key","j","16.65325471698109","640","356","f","false","nonmatch","img/ellipse.png","好他","坏我","prac_ALT2_moral","practice_moral","","","","","","","","",""
"null","<span style='color:red; font-size: 70px;'>错误! </span>","null","html-keyboard-response","33","383518","0.0-8.0-0.0-1.0-0.0-1.11","6","5","7","6","5","5","4","4","5","4","5","-2","-3","1","2","0","1","2","2","4","5","5","5","4","5","4","4","5","4","8","6","8","7","6","9","7","8","6","6","6","7","5","5","7","6","7","5","6","1","6","7","3","6","6","7","5","6","6","7","2","7","2","5","7","5","6","5","7","7","6","6","5","2","7","5","5","7","5","5","714626757918982144","王"," 689 ","Male","[""好他"",""坏他"",""坏我"",""好我""]","[""强他"",""弱他"",""弱我"",""强我""]","","","","","","","","","","","","","","","","","","","","","","","","","","","","","","feedback_test","","","","","","","","",""
"904","","f","psychophysics","34","385428","0.0-8.0-0.0-1.0-0.0-0.12","6","5","7","6","5","5","4","4","5","4","5","-2","-3","1","2","0","1","2","2","4","5","5","5","4","5","4","4","5","4","8","6","8","7","6","9","7","8","6","6","6","7","5","5","7","6","7","5","6","1","6","7","3","6","6","7","5","6","6","7","2","7","2","5","7","5","6","5","7","7","6","6","5","2","7","5","5","7","5","5","714626757918982144","王"," 689 ","Male","[""好他"",""坏他"",""坏我"",""好我""]","[""强他"",""弱他"",""弱我"",""强我""]","","","","","","","","nonmatch","","","","","","","","","","key","f","16.64784070796465","640","356","f","true","nonmatch","img/diamond.png","好我","好他","prac_ALT2_moral","practice_moral","","","","","","","","",""
"null","<span style='color:GreenYellow; font-size: 70px;'>正确! </span>","null","html-keyboard-response","35","385929","0.0-8.0-0.0-1.0-0.0-1.12","6","5","7","6","5","5","4","4","5","4","5","-2","-3","1","2","0","1","2","2","4","5","5","5","4","5","4","4","5","4","8","6","8","7","6","9","7","8","6","6","6","7","5","5","7","6","7","5","6","1","6","7","3","6","6","7","5","6","6","7","2","7","2","5","7","5","6","5","7","7","6","6","5","2","7","5","5","7","5","5","714626757918982144","王"," 689 ","Male","[""好他"",""坏他"",""坏我"",""好我""]","[""强他"",""弱他"",""弱我"",""强我""]","","","","","","","","","","","","","","","","","","","","","","","","","","","","","","feedback_test","","","","","","","","",""
"1112","","j","psychophysics","36","388043","0.0-8.0-0.0-1.0-0.0-0.13","6","5","7","6","5","5","4","4","5","4","5","-2","-3","1","2","0","1","2","2","4","5","5","5","4","5","4","4","5","4","8","6","8","7","6","9","7","8","6","6","6","7","5","5","7","6","7","5","6","1","6","7","3","6","6","7","5","6","6","7","2","7","2","5","7","5","6","5","7","7","6","6","5","2","7","5","5","7","5","5","714626757918982144","王"," 689 ","Male","[""好他"",""坏他"",""坏我"",""好我""]","[""强他"",""弱他"",""弱我"",""强我""]","","","","","","","","match","","","","","","","","","","key","j","16.653319999999834","640","356","f","false","nonmatch","img/diamond.png","坏他","好他","prac_ALT2_moral","practice_moral","","","","","","","","",""
"null","<span style='color:red; font-size: 70px;'>错误! </span>","null","html-keyboard-response","37","388546","0.0-8.0-0.0-1.0-0.0-1.13","6","5","7","6","5","5","4","4","5","4","5","-2","-3","1","2","0","1","2","2","4","5","5","5","4","5","4","4","5","4","8","6","8","7","6","9","7","8","6","6","6","7","5","5","7","6","7","5","6","1","6","7","3","6","6","7","5","6","6","7","2","7","2","5","7","5","6","5","7","7","6","6","5","2","7","5","5","7","5","5","714626757918982144","王"," 689 ","Male","[""好他"",""坏他"",""坏我"",""好我""]","[""强他"",""弱他"",""弱我"",""强我""]","","","","","","","","","","","","","","","","","","","","","","","","","","","","","","feedback_test","","","","","","","","",""
"967","","f","psychophysics","38","390520","0.0-8.0-0.0-1.0-0.0-0.14","6","5","7","6","5","5","4","4","5","4","5","-2","-3","1","2","0","1","2","2","4","5","5","5","4","5","4","4","5","4","8","6","8","7","6","9","7","8","6","6","6","7","5","5","7","6","7","5","6","1","6","7","3","6","6","7","5","6","6","7","2","7","2","5","7","5","6","5","7","7","6","6","5","2","7","5","5","7","5","5","714626757918982144","王"," 689 ","Male","[""好他"",""坏他"",""坏我"",""好我""]","[""强他"",""弱他"",""弱我"",""强我""]","","","","","","","","nonmatch","","","","","","","","","","key","f","16.65329310344833","640","356","f","true","nonmatch","img/diamond.png","坏我","好他","prac_ALT2_moral","practice_moral","","","","","","","","",""
"null","<span style='color:GreenYellow; font-size: 70px;'>正确! </span>","null","html-keyboard-response","39","391022","0.0-8.0-0.0-1.0-0.0-1.14","6","5","7","6","5","5","4","4","5","4","5","-2","-3","1","2","0","1","2","2","4","5","5","5","4","5","4","4","5","4","8","6","8","7","6","9","7","8","6","6","6","7","5","5","7","6","7","5","6","1","6","7","3","6","6","7","5","6","6","7","2","7","2","5","7","5","6","5","7","7","6","6","5","2","7","5","5","7","5","5","714626757918982144","王"," 689 ","Male","[""好他"",""坏他"",""坏我"",""好我""]","[""强他"",""弱他"",""弱我"",""强我""]","","","","","","","","","","","","","","","","","","","","","","","","","","","","","","feedback_test","","","","","","","","",""
"947","","j","psychophysics","40","392971","0.0-8.0-0.0-1.0-0.0-0.15","6","5","7","6","5","5","4","4","5","4","5","-2","-3","1","2","0","1","2","2","4","5","5","5","4","5","4","4","5","4","8","6","8","7","6","9","7","8","6","6","6","7","5","5","7","6","7","5","6","1","6","7","3","6","6","7","5","6","6","7","2","7","2","5","7","5","6","5","7","7","6","6","5","2","7","5","5","7","5","5","714626757918982144","王"," 689 ","Male","[""好他"",""坏他"",""坏我"",""好我""]","[""强他"",""弱他"",""弱我"",""强我""]","","","","","","","","match","","","","","","","","","","key","j","16.653295652174048","640","356","j","true","match","img/diamond.png","好他","好他","prac_ALT2_moral","practice_moral","","","","","","","","",""
"null","<span style='color:GreenYellow; font-size: 70px;'>正确! </span>","null","html-keyboard-response","41","393472","0.0-8.0-0.0-1.0-0.0-1.15","6","5","7","6","5","5","4","4","5","4","5","-2","-3","1","2","0","1","2","2","4","5","5","5","4","5","4","4","5","4","8","6","8","7","6","9","7","8","6","6","6","7","5","5","7","6","7","5","6","1","6","7","3","6","6","7","5","6","6","7","2","7","2","5","7","5","6","5","7","7","6","6","5","2","7","5","5","7","5","5","714626757918982144","王"," 689 ","Male","[""好他"",""坏他"",""坏我"",""好我""]","[""强他"",""弱他"",""弱我"",""强我""]","","","","","","","","","","","","","","","","","","","","","","","","","","","","","","feedback_test","","","","","","","","",""
"777","","j","psychophysics","42","395252","0.0-8.0-0.0-1.0-0.0-0.16","6","5","7","6","5","5","4","4","5","4","5","-2","-3","1","2","0","1","2","2","4","5","5","5","4","5","4","4","5","4","8","6","8","7","6","9","7","8","6","6","6","7","5","5","7","6","7","5","6","1","6","7","3","6","6","7","5","6","6","7","2","7","2","5","7","5","6","5","7","7","6","6","5","2","7","5","5","7","5","5","714626757918982144","王"," 689 ","Male","[""好他"",""坏他"",""坏我"",""好我""]","[""强他"",""弱他"",""弱我"",""强我""]","","","","","","","","match","","","","","","","","","","key","j","16.653396226415182","640","356","j","true","match","img/hexagon.png","好我","好我","prac_ALT2_moral","practice_moral","","","","","","","","",""
"null","<span style='color:GreenYellow; font-size: 70px;'>正确! </span>","null","html-keyboard-response","43","395753","0.0-8.0-0.0-1.0-0.0-1.16","6","5","7","6","5","5","4","4","5","4","5","-2","-3","1","2","0","1","2","2","4","5","5","5","4","5","4","4","5","4","8","6","8","7","6","9","7","8","6","6","6","7","5","5","7","6","7","5","6","1","6","7","3","6","6","7","5","6","6","7","2","7","2","5","7","5","6","5","7","7","6","6","5","2","7","5","5","7","5","5","714626757918982144","王"," 689 ","Male","[""好他"",""坏他"",""坏我"",""好我""]","[""强他"",""弱他"",""弱我"",""强我""]","","","","","","","","","","","","","","","","","","","","","","","","","","","","","","feedback_test","","","","","","","","",""
"972","","f","psychophysics","44","397729","0.0-8.0-0.0-1.0-0.0-0.17","6","5","7","6","5","5","4","4","5","4","5","-2","-3","1","2","0","1","2","2","4","5","5","5","4","5","4","4","5","4","8","6","8","7","6","9","7","8","6","6","6","7","5","5","7","6","7","5","6","1","6","7","3","6","6","7","5","6","6","7","2","7","2","5","7","5","6","5","7","7","6","6","5","2","7","5","5","7","5","5","714626757918982144","王"," 689 ","Male","[""好他"",""坏他"",""坏我"",""好我""]","[""强他"",""弱他"",""弱我"",""强我""]","","","","","","","","nonmatch","","","","","","","","","","key","f","16.653456896551532","640","356","f","true","nonmatch","img/hexagon.png","坏他","好我","prac_ALT2_moral","practice_moral","","","","","","","","",""
"null","<span style='color:GreenYellow; font-size: 70px;'>正确! </span>","null","html-keyboard-response","45","398232","0.0-8.0-0.0-1.0-0.0-1.17","6","5","7","6","5","5","4","4","5","4","5","-2","-3","1","2","0","1","2","2","4","5","5","5","4","5","4","4","5","4","8","6","8","7","6","9","7","8","6","6","6","7","5","5","7","6","7","5","6","1","6","7","3","6","6","7","5","6","6","7","2","7","2","5","7","5","6","5","7","7","6","6","5","2","7","5","5","7","5","5","714626757918982144","王"," 689 ","Male","[""好他"",""坏他"",""坏我"",""好我""]","[""强他"",""弱他"",""弱我"",""强我""]","","","","","","","","","","","","","","","","","","","","","","","","","","","","","","feedback_test","","","","","","","","",""
"1001","","f","psychophysics","46","400236","0.0-8.0-0.0-1.0-0.0-0.18","6","5","7","6","5","5","4","4","5","4","5","-2","-3","1","2","0","1","2","2","4","5","5","5","4","5","4","4","5","4","8","6","8","7","6","9","7","8","6","6","6","7","5","5","7","6","7","5","6","1","6","7","3","6","6","7","5","6","6","7","2","7","2","5","7","5","6","5","7","7","6","6","5","2","7","5","5","7","5","5","714626757918982144","王"," 689 ","Male","[""好他"",""坏他"",""坏我"",""好我""]","[""强他"",""弱他"",""弱我"",""强我""]","","","","","","","","nonmatch","","","","","","","","","","key","f","16.653403361344576","640","356","f","true","nonmatch","img/ellipse.png","好我","坏我","prac_ALT2_moral","practice_moral","","","","","","","","",""
"null","<span style='color:GreenYellow; font-size: 70px;'>正确! </span>","null","html-keyboard-response","47","400738","0.0-8.0-0.0-1.0-0.0-1.18","6","5","7","6","5","5","4","4","5","4","5","-2","-3","1","2","0","1","2","2","4","5","5","5","4","5","4","4","5","4","8","6","8","7","6","9","7","8","6","6","6","7","5","5","7","6","7","5","6","1","6","7","3","6","6","7","5","6","6","7","2","7","2","5","7","5","6","5","7","7","6","6","5","2","7","5","5","7","5","5","714626757918982144","王"," 689 ","Male","[""好他"",""坏他"",""坏我"",""好我""]","[""强他"",""弱他"",""弱我"",""强我""]","","","","","","","","","","","","","","","","","","","","","","","","","","","","","","feedback_test","","","","","","","","",""
"817","","j","psychophysics","48","402560","0.0-8.0-0.0-1.0-0.0-0.19","6","5","7","6","5","5","4","4","5","4","5","-2","-3","1","2","0","1","2","2","4","5","5","5","4","5","4","4","5","4","8","6","8","7","6","9","7","8","6","6","6","7","5","5","7","6","7","5","6","1","6","7","3","6","6","7","5","6","6","7","2","7","2","5","7","5","6","5","7","7","6","6","5","2","7","5","5","7","5","5","714626757918982144","王"," 689 ","Male","[""好他"",""坏他"",""坏我"",""好我""]","[""强他"",""弱他"",""弱我"",""强我""]","","","","","","","","match","","","","","","","","","","key","j","16.653305555555832","640","356","j","true","match","img/ellipse.png","坏我","坏我","prac_ALT2_moral","practice_moral","","","","","","","","",""
"null","<span style='color:GreenYellow; font-size: 70px;'>正确! </span>","null","html-keyboard-response","49","403061","0.0-8.0-0.0-1.0-0.0-1.19","6","5","7","6","5","5","4","4","5","4","5","-2","-3","1","2","0","1","2","2","4","5","5","5","4","5","4","4","5","4","8","6","8","7","6","9","7","8","6","6","6","7","5","5","7","6","7","5","6","1","6","7","3","6","6","7","5","6","6","7","2","7","2","5","7","5","6","5","7","7","6","6","5","2","7","5","5","7","5","5","714626757918982144","王"," 689 ","Male","[""好他"",""坏他"",""坏我"",""好我""]","[""强他"",""弱他"",""弱我"",""强我""]","","","","","","","","","","","","","","","","","","","","","","","","","","","","","","feedback_test","","","","","","","","",""
"1007","","j","psychophysics","50","405073","0.0-8.0-0.0-1.0-0.0-0.20","6","5","7","6","5","5","4","4","5","4","5","-2","-3","1","2","0","1","2","2","4","5","5","5","4","5","4","4","5","4","8","6","8","7","6","9","7","8","6","6","6","7","5","5","7","6","7","5","6","1","6","7","3","6","6","7","5","6","6","7","2","7","2","5","7","5","6","5","7","7","6","6","5","2","7","5","5","7","5","5","714626757918982144","王"," 689 ","Male","[""好他"",""坏他"",""坏我"",""好我""]","[""强他"",""弱他"",""弱我"",""强我""]","","","","","","","","match","","","","","","","","","","key","j","16.653288135593126","640","356","j","true","match","img/diamond.png","好他","好他","prac_ALT2_moral","practice_moral","","","","","","","","",""
"null","<span style='color:GreenYellow; font-size: 70px;'>正确! </span>","null","html-keyboard-response","51","405576","0.0-8.0-0.0-1.0-0.0-1.20","6","5","7","6","5","5","4","4","5","4","5","-2","-3","1","2","0","1","2","2","4","5","5","5","4","5","4","4","5","4","8","6","8","7","6","9","7","8","6","6","6","7","5","5","7","6","7","5","6","1","6","7","3","6","6","7","5","6","6","7","2","7","2","5","7","5","6","5","7","7","6","6","5","2","7","5","5","7","5","5","714626757918982144","王"," 689 ","Male","[""好他"",""坏他"",""坏我"",""好我""]","[""强他"",""弱他"",""弱我"",""强我""]","","","","","","","","","","","","","","","","","","","","","","","","","","","","","","feedback_test","","","","","","","","",""
"1141","","j","psychophysics","52","407719","0.0-8.0-0.0-1.0-0.0-0.21","6","5","7","6","5","5","4","4","5","4","5","-2","-3","1","2","0","1","2","2","4","5","5","5","4","5","4","4","5","4","8","6","8","7","6","9","7","8","6","6","6","7","5","5","7","6","7","5","6","1","6","7","3","6","6","7","5","6","6","7","2","7","2","5","7","5","6","5","7","7","6","6","5","2","7","5","5","7","5","5","714626757918982144","王"," 689 ","Male","[""好他"",""坏他"",""坏我"",""好我""]","[""强他"",""弱他"",""弱我"",""强我""]","","","","","","","","match","","","","","","","","","","key","j","16.653333333332927","640","356","j","true","match","img/ellipse.png","坏我","坏我","prac_ALT2_moral","practice_moral","","","","","","","","",""
"null","<span style='color:GreenYellow; font-size: 70px;'>正确! </span>","null","html-keyboard-response","53","408225","0.0-8.0-0.0-1.0-0.0-1.21","6","5","7","6","5","5","4","4","5","4","5","-2","-3","1","2","0","1","2","2","4","5","5","5","4","5","4","4","5","4","8","6","8","7","6","9","7","8","6","6","6","7","5","5","7","6","7","5","6","1","6","7","3","6","6","7","5","6","6","7","2","7","2","5","7","5","6","5","7","7","6","6","5","2","7","5","5","7","5","5","714626757918982144","王"," 689 ","Male","[""好他"",""坏他"",""坏我"",""好我""]","[""强他"",""弱他"",""弱我"",""强我""]","","","","","","","","","","","","","","","","","","","","","","","","","","","","","","feedback_test","","","","","","","","",""
"997","","f","psychophysics","54","410234","0.0-8.0-0.0-1.0-0.0-0.22","6","5","7","6","5","5","4","4","5","4","5","-2","-3","1","2","0","1","2","2","4","5","5","5","4","5","4","4","5","4","8","6","8","7","6","9","7","8","6","6","6","7","5","5","7","6","7","5","6","1","6","7","3","6","6","7","5","6","6","7","2","7","2","5","7","5","6","5","7","7","6","6","5","2","7","5","5","7","5","5","714626757918982144","王"," 689 ","Male","[""好他"",""坏他"",""坏我"",""好我""]","[""强他"",""弱他"",""弱我"",""强我""]","","","","","","","","nonmatch","","","","","","","","","","key","f","16.653186440677974","640","356","f","true","nonmatch","img/hexagon.png","坏我","好我","prac_ALT2_moral","practice_moral","","","","","","","","",""
"null","<span style='color:GreenYellow; font-size: 70px;'>正确! </span>","null","html-keyboard-response","55","410739","0.0-8.0-0.0-1.0-0.0-1.22","6","5","7","6","5","5","4","4","5","4","5","-2","-3","1","2","0","1","2","2","4","5","5","5","4","5","4","4","5","4","8","6","8","7","6","9","7","8","6","6","6","7","5","5","7","6","7","5","6","1","6","7","3","6","6","7","5","6","6","7","2","7","2","5","7","5","6","5","7","7","6","6","5","2","7","5","5","7","5","5","714626757918982144","王"," 689 ","Male","[""好他"",""坏他"",""坏我"",""好我""]","[""强他"",""弱他"",""弱我"",""强我""]","","","","","","","","","","","","","","","","","","","","","","","","","","","","","","feedback_test","","","","","","","","",""
"883","","j","psychophysics","56","412624","0.0-8.0-0.0-1.0-0.0-0.23","6","5","7","6","5","5","4","4","5","4","5","-2","-3","1","2","0","1","2","2","4","5","5","5","4","5","4","4","5","4","8","6","8","7","6","9","7","8","6","6","6","7","5","5","7","6","7","5","6","1","6","7","3","6","6","7","5","6","6","7","2","7","2","5","7","5","6","5","7","7","6","6","5","2","7","5","5","7","5","5","714626757918982144","王"," 689 ","Male","[""好他"",""坏他"",""坏我"",""好我""]","[""强他"",""弱他"",""弱我"",""强我""]","","","","","","","","match","","","","","","","","","","key","j","16.65329729729733","640","356","j","true","match","img/diamond.png","好他","好他","prac_ALT2_moral","practice_moral","","","","","","","","",""
"null","<span style='color:GreenYellow; font-size: 70px;'>正确! </span>","null","html-keyboard-response","57","413126","0.0-8.0-0.0-1.0-0.0-1.23","6","5","7","6","5","5","4","4","5","4","5","-2","-3","1","2","0","1","2","2","4","5","5","5","4","5","4","4","5","4","8","6","8","7","6","9","7","8","6","6","6","7","5","5","7","6","7","5","6","1","6","7","3","6","6","7","5","6","6","7","2","7","2","5","7","5","6","5","7","7","6","6","5","2","7","5","5","7","5","5","714626757918982144","王"," 689 ","Male","[""好他"",""坏他"",""坏我"",""好我""]","[""强他"",""弱他"",""弱我"",""强我""]","","","","","","","","","","","","","","","","","","","","","","","","","","","","","","feedback_test","","","","","","","","",""
"1068","","j","psychophysics","58","415200","0.0-8.0-0.0-1.0-0.0-0.24","6","5","7","6","5","5","4","4","5","4","5","-2","-3","1","2","0","1","2","2","4","5","5","5","4","5","4","4","5","4","8","6","8","7","6","9","7","8","6","6","6","7","5","5","7","6","7","5","6","1","6","7","3","6","6","7","5","6","6","7","2","7","2","5","7","5","6","5","7","7","6","6","5","2","7","5","5","7","5","5","714626757918982144","王"," 689 ","Male","[""好他"",""坏他"",""坏我"",""好我""]","[""强他"",""弱他"",""弱我"",""强我""]","","","","","","","","match","","","","","","","","","","key","j","16.65326016260135","640","356","j","true","match","img/ellipse.png","坏我","坏我","prac_ALT2_moral","practice_moral","","","","","","","","",""
"null","<span style='color:GreenYellow; font-size: 70px;'>正确! </span>","null","html-keyboard-response","59","415702","0.0-8.0-0.0-1.0-0.0-1.24","6","5","7","6","5","5","4","4","5","4","5","-2","-3","1","2","0","1","2","2","4","5","5","5","4","5","4","4","5","4","8","6","8","7","6","9","7","8","6","6","6","7","5","5","7","6","7","5","6","1","6","7","3","6","6","7","5","6","6","7","2","7","2","5","7","5","6","5","7","7","6","6","5","2","7","5","5","7","5","5","714626757918982144","王"," 689 ","Male","[""好他"",""坏他"",""坏我"",""好我""]","[""强他"",""弱他"",""弱我"",""强我""]","","","","","","","","","","","","","","","","","","","","","","","","","","","","","","feedback_test","","","","","","","","",""
"844","","j","psychophysics","60","417547","0.0-8.0-0.0-1.0-0.0-0.25","6","5","7","6","5","5","4","4","5","4","5","-2","-3","1","2","0","1","2","2","4","5","5","5","4","5","4","4","5","4","8","6","8","7","6","9","7","8","6","6","6","7","5","5","7","6","7","5","6","1","6","7","3","6","6","7","5","6","6","7","2","7","2","5","7","5","6","5","7","7","6","6","5","2","7","5","5","7","5","5","714626757918982144","王"," 689 ","Male","[""好他"",""坏他"",""坏我"",""好我""]","[""强他"",""弱他"",""弱我"",""强我""]","","","","","","","","match","","","","","","","","","","key","j","16.653302752293236","640","356","j","true","match","img/diamond.png","好他","好他","prac_ALT2_moral","practice_moral","","","","","","","","",""
"null","<span style='color:GreenYellow; font-size: 70px;'>正确! </span>","null","html-keyboard-response","61","418048","0.0-8.0-0.0-1.0-0.0-1.25","6","5","7","6","5","5","4","4","5","4","5","-2","-3","1","2","0","1","2","2","4","5","5","5","4","5","4","4","5","4","8","6","8","7","6","9","7","8","6","6","6","7","5","5","7","6","7","5","6","1","6","7","3","6","6","7","5","6","6","7","2","7","2","5","7","5","6","5","7","7","6","6","5","2","7","5","5","7","5","5","714626757918982144","王"," 689 ","Male","[""好他"",""坏他"",""坏我"",""好我""]","[""强他"",""弱他"",""弱我"",""强我""]","","","","","","","","","","","","","","","","","","","","","","","","","","","","","","feedback_test","","","","","","","","",""
"null","","null","psychophysics","62","420282","0.0-8.0-0.0-1.0-0.0-0.26","6","5","7","6","5","5","4","4","5","4","5","-2","-3","1","2","0","1","2","2","4","5","5","5","4","5","4","4","5","4","8","6","8","7","6","9","7","8","6","6","6","7","5","5","7","6","7","5","6","1","6","7","3","6","6","7","5","6","6","7","2","7","2","5","7","5","6","5","7","7","6","6","5","2","7","5","5","7","5","5","714626757918982144","王"," 689 ","Male","[""好他"",""坏他"",""坏我"",""好我""]","[""强他"",""弱他"",""弱我"",""强我""]","","","","","","","","null","","","","","","","","","","key","null","16.65318181818205","640","356","j","false","match","img/diamond.png","好他","好他","prac_ALT2_moral","practice_moral","","","","","","","","",""
"null","<span class='add_' style='color:yellow; font-size: 70px;'> 太慢! </span>","null","html-keyboard-response","63","420785","0.0-8.0-0.0-1.0-0.0-1.26","6","5","7","6","5","5","4","4","5","4","5","-2","-3","1","2","0","1","2","2","4","5","5","5","4","5","4","4","5","4","8","6","8","7","6","9","7","8","6","6","6","7","5","5","7","6","7","5","6","1","6","7","3","6","6","7","5","6","6","7","2","7","2","5","7","5","6","5","7","7","6","6","5","2","7","5","5","7","5","5","714626757918982144","王"," 689 ","Male","[""好他"",""坏他"",""坏我"",""好我""]","[""强他"",""弱他"",""弱我"",""强我""]","","","","","","","","","","","","","","","","","","","","","","","","","","","","","","feedback_test","","","","","","","","",""
"754","","f","psychophysics","64","422544","0.0-8.0-0.0-1.0-0.0-0.27","6","5","7","6","5","5","4","4","5","4","5","-2","-3","1","2","0","1","2","2","4","5","5","5","4","5","4","4","5","4","8","6","8","7","6","9","7","8","6","6","6","7","5","5","7","6","7","5","6","1","6","7","3","6","6","7","5","6","6","7","2","7","2","5","7","5","6","5","7","7","6","6","5","2","7","5","5","7","5","5","714626757918982144","王"," 689 ","Male","[""好他"",""坏他"",""坏我"",""好我""]","[""强他"",""弱他"",""弱我"",""强我""]","","","","","","","","nonmatch","","","","","","","","","","key","f","16.653333333333112","640","356","f","true","nonmatch","img/ellipse.png","好他","坏我","prac_ALT2_moral","practice_moral","","","","","","","","",""
"null","<span style='color:GreenYellow; font-size: 70px;'>正确! </span>","null","html-keyboard-response","65","423045","0.0-8.0-0.0-1.0-0.0-1.27","6","5","7","6","5","5","4","4","5","4","5","-2","-3","1","2","0","1","2","2","4","5","5","5","4","5","4","4","5","4","8","6","8","7","6","9","7","8","6","6","6","7","5","5","7","6","7","5","6","1","6","7","3","6","6","7","5","6","6","7","2","7","2","5","7","5","6","5","7","7","6","6","5","2","7","5","5","7","5","5","714626757918982144","王"," 689 ","Male","[""好他"",""坏他"",""坏我"",""好我""]","[""强他"",""弱他"",""弱我"",""强我""]","","","","","","","","","","","","","","","","","","","","","","","","","","","","","","feedback_test","","","","","","","","",""
"1017","","j","psychophysics","66","425065","0.0-8.0-0.0-1.0-0.0-0.28","6","5","7","6","5","5","4","4","5","4","5","-2","-3","1","2","0","1","2","2","4","5","5","5","4","5","4","4","5","4","8","6","8","7","6","9","7","8","6","6","6","7","5","5","7","6","7","5","6","1","6","7","3","6","6","7","5","6","6","7","2","7","2","5","7","5","6","5","7","7","6","6","5","2","7","5","5","7","5","5","714626757918982144","王"," 689 ","Male","[""好他"",""坏他"",""坏我"",""好我""]","[""强他"",""弱他"",""弱我"",""强我""]","","","","","","","","match","","","","","","","","","","key","j","16.653436974789596","640","356","j","true","match","img/triangle.png","坏他","坏他","prac_ALT2_moral","practice_moral","","","","","","","","",""
"null","<span style='color:GreenYellow; font-size: 70px;'>正确! </span>","null","html-keyboard-response","67","425566","0.0-8.0-0.0-1.0-0.0-1.28","6","5","7","6","5","5","4","4","5","4","5","-2","-3","1","2","0","1","2","2","4","5","5","5","4","5","4","4","5","4","8","6","8","7","6","9","7","8","6","6","6","7","5","5","7","6","7","5","6","1","6","7","3","6","6","7","5","6","6","7","2","7","2","5","7","5","6","5","7","7","6","6","5","2","7","5","5","7","5","5","714626757918982144","王"," 689 ","Male","[""好他"",""坏他"",""坏我"",""好我""]","[""强他"",""弱他"",""弱我"",""强我""]","","","","","","","","","","","","","","","","","","","","","","","","","","","","","","feedback_test","","","","","","","","",""
"903","","f","psychophysics","68","427476","0.0-8.0-0.0-1.0-0.0-0.29","6","5","7","6","5","5","4","4","5","4","5","-2","-3","1","2","0","1","2","2","4","5","5","5","4","5","4","4","5","4","8","6","8","7","6","9","7","8","6","6","6","7","5","5","7","6","7","5","6","1","6","7","3","6","6","7","5","6","6","7","2","7","2","5","7","5","6","5","7","7","6","6","5","2","7","5","5","7","5","5","714626757918982144","王"," 689 ","Male","[""好他"",""坏他"",""坏我"",""好我""]","[""强他"",""弱他"",""弱我"",""强我""]","","","","","","","","nonmatch","","","","","","","","","","key","f","16.65328571428576","640","356","f","true","nonmatch","img/hexagon.png","坏他","好我","prac_ALT2_moral","practice_moral","","","","","","","","",""
"null","<span style='color:GreenYellow; font-size: 70px;'>正确! </span>","null","html-keyboard-response","69","427978","0.0-8.0-0.0-1.0-0.0-1.29","6","5","7","6","5","5","4","4","5","4","5","-2","-3","1","2","0","1","2","2","4","5","5","5","4","5","4","4","5","4","8","6","8","7","6","9","7","8","6","6","6","7","5","5","7","6","7","5","6","1","6","7","3","6","6","7","5","6","6","7","2","7","2","5","7","5","6","5","7","7","6","6","5","2","7","5","5","7","5","5","714626757918982144","王"," 689 ","Male","[""好他"",""坏他"",""坏我"",""好我""]","[""强他"",""弱他"",""弱我"",""强我""]","","","","","","","","","","","","","","","","","","","","","","","","","","","","","","feedback_test","","","","","","","","",""
"948","","j","psychophysics","70","429928","0.0-8.0-0.0-1.0-0.0-0.30","6","5","7","6","5","5","4","4","5","4","5","-2","-3","1","2","0","1","2","2","4","5","5","5","4","5","4","4","5","4","8","6","8","7","6","9","7","8","6","6","6","7","5","5","7","6","7","5","6","1","6","7","3","6","6","7","5","6","6","7","2","7","2","5","7","5","6","5","7","7","6","6","5","2","7","5","5","7","5","5","714626757918982144","王"," 689 ","Male","[""好他"",""坏他"",""坏我"",""好我""]","[""强他"",""弱他"",""弱我"",""强我""]","","","","","","","","match","","","","","","","","","","key","j","16.653198275862138","640","356","j","true","match","img/hexagon.png","好我","好我","prac_ALT2_moral","practice_moral","","","","","","","","",""
"null","<span style='color:GreenYellow; font-size: 70px;'>正确! </span>","null","html-keyboard-response","71","430429","0.0-8.0-0.0-1.0-0.0-1.30","6","5","7","6","5","5","4","4","5","4","5","-2","-3","1","2","0","1","2","2","4","5","5","5","4","5","4","4","5","4","8","6","8","7","6","9","7","8","6","6","6","7","5","5","7","6","7","5","6","1","6","7","3","6","6","7","5","6","6","7","2","7","2","5","7","5","6","5","7","7","6","6","5","2","7","5","5","7","5","5","714626757918982144","王"," 689 ","Male","[""好他"",""坏他"",""坏我"",""好我""]","[""强他"",""弱他"",""弱我"",""强我""]","","","","","","","","","","","","","","","","","","","","","","","","","","","","","","feedback_test","","","","","","","","",""
"916","","f","psychophysics","72","432352","0.0-8.0-0.0-1.0-0.0-0.31","6","5","7","6","5","5","4","4","5","4","5","-2","-3","1","2","0","1","2","2","4","5","5","5","4","5","4","4","5","4","8","6","8","7","6","9","7","8","6","6","6","7","5","5","7","6","7","5","6","1","6","7","3","6","6","7","5","6","6","7","2","7","2","5","7","5","6","5","7","7","6","6","5","2","7","5","5","7","5","5","714626757918982144","王"," 689 ","Male","[""好他"",""坏他"",""坏我"",""好我""]","[""强他"",""弱他"",""弱我"",""强我""]","","","","","","","","nonmatch","","","","","","","","","","key","f","16.646973684210568","640","356","f","true","nonmatch","img/hexagon.png","坏我","好我","prac_ALT2_moral","practice_moral","","","","","","","","",""
"null","<span style='color:GreenYellow; font-size: 70px;'>正确! </span>","null","html-keyboard-response","73","432853","0.0-8.0-0.0-1.0-0.0-1.31","6","5","7","6","5","5","4","4","5","4","5","-2","-3","1","2","0","1","2","2","4","5","5","5","4","5","4","4","5","4","8","6","8","7","6","9","7","8","6","6","6","7","5","5","7","6","7","5","6","1","6","7","3","6","6","7","5","6","6","7","2","7","2","5","7","5","6","5","7","7","6","6","5","2","7","5","5","7","5","5","714626757918982144","王"," 689 ","Male","[""好他"",""坏他"",""坏我"",""好我""]","[""强他"",""弱他"",""弱我"",""强我""]","","","","","","","","","","","","","","","","","","","","","","","","","","","","","","feedback_test","","","","","","","","",""
"924","","f","psychophysics","74","434779","0.0-8.0-0.0-1.0-0.0-0.32","6","5","7","6","5","5","4","4","5","4","5","-2","-3","1","2","0","1","2","2","4","5","5","5","4","5","4","4","5","4","8","6","8","7","6","9","7","8","6","6","6","7","5","5","7","6","7","5","6","1","6","7","3","6","6","7","5","6","6","7","2","7","2","5","7","5","6","5","7","7","6","6","5","2","7","5","5","7","5","5","714626757918982144","王"," 689 ","Male","[""好他"",""坏他"",""坏我"",""好我""]","[""强他"",""弱他"",""弱我"",""强我""]","","","","","","","","nonmatch","","","","","","","","","","key","f","16.653433628318485","640","356","f","true","nonmatch","img/triangle.png","好我","坏他","prac_ALT2_moral","practice_moral","","","","","","","","",""
"null","<span style='color:GreenYellow; font-size: 70px;'>正确! </span>","null","html-keyboard-response","75","435285","0.0-8.0-0.0-1.0-0.0-1.32","6","5","7","6","5","5","4","4","5","4","5","-2","-3","1","2","0","1","2","2","4","5","5","5","4","5","4","4","5","4","8","6","8","7","6","9","7","8","6","6","6","7","5","5","7","6","7","5","6","1","6","7","3","6","6","7","5","6","6","7","2","7","2","5","7","5","6","5","7","7","6","6","5","2","7","5","5","7","5","5","714626757918982144","王"," 689 ","Male","[""好他"",""坏他"",""坏我"",""好我""]","[""强他"",""弱他"",""弱我"",""强我""]","","","","","","","","","","","","","","","","","","","","","","","","","","","","","","feedback_test","","","","","","","","",""
"1061","","f","psychophysics","76","437348","0.0-8.0-0.0-1.0-0.0-0.33","6","5","7","6","5","5","4","4","5","4","5","-2","-3","1","2","0","1","2","2","4","5","5","5","4","5","4","4","5","4","8","6","8","7","6","9","7","8","6","6","6","7","5","5","7","6","7","5","6","1","6","7","3","6","6","7","5","6","6","7","2","7","2","5","7","5","6","5","7","7","6","6","5","2","7","5","5","7","5","5","714626757918982144","王"," 689 ","Male","[""好他"",""坏他"",""坏我"",""好我""]","[""强他"",""弱他"",""弱我"",""强我""]","","","","","","","","nonmatch","","","","","","","","","","key","f","16.65323966942162","640","356","f","true","nonmatch","img/ellipse.png","好我","坏我","prac_ALT2_moral","practice_moral","","","","","","","","",""
"null","<span style='color:GreenYellow; font-size: 70px;'>正确! </span>","null","html-keyboard-response","77","437850","0.0-8.0-0.0-1.0-0.0-1.33","6","5","7","6","5","5","4","4","5","4","5","-2","-3","1","2","0","1","2","2","4","5","5","5","4","5","4","4","5","4","8","6","8","7","6","9","7","8","6","6","6","7","5","5","7","6","7","5","6","1","6","7","3","6","6","7","5","6","6","7","2","7","2","5","7","5","6","5","7","7","6","6","5","2","7","5","5","7","5","5","714626757918982144","王"," 689 ","Male","[""好他"",""坏他"",""坏我"",""好我""]","[""强他"",""弱他"",""弱我"",""强我""]","","","","","","","","","","","","","","","","","","","","","","","","","","","","","","feedback_test","","","","","","","","",""
"862","","f","psychophysics","78","439715","0.0-8.0-0.0-1.0-0.0-0.34","6","5","7","6","5","5","4","4","5","4","5","-2","-3","1","2","0","1","2","2","4","5","5","5","4","5","4","4","5","4","8","6","8","7","6","9","7","8","6","6","6","7","5","5","7","6","7","5","6","1","6","7","3","6","6","7","5","6","6","7","2","7","2","5","7","5","6","5","7","7","6","6","5","2","7","5","5","7","5","5","714626757918982144","王"," 689 ","Male","[""好他"",""坏他"",""坏我"",""好我""]","[""强他"",""弱他"",""弱我"",""强我""]","","","","","","","","nonmatch","","","","","","","","","","key","f","16.651702702702504","640","356","f","true","nonmatch","img/diamond.png","坏我","好他","prac_ALT2_moral","practice_moral","","","","","","","","",""
"null","<span style='color:GreenYellow; font-size: 70px;'>正确! </span>","null","html-keyboard-response","79","440216","0.0-8.0-0.0-1.0-0.0-1.34","6","5","7","6","5","5","4","4","5","4","5","-2","-3","1","2","0","1","2","2","4","5","5","5","4","5","4","4","5","4","8","6","8","7","6","9","7","8","6","6","6","7","5","5","7","6","7","5","6","1","6","7","3","6","6","7","5","6","6","7","2","7","2","5","7","5","6","5","7","7","6","6","5","2","7","5","5","7","5","5","714626757918982144","王"," 689 ","Male","[""好他"",""坏他"",""坏我"",""好我""]","[""强他"",""弱他"",""弱我"",""强我""]","","","","","","","","","","","","","","","","","","","","","","","","","","","","","","feedback_test","","","","","","","","",""
"1000","","f","psychophysics","80","442218","0.0-8.0-0.0-1.0-0.0-0.35","6","5","7","6","5","5","4","4","5","4","5","-2","-3","1","2","0","1","2","2","4","5","5","5","4","5","4","4","5","4","8","6","8","7","6","9","7","8","6","6","6","7","5","5","7","6","7","5","6","1","6","7","3","6","6","7","5","6","6","7","2","7","2","5","7","5","6","5","7","7","6","6","5","2","7","5","5","7","5","5","714626757918982144","王"," 689 ","Male","[""好他"",""坏他"",""坏我"",""好我""]","[""强他"",""弱他"",""弱我"",""强我""]","","","","","","","","nonmatch","","","","","","","","","","key","f","16.653423728813987","640","356","j","false","match","img/ellipse.png","坏我","坏我","prac_ALT2_moral","practice_moral","","","","","","","","",""
"null","<span style='color:red; font-size: 70px;'>错误! </span>","null","html-keyboard-response","81","442719","0.0-8.0-0.0-1.0-0.0-1.35","6","5","7","6","5","5","4","4","5","4","5","-2","-3","1","2","0","1","2","2","4","5","5","5","4","5","4","4","5","4","8","6","8","7","6","9","7","8","6","6","6","7","5","5","7","6","7","5","6","1","6","7","3","6","6","7","5","6","6","7","2","7","2","5","7","5","6","5","7","7","6","6","5","2","7","5","5","7","5","5","714626757918982144","王"," 689 ","Male","[""好他"",""坏他"",""坏我"",""好我""]","[""强他"",""弱他"",""弱我"",""强我""]","","","","","","","","","","","","","","","","","","","","","","","","","","","","","","feedback_test","","","","","","","","",""
"952","","f","psychophysics","82","444679","0.0-8.0-0.0-1.0-0.0-0.36","6","5","7","6","5","5","4","4","5","4","5","-2","-3","1","2","0","1","2","2","4","5","5","5","4","5","4","4","5","4","8","6","8","7","6","9","7","8","6","6","6","7","5","5","7","6","7","5","6","1","6","7","3","6","6","7","5","6","6","7","2","7","2","5","7","5","6","5","7","7","6","6","5","2","7","5","5","7","5","5","714626757918982144","王"," 689 ","Male","[""好他"",""坏他"",""坏我"",""好我""]","[""强他"",""弱他"",""弱我"",""强我""]","","","","","","","","nonmatch","","","","","","","","","","key","f","16.65335652173912","640","356","f","true","nonmatch","img/triangle.png","好他","坏他","prac_ALT2_moral","practice_moral","","","","","","","","",""
"null","<span style='color:GreenYellow; font-size: 70px;'>正确! </span>","null","html-keyboard-response","83","445180","0.0-8.0-0.0-1.0-0.0-1.36","6","5","7","6","5","5","4","4","5","4","5","-2","-3","1","2","0","1","2","2","4","5","5","5","4","5","4","4","5","4","8","6","8","7","6","9","7","8","6","6","6","7","5","5","7","6","7","5","6","1","6","7","3","6","6","7","5","6","6","7","2","7","2","5","7","5","6","5","7","7","6","6","5","2","7","5","5","7","5","5","714626757918982144","王"," 689 ","Male","[""好他"",""坏他"",""坏我"",""好我""]","[""强他"",""弱他"",""弱我"",""强我""]","","","","","","","","","","","","","","","","","","","","","","","","","","","","","","feedback_test","","","","","","","","",""
"696","","j","psychophysics","84","446878","0.0-8.0-0.0-1.0-0.0-0.37","6","5","7","6","5","5","4","4","5","4","5","-2","-3","1","2","0","1","2","2","4","5","5","5","4","5","4","4","5","4","8","6","8","7","6","9","7","8","6","6","6","7","5","5","7","6","7","5","6","1","6","7","3","6","6","7","5","6","6","7","2","7","2","5","7","5","6","5","7","7","6","6","5","2","7","5","5","7","5","5","714626757918982144","王"," 689 ","Male","[""好他"",""坏他"",""坏我"",""好我""]","[""强他"",""弱他"",""弱我"",""强我""]","","","","","","","","match","","","","","","","","","","key","j","16.653499999999767","640","356","j","true","match","img/diamond.png","好他","好他","prac_ALT2_moral","practice_moral","","","","","","","","",""
"null","<span style='color:GreenYellow; font-size: 70px;'>正确! </span>","null","html-keyboard-response","85","447379","0.0-8.0-0.0-1.0-0.0-1.37","6","5","7","6","5","5","4","4","5","4","5","-2","-3","1","2","0","1","2","2","4","5","5","5","4","5","4","4","5","4","8","6","8","7","6","9","7","8","6","6","6","7","5","5","7","6","7","5","6","1","6","7","3","6","6","7","5","6","6","7","2","7","2","5","7","5","6","5","7","7","6","6","5","2","7","5","5","7","5","5","714626757918982144","王"," 689 ","Male","[""好他"",""坏他"",""坏我"",""好我""]","[""强他"",""弱他"",""弱我"",""强我""]","","","","","","","","","","","","","","","","","","","","","","","","","","","","","","feedback_test","","","","","","","","",""
"909","","j","psychophysics","86","449291","0.0-8.0-0.0-1.0-0.0-0.38","6","5","7","6","5","5","4","4","5","4","5","-2","-3","1","2","0","1","2","2","4","5","5","5","4","5","4","4","5","4","8","6","8","7","6","9","7","8","6","6","6","7","5","5","7","6","7","5","6","1","6","7","3","6","6","7","5","6","6","7","2","7","2","5","7","5","6","5","7","7","6","6","5","2","7","5","5","7","5","5","714626757918982144","王"," 689 ","Male","[""好他"",""坏他"",""坏我"",""好我""]","[""强他"",""弱他"",""弱我"",""强我""]","","","","","","","","match","","","","","","","","","","key","j","16.653353982300608","640","356","j","true","match","img/hexagon.png","好我","好我","prac_ALT2_moral","practice_moral","","","","","","","","",""
"null","<span style='color:GreenYellow; font-size: 70px;'>正确! </span>","null","html-keyboard-response","87","449792","0.0-8.0-0.0-1.0-0.0-1.38","6","5","7","6","5","5","4","4","5","4","5","-2","-3","1","2","0","1","2","2","4","5","5","5","4","5","4","4","5","4","8","6","8","7","6","9","7","8","6","6","6","7","5","5","7","6","7","5","6","1","6","7","3","6","6","7","5","6","6","7","2","7","2","5","7","5","6","5","7","7","6","6","5","2","7","5","5","7","5","5","714626757918982144","王"," 689 ","Male","[""好他"",""坏他"",""坏我"",""好我""]","[""强他"",""弱他"",""弱我"",""强我""]","","","","","","","","","","","","","","","","","","","","","","","","","","","","","","feedback_test","","","","","","","","",""
"1210","","j","psychophysics","88","452004","0.0-8.0-0.0-1.0-0.0-0.39","6","5","7","6","5","5","4","4","5","4","5","-2","-3","1","2","0","1","2","2","4","5","5","5","4","5","4","4","5","4","8","6","8","7","6","9","7","8","6","6","6","7","5","5","7","6","7","5","6","1","6","7","3","6","6","7","5","6","6","7","2","7","2","5","7","5","6","5","7","7","6","6","5","2","7","5","5","7","5","5","714626757918982144","王"," 689 ","Male","[""好他"",""坏他"",""坏我"",""好我""]","[""强他"",""弱他"",""弱我"",""强我""]","","","","","","","","match","","","","","","","","","","key","j","16.653259541984657","640","356","j","true","match","img/triangle.png","坏他","坏他","prac_ALT2_moral","practice_moral","","","","","","","","",""
"null","<span class='add_' style='color:yellow; font-size: 70px;'> 太慢! </span>","null","html-keyboard-response","89","452505","0.0-8.0-0.0-1.0-0.0-1.39","6","5","7","6","5","5","4","4","5","4","5","-2","-3","1","2","0","1","2","2","4","5","5","5","4","5","4","4","5","4","8","6","8","7","6","9","7","8","6","6","6","7","5","5","7","6","7","5","6","1","6","7","3","6","6","7","5","6","6","7","2","7","2","5","7","5","6","5","7","7","6","6","5","2","7","5","5","7","5","5","714626757918982144","王"," 689 ","Male","[""好他"",""坏他"",""坏我"",""好我""]","[""强他"",""弱他"",""弱我"",""强我""]","","","","","","","","","","","","","","","","","","","","","","","","","","","","","","feedback_test","","","","","","","","",""
"969","","f","psychophysics","90","454485","0.0-8.0-0.0-1.0-0.0-0.40","6","5","7","6","5","5","4","4","5","4","5","-2","-3","1","2","0","1","2","2","4","5","5","5","4","5","4","4","5","4","8","6","8","7","6","9","7","8","6","6","6","7","5","5","7","6","7","5","6","1","6","7","3","6","6","7","5","6","6","7","2","7","2","5","7","5","6","5","7","7","6","6","5","2","7","5","5","7","5","5","714626757918982144","王"," 689 ","Male","[""好他"",""坏他"",""坏我"",""好我""]","[""强他"",""弱他"",""弱我"",""强我""]","","","","","","","","nonmatch","","","","","","","","","","key","f","16.653239316239347","640","356","f","true","nonmatch","img/diamond.png","坏他","好他","prac_ALT2_moral","practice_moral","","","","","","","","",""
"null","<span style='color:GreenYellow; font-size: 70px;'>正确! </span>","null","html-keyboard-response","91","454987","0.0-8.0-0.0-1.0-0.0-1.40","6","5","7","6","5","5","4","4","5","4","5","-2","-3","1","2","0","1","2","2","4","5","5","5","4","5","4","4","5","4","8","6","8","7","6","9","7","8","6","6","6","7","5","5","7","6","7","5","6","1","6","7","3","6","6","7","5","6","6","7","2","7","2","5","7","5","6","5","7","7","6","6","5","2","7","5","5","7","5","5","714626757918982144","王"," 689 ","Male","[""好他"",""坏他"",""坏我"",""好我""]","[""强他"",""弱他"",""弱我"",""强我""]","","","","","","","","","","","","","","","","","","","","","","","","","","","","","","feedback_test","","","","","","","","",""
"1060","","j","psychophysics","92","457050","0.0-8.0-0.0-1.0-0.0-0.41","6","5","7","6","5","5","4","4","5","4","5","-2","-3","1","2","0","1","2","2","4","5","5","5","4","5","4","4","5","4","8","6","8","7","6","9","7","8","6","6","6","7","5","5","7","6","7","5","6","1","6","7","3","6","6","7","5","6","6","7","2","7","2","5","7","5","6","5","7","7","6","6","5","2","7","5","5","7","5","5","714626757918982144","王"," 689 ","Male","[""好他"",""坏他"",""坏我"",""好我""]","[""强他"",""弱他"",""弱我"",""强我""]","","","","","","","","match","","","","","","","","","","key","j","16.653213114753942","640","356","j","true","match","img/hexagon.png","好我","好我","prac_ALT2_moral","practice_moral","","","","","","","","",""
"null","<span style='color:GreenYellow; font-size: 70px;'>正确! </span>","null","html-keyboard-response","93","457551","0.0-8.0-0.0-1.0-0.0-1.41","6","5","7","6","5","5","4","4","5","4","5","-2","-3","1","2","0","1","2","2","4","5","5","5","4","5","4","4","5","4","8","6","8","7","6","9","7","8","6","6","6","7","5","5","7","6","7","5","6","1","6","7","3","6","6","7","5","6","6","7","2","7","2","5","7","5","6","5","7","7","6","6","5","2","7","5","5","7","5","5","714626757918982144","王"," 689 ","Male","[""好他"",""坏他"",""坏我"",""好我""]","[""强他"",""弱他"",""弱我"",""强我""]","","","","","","","","","","","","","","","","","","","","","","","","","","","","","","feedback_test","","","","","","","","",""
"800","","j","psychophysics","94","459365","0.0-8.0-0.0-1.0-0.0-0.42","6","5","7","6","5","5","4","4","5","4","5","-2","-3","1","2","0","1","2","2","4","5","5","5","4","5","4","4","5","4","8","6","8","7","6","9","7","8","6","6","6","7","5","5","7","6","7","5","6","1","6","7","3","6","6","7","5","6","6","7","2","7","2","5","7","5","6","5","7","7","6","6","5","2","7","5","5","7","5","5","714626757918982144","王"," 689 ","Male","[""好他"",""坏他"",""坏我"",""好我""]","[""强他"",""弱他"",""弱我"",""强我""]","","","","","","","","match","","","","","","","","","","key","j","16.653336448598193","640","356","j","true","match","img/ellipse.png","坏我","坏我","prac_ALT2_moral","practice_moral","","","","","","","","",""
"null","<span style='color:GreenYellow; font-size: 70px;'>正确! </span>","null","html-keyboard-response","95","459866","0.0-8.0-0.0-1.0-0.0-1.42","6","5","7","6","5","5","4","4","5","4","5","-2","-3","1","2","0","1","2","2","4","5","5","5","4","5","4","4","5","4","8","6","8","7","6","9","7","8","6","6","6","7","5","5","7","6","7","5","6","1","6","7","3","6","6","7","5","6","6","7","2","7","2","5","7","5","6","5","7","7","6","6","5","2","7","5","5","7","5","5","714626757918982144","王"," 689 ","Male","[""好他"",""坏他"",""坏我"",""好我""]","[""强他"",""弱他"",""弱我"",""强我""]","","","","","","","","","","","","","","","","","","","","","","","","","","","","","","feedback_test","","","","","","","","",""
"779","","j","psychophysics","96","461647","0.0-8.0-0.0-1.0-0.0-0.43","6","5","7","6","5","5","4","4","5","4","5","-2","-3","1","2","0","1","2","2","4","5","5","5","4","5","4","4","5","4","8","6","8","7","6","9","7","8","6","6","6","7","5","5","7","6","7","5","6","1","6","7","3","6","6","7","5","6","6","7","2","7","2","5","7","5","6","5","7","7","6","6","5","2","7","5","5","7","5","5","714626757918982144","王"," 689 ","Male","[""好他"",""坏他"",""坏我"",""好我""]","[""强他"",""弱他"",""弱我"",""强我""]","","","","","","","","match","","","","","","","","","","key","j","16.65335849056598","640","356","j","true","match","img/triangle.png","坏他","坏他","prac_ALT2_moral","practice_moral","","","","","","","","",""
"null","<span style='color:GreenYellow; font-size: 70px;'>正确! </span>","null","html-keyboard-response","97","462149","0.0-8.0-0.0-1.0-0.0-1.43","6","5","7","6","5","5","4","4","5","4","5","-2","-3","1","2","0","1","2","2","4","5","5","5","4","5","4","4","5","4","8","6","8","7","6","9","7","8","6","6","6","7","5","5","7","6","7","5","6","1","6","7","3","6","6","7","5","6","6","7","2","7","2","5","7","5","6","5","7","7","6","6","5","2","7","5","5","7","5","5","714626757918982144","王"," 689 ","Male","[""好他"",""坏他"",""坏我"",""好我""]","[""强他"",""弱他"",""弱我"",""强我""]","","","","","","","","","","","","","","","","","","","","","","","","","","","","","","feedback_test","","","","","","","","",""
"942","","f","psychophysics","98","464092","0.0-8.0-0.0-1.0-0.0-0.44","6","5","7","6","5","5","4","4","5","4","5","-2","-3","1","2","0","1","2","2","4","5","5","5","4","5","4","4","5","4","8","6","8","7","6","9","7","8","6","6","6","7","5","5","7","6","7","5","6","1","6","7","3","6","6","7","5","6","6","7","2","7","2","5","7","5","6","5","7","7","6","6","5","2","7","5","5","7","5","5","714626757918982144","王"," 689 ","Male","[""好他"",""坏他"",""坏我"",""好我""]","[""强他"",""弱他"",""弱我"",""强我""]","","","","","","","","nonmatch","","","","","","","","","","key","f","16.655382608695703","640","356","f","true","nonmatch","img/diamond.png","好我","好他","prac_ALT2_moral","practice_moral","","","","","","","","",""
"null","<span style='color:GreenYellow; font-size: 70px;'>正确! </span>","null","html-keyboard-response","99","464593","0.0-8.0-0.0-1.0-0.0-1.44","6","5","7","6","5","5","4","4","5","4","5","-2","-3","1","2","0","1","2","2","4","5","5","5","4","5","4","4","5","4","8","6","8","7","6","9","7","8","6","6","6","7","5","5","7","6","7","5","6","1","6","7","3","6","6","7","5","6","6","7","2","7","2","5","7","5","6","5","7","7","6","6","5","2","7","5","5","7","5","5","714626757918982144","王"," 689 ","Male","[""好他"",""坏他"",""坏我"",""好我""]","[""强他"",""弱他"",""弱我"",""强我""]","","","","","","","","","","","","","","","","","","","","","","","","","","","","","","feedback_test","","","","","","","","",""
"1116","","j","psychophysics","100","466723","0.0-8.0-0.0-1.0-0.0-0.45","6","5","7","6","5","5","4","4","5","4","5","-2","-3","1","2","0","1","2","2","4","5","5","5","4","5","4","4","5","4","8","6","8","7","6","9","7","8","6","6","6","7","5","5","7","6","7","5","6","1","6","7","3","6","6","7","5","6","6","7","2","7","2","5","7","5","6","5","7","7","6","6","5","2","7","5","5","7","5","5","714626757918982144","王"," 689 ","Male","[""好他"",""坏他"",""坏我"",""好我""]","[""强他"",""弱他"",""弱我"",""强我""]","","","","","","","","match","","","","","","","","","","key","j","16.653452380952086","640","356","f","false","nonmatch","img/hexagon.png","好他","好我","prac_ALT2_moral","practice_moral","","","","","","","","",""
"null","<span style='color:red; font-size: 70px;'>错误! </span>","null","html-keyboard-response","101","467225","0.0-8.0-0.0-1.0-0.0-1.45","6","5","7","6","5","5","4","4","5","4","5","-2","-3","1","2","0","1","2","2","4","5","5","5","4","5","4","4","5","4","8","6","8","7","6","9","7","8","6","6","6","7","5","5","7","6","7","5","6","1","6","7","3","6","6","7","5","6","6","7","2","7","2","5","7","5","6","5","7","7","6","6","5","2","7","5","5","7","5","5","714626757918982144","王"," 689 ","Male","[""好他"",""坏他"",""坏我"",""好我""]","[""强他"",""弱他"",""弱我"",""强我""]","","","","","","","","","","","","","","","","","","","","","","","","","","","","","","feedback_test","","","","","","","","",""
"943","","f","psychophysics","102","469171","0.0-8.0-0.0-1.0-0.0-0.46","6","5","7","6","5","5","4","4","5","4","5","-2","-3","1","2","0","1","2","2","4","5","5","5","4","5","4","4","5","4","8","6","8","7","6","9","7","8","6","6","6","7","5","5","7","6","7","5","6","1","6","7","3","6","6","7","5","6","6","7","2","7","2","5","7","5","6","5","7","7","6","6","5","2","7","5","5","7","5","5","714626757918982144","王"," 689 ","Male","[""好他"",""坏他"",""坏我"",""好我""]","[""强他"",""弱他"",""弱我"",""强我""]","","","","","","","","nonmatch","","","","","","","","","","key","f","16.653286956521967","640","356","f","true","nonmatch","img/ellipse.png","坏他","坏我","prac_ALT2_moral","practice_moral","","","","","","","","",""
"null","<span style='color:GreenYellow; font-size: 70px;'>正确! </span>","null","html-keyboard-response","103","469673","0.0-8.0-0.0-1.0-0.0-1.46","6","5","7","6","5","5","4","4","5","4","5","-2","-3","1","2","0","1","2","2","4","5","5","5","4","5","4","4","5","4","8","6","8","7","6","9","7","8","6","6","6","7","5","5","7","6","7","5","6","1","6","7","3","6","6","7","5","6","6","7","2","7","2","5","7","5","6","5","7","7","6","6","5","2","7","5","5","7","5","5","714626757918982144","王"," 689 ","Male","[""好他"",""坏他"",""坏我"",""好我""]","[""强他"",""弱他"",""弱我"",""强我""]","","","","","","","","","","","","","","","","","","","","","","","","","","","","","","feedback_test","","","","","","","","",""
"759","","j","psychophysics","104","471435","0.0-8.0-0.0-1.0-0.0-0.47","6","5","7","6","5","5","4","4","5","4","5","-2","-3","1","2","0","1","2","2","4","5","5","5","4","5","4","4","5","4","8","6","8","7","6","9","7","8","6","6","6","7","5","5","7","6","7","5","6","1","6","7","3","6","6","7","5","6","6","7","2","7","2","5","7","5","6","5","7","7","6","6","5","2","7","5","5","7","5","5","714626757918982144","王"," 689 ","Male","[""好他"",""坏他"",""坏我"",""好我""]","[""强他"",""弱他"",""弱我"",""强我""]","","","","","","","","match","","","","","","","","","","key","j","16.81119230769232","640","356","f","false","nonmatch","img/triangle.png","坏我","坏他","prac_ALT2_moral","practice_moral","","","","","","","","",""
"null","<span style='color:red; font-size: 70px;'>错误! </span>","null","html-keyboard-response","105","471938","0.0-8.0-0.0-1.0-0.0-1.47","6","5","7","6","5","5","4","4","5","4","5","-2","-3","1","2","0","1","2","2","4","5","5","5","4","5","4","4","5","4","8","6","8","7","6","9","7","8","6","6","6","7","5","5","7","6","7","5","6","1","6","7","3","6","6","7","5","6","6","7","2","7","2","5","7","5","6","5","7","7","6","6","5","2","7","5","5","7","5","5","714626757918982144","王"," 689 ","Male","[""好他"",""坏他"",""坏我"",""好我""]","[""强他"",""弱他"",""弱我"",""强我""]","","","","","","","","","","","","","","","","","","","","","","","","","","","","","","feedback_test","","","","","","","","",""
"906","<style>.context{color:white; font-size: 35px; line-height:40px}</style>                            <div><p class='context'>您正确回答了73% 的试次。</p><p class='context'>您的平均反应时为932毫秒。</p><p class='context'>恭喜您完成练习。按空格键进入正式实验。</p><p class='footer' style='font-size: 35px; line-height:40px;'>请在进入正式实验实验之前将您的<span style='color: lightgreen;'>食指</span>放在电脑键盘的相应键位上进行按键。</p>"," ","html-keyboard-response","106","472847","0.0-8.0-0.0-2.0","6","5","7","6","5","5","4","4","5","4","5","-2","-3","1","2","0","1","2","2","4","5","5","5","4","5","4","4","5","4","8","6","8","7","6","9","7","8","6","6","6","7","5","5","7","6","7","5","6","1","6","7","3","6","6","7","5","6","6","7","2","7","2","5","7","5","6","5","7","7","6","6","5","2","7","5","5","7","5","5","714626757918982144","王"," 689 ","Male","[""好他"",""坏他"",""坏我"",""好我""]","[""强他"",""弱他"",""弱我"",""强我""]","","","","","","","","","","","","","","","","","","","","","","","","","","","","","","","","","","","","","","",""
"1279","
    <p style='color: white; font-size: 22px'>请您将手指放在按键上，准备进入正式的匹配任务。</p>
    <p> <div style = ""color: green""><按空格键进入下一阶段的匹配任务></div></p>
    "," ","html-keyboard-response","107","474129","0.0-8.0-0.0-3.0","6","5","7","6","5","5","4","4","5","4","5","-2","-3","1","2","0","1","2","2","4","5","5","5","4","5","4","4","5","4","8","6","8","7","6","9","7","8","6","6","6","7","5","5","7","6","7","5","6","1","6","7","3","6","6","7","5","6","6","7","2","7","2","5","7","5","6","5","7","7","6","6","5","2","7","5","5","7","5","5","714626757918982144","王"," 689 ","Male","[""好他"",""坏他"",""坏我"",""好我""]","[""强他"",""弱他"",""弱我"",""强我""]","","","","","","","","","","","","","","","","","","","","","","","","","","","","","","","","","","","","","","",""
"833","","j","psychophysics","108","475965","0.0-8.0-0.0-4.0-0.0-0.0","6","5","7","6","5","5","4","4","5","4","5","-2","-3","1","2","0","1","2","2","4","5","5","5","4","5","4","4","5","4","8","6","8","7","6","9","7","8","6","6","6","7","5","5","7","6","7","5","6","1","6","7","3","6","6","7","5","6","6","7","2","7","2","5","7","5","6","5","7","7","6","6","5","2","7","5","5","7","5","5","714626757918982144","王"," 689 ","Male","[""好他"",""坏他"",""坏我"",""好我""]","[""强他"",""弱他"",""弱我"",""强我""]","","","","","","","","match","","","","","","","","","","key","j","16.65215596330241","640","356","j","true","match","img/triangle.png","坏他","坏他","ALT2","moral","","","","","","","","",""
"null","<span style='color:GreenYellow; font-size: 70px;'>正确! </span>","null","html-keyboard-response","109","476467","0.0-8.0-0.0-4.0-0.0-1.0","6","5","7","6","5","5","4","4","5","4","5","-2","-3","1","2","0","1","2","2","4","5","5","5","4","5","4","4","5","4","8","6","8","7","6","9","7","8","6","6","6","7","5","5","7","6","7","5","6","1","6","7","3","6","6","7","5","6","6","7","2","7","2","5","7","5","6","5","7","7","6","6","5","2","7","5","5","7","5","5","714626757918982144","王"," 689 ","Male","[""好他"",""坏他"",""坏我"",""好我""]","[""强他"",""弱他"",""弱我"",""强我""]","","","","","","","","","","","","","","","","","","","","","","","","","","","","","","feedback_test","","","","","","","","",""
"873","","f","psychophysics","110","478343","0.0-8.0-0.0-4.0-0.0-0.1","6","5","7","6","5","5","4","4","5","4","5","-2","-3","1","2","0","1","2","2","4","5","5","5","4","5","4","4","5","4","8","6","8","7","6","9","7","8","6","6","6","7","5","5","7","6","7","5","6","1","6","7","3","6","6","7","5","6","6","7","2","7","2","5","7","5","6","5","7","7","6","6","5","2","7","5","5","7","5","5","714626757918982144","王"," 689 ","Male","[""好他"",""坏他"",""坏我"",""好我""]","[""强他"",""弱他"",""弱我"",""强我""]","","","","","","","","nonmatch","","","","","","","","","","key","f","16.653454545454057","640","356","f","true","nonmatch","img/diamond.png","好我","好他","ALT2","moral","","","","","","","","",""
"null","<span style='color:GreenYellow; font-size: 70px;'>正确! </span>","null","html-keyboard-response","111","478848","0.0-8.0-0.0-4.0-0.0-1.1","6","5","7","6","5","5","4","4","5","4","5","-2","-3","1","2","0","1","2","2","4","5","5","5","4","5","4","4","5","4","8","6","8","7","6","9","7","8","6","6","6","7","5","5","7","6","7","5","6","1","6","7","3","6","6","7","5","6","6","7","2","7","2","5","7","5","6","5","7","7","6","6","5","2","7","5","5","7","5","5","714626757918982144","王"," 689 ","Male","[""好他"",""坏他"",""坏我"",""好我""]","[""强他"",""弱他"",""弱我"",""强我""]","","","","","","","","","","","","","","","","","","","","","","","","","","","","","","feedback_test","","","","","","","","",""
"934","","j","psychophysics","112","480784","0.0-8.0-0.0-4.0-0.0-0.2","6","5","7","6","5","5","4","4","5","4","5","-2","-3","1","2","0","1","2","2","4","5","5","5","4","5","4","4","5","4","8","6","8","7","6","9","7","8","6","6","6","7","5","5","7","6","7","5","6","1","6","7","3","6","6","7","5","6","6","7","2","7","2","5","7","5","6","5","7","7","6","6","5","2","7","5","5","7","5","5","714626757918982144","王"," 689 ","Male","[""好他"",""坏他"",""坏我"",""好我""]","[""强他"",""弱他"",""弱我"",""强我""]","","","","","","","","match","","","","","","","","","","key","j","16.65347826086977","640","356","j","true","match","img/hexagon.png","好我","好我","ALT2","moral","","","","","","","","",""
"null","<span style='color:GreenYellow; font-size: 70px;'>正确! </span>","null","html-keyboard-response","113","481285","0.0-8.0-0.0-4.0-0.0-1.2","6","5","7","6","5","5","4","4","5","4","5","-2","-3","1","2","0","1","2","2","4","5","5","5","4","5","4","4","5","4","8","6","8","7","6","9","7","8","6","6","6","7","5","5","7","6","7","5","6","1","6","7","3","6","6","7","5","6","6","7","2","7","2","5","7","5","6","5","7","7","6","6","5","2","7","5","5","7","5","5","714626757918982144","王"," 689 ","Male","[""好他"",""坏他"",""坏我"",""好我""]","[""强他"",""弱他"",""弱我"",""强我""]","","","","","","","","","","","","","","","","","","","","","","","","","","","","","","feedback_test","","","","","","","","",""
"866","","f","psychophysics","114","483156","0.0-8.0-0.0-4.0-0.0-0.3","6","5","7","6","5","5","4","4","5","4","5","-2","-3","1","2","0","1","2","2","4","5","5","5","4","5","4","4","5","4","8","6","8","7","6","9","7","8","6","6","6","7","5","5","7","6","7","5","6","1","6","7","3","6","6","7","5","6","6","7","2","7","2","5","7","5","6","5","7","7","6","6","5","2","7","5","5","7","5","5","714626757918982144","王"," 689 ","Male","[""好他"",""坏他"",""坏我"",""好我""]","[""强他"",""弱他"",""弱我"",""强我""]","","","","","","","","nonmatch","","","","","","","","","","key","f","16.653600000000072","640","356","f","true","nonmatch","img/hexagon.png","坏我","好我","ALT2","moral","","","","","","","","",""
"null","<span style='color:GreenYellow; font-size: 70px;'>正确! </span>","null","html-keyboard-response","115","483660","0.0-8.0-0.0-4.0-0.0-1.3","6","5","7","6","5","5","4","4","5","4","5","-2","-3","1","2","0","1","2","2","4","5","5","5","4","5","4","4","5","4","8","6","8","7","6","9","7","8","6","6","6","7","5","5","7","6","7","5","6","1","6","7","3","6","6","7","5","6","6","7","2","7","2","5","7","5","6","5","7","7","6","6","5","2","7","5","5","7","5","5","714626757918982144","王"," 689 ","Male","[""好他"",""坏他"",""坏我"",""好我""]","[""强他"",""弱他"",""弱我"",""强我""]","","","","","","","","","","","","","","","","","","","","","","","","","","","","","","feedback_test","","","","","","","","",""
"771","","j","psychophysics","116","485432","0.0-8.0-0.0-4.0-0.0-0.4","6","5","7","6","5","5","4","4","5","4","5","-2","-3","1","2","0","1","2","2","4","5","5","5","4","5","4","4","5","4","8","6","8","7","6","9","7","8","6","6","6","7","5","5","7","6","7","5","6","1","6","7","3","6","6","7","5","6","6","7","2","7","2","5","7","5","6","5","7","7","6","6","5","2","7","5","5","7","5","5","714626757918982144","王"," 689 ","Male","[""好他"",""坏他"",""坏我"",""好我""]","[""强他"",""弱他"",""弱我"",""强我""]","","","","","","","","match","","","","","","","","","","key","j","16.653451923076666","640","356","f","false","nonmatch","img/ellipse.png","坏他","坏我","ALT2","moral","","","","","","","","",""
"null","<span style='color:red; font-size: 70px;'>错误! </span>","null","html-keyboard-response","117","485947","0.0-8.0-0.0-4.0-0.0-1.4","6","5","7","6","5","5","4","4","5","4","5","-2","-3","1","2","0","1","2","2","4","5","5","5","4","5","4","4","5","4","8","6","8","7","6","9","7","8","6","6","6","7","5","5","7","6","7","5","6","1","6","7","3","6","6","7","5","6","6","7","2","7","2","5","7","5","6","5","7","7","6","6","5","2","7","5","5","7","5","5","714626757918982144","王"," 689 ","Male","[""好他"",""坏他"",""坏我"",""好我""]","[""强他"",""弱他"",""弱我"",""强我""]","","","","","","","","","","","","","","","","","","","","","","","","","","","","","","feedback_test","","","","","","","","",""
"823","","f","psychophysics","118","487771","0.0-8.0-0.0-4.0-0.0-0.5","6","5","7","6","5","5","4","4","5","4","5","-2","-3","1","2","0","1","2","2","4","5","5","5","4","5","4","4","5","4","8","6","8","7","6","9","7","8","6","6","6","7","5","5","7","6","7","5","6","1","6","7","3","6","6","7","5","6","6","7","2","7","2","5","7","5","6","5","7","7","6","6","5","2","7","5","5","7","5","5","714626757918982144","王"," 689 ","Male","[""好他"",""坏他"",""坏我"",""好我""]","[""强他"",""弱他"",""弱我"",""强我""]","","","","","","","","nonmatch","","","","","","","","","","key","f","16.65342592592599","640","356","f","true","nonmatch","img/triangle.png","好我","坏他","ALT2","moral","","","","","","","","",""
"null","<span style='color:GreenYellow; font-size: 70px;'>正确! </span>","null","html-keyboard-response","119","488274","0.0-8.0-0.0-4.0-0.0-1.5","6","5","7","6","5","5","4","4","5","4","5","-2","-3","1","2","0","1","2","2","4","5","5","5","4","5","4","4","5","4","8","6","8","7","6","9","7","8","6","6","6","7","5","5","7","6","7","5","6","1","6","7","3","6","6","7","5","6","6","7","2","7","2","5","7","5","6","5","7","7","6","6","5","2","7","5","5","7","5","5","714626757918982144","王"," 689 ","Male","[""好他"",""坏他"",""坏我"",""好我""]","[""强他"",""弱他"",""弱我"",""强我""]","","","","","","","","","","","","","","","","","","","","","","","","","","","","","","feedback_test","","","","","","","","",""
"944","","j","psychophysics","120","490221","0.0-8.0-0.0-4.0-0.0-0.6","6","5","7","6","5","5","4","4","5","4","5","-2","-3","1","2","0","1","2","2","4","5","5","5","4","5","4","4","5","4","8","6","8","7","6","9","7","8","6","6","6","7","5","5","7","6","7","5","6","1","6","7","3","6","6","7","5","6","6","7","2","7","2","5","7","5","6","5","7","7","6","6","5","2","7","5","5","7","5","5","714626757918982144","王"," 689 ","Male","[""好他"",""坏他"",""坏我"",""好我""]","[""强他"",""弱他"",""弱我"",""强我""]","","","","","","","","match","","","","","","","","","","key","j","16.65343478260835","640","356","j","true","match","img/diamond.png","好他","好他","ALT2","moral","","","","","","","","",""
"null","<span style='color:GreenYellow; font-size: 70px;'>正确! </span>","null","html-keyboard-response","121","490724","0.0-8.0-0.0-4.0-0.0-1.6","6","5","7","6","5","5","4","4","5","4","5","-2","-3","1","2","0","1","2","2","4","5","5","5","4","5","4","4","5","4","8","6","8","7","6","9","7","8","6","6","6","7","5","5","7","6","7","5","6","1","6","7","3","6","6","7","5","6","6","7","2","7","2","5","7","5","6","5","7","7","6","6","5","2","7","5","5","7","5","5","714626757918982144","王"," 689 ","Male","[""好他"",""坏他"",""坏我"",""好我""]","[""强他"",""弱他"",""弱我"",""强我""]","","","","","","","","","","","","","","","","","","","","","","","","","","","","","","feedback_test","","","","","","","","",""
"997","","j","psychophysics","122","492723","0.0-8.0-0.0-4.0-0.0-0.7","6","5","7","6","5","5","4","4","5","4","5","-2","-3","1","2","0","1","2","2","4","5","5","5","4","5","4","4","5","4","8","6","8","7","6","9","7","8","6","6","6","7","5","5","7","6","7","5","6","1","6","7","3","6","6","7","5","6","6","7","2","7","2","5","7","5","6","5","7","7","6","6","5","2","7","5","5","7","5","5","714626757918982144","王"," 689 ","Male","[""好他"",""坏他"",""坏我"",""好我""]","[""强他"",""弱他"",""弱我"",""强我""]","","","","","","","","match","","","","","","","","","","key","j","16.65346610169489","640","356","j","true","match","img/hexagon.png","好我","好我","ALT2","moral","","","","","","","","",""
"null","<span style='color:GreenYellow; font-size: 70px;'>正确! </span>","null","html-keyboard-response","123","493224","0.0-8.0-0.0-4.0-0.0-1.7","6","5","7","6","5","5","4","4","5","4","5","-2","-3","1","2","0","1","2","2","4","5","5","5","4","5","4","4","5","4","8","6","8","7","6","9","7","8","6","6","6","7","5","5","7","6","7","5","6","1","6","7","3","6","6","7","5","6","6","7","2","7","2","5","7","5","6","5","7","7","6","6","5","2","7","5","5","7","5","5","714626757918982144","王"," 689 ","Male","[""好他"",""坏他"",""坏我"",""好我""]","[""强他"",""弱他"",""弱我"",""强我""]","","","","","","","","","","","","","","","","","","","","","","","","","","","","","","feedback_test","","","","","","","","",""
"774","","f","psychophysics","124","494999","0.0-8.0-0.0-4.0-0.0-0.8","6","5","7","6","5","5","4","4","5","4","5","-2","-3","1","2","0","1","2","2","4","5","5","5","4","5","4","4","5","4","8","6","8","7","6","9","7","8","6","6","6","7","5","5","7","6","7","5","6","1","6","7","3","6","6","7","5","6","6","7","2","7","2","5","7","5","6","5","7","7","6","6","5","2","7","5","5","7","5","5","714626757918982144","王"," 689 ","Male","[""好他"",""坏他"",""坏我"",""好我""]","[""强他"",""弱他"",""弱我"",""强我""]","","","","","","","","nonmatch","","","","","","","","","","key","f","16.654913461538225","640","356","f","true","nonmatch","img/triangle.png","好他","坏他","ALT2","moral","","","","","","","","",""
"null","<span style='color:GreenYellow; font-size: 70px;'>正确! </span>","null","html-keyboard-response","125","495501","0.0-8.0-0.0-4.0-0.0-1.8","6","5","7","6","5","5","4","4","5","4","5","-2","-3","1","2","0","1","2","2","4","5","5","5","4","5","4","4","5","4","8","6","8","7","6","9","7","8","6","6","6","7","5","5","7","6","7","5","6","1","6","7","3","6","6","7","5","6","6","7","2","7","2","5","7","5","6","5","7","7","6","6","5","2","7","5","5","7","5","5","714626757918982144","王"," 689 ","Male","[""好他"",""坏他"",""坏我"",""好我""]","[""强他"",""弱他"",""弱我"",""强我""]","","","","","","","","","","","","","","","","","","","","","","","","","","","","","","feedback_test","","","","","","","","",""
"735","","j","psychophysics","126","497239","0.0-8.0-0.0-4.0-0.0-0.9","6","5","7","6","5","5","4","4","5","4","5","-2","-3","1","2","0","1","2","2","4","5","5","5","4","5","4","4","5","4","8","6","8","7","6","9","7","8","6","6","6","7","5","5","7","6","7","5","6","1","6","7","3","6","6","7","5","6","6","7","2","7","2","5","7","5","6","5","7","7","6","6","5","2","7","5","5","7","5","5","714626757918982144","王"," 689 ","Male","[""好他"",""坏他"",""坏我"",""好我""]","[""强他"",""弱他"",""弱我"",""强我""]","","","","","","","","match","","","","","","","","","","key","j","16.65331067961191","640","356","f","false","nonmatch","img/triangle.png","坏我","坏他","ALT2","moral","","","","","","","","",""
"null","<span style='color:red; font-size: 70px;'>错误! </span>","null","html-keyboard-response","127","497740","0.0-8.0-0.0-4.0-0.0-1.9","6","5","7","6","5","5","4","4","5","4","5","-2","-3","1","2","0","1","2","2","4","5","5","5","4","5","4","4","5","4","8","6","8","7","6","9","7","8","6","6","6","7","5","5","7","6","7","5","6","1","6","7","3","6","6","7","5","6","6","7","2","7","2","5","7","5","6","5","7","7","6","6","5","2","7","5","5","7","5","5","714626757918982144","王"," 689 ","Male","[""好他"",""坏他"",""坏我"",""好我""]","[""强他"",""弱他"",""弱我"",""强我""]","","","","","","","","","","","","","","","","","","","","","","","","","","","","","","feedback_test","","","","","","","","",""
"961","","f","psychophysics","128","499706","0.0-8.0-0.0-4.0-0.0-0.10","6","5","7","6","5","5","4","4","5","4","5","-2","-3","1","2","0","1","2","2","4","5","5","5","4","5","4","4","5","4","8","6","8","7","6","9","7","8","6","6","6","7","5","5","7","6","7","5","6","1","6","7","3","6","6","7","5","6","6","7","2","7","2","5","7","5","6","5","7","7","6","6","5","2","7","5","5","7","5","5","714626757918982144","王"," 689 ","Male","[""好他"",""坏他"",""坏我"",""好我""]","[""强他"",""弱他"",""弱我"",""强我""]","","","","","","","","nonmatch","","","","","","","","","","key","f","16.653556521739002","640","356","f","true","nonmatch","img/diamond.png","坏他","好他","ALT2","moral","","","","","","","","",""
"null","<span style='color:GreenYellow; font-size: 70px;'>正确! </span>","null","html-keyboard-response","129","500208","0.0-8.0-0.0-4.0-0.0-1.10","6","5","7","6","5","5","4","4","5","4","5","-2","-3","1","2","0","1","2","2","4","5","5","5","4","5","4","4","5","4","8","6","8","7","6","9","7","8","6","6","6","7","5","5","7","6","7","5","6","1","6","7","3","6","6","7","5","6","6","7","2","7","2","5","7","5","6","5","7","7","6","6","5","2","7","5","5","7","5","5","714626757918982144","王"," 689 ","Male","[""好他"",""坏他"",""坏我"",""好我""]","[""强他"",""弱他"",""弱我"",""强我""]","","","","","","","","","","","","","","","","","","","","","","","","","","","","","","feedback_test","","","","","","","","",""
"932","","j","psychophysics","130","502143","0.0-8.0-0.0-4.0-0.0-0.11","6","5","7","6","5","5","4","4","5","4","5","-2","-3","1","2","0","1","2","2","4","5","5","5","4","5","4","4","5","4","8","6","8","7","6","9","7","8","6","6","6","7","5","5","7","6","7","5","6","1","6","7","3","6","6","7","5","6","6","7","2","7","2","5","7","5","6","5","7","7","6","6","5","2","7","5","5","7","5","5","714626757918982144","王"," 689 ","Male","[""好他"",""坏他"",""坏我"",""好我""]","[""强他"",""弱他"",""弱我"",""强我""]","","","","","","","","match","","","","","","","","","","key","j","16.653184210526216","640","356","j","true","match","img/ellipse.png","坏我","坏我","ALT2","moral","","","","","","","","",""
"null","<span style='color:GreenYellow; font-size: 70px;'>正确! </span>","null","html-keyboard-response","131","502644","0.0-8.0-0.0-4.0-0.0-1.11","6","5","7","6","5","5","4","4","5","4","5","-2","-3","1","2","0","1","2","2","4","5","5","5","4","5","4","4","5","4","8","6","8","7","6","9","7","8","6","6","6","7","5","5","7","6","7","5","6","1","6","7","3","6","6","7","5","6","6","7","2","7","2","5","7","5","6","5","7","7","6","6","5","2","7","5","5","7","5","5","714626757918982144","王"," 689 ","Male","[""好他"",""坏他"",""坏我"",""好我""]","[""强他"",""弱他"",""弱我"",""强我""]","","","","","","","","","","","","","","","","","","","","","","","","","","","","","","feedback_test","","","","","","","","",""
"832","","f","psychophysics","132","504491","0.0-8.0-0.0-4.0-0.0-0.12","6","5","7","6","5","5","4","4","5","4","5","-2","-3","1","2","0","1","2","2","4","5","5","5","4","5","4","4","5","4","8","6","8","7","6","9","7","8","6","6","6","7","5","5","7","6","7","5","6","1","6","7","3","6","6","7","5","6","6","7","2","7","2","5","7","5","6","5","7","7","6","6","5","2","7","5","5","7","5","5","714626757918982144","王"," 689 ","Male","[""好他"",""坏他"",""坏我"",""好我""]","[""强他"",""弱他"",""弱我"",""强我""]","","","","","","","","nonmatch","","","","","","","","","","key","f","16.653330275229255","640","356","f","true","nonmatch","img/diamond.png","坏我","好他","ALT2","moral","","","","","","","","",""
"null","<span style='color:GreenYellow; font-size: 70px;'>正确! </span>","null","html-keyboard-response","133","504992","0.0-8.0-0.0-4.0-0.0-1.12","6","5","7","6","5","5","4","4","5","4","5","-2","-3","1","2","0","1","2","2","4","5","5","5","4","5","4","4","5","4","8","6","8","7","6","9","7","8","6","6","6","7","5","5","7","6","7","5","6","1","6","7","3","6","6","7","5","6","6","7","2","7","2","5","7","5","6","5","7","7","6","6","5","2","7","5","5","7","5","5","714626757918982144","王"," 689 ","Male","[""好他"",""坏他"",""坏我"",""好我""]","[""强他"",""弱他"",""弱我"",""强我""]","","","","","","","","","","","","","","","","","","","","","","","","","","","","","","feedback_test","","","","","","","","",""
"896","","f","psychophysics","134","506889","0.0-8.0-0.0-4.0-0.0-0.13","6","5","7","6","5","5","4","4","5","4","5","-2","-3","1","2","0","1","2","2","4","5","5","5","4","5","4","4","5","4","8","6","8","7","6","9","7","8","6","6","6","7","5","5","7","6","7","5","6","1","6","7","3","6","6","7","5","6","6","7","2","7","2","5","7","5","6","5","7","7","6","6","5","2","7","5","5","7","5","5","714626757918982144","王"," 689 ","Male","[""好他"",""坏他"",""坏我"",""好我""]","[""强他"",""弱他"",""弱我"",""强我""]","","","","","","","","nonmatch","","","","","","","","","","key","f","16.653330357142426","640","356","f","true","nonmatch","img/hexagon.png","坏他","好我","ALT2","moral","","","","","","","","",""
"null","<span style='color:GreenYellow; font-size: 70px;'>正确! </span>","null","html-keyboard-response","135","507392","0.0-8.0-0.0-4.0-0.0-1.13","6","5","7","6","5","5","4","4","5","4","5","-2","-3","1","2","0","1","2","2","4","5","5","5","4","5","4","4","5","4","8","6","8","7","6","9","7","8","6","6","6","7","5","5","7","6","7","5","6","1","6","7","3","6","6","7","5","6","6","7","2","7","2","5","7","5","6","5","7","7","6","6","5","2","7","5","5","7","5","5","714626757918982144","王"," 689 ","Male","[""好他"",""坏他"",""坏我"",""好我""]","[""强他"",""弱他"",""弱我"",""强我""]","","","","","","","","","","","","","","","","","","","","","","","","","","","","","","feedback_test","","","","","","","","",""
"978","","f","psychophysics","136","509371","0.0-8.0-0.0-4.0-0.0-0.14","6","5","7","6","5","5","4","4","5","4","5","-2","-3","1","2","0","1","2","2","4","5","5","5","4","5","4","4","5","4","8","6","8","7","6","9","7","8","6","6","6","7","5","5","7","6","7","5","6","1","6","7","3","6","6","7","5","6","6","7","2","7","2","5","7","5","6","5","7","7","6","6","5","2","7","5","5","7","5","5","714626757918982144","王"," 689 ","Male","[""好他"",""坏他"",""坏我"",""好我""]","[""强他"",""弱他"",""弱我"",""强我""]","","","","","","","","nonmatch","","","","","","","","","","key","f","16.653324786324898","640","356","j","false","match","img/triangle.png","坏他","坏他","ALT2","moral","","","","","","","","",""
"null","<span style='color:red; font-size: 70px;'>错误! </span>","null","html-keyboard-response","137","509872","0.0-8.0-0.0-4.0-0.0-1.14","6","5","7","6","5","5","4","4","5","4","5","-2","-3","1","2","0","1","2","2","4","5","5","5","4","5","4","4","5","4","8","6","8","7","6","9","7","8","6","6","6","7","5","5","7","6","7","5","6","1","6","7","3","6","6","7","5","6","6","7","2","7","2","5","7","5","6","5","7","7","6","6","5","2","7","5","5","7","5","5","714626757918982144","王"," 689 ","Male","[""好他"",""坏他"",""坏我"",""好我""]","[""强他"",""弱他"",""弱我"",""强我""]","","","","","","","","","","","","","","","","","","","","","","","","","","","","","","feedback_test","","","","","","","","",""
