"rt","stimulus","response","trial_type","trial_index","time_elapsed","internal_node_id","swb_1","swb_2","swb_3","swb_4","swb_5","LOT_1","LOT_2","LOT_3","LOT_4","LOT_5","LOT_6","IPC_1","IPC_2","IPC_3","IPC_4","IPC_5","IPC_6","IPC_7","IPC_8","MorIden_1","MorIden_2","MorIden_3","MorIden_4","MorIden_5","MorIden_6","MorIden_7","MorIden_8","MorIden_9","MorIden_10","moralSeImag_1","moralSeImag_2","moralSeImag_3","moralSeImag_4","moralSeImag_5","moralSeImag_6","moralSeImag_7","moralSeImag_8","moralSeImag_9","sde_1","sde_2","sde_3","sde_4","sde_5","sde_6","sde_7","sde_8","sde_9","sde_10","trap2","sde_11","sde_12","sde_13","sde_14","sde_15","sde_16","sde_17","sde_18","sde_19","sde_20","IM_1","IM_2","IM_3","IM_4","IM_5","IM_6","IM_7","IM_8","IM_9","IM_10","IM_11","IM_12","IM_13","IM_14","IM_15","IM_16","IM_17","IM_18","IM_19","IM_20","subj_idx","friend_name","ParticipantID","Sex","Word","Word2","value","success","timeout","failed_images","failed_audio","failed_video","user_agent","responses","item_order","radio_event_ids","radio_event_times","key_event_times","mouse_event_times","straightlining","zigzagging","honeypot","task_id","screen_id","time_stamp","response_type","key_press","avg_frame_time","center_x","center_y","person","word","valence","domain","math","correct_response","correct","status","view_history","identity","duration","Image","condition","question_order","trap2_item"
"15287","
   <p><div style='color:white; font-size: 25px'>您好，欢迎参加本次实验。</div></p>
   <p><div style='color:white; font-size: 25px'>为充分保障您的权利，请确保您已经知晓并同意《参与实验同意书》以及《数据公开知情同意书》。</div></p>
   <p><div style='color:white; font-size: 25px'>如果您未见过上述内容，请咨询实验员。</div></p>
   <p style='color:white; font-size: 25px'>如果您选择继续实验，则表示您已经清楚两份知情同意书的内容并同意。</p>
   <p><div style = ""color: pink;font-size:30px;"">请确保您记得day0的实验编号，您将在本次实验输入该编号，若您忘记，请咨询实验员后作答。</div></p>
   <p><div style = ""color:lightblue;font-size:25px;"">请您尽可能认真地作答，我们将依据您在各问卷和按键任务中的作答质量发放报酬。</div></p>
   <p> <div style = ""color: green""><按空格键至下页></div> </p>
   "," ","html-keyboard-response","0","15291","0.0-0.0","5","4","4","3","5","5","2","4","5","5","5","2","1","0","-1","-1","0","1","1","5","5","5","1","5","4","4","4","5","4","5","5","5","5","3","3","4","6","6","5","6","3","5","5","2","6","3","5","4","1","4","3","5","5","5","6","6","1","4","4","3","4","3","7","4","7","6","7","7","7","3","4","5","6","1","5","2","7","6","7","773203800659070978","张","504","Male","[""好我"",""坏我"",""好他"",""坏他""]","[""强我"",""弱我"",""强他"",""弱他""]","","","","","","","","","","","","","","","","","","","","","","","","","","","","","","","","","","","","","","",""
"","","","call-function","1","15292","0.0-1.0-0.0","5","4","4","3","5","5","2","4","5","5","5","2","1","0","-1","-1","0","1","1","5","5","5","1","5","4","4","4","5","4","5","5","5","5","3","3","4","6","6","5","6","3","5","5","2","6","3","5","4","1","4","3","5","5","5","6","6","1","4","4","3","4","3","7","4","7","6","7","7","7","3","4","5","6","1","5","2","7","6","7","773203800659070978","张","504","Male","[""好我"",""坏我"",""好他"",""坏他""]","[""强我"",""弱我"",""强他"",""弱他""]","","","","","","","","","","","","","","","","","","","","","","","","","","","","","","","","","","","","","","",""
"31764","","[{""name"":""Sex"",""value"":""0""},{""name"":""friend_name"",""value"":""张""},{""name"":""ParticipantID"",""value"":""504""}]","survey-html-form","2","47058","0.0-1.0-1.0","5","4","4","3","5","5","2","4","5","5","5","2","1","0","-1","-1","0","1","1","5","5","5","1","5","4","4","4","5","4","5","5","5","5","3","3","4","6","6","5","6","3","5","5","2","6","3","5","4","1","4","3","5","5","5","6","6","1","4","4","3","4","3","7","4","7","6","7","7","7","3","4","5","6","1","5","2","7","6","7","773203800659070978","张","504","Male","[""好我"",""坏我"",""好他"",""坏他""]","[""强我"",""弱我"",""强他"",""弱他""]","","","","","","","","","","","","","","","","","","","","","","","","","","","","","","","","","","","","","","",""
"","","","preload","3","47866","0.0-2.0","5","4","4","3","5","5","2","4","5","5","5","2","1","0","-1","-1","0","1","1","5","5","5","1","5","4","4","4","5","4","5","5","5","5","3","3","4","6","6","5","6","3","5","5","2","6","3","5","4","1","4","3","5","5","5","6","6","1","4","4","3","4","3","7","4","7","6","7","7","7","3","4","5","6","1","5","2","7","6","7","773203800659070978","张","504","Male","[""好我"",""坏我"",""好他"",""坏他""]","[""强我"",""弱我"",""强他"",""弱他""]","","true","false","[]","[]","[]","","","","","","","","","","","","","","","","","","","","","","","","","","","","","","","","",""
"","","","fullscreen","4","52929","0.0-3.0","5","4","4","3","5","5","2","4","5","5","5","2","1","0","-1","-1","0","1","1","5","5","5","1","5","4","4","4","5","4","5","5","5","5","3","3","4","6","6","5","6","3","5","5","2","6","3","5","4","1","4","3","5","5","5","6","6","1","4","4","3","4","3","7","4","7","6","7","7","7","3","4","5","6","1","5","2","7","6","7","773203800659070978","张","504","Male","[""好我"",""坏我"",""好他"",""坏他""]","[""强我"",""弱我"",""强他"",""弱他""]","","true","","","","","{}","","","","","","","","","","","","","","","","","","","","","","","","","","","","","","","",""
"31753.300000071526","","{""Q01"":""5"",""Q02"":""4"",""Q03"":""4"",""Q04"":""3"",""Q05"":""5""}","survey-template","5","84689","0.0-4.0","5","4","4","3","5","5","2","4","5","5","5","2","1","0","-1","-1","0","1","1","5","5","5","1","5","4","4","4","5","4","5","5","5","5","3","3","4","6","6","5","6","3","5","5","2","6","3","5","4","1","4","3","5","5","5","6","6","1","4","4","3","4","3","7","4","7","6","7","7","7","3","4","5","6","1","5","2","7","6","7","773203800659070978","张","504","Male","[""好我"",""坏我"",""好他"",""坏他""]","[""强我"",""弱我"",""强他"",""弱他""]","","","","","","","","{""Q01"":""5"",""Q02"":""4"",""Q03"":""4"",""Q04"":""3"",""Q05"":""5""}","[0,1,2,3,4]","[""Q01"",""Q02"",""Q03"",""Q04"",""Q05""]","[10519.600000023842,13303.100000023842,16155,21339.800000071526,25171.300000071526]","[]","[10519.600000023842,13303.100000023842,16155,21339.800000071526,25171.300000071526,31751.399999976158]","0.4","0.5","0","","","","","","","","","","","","","","","","","","","","","","",""
"43939.700000047684","","{""Q01"":""5"",""Q02"":""2"",""Q03"":""4"",""Q04"":""5"",""Q05"":""5"",""Q06"":""5""}","survey-template","6","128635","0.0-5.0","5","4","4","3","5","5","2","4","5","5","5","2","1","0","-1","-1","0","1","1","5","5","5","1","5","4","4","4","5","4","5","5","5","5","3","3","4","6","6","5","6","3","5","5","2","6","3","5","4","1","4","3","5","5","5","6","6","1","4","4","3","4","3","7","4","7","6","7","7","7","3","4","5","6","1","5","2","7","6","7","773203800659070978","张","504","Male","[""好我"",""坏我"",""好他"",""坏他""]","[""强我"",""弱我"",""强他"",""弱他""]","","","","","","","","{""Q01"":""5"",""Q02"":""2"",""Q03"":""4"",""Q04"":""5"",""Q05"":""5"",""Q06"":""5""}","[0,1,2,3,4,5]","[""Q01"",""Q02"",""Q03"",""Q04"",""Q05"",""Q06""]","[19098.100000023842,27619.200000047684,30270.300000071526,34790.40000009537,38762.10000002384,41762.40000009537]","[]","[19098.100000023842,27619.200000047684,30270.300000071526,33666.700000047684,34790.40000009537,38762.10000002384,41762.40000009537,43938.60000002384]","0.3333333333333333","0.4","0","","","","","","","","","","","","","","","","","","","","","","",""
"33499.09999990463","","{""Q01"":""2"",""Q02"":""1"",""Q03"":""0"",""Q04"":""-1"",""Q05"":""-1"",""Q06"":""0"",""Q07"":""1"",""Q08"":""1""}","survey-template","7","162140","0.0-6.0","5","4","4","3","5","5","2","4","5","5","5","2","1","0","-1","-1","0","1","1","5","5","5","1","5","4","4","4","5","4","5","5","5","5","3","3","4","6","6","5","6","3","5","5","2","6","3","5","4","1","4","3","5","5","5","6","6","1","4","4","3","4","3","7","4","7","6","7","7","7","3","4","5","6","1","5","2","7","6","7","773203800659070978","张","504","Male","[""好我"",""坏我"",""好他"",""坏他""]","[""强我"",""弱我"",""强他"",""弱他""]","","","","","","","","{""Q01"":""2"",""Q02"":""1"",""Q03"":""0"",""Q04"":""-1"",""Q05"":""-1"",""Q06"":""0"",""Q07"":""1"",""Q08"":""1""}","[0,1,2,3,4,5,6,7]","[""Q01"",""Q02"",""Q03"",""Q04"",""Q05"",""Q06"",""Q07"",""Q08""]","[4509.899999976158,8666.199999928474,13297,21805.5,24317.299999952316,26513.5,30925.399999976158,32381.199999928474]","[]","[4509.899999976158,8666.199999928474,13297,21805.5,24317.299999952316,26513.5,30925.399999976158,32381.199999928474,33497.299999952316]","0.375","0.7142857142857143","0","","","","","","","","","","","","","","","","","","","","","","",""
"17534","
    <p><div style='color:white;font-size:35px; line-height:20px;'>词汇评估任务</div></p><br>
    <p><div style='color:white;font-size:25px; line-height:20px;'>请再次回忆该亲密的朋友，你们至少2年前就认识了，并且最近2年经常见面。</div></p>
    <p><div style='color:white;font-size:25px; line-height:20px;'>在本实验中，您将会看到一些形容词。</div></p>
    <p><div style='color:yellow;font-size:25px; line-height:20px;'>您的任务是判断这些形容词是否符合对您自己或您的朋友的描述。</div></p><p style='font-size:35px'>符合按<span style=""color:lightgreen""> f 键</span>，不符合按<span style=""color:red""> j 键</span></p>","0","html-button-response","8","179678","0.0-7.0-0.0","5","4","4","3","5","5","2","4","5","5","5","2","1","0","-1","-1","0","1","1","5","5","5","1","5","4","4","4","5","4","5","5","5","5","3","3","4","6","6","5","6","3","5","5","2","6","3","5","4","1","4","3","5","5","5","6","6","1","4","4","3","4","3","7","4","7","6","7","7","7","3","4","5","6","1","5","2","7","6","7","773203800659070978","张","504","Male","[""好我"",""坏我"",""好他"",""坏他""]","[""强我"",""弱我"",""强他"",""弱他""]","","","","","","","","","","","","","","","","","SRET_EW","EW_instructions","Sun Jan 07 2024 12:47:12 GMT+0800 (中国标准时间)","","","","","","","","","","","","","","","","","","","",""
"null","","null","psychophysics","9","182684","0.0-7.0-1.0-0.0","5","4","4","3","5","5","2","4","5","5","5","2","1","0","-1","-1","0","1","1","5","5","5","1","5","4","4","4","5","4","5","5","5","5","3","3","4","6","6","5","6","3","5","5","2","6","3","5","4","1","4","3","5","5","5","6","6","1","4","4","3","4","3","7","4","7","6","7","7","7","3","4","5","6","1","5","2","7","6","7","773203800659070978","张","504","Male","[""好我"",""坏我"",""好他"",""坏他""]","[""强我"",""弱我"",""强他"",""弱他""]","","","","","","","","","","","","","","","","","SRET_EW","EW_practice","","key","null","20.97902097902098","683","380","自己","严谨","Positive","ability","","","","","","","","","","",""
"null","","null","psychophysics","10","185688","0.0-7.0-1.0-0.1","5","4","4","3","5","5","2","4","5","5","5","2","1","0","-1","-1","0","1","1","5","5","5","1","5","4","4","4","5","4","5","5","5","5","3","3","4","6","6","5","6","3","5","5","2","6","3","5","4","1","4","3","5","5","5","6","6","1","4","4","3","4","3","7","4","7","6","7","7","7","3","4","5","6","1","5","2","7","6","7","773203800659070978","张","504","Male","[""好我"",""坏我"",""好他"",""坏他""]","[""强我"",""弱我"",""强他"",""弱他""]","","","","","","","","","","","","","","","","","SRET_EW","EW_practice","","key","null","20.833566433566514","683","380","自己","刻板","Negative","ability","","","","","","","","","","",""
"1562","","j","psychophysics","11","188252","0.0-7.0-1.0-0.2","5","4","4","3","5","5","2","4","5","5","5","2","1","0","-1","-1","0","1","1","5","5","5","1","5","4","4","4","5","4","5","5","5","5","3","3","4","6","6","5","6","3","5","5","2","6","3","5","4","1","4","3","5","5","5","6","6","1","4","4","3","4","3","7","4","7","6","7","7","7","3","4","5","6","1","5","2","7","6","7","773203800659070978","张","504","Male","[""好我"",""坏我"",""好他"",""坏他""]","[""强我"",""弱我"",""强他"",""弱他""]","","","","","","","","no","","","","","","","","","SRET_EW","EW_practice","","key","j","20.83442622950834","683","380","朋友","徇私","Negative","morality","","","","","","","","","","",""
"985","","f","psychophysics","12","190238","0.0-7.0-1.0-0.3","5","4","4","3","5","5","2","4","5","5","5","2","1","0","-1","-1","0","1","1","5","5","5","1","5","4","4","4","5","4","5","5","5","5","3","3","4","6","6","5","6","3","5","5","2","6","3","5","4","1","4","3","5","5","5","6","6","1","4","4","3","4","3","7","4","7","6","7","7","7","3","4","5","6","1","5","2","7","6","7","773203800659070978","张","504","Male","[""好我"",""坏我"",""好他"",""坏他""]","[""强我"",""弱我"",""强他"",""弱他""]","","","","","","","","yes","","","","","","","","","SRET_EW","EW_practice","","key","f","20.835789473684148","683","380","朋友","忠实","Positive","morality","","","","","","","","","","",""
"15531","
    <p><div style='color:white;font-size:35px; line-height:20px;'>请您再次阅读实验要求</div></p><br>
    <p><div style='color:white;font-size:25px; line-height:20px;'>请回忆某一个亲密的朋友，你们至少2年前就认识了，并且最近2年经常见面。</div></p>
    <p><div style='color:white;font-size:25px; line-height:20px;'>在本实验中，您将会看到一些形容词。</div></p>
    <p><div style='color:yellow;font-size:25px; line-height:20px;'>您的任务是判断这些形容词是否符合对您自己或您的朋友的描述。</div></p>
    <p><div class='footer' style='font-size:25px; line-height:20px;'>如果对本实验还有不清楚之处，请立即向实验员咨询。</p><p style='font-size:25px; line-height:20px;'>如果您明白了规则：</p><p style='font-size:22px; line-height:20px;'>请按 继续 进入正式实验</p>
    </div>
    <p style='font-size:35px'>符合按<span style=""color:lightgreen""> f 键</span>，不符合按<span style=""color:red""> j 键</span></p>","0","html-button-response","13","205770","0.0-7.0-2.0","5","4","4","3","5","5","2","4","5","5","5","2","1","0","-1","-1","0","1","1","5","5","5","1","5","4","4","4","5","4","5","5","5","5","3","3","4","6","6","5","6","3","5","5","2","6","3","5","4","1","4","3","5","5","5","6","6","1","4","4","3","4","3","7","4","7","6","7","7","7","3","4","5","6","1","5","2","7","6","7","773203800659070978","张","504","Male","[""好我"",""坏我"",""好他"",""坏他""]","[""强我"",""弱我"",""强他"",""弱他""]","","","","","","","","","","","","","","","","","SRET_EW","prac_instructions","Sun Jan 07 2024 12:47:12 GMT+0800 (中国标准时间)","","","","","","","","","","","","","","","","","","","",""
"912","","j","psychophysics","14","207684","0.0-7.0-3.0-0.0","5","4","4","3","5","5","2","4","5","5","5","2","1","0","-1","-1","0","1","1","5","5","5","1","5","4","4","4","5","4","5","5","5","5","3","3","4","6","6","5","6","3","5","5","2","6","3","5","4","1","4","3","5","5","5","6","6","1","4","4","3","4","3","7","4","7","6","7","7","7","3","4","5","6","1","5","2","7","6","7","773203800659070978","张","504","Male","[""好我"",""坏我"",""好他"",""坏他""]","[""强我"",""弱我"",""强他"",""弱他""]","","","","","","","","no","","","","","","","","","SRET","EW_formal","","key","j","20.744565217391305","683","380","朋友","迷糊","Negative","ability","","","","","","","","","","",""
"1026","","f","psychophysics","15","209711","0.0-7.0-3.0-0.1","5","4","4","3","5","5","2","4","5","5","5","2","1","0","-1","-1","0","1","1","5","5","5","1","5","4","4","4","5","4","5","5","5","5","3","3","4","6","6","5","6","3","5","5","2","6","3","5","4","1","4","3","5","5","5","6","6","1","4","4","3","4","3","7","4","7","6","7","7","7","3","4","5","6","1","5","2","7","6","7","773203800659070978","张","504","Male","[""好我"",""坏我"",""好他"",""坏他""]","[""强我"",""弱我"",""强他"",""弱他""]","","","","","","","","yes","","","","","","","","","SRET","EW_formal","","key","f","20.834375000000062","683","380","朋友","务实","Positive","ability","","","","","","","","","","",""
"1186","","j","psychophysics","16","211899","0.0-7.0-3.0-0.2","5","4","4","3","5","5","2","4","5","5","5","2","1","0","-1","-1","0","1","1","5","5","5","1","5","4","4","4","5","4","5","5","5","5","3","3","4","6","6","5","6","3","5","5","2","6","3","5","4","1","4","3","5","5","5","6","6","1","4","4","3","4","3","7","4","7","6","7","7","7","3","4","5","6","1","5","2","7","6","7","773203800659070978","张","504","Male","[""好我"",""坏我"",""好他"",""坏他""]","[""强我"",""弱我"",""强他"",""弱他""]","","","","","","","","no","","","","","","","","","SRET","EW_formal","","key","j","20.833653846153958","683","380","自己","说谎","Negative","morality","","","","","","","","","","",""
"1242","","f","psychophysics","17","214142","0.0-7.0-3.0-0.3","5","4","4","3","5","5","2","4","5","5","5","2","1","0","-1","-1","0","1","1","5","5","5","1","5","4","4","4","5","4","5","5","5","5","3","3","4","6","6","5","6","3","5","5","2","6","3","5","4","1","4","3","5","5","5","6","6","1","4","4","3","4","3","7","4","7","6","7","7","7","3","4","5","6","1","5","2","7","6","7","773203800659070978","张","504","Male","[""好我"",""坏我"",""好他"",""坏他""]","[""强我"",""弱我"",""强他"",""弱他""]","","","","","","","","yes","","","","","","","","","SRET","EW_formal","","key","f","20.832710280373885","683","380","自己","坚贞","Positive","morality","","","","","","","","","","",""
"1024","","j","psychophysics","18","216167","0.0-7.0-3.0-0.4","5","4","4","3","5","5","2","4","5","5","5","2","1","0","-1","-1","0","1","1","5","5","5","1","5","4","4","4","5","4","5","5","5","5","3","3","4","6","6","5","6","3","5","5","2","6","3","5","4","1","4","3","5","5","5","6","6","1","4","4","3","4","3","7","4","7","6","7","7","7","3","4","5","6","1","5","2","7","6","7","773203800659070978","张","504","Male","[""好我"",""坏我"",""好他"",""坏他""]","[""强我"",""弱我"",""强他"",""弱他""]","","","","","","","","no","","","","","","","","","SRET","EW_formal","","key","j","20.833333333333332","683","380","自己","淫乱","Negative","morality","","","","","","","","","","",""
"1105","","f","psychophysics","19","218274","0.0-7.0-3.0-0.5","5","4","4","3","5","5","2","4","5","5","5","2","1","0","-1","-1","0","1","1","5","5","5","1","5","4","4","4","5","4","5","5","5","5","3","3","4","6","6","5","6","3","5","5","2","6","3","5","4","1","4","3","5","5","5","6","6","1","4","4","3","4","3","7","4","7","6","7","7","7","3","4","5","6","1","5","2","7","6","7","773203800659070978","张","504","Male","[""好我"",""坏我"",""好他"",""坏他""]","[""强我"",""弱我"",""强他"",""弱他""]","","","","","","","","yes","","","","","","","","","SRET","EW_formal","","key","f","20.835999999999768","683","380","自己","高尚","Positive","morality","","","","","","","","","","",""
"1337","","j","psychophysics","20","220613","0.0-7.0-3.0-0.6","5","4","4","3","5","5","2","4","5","5","5","2","1","0","-1","-1","0","1","1","5","5","5","1","5","4","4","4","5","4","5","5","5","5","3","3","4","6","6","5","6","3","5","5","2","6","3","5","4","1","4","3","5","5","5","6","6","1","4","4","3","4","3","7","4","7","6","7","7","7","3","4","5","6","1","5","2","7","6","7","773203800659070978","张","504","Male","[""好我"",""坏我"",""好他"",""坏他""]","[""强我"",""弱我"",""强他"",""弱他""]","","","","","","","","no","","","","","","","","","SRET","EW_formal","","key","j","20.834821428571427","683","380","朋友","屈才","Negative","ability","","","","","","","","","","",""
"1208","","j","psychophysics","21","222823","0.0-7.0-3.0-0.7","5","4","4","3","5","5","2","4","5","5","5","2","1","0","-1","-1","0","1","1","5","5","5","1","5","4","4","4","5","4","5","5","5","5","3","3","4","6","6","5","6","3","5","5","2","6","3","5","4","1","4","3","5","5","5","6","6","1","4","4","3","4","3","7","4","7","6","7","7","7","3","4","5","6","1","5","2","7","6","7","773203800659070978","张","504","Male","[""好我"",""坏我"",""好他"",""坏他""]","[""强我"",""弱我"",""强他"",""弱他""]","","","","","","","","no","","","","","","","","","SRET","EW_formal","","key","j","20.833333333333332","683","380","朋友","淡泊","Positive","morality","","","","","","","","","","",""
"1047","","f","psychophysics","22","224871","0.0-7.0-3.0-0.8","5","4","4","3","5","5","2","4","5","5","5","2","1","0","-1","-1","0","1","1","5","5","5","1","5","4","4","4","5","4","5","5","5","5","3","3","4","6","6","5","6","3","5","5","2","6","3","5","4","1","4","3","5","5","5","6","6","1","4","4","3","4","3","7","4","7","6","7","7","7","3","4","5","6","1","5","2","7","6","7","773203800659070978","张","504","Male","[""好我"",""坏我"",""好他"",""坏他""]","[""强我"",""弱我"",""强他"",""弱他""]","","","","","","","","yes","","","","","","","","","SRET","EW_formal","","key","f","20.835051546391753","683","380","自己","无助","Negative","ability","","","","","","","","","","",""
"1429","","j","psychophysics","23","227300","0.0-7.0-3.0-0.9","5","4","4","3","5","5","2","4","5","5","5","2","1","0","-1","-1","0","1","1","5","5","5","1","5","4","4","4","5","4","5","5","5","5","3","3","4","6","6","5","6","3","5","5","2","6","3","5","4","1","4","3","5","5","5","6","6","1","4","4","3","4","3","7","4","7","6","7","7","7","3","4","5","6","1","5","2","7","6","7","773203800659070978","张","504","Male","[""好我"",""坏我"",""好他"",""坏他""]","[""强我"",""弱我"",""强他"",""弱他""]","","","","","","","","no","","","","","","","","","SRET","EW_formal","","key","j","20.834482758620588","683","380","自己","罪恶","Negative","morality","","","","","","","","","","",""
"1512","","f","psychophysics","24","229813","0.0-7.0-3.0-0.10","5","4","4","3","5","5","2","4","5","5","5","2","1","0","-1","-1","0","1","1","5","5","5","1","5","4","4","4","5","4","5","5","5","5","3","3","4","6","6","5","6","3","5","5","2","6","3","5","4","1","4","3","5","5","5","6","6","1","4","4","3","4","3","7","4","7","6","7","7","7","3","4","5","6","1","5","2","7","6","7","773203800659070978","张","504","Male","[""好我"",""坏我"",""好他"",""坏他""]","[""强我"",""弱我"",""强他"",""弱他""]","","","","","","","","yes","","","","","","","","","SRET","EW_formal","","key","f","20.834453781512508","683","380","朋友","扎实","Positive","ability","","","","","","","","","","",""
"1061","","j","psychophysics","25","231877","0.0-7.0-3.0-0.11","5","4","4","3","5","5","2","4","5","5","5","2","1","0","-1","-1","0","1","1","5","5","5","1","5","4","4","4","5","4","5","5","5","5","3","3","4","6","6","5","6","3","5","5","2","6","3","5","4","1","4","3","5","5","5","6","6","1","4","4","3","4","3","7","4","7","6","7","7","7","3","4","5","6","1","5","2","7","6","7","773203800659070978","张","504","Male","[""好我"",""坏我"",""好他"",""坏他""]","[""强我"",""弱我"",""强他"",""弱他""]","","","","","","","","no","","","","","","","","","SRET","EW_formal","","key","j","20.8346938775509","683","380","朋友","愚蠢","Negative","ability","","","","","","","","","","",""
"1370","","f","psychophysics","26","234248","0.0-7.0-3.0-0.12","5","4","4","3","5","5","2","4","5","5","5","2","1","0","-1","-1","0","1","1","5","5","5","1","5","4","4","4","5","4","5","5","5","5","3","3","4","6","6","5","6","3","5","5","2","6","3","5","4","1","4","3","5","5","5","6","6","1","4","4","3","4","3","7","4","7","6","7","7","7","3","4","5","6","1","5","2","7","6","7","773203800659070978","张","504","Male","[""好我"",""坏我"",""好他"",""坏他""]","[""强我"",""弱我"",""强他"",""弱他""]","","","","","","","","yes","","","","","","","","","SRET","EW_formal","","key","f","20.83451327433618","683","380","自己","无私","Positive","morality","","","","","","","","","","",""
"1283","","j","psychophysics","27","236533","0.0-7.0-3.0-0.13","5","4","4","3","5","5","2","4","5","5","5","2","1","0","-1","-1","0","1","1","5","5","5","1","5","4","4","4","5","4","5","5","5","5","3","3","4","6","6","5","6","3","5","5","2","6","3","5","4","1","4","3","5","5","5","6","6","1","4","4","3","4","3","7","4","7","6","7","7","7","3","4","5","6","1","5","2","7","6","7","773203800659070978","张","504","Male","[""好我"",""坏我"",""好他"",""坏他""]","[""强我"",""弱我"",""强他"",""弱他""]","","","","","","","","no","","","","","","","","","SRET","EW_formal","","key","j","20.834862385321102","683","380","自己","狡狯","Negative","morality","","","","","","","","","","",""
"1334","","j","psychophysics","28","238870","0.0-7.0-3.0-0.14","5","4","4","3","5","5","2","4","5","5","5","2","1","0","-1","-1","0","1","1","5","5","5","1","5","4","4","4","5","4","5","5","5","5","3","3","4","6","6","5","6","3","5","5","2","6","3","5","4","1","4","3","5","5","5","6","6","1","4","4","3","4","3","7","4","7","6","7","7","7","3","4","5","6","1","5","2","7","6","7","773203800659070978","张","504","Male","[""好我"",""坏我"",""好他"",""坏他""]","[""强我"",""弱我"",""强他"",""弱他""]","","","","","","","","no","","","","","","","","","SRET","EW_formal","","key","j","20.834234234234287","683","380","自己","博学","Positive","ability","","","","","","","","","","",""
"1152","","f","psychophysics","29","241023","0.0-7.0-3.0-0.15","5","4","4","3","5","5","2","4","5","5","5","2","1","0","-1","-1","0","1","1","5","5","5","1","5","4","4","4","5","4","5","5","5","5","3","3","4","6","6","5","6","3","5","5","2","6","3","5","4","1","4","3","5","5","5","6","6","1","4","4","3","4","3","7","4","7","6","7","7","7","3","4","5","6","1","5","2","7","6","7","773203800659070978","张","504","Male","[""好我"",""坏我"",""好他"",""坏他""]","[""强我"",""弱我"",""强他"",""弱他""]","","","","","","","","yes","","","","","","","","","SRET","EW_formal","","key","f","20.833333333333332","683","380","朋友","粗心","Negative","ability","","","","","","","","","","",""
"1031","","f","psychophysics","30","243055","0.0-7.0-3.0-0.16","5","4","4","3","5","5","2","4","5","5","5","2","1","0","-1","-1","0","1","1","5","5","5","1","5","4","4","4","5","4","5","5","5","5","3","3","4","6","6","5","6","3","5","5","2","6","3","5","4","1","4","3","5","5","5","6","6","1","4","4","3","4","3","7","4","7","6","7","7","7","3","4","5","6","1","5","2","7","6","7","773203800659070978","张","504","Male","[""好我"",""坏我"",""好他"",""坏他""]","[""强我"",""弱我"",""强他"",""弱他""]","","","","","","","","yes","","","","","","","","","SRET","EW_formal","","key","f","20.83298969072153","683","380","自己","独断","Negative","ability","","","","","","","","","","",""
"953","","f","psychophysics","31","245009","0.0-7.0-3.0-0.17","5","4","4","3","5","5","2","4","5","5","5","2","1","0","-1","-1","0","1","1","5","5","5","1","5","4","4","4","5","4","5","5","5","5","3","3","4","6","6","5","6","3","5","5","2","6","3","5","4","1","4","3","5","5","5","6","6","1","4","4","3","4","3","7","4","7","6","7","7","7","3","4","5","6","1","5","2","7","6","7","773203800659070978","张","504","Male","[""好我"",""坏我"",""好他"",""坏他""]","[""强我"",""弱我"",""强他"",""弱他""]","","","","","","","","yes","","","","","","","","","SRET","EW_formal","","key","f","20.835483870967867","683","380","自己","清廉","Positive","morality","","","","","","","","","","",""
"808","","f","psychophysics","32","246819","0.0-7.0-3.0-0.18","5","4","4","3","5","5","2","4","5","5","5","2","1","0","-1","-1","0","1","1","5","5","5","1","5","4","4","4","5","4","5","5","5","5","3","3","4","6","6","5","6","3","5","5","2","6","3","5","4","1","4","3","5","5","5","6","6","1","4","4","3","4","3","7","4","7","6","7","7","7","3","4","5","6","1","5","2","7","6","7","773203800659070978","张","504","Male","[""好我"",""坏我"",""好他"",""坏他""]","[""强我"",""弱我"",""强他"",""弱他""]","","","","","","","","yes","","","","","","","","","SRET","EW_formal","","key","f","20.834883720930097","683","380","朋友","忠义","Positive","morality","","","","","","","","","","",""
"1176","","f","psychophysics","33","248998","0.0-7.0-3.0-0.19","5","4","4","3","5","5","2","4","5","5","5","2","1","0","-1","-1","0","1","1","5","5","5","1","5","4","4","4","5","4","5","5","5","5","3","3","4","6","6","5","6","3","5","5","2","6","3","5","4","1","4","3","5","5","5","6","6","1","4","4","3","4","3","7","4","7","6","7","7","7","3","4","5","6","1","5","2","7","6","7","773203800659070978","张","504","Male","[""好我"",""坏我"",""好他"",""坏他""]","[""强我"",""弱我"",""强他"",""弱他""]","","","","","","","","yes","","","","","","","","","SRET","EW_formal","","key","f","20.83495145631068","683","380","自己","周到","Positive","ability","","","","","","","","","","",""
"875","","f","psychophysics","34","250875","0.0-7.0-3.0-0.20","5","4","4","3","5","5","2","4","5","5","5","2","1","0","-1","-1","0","1","1","5","5","5","1","5","4","4","4","5","4","5","5","5","5","3","3","4","6","6","5","6","3","5","5","2","6","3","5","4","1","4","3","5","5","5","6","6","1","4","4","3","4","3","7","4","7","6","7","7","7","3","4","5","6","1","5","2","7","6","7","773203800659070978","张","504","Male","[""好我"",""坏我"",""好他"",""坏他""]","[""强我"",""弱我"",""强他"",""弱他""]","","","","","","","","yes","","","","","","","","","SRET","EW_formal","","key","f","20.835955056180037","683","380","朋友","坚持","Positive","ability","","","","","","","","","","",""
"1191","","j","psychophysics","35","253067","0.0-7.0-3.0-0.21","5","4","4","3","5","5","2","4","5","5","5","2","1","0","-1","-1","0","1","1","5","5","5","1","5","4","4","4","5","4","5","5","5","5","3","3","4","6","6","5","6","3","5","5","2","6","3","5","4","1","4","3","5","5","5","6","6","1","4","4","3","4","3","7","4","7","6","7","7","7","3","4","5","6","1","5","2","7","6","7","773203800659070978","张","504","Male","[""好我"",""坏我"",""好他"",""坏他""]","[""强我"",""弱我"",""强他"",""弱他""]","","","","","","","","no","","","","","","","","","SRET","EW_formal","","key","j","20.833653846153958","683","380","自己","阴毒","Negative","morality","","","","","","","","","","",""
"818","","j","psychophysics","36","254889","0.0-7.0-3.0-0.22","5","4","4","3","5","5","2","4","5","5","5","2","1","0","-1","-1","0","1","1","5","5","5","1","5","4","4","4","5","4","5","5","5","5","3","3","4","6","6","5","6","3","5","5","2","6","3","5","4","1","4","3","5","5","5","6","6","1","4","4","3","4","3","7","4","7","6","7","7","7","3","4","5","6","1","5","2","7","6","7","773203800659070978","张","504","Male","[""好我"",""坏我"",""好他"",""坏他""]","[""强我"",""弱我"",""强他"",""弱他""]","","","","","","","","no","","","","","","","","","SRET","EW_formal","","key","j","20.836781609195604","683","380","朋友","混账","Negative","morality","","","","","","","","","","",""
"1152","","f","psychophysics","37","257043","0.0-7.0-3.0-0.23","5","4","4","3","5","5","2","4","5","5","5","2","1","0","-1","-1","0","1","1","5","5","5","1","5","4","4","4","5","4","5","5","5","5","3","3","4","6","6","5","6","3","5","5","2","6","3","5","4","1","4","3","5","5","5","6","6","1","4","4","3","4","3","7","4","7","6","7","7","7","3","4","5","6","1","5","2","7","6","7","773203800659070978","张","504","Male","[""好我"",""坏我"",""好他"",""坏他""]","[""强我"",""弱我"",""强他"",""弱他""]","","","","","","","","yes","","","","","","","","","SRET","EW_formal","","key","f","20.833333333333332","683","380","朋友","慈悲","Positive","morality","","","","","","","","","","",""
"1126","","j","psychophysics","38","259171","0.0-7.0-3.0-0.24","5","4","4","3","5","5","2","4","5","5","5","2","1","0","-1","-1","0","1","1","5","5","5","1","5","4","4","4","5","4","5","5","5","5","3","3","4","6","6","5","6","3","5","5","2","6","3","5","4","1","4","3","5","5","5","6","6","1","4","4","3","4","3","7","4","7","6","7","7","7","3","4","5","6","1","5","2","7","6","7","773203800659070978","张","504","Male","[""好我"",""坏我"",""好他"",""坏他""]","[""强我"",""弱我"",""强他"",""弱他""]","","","","","","","","no","","","","","","","","","SRET","EW_formal","","key","j","20.83267326732679","683","380","朋友","迂拙","Negative","ability","","","","","","","","","","",""
"1002","","f","psychophysics","39","261176","0.0-7.0-3.0-0.25","5","4","4","3","5","5","2","4","5","5","5","2","1","0","-1","-1","0","1","1","5","5","5","1","5","4","4","4","5","4","5","5","5","5","3","3","4","6","6","5","6","3","5","5","2","6","3","5","4","1","4","3","5","5","5","6","6","1","4","4","3","4","3","7","4","7","6","7","7","7","3","4","5","6","1","5","2","7","6","7","773203800659070978","张","504","Male","[""好我"",""坏我"",""好他"",""坏他""]","[""强我"",""弱我"",""强他"",""弱他""]","","","","","","","","yes","","","","","","","","","SRET","EW_formal","","key","f","20.83333333333303","683","380","朋友","顶事","Positive","ability","","","","","","","","","","",""
"820","","j","psychophysics","40","262997","0.0-7.0-3.0-0.26","5","4","4","3","5","5","2","4","5","5","5","2","1","0","-1","-1","0","1","1","5","5","5","1","5","4","4","4","5","4","5","5","5","5","3","3","4","6","6","5","6","3","5","5","2","6","3","5","4","1","4","3","5","5","5","6","6","1","4","4","3","4","3","7","4","7","6","7","7","7","3","4","5","6","1","5","2","7","6","7","773203800659070978","张","504","Male","[""好我"",""坏我"",""好他"",""坏他""]","[""强我"",""弱我"",""强他"",""弱他""]","","","","","","","","no","","","","","","","","","SRET","EW_formal","","key","j","20.833720930232015","683","380","朋友","刻薄","Negative","morality","","","","","","","","","","",""
"897","","f","psychophysics","41","264896","0.0-7.0-3.0-0.27","5","4","4","3","5","5","2","4","5","5","5","2","1","0","-1","-1","0","1","1","5","5","5","1","5","4","4","4","5","4","5","5","5","5","3","3","4","6","6","5","6","3","5","5","2","6","3","5","4","1","4","3","5","5","5","6","6","1","4","4","3","4","3","7","4","7","6","7","7","7","3","4","5","6","1","5","2","7","6","7","773203800659070978","张","504","Male","[""好我"",""坏我"",""好他"",""坏他""]","[""强我"",""弱我"",""强他"",""弱他""]","","","","","","","","yes","","","","","","","","","SRET","EW_formal","","key","f","20.83555555555504","683","380","自己","廉明","Positive","morality","","","","","","","","","","",""
"762","","f","psychophysics","42","266660","0.0-7.0-3.0-0.28","5","4","4","3","5","5","2","4","5","5","5","2","1","0","-1","-1","0","1","1","5","5","5","1","5","4","4","4","5","4","5","5","5","5","3","3","4","6","6","5","6","3","5","5","2","6","3","5","4","1","4","3","5","5","5","6","6","1","4","4","3","4","3","7","4","7","6","7","7","7","3","4","5","6","1","5","2","7","6","7","773203800659070978","张","504","Male","[""好我"",""坏我"",""好他"",""坏他""]","[""强我"",""弱我"",""强他"",""弱他""]","","","","","","","","yes","","","","","","","","","SRET","EW_formal","","key","f","20.833333333333332","683","380","自己","忠良","Positive","morality","","","","","","","","","","",""
"1206","","f","psychophysics","43","268868","0.0-7.0-3.0-0.29","5","4","4","3","5","5","2","4","5","5","5","2","1","0","-1","-1","0","1","1","5","5","5","1","5","4","4","4","5","4","5","5","5","5","3","3","4","6","6","5","6","3","5","5","2","6","3","5","4","1","4","3","5","5","5","6","6","1","4","4","3","4","3","7","4","7","6","7","7","7","3","4","5","6","1","5","2","7","6","7","773203800659070978","张","504","Male","[""好我"",""坏我"",""好他"",""坏他""]","[""强我"",""弱我"",""强他"",""弱他""]","","","","","","","","yes","","","","","","","","","SRET","EW_formal","","key","f","20.835238095238207","683","380","朋友","懂行","Positive","ability","","","","","","","","","","",""
"883","","j","psychophysics","44","270752","0.0-7.0-3.0-0.30","5","4","4","3","5","5","2","4","5","5","5","2","1","0","-1","-1","0","1","1","5","5","5","1","5","4","4","4","5","4","5","5","5","5","3","3","4","6","6","5","6","3","5","5","2","6","3","5","4","1","4","3","5","5","5","6","6","1","4","4","3","4","3","7","4","7","6","7","7","7","3","4","5","6","1","5","2","7","6","7","773203800659070978","张","504","Male","[""好我"",""坏我"",""好他"",""坏他""]","[""强我"",""弱我"",""强他"",""弱他""]","","","","","","","","no","","","","","","","","","SRET","EW_formal","","key","j","20.834831460674028","683","380","自己","诡诈","Negative","morality","","","","","","","","","","",""
"827","","j","psychophysics","45","272581","0.0-7.0-3.0-0.31","5","4","4","3","5","5","2","4","5","5","5","2","1","0","-1","-1","0","1","1","5","5","5","1","5","4","4","4","5","4","5","5","5","5","3","3","4","6","6","5","6","3","5","5","2","6","3","5","4","1","4","3","5","5","5","6","6","1","4","4","3","4","3","7","4","7","6","7","7","7","3","4","5","6","1","5","2","7","6","7","773203800659070978","张","504","Male","[""好我"",""坏我"",""好他"",""坏他""]","[""强我"",""弱我"",""强他"",""弱他""]","","","","","","","","no","","","","","","","","","SRET","EW_formal","","key","j","20.83448275862042","683","380","朋友","歹毒","Negative","morality","","","","","","","","","","",""
"859","","j","psychophysics","46","274442","0.0-7.0-3.0-0.32","5","4","4","3","5","5","2","4","5","5","5","2","1","0","-1","-1","0","1","1","5","5","5","1","5","4","4","4","5","4","5","5","5","5","3","3","4","6","6","5","6","3","5","5","2","6","3","5","4","1","4","3","5","5","5","6","6","1","4","4","3","4","3","7","4","7","6","7","7","7","3","4","5","6","1","5","2","7","6","7","773203800659070978","张","504","Male","[""好我"",""坏我"",""好他"",""坏他""]","[""强我"",""弱我"",""强他"",""弱他""]","","","","","","","","no","","","","","","","","","SRET","EW_formal","","key","j","20.836363636364034","683","380","自己","笨蛋","Negative","ability","","","","","","","","","","",""
"757","","j","psychophysics","47","276202","0.0-7.0-3.0-0.33","5","4","4","3","5","5","2","4","5","5","5","2","1","0","-1","-1","0","1","1","5","5","5","1","5","4","4","4","5","4","5","5","5","5","3","3","4","6","6","5","6","3","5","5","2","6","3","5","4","1","4","3","5","5","5","6","6","1","4","4","3","4","3","7","4","7","6","7","7","7","3","4","5","6","1","5","2","7","6","7","773203800659070978","张","504","Male","[""好我"",""坏我"",""好他"",""坏他""]","[""强我"",""弱我"",""强他"",""弱他""]","","","","","","","","no","","","","","","","","","SRET","EW_formal","","key","j","20.83452380952353","683","380","朋友","拜金","Negative","morality","","","","","","","","","","",""
"707","","f","psychophysics","48","277912","0.0-7.0-3.0-0.34","5","4","4","3","5","5","2","4","5","5","5","2","1","0","-1","-1","0","1","1","5","5","5","1","5","4","4","4","5","4","5","5","5","5","3","3","4","6","6","5","6","3","5","5","2","6","3","5","4","1","4","3","5","5","5","6","6","1","4","4","3","4","3","7","4","7","6","7","7","7","3","4","5","6","1","5","2","7","6","7","773203800659070978","张","504","Male","[""好我"",""坏我"",""好他"",""坏他""]","[""强我"",""弱我"",""强他"",""弱他""]","","","","","","","","yes","","","","","","","","","SRET","EW_formal","","key","f","20.833333333333332","683","380","自己","仁厚","Positive","morality","","","","","","","","","","",""
"641","","j","psychophysics","49","279555","0.0-7.0-3.0-0.35","5","4","4","3","5","5","2","4","5","5","5","2","1","0","-1","-1","0","1","1","5","5","5","1","5","4","4","4","5","4","5","5","5","5","3","3","4","6","6","5","6","3","5","5","2","6","3","5","4","1","4","3","5","5","5","6","6","1","4","4","3","4","3","7","4","7","6","7","7","7","3","4","5","6","1","5","2","7","6","7","773203800659070978","张","504","Male","[""好我"",""坏我"",""好他"",""坏他""]","[""强我"",""弱我"",""强他"",""弱他""]","","","","","","","","no","","","","","","","","","SRET","EW_formal","","key","j","20.834615384615088","683","380","自己","恶劣","Negative","morality","","","","","","","","","","",""
"634","","j","psychophysics","50","281192","0.0-7.0-3.0-0.36","5","4","4","3","5","5","2","4","5","5","5","2","1","0","-1","-1","0","1","1","5","5","5","1","5","4","4","4","5","4","5","5","5","5","3","3","4","6","6","5","6","3","5","5","2","6","3","5","4","1","4","3","5","5","5","6","6","1","4","4","3","4","3","7","4","7","6","7","7","7","3","4","5","6","1","5","2","7","6","7","773203800659070978","张","504","Male","[""好我"",""坏我"",""好他"",""坏他""]","[""强我"",""弱我"",""强他"",""弱他""]","","","","","","","","no","","","","","","","","","SRET","EW_formal","","key","j","20.833766233766386","683","380","朋友","腐败","Negative","morality","","","","","","","","","","",""
"697","","j","psychophysics","51","282894","0.0-7.0-3.0-0.37","5","4","4","3","5","5","2","4","5","5","5","2","1","0","-1","-1","0","1","1","5","5","5","1","5","4","4","4","5","4","5","5","5","5","3","3","4","6","6","5","6","3","5","5","2","6","3","5","4","1","4","3","5","5","5","6","6","1","4","4","3","4","3","7","4","7","6","7","7","7","3","4","5","6","1","5","2","7","6","7","773203800659070978","张","504","Male","[""好我"",""坏我"",""好他"",""坏他""]","[""强我"",""弱我"",""强他"",""弱他""]","","","","","","","","no","","","","","","","","","SRET","EW_formal","","key","j","20.837037037036893","683","380","自己","小人","Negative","morality","","","","","","","","","","",""
"571","","j","psychophysics","52","284466","0.0-7.0-3.0-0.38","5","4","4","3","5","5","2","4","5","5","5","2","1","0","-1","-1","0","1","1","5","5","5","1","5","4","4","4","5","4","5","5","5","5","3","3","4","6","6","5","6","3","5","5","2","6","3","5","4","1","4","3","5","5","5","6","6","1","4","4","3","4","3","7","4","7","6","7","7","7","3","4","5","6","1","5","2","7","6","7","773203800659070978","张","504","Male","[""好我"",""坏我"",""好他"",""坏他""]","[""强我"",""弱我"",""强他"",""弱他""]","","","","","","","","no","","","","","","","","","SRET","EW_formal","","key","j","20.834666666666354","683","380","自己","邪恶","Negative","morality","","","","","","","","","","",""
"1083","","f","psychophysics","53","286551","0.0-7.0-3.0-0.39","5","4","4","3","5","5","2","4","5","5","5","2","1","0","-1","-1","0","1","1","5","5","5","1","5","4","4","4","5","4","5","5","5","5","3","3","4","6","6","5","6","3","5","5","2","6","3","5","4","1","4","3","5","5","5","6","6","1","4","4","3","4","3","7","4","7","6","7","7","7","3","4","5","6","1","5","2","7","6","7","773203800659070978","张","504","Male","[""好我"",""坏我"",""好他"",""坏他""]","[""强我"",""弱我"",""强他"",""弱他""]","","","","","","","","yes","","","","","","","","","SRET","EW_formal","","key","f","20.833333333333332","683","380","朋友","思辨","Positive","ability","","","","","","","","","","",""
"796","","f","psychophysics","54","288349","0.0-7.0-3.0-0.40","5","4","4","3","5","5","2","4","5","5","5","2","1","0","-1","-1","0","1","1","5","5","5","1","5","4","4","4","5","4","5","5","5","5","3","3","4","6","6","5","6","3","5","5","2","6","3","5","4","1","4","3","5","5","5","6","6","1","4","4","3","4","3","7","4","7","6","7","7","7","3","4","5","6","1","5","2","7","6","7","773203800659070978","张","504","Male","[""好我"",""坏我"",""好他"",""坏他""]","[""强我"",""弱我"",""强他"",""弱他""]","","","","","","","","yes","","","","","","","","","SRET","EW_formal","","key","f","20.836470588235706","683","380","朋友","爱国","Positive","morality","","","","","","","","","","",""
"953","","f","psychophysics","55","290304","0.0-7.0-3.0-0.41","5","4","4","3","5","5","2","4","5","5","5","2","1","0","-1","-1","0","1","1","5","5","5","1","5","4","4","4","5","4","5","5","5","5","3","3","4","6","6","5","6","3","5","5","2","6","3","5","4","1","4","3","5","5","5","6","6","1","4","4","3","4","3","7","4","7","6","7","7","7","3","4","5","6","1","5","2","7","6","7","773203800659070978","张","504","Male","[""好我"",""坏我"",""好他"",""坏他""]","[""强我"",""弱我"",""强他"",""弱他""]","","","","","","","","yes","","","","","","","","","SRET","EW_formal","","key","f","20.83225806451638","683","380","自己","拖延","Negative","ability","","","","","","","","","","",""
"1000","","f","psychophysics","56","292305","0.0-7.0-3.0-0.42","5","4","4","3","5","5","2","4","5","5","5","2","1","0","-1","-1","0","1","1","5","5","5","1","5","4","4","4","5","4","5","5","5","5","3","3","4","6","6","5","6","3","5","5","2","6","3","5","4","1","4","3","5","5","5","6","6","1","4","4","3","4","3","7","4","7","6","7","7","7","3","4","5","6","1","5","2","7","6","7","773203800659070978","张","504","Male","[""好我"",""坏我"",""好他"",""坏他""]","[""强我"",""弱我"",""强他"",""弱他""]","","","","","","","","yes","","","","","","","","","SRET","EW_formal","","key","f","20.83473684210514","683","380","朋友","果断","Positive","ability","","","","","","","","","","",""
"834","","f","psychophysics","57","294142","0.0-7.0-3.0-0.43","5","4","4","3","5","5","2","4","5","5","5","2","1","0","-1","-1","0","1","1","5","5","5","1","5","4","4","4","5","4","5","5","5","5","3","3","4","6","6","5","6","3","5","5","2","6","3","5","4","1","4","3","5","5","5","6","6","1","4","4","3","4","3","7","4","7","6","7","7","7","3","4","5","6","1","5","2","7","6","7","773203800659070978","张","504","Male","[""好我"",""坏我"",""好他"",""坏他""]","[""强我"",""弱我"",""强他"",""弱他""]","","","","","","","","yes","","","","","","","","","SRET","EW_formal","","key","f","20.833333333333332","683","380","朋友","敬业","Positive","morality","","","","","","","","","","",""
"1129","","f","psychophysics","58","296273","0.0-7.0-3.0-0.44","5","4","4","3","5","5","2","4","5","5","5","2","1","0","-1","-1","0","1","1","5","5","5","1","5","4","4","4","5","4","5","5","5","5","3","3","4","6","6","5","6","3","5","5","2","6","3","5","4","1","4","3","5","5","5","6","6","1","4","4","3","4","3","7","4","7","6","7","7","7","3","4","5","6","1","5","2","7","6","7","773203800659070978","张","504","Male","[""好我"",""坏我"",""好他"",""坏他""]","[""强我"",""弱我"",""强他"",""弱他""]","","","","","","","","yes","","","","","","","","","SRET","EW_formal","","key","f","20.833663366336747","683","380","自己","草率","Negative","ability","","","","","","","","","","",""
"699","","f","psychophysics","59","297972","0.0-7.0-3.0-0.45","5","4","4","3","5","5","2","4","5","5","5","2","1","0","-1","-1","0","1","1","5","5","5","1","5","4","4","4","5","4","5","5","5","5","3","3","4","6","6","5","6","3","5","5","2","6","3","5","4","1","4","3","5","5","5","6","6","1","4","4","3","4","3","7","4","7","6","7","7","7","3","4","5","6","1","5","2","7","6","7","773203800659070978","张","504","Male","[""好我"",""坏我"",""好他"",""坏他""]","[""强我"",""弱我"",""强他"",""弱他""]","","","","","","","","yes","","","","","","","","","SRET","EW_formal","","key","f","20.835802469135945","683","380","自己","专注","Positive","ability","","","","","","","","","","",""
"1349","","f","psychophysics","60","300322","0.0-7.0-3.0-0.46","5","4","4","3","5","5","2","4","5","5","5","2","1","0","-1","-1","0","1","1","5","5","5","1","5","4","4","4","5","4","5","5","5","5","3","3","4","6","6","5","6","3","5","5","2","6","3","5","4","1","4","3","5","5","5","6","6","1","4","4","3","4","3","7","4","7","6","7","7","7","3","4","5","6","1","5","2","7","6","7","773203800659070978","张","504","Male","[""好我"",""坏我"",""好他"",""坏他""]","[""强我"",""弱我"",""强他"",""弱他""]","","","","","","","","yes","","","","","","","","","SRET","EW_formal","","key","f","20.834821428571427","683","380","自己","智慧","Positive","ability","","","","","","","","","","",""
"755","","f","psychophysics","61","302079","0.0-7.0-3.0-0.47","5","4","4","3","5","5","2","4","5","5","5","2","1","0","-1","-1","0","1","1","5","5","5","1","5","4","4","4","5","4","5","5","5","5","3","3","4","6","6","5","6","3","5","5","2","6","3","5","4","1","4","3","5","5","5","6","6","1","4","4","3","4","3","7","4","7","6","7","7","7","3","4","5","6","1","5","2","7","6","7","773203800659070978","张","504","Male","[""好我"",""坏我"",""好他"",""坏他""]","[""强我"",""弱我"",""强他"",""弱他""]","","","","","","","","yes","","","","","","","","","SRET","EW_formal","","key","f","20.833734939759175","683","380","自己","奉献","Positive","morality","","","","","","","","","","",""
"1040","","j","psychophysics","62","304120","0.0-7.0-3.0-0.48","5","4","4","3","5","5","2","4","5","5","5","2","1","0","-1","-1","0","1","1","5","5","5","1","5","4","4","4","5","4","5","5","5","5","3","3","4","6","6","5","6","3","5","5","2","6","3","5","4","1","4","3","5","5","5","6","6","1","4","4","3","4","3","7","4","7","6","7","7","7","3","4","5","6","1","5","2","7","6","7","773203800659070978","张","504","Male","[""好我"",""坏我"",""好他"",""坏他""]","[""强我"",""弱我"",""强他"",""弱他""]","","","","","","","","no","","","","","","","","","SRET","EW_formal","","key","j","20.83402061855694","683","380","自己","毛糙","Negative","ability","","","","","","","","","","",""
"1193","","j","psychophysics","63","306316","0.0-7.0-3.0-0.49","5","4","4","3","5","5","2","4","5","5","5","2","1","0","-1","-1","0","1","1","5","5","5","1","5","4","4","4","5","4","5","5","5","5","3","3","4","6","6","5","6","3","5","5","2","6","3","5","4","1","4","3","5","5","5","6","6","1","4","4","3","4","3","7","4","7","6","7","7","7","3","4","5","6","1","5","2","7","6","7","773203800659070978","张","504","Male","[""好我"",""坏我"",""好他"",""坏他""]","[""强我"",""弱我"",""强他"",""弱他""]","","","","","","","","no","","","","","","","","","SRET","EW_formal","","key","j","20.833653846153958","683","380","自己","无知","Negative","ability","","","","","","","","","","",""
"754","","j","psychophysics","64","308074","0.0-7.0-3.0-0.50","5","4","4","3","5","5","2","4","5","5","5","2","1","0","-1","-1","0","1","1","5","5","5","1","5","4","4","4","5","4","5","5","5","5","3","3","4","6","6","5","6","3","5","5","2","6","3","5","4","1","4","3","5","5","5","6","6","1","4","4","3","4","3","7","4","7","6","7","7","7","3","4","5","6","1","5","2","7","6","7","773203800659070978","张","504","Male","[""好我"",""坏我"",""好他"",""坏他""]","[""强我"",""弱我"",""强他"",""弱他""]","","","","","","","","no","","","","","","","","","SRET","EW_formal","","key","j","20.835714285714424","683","380","自己","怠惰","Negative","ability","","","","","","","","","","",""
"993","","f","psychophysics","65","310069","0.0-7.0-3.0-0.51","5","4","4","3","5","5","2","4","5","5","5","2","1","0","-1","-1","0","1","1","5","5","5","1","5","4","4","4","5","4","5","5","5","5","3","3","4","6","6","5","6","3","5","5","2","6","3","5","4","1","4","3","5","5","5","6","6","1","4","4","3","4","3","7","4","7","6","7","7","7","3","4","5","6","1","5","2","7","6","7","773203800659070978","张","504","Male","[""好我"",""坏我"",""好他"",""坏他""]","[""强我"",""弱我"",""强他"",""弱他""]","","","","","","","","yes","","","","","","","","","SRET","EW_formal","","key","f","20.834042553191736","683","380","朋友","君子","Positive","morality","","","","","","","","","","",""
"688","","j","psychophysics","66","311759","0.0-7.0-3.0-0.52","5","4","4","3","5","5","2","4","5","5","5","2","1","0","-1","-1","0","1","1","5","5","5","1","5","4","4","4","5","4","5","5","5","5","3","3","4","6","6","5","6","3","5","5","2","6","3","5","4","1","4","3","5","5","5","6","6","1","4","4","3","4","3","7","4","7","6","7","7","7","3","4","5","6","1","5","2","7","6","7","773203800659070978","张","504","Male","[""好我"",""坏我"",""好他"",""坏他""]","[""强我"",""弱我"",""强他"",""弱他""]","","","","","","","","no","","","","","","","","","SRET","EW_formal","","key","j","20.832098765432388","683","380","自己","奸险","Negative","morality","","","","","","","","","","",""
"875","","f","psychophysics","67","313637","0.0-7.0-3.0-0.53","5","4","4","3","5","5","2","4","5","5","5","2","1","0","-1","-1","0","1","1","5","5","5","1","5","4","4","4","5","4","5","5","5","5","3","3","4","6","6","5","6","3","5","5","2","6","3","5","4","1","4","3","5","5","5","6","6","1","4","4","3","4","3","7","4","7","6","7","7","7","3","4","5","6","1","5","2","7","6","7","773203800659070978","张","504","Male","[""好我"",""坏我"",""好他"",""坏他""]","[""强我"",""弱我"",""强他"",""弱他""]","","","","","","","","yes","","","","","","","","","SRET","EW_formal","","key","f","20.834831460674682","683","380","朋友","努力","Positive","ability","","","","","","","","","","",""
"1156","","f","psychophysics","68","315795","0.0-7.0-3.0-0.54","5","4","4","3","5","5","2","4","5","5","5","2","1","0","-1","-1","0","1","1","5","5","5","1","5","4","4","4","5","4","5","5","5","5","3","3","4","6","6","5","6","3","5","5","2","6","3","5","4","1","4","3","5","5","5","6","6","1","4","4","3","4","3","7","4","7","6","7","7","7","3","4","5","6","1","5","2","7","6","7","773203800659070978","张","504","Male","[""好我"",""坏我"",""好他"",""坏他""]","[""强我"",""弱我"",""强他"",""弱他""]","","","","","","","","yes","","","","","","","","","SRET","EW_formal","","key","f","20.833333333333332","683","380","自己","利落","Positive","ability","","","","","","","","","","",""
"697","","f","psychophysics","69","317493","0.0-7.0-3.0-0.55","5","4","4","3","5","5","2","4","5","5","5","2","1","0","-1","-1","0","1","1","5","5","5","1","5","4","4","4","5","4","5","5","5","5","3","3","4","6","6","5","6","3","5","5","2","6","3","5","4","1","4","3","5","5","5","6","6","1","4","4","3","4","3","7","4","7","6","7","7","7","3","4","5","6","1","5","2","7","6","7","773203800659070978","张","504","Male","[""好我"",""坏我"",""好他"",""坏他""]","[""强我"",""弱我"",""强他"",""弱他""]","","","","","","","","yes","","","","","","","","","SRET","EW_formal","","key","f","20.835802469135945","683","380","自己","好心","Positive","morality","","","","","","","","","","",""
"842","","f","psychophysics","70","319338","0.0-7.0-3.0-0.56","5","4","4","3","5","5","2","4","5","5","5","2","1","0","-1","-1","0","1","1","5","5","5","1","5","4","4","4","5","4","5","5","5","5","3","3","4","6","6","5","6","3","5","5","2","6","3","5","4","1","4","3","5","5","5","6","6","1","4","4","3","4","3","7","4","7","6","7","7","7","3","4","5","6","1","5","2","7","6","7","773203800659070978","张","504","Male","[""好我"",""坏我"",""好他"",""坏他""]","[""强我"",""弱我"",""强他"",""弱他""]","","","","","","","","yes","","","","","","","","","SRET","EW_formal","","key","f","20.83563218390818","683","380","朋友","坦荡","Positive","morality","","","","","","","","","","",""
"731","","f","psychophysics","71","321072","0.0-7.0-3.0-0.57","5","4","4","3","5","5","2","4","5","5","5","2","1","0","-1","-1","0","1","1","5","5","5","1","5","4","4","4","5","4","5","5","5","5","3","3","4","6","6","5","6","3","5","5","2","6","3","5","4","1","4","3","5","5","5","6","6","1","4","4","3","4","3","7","4","7","6","7","7","7","3","4","5","6","1","5","2","7","6","7","773203800659070978","张","504","Male","[""好我"",""坏我"",""好他"",""坏他""]","[""强我"",""弱我"",""强他"",""弱他""]","","","","","","","","yes","","","","","","","","","SRET","EW_formal","","key","f","20.834939759036704","683","380","朋友","高洁","Positive","morality","","","","","","","","","","",""
"1164","","f","psychophysics","72","323238","0.0-7.0-3.0-0.58","5","4","4","3","5","5","2","4","5","5","5","2","1","0","-1","-1","0","1","1","5","5","5","1","5","4","4","4","5","4","5","5","5","5","3","3","4","6","6","5","6","3","5","5","2","6","3","5","4","1","4","3","5","5","5","6","6","1","4","4","3","4","3","7","4","7","6","7","7","7","3","4","5","6","1","5","2","7","6","7","773203800659070978","张","504","Male","[""好我"",""坏我"",""好他"",""坏他""]","[""强我"",""弱我"",""强他"",""弱他""]","","","","","","","","yes","","","","","","","","","SRET","EW_formal","","key","f","20.83689320388361","683","380","自己","果决","Positive","ability","","","","","","","","","","",""
"1143","","j","psychophysics","73","325383","0.0-7.0-3.0-0.59","5","4","4","3","5","5","2","4","5","5","5","2","1","0","-1","-1","0","1","1","5","5","5","1","5","4","4","4","5","4","5","5","5","5","3","3","4","6","6","5","6","3","5","5","2","6","3","5","4","1","4","3","5","5","5","6","6","1","4","4","3","4","3","7","4","7","6","7","7","7","3","4","5","6","1","5","2","7","6","7","773203800659070978","张","504","Male","[""好我"",""坏我"",""好他"",""坏他""]","[""强我"",""弱我"",""强他"",""弱他""]","","","","","","","","no","","","","","","","","","SRET","EW_formal","","key","j","20.833333333333332","683","380","自己","学霸","Positive","ability","","","","","","","","","","",""
"1021","","j","psychophysics","74","327406","0.0-7.0-3.0-0.60","5","4","4","3","5","5","2","4","5","5","5","2","1","0","-1","-1","0","1","1","5","5","5","1","5","4","4","4","5","4","5","5","5","5","3","3","4","6","6","5","6","3","5","5","2","6","3","5","4","1","4","3","5","5","5","6","6","1","4","4","3","4","3","7","4","7","6","7","7","7","3","4","5","6","1","5","2","7","6","7","773203800659070978","张","504","Male","[""好我"",""坏我"",""好他"",""坏他""]","[""强我"",""弱我"",""强他"",""弱他""]","","","","","","","","no","","","","","","","","","SRET","EW_formal","","key","j","20.833333333333332","683","380","朋友","无能","Negative","ability","","","","","","","","","","",""
"1372","","f","psychophysics","75","329780","0.0-7.0-3.0-0.61","5","4","4","3","5","5","2","4","5","5","5","2","1","0","-1","-1","0","1","1","5","5","5","1","5","4","4","4","5","4","5","5","5","5","3","3","4","6","6","5","6","3","5","5","2","6","3","5","4","1","4","3","5","5","5","6","6","1","4","4","3","4","3","7","4","7","6","7","7","7","3","4","5","6","1","5","2","7","6","7","773203800659070978","张","504","Male","[""好我"",""坏我"",""好他"",""坏他""]","[""强我"",""弱我"",""强他"",""弱他""]","","","","","","","","yes","","","","","","","","","SRET","EW_formal","","key","f","20.834513274336697","683","380","自己","新手","Negative","ability","","","","","","","","","","",""
"826","","f","psychophysics","76","331606","0.0-7.0-3.0-0.62","5","4","4","3","5","5","2","4","5","5","5","2","1","0","-1","-1","0","1","1","5","5","5","1","5","4","4","4","5","4","5","5","5","5","3","3","4","6","6","5","6","3","5","5","2","6","3","5","4","1","4","3","5","5","5","6","6","1","4","4","3","4","3","7","4","7","6","7","7","7","3","4","5","6","1","5","2","7","6","7","773203800659070978","张","504","Male","[""好我"",""坏我"",""好他"",""坏他""]","[""强我"",""弱我"",""强他"",""弱他""]","","","","","","","","yes","","","","","","","","","SRET","EW_formal","","key","f","20.833720930232694","683","380","自己","沉着","Positive","ability","","","","","","","","","","",""
"692","","j","psychophysics","77","333301","0.0-7.0-3.0-0.63","5","4","4","3","5","5","2","4","5","5","5","2","1","0","-1","-1","0","1","1","5","5","5","1","5","4","4","4","5","4","5","5","5","5","3","3","4","6","6","5","6","3","5","5","2","6","3","5","4","1","4","3","5","5","5","6","6","1","4","4","3","4","3","7","4","7","6","7","7","7","3","4","5","6","1","5","2","7","6","7","773203800659070978","张","504","Male","[""好我"",""坏我"",""好他"",""坏他""]","[""强我"",""弱我"",""强他"",""弱他""]","","","","","","","","no","","","","","","","","","SRET","EW_formal","","key","j","20.834567901234998","683","380","自己","愚痴","Negative","ability","","","","","","","","","","",""
"1145","","j","psychophysics","78","335448","0.0-7.0-3.0-0.64","5","4","4","3","5","5","2","4","5","5","5","2","1","0","-1","-1","0","1","1","5","5","5","1","5","4","4","4","5","4","5","5","5","5","3","3","4","6","6","5","6","3","5","5","2","6","3","5","4","1","4","3","5","5","5","6","6","1","4","4","3","4","3","7","4","7","6","7","7","7","3","4","5","6","1","5","2","7","6","7","773203800659070978","张","504","Male","[""好我"",""坏我"",""好他"",""坏他""]","[""强我"",""弱我"",""强他"",""弱他""]","","","","","","","","no","","","","","","","","","SRET","EW_formal","","key","j","20.833333333333332","683","380","朋友","虚假","Negative","morality","","","","","","","","","","",""
"1041","","j","psychophysics","79","337490","0.0-7.0-3.0-0.65","5","4","4","3","5","5","2","4","5","5","5","2","1","0","-1","-1","0","1","1","5","5","5","1","5","4","4","4","5","4","5","5","5","5","3","3","4","6","6","5","6","3","5","5","2","6","3","5","4","1","4","3","5","5","5","6","6","1","4","4","3","4","3","7","4","7","6","7","7","7","3","4","5","6","1","5","2","7","6","7","773203800659070978","张","504","Male","[""好我"",""坏我"",""好他"",""坏他""]","[""强我"",""弱我"",""强他"",""弱他""]","","","","","","","","no","","","","","","","","","SRET","EW_formal","","key","j","20.83402061855694","683","380","自己","骁勇","Positive","ability","","","","","","","","","","",""
"722","","j","psychophysics","80","339214","0.0-7.0-3.0-0.66","5","4","4","3","5","5","2","4","5","5","5","2","1","0","-1","-1","0","1","1","5","5","5","1","5","4","4","4","5","4","5","5","5","5","3","3","4","6","6","5","6","3","5","5","2","6","3","5","4","1","4","3","5","5","5","6","6","1","4","4","3","4","3","7","4","7","6","7","7","7","3","4","5","6","1","5","2","7","6","7","773203800659070978","张","504","Male","[""好我"",""坏我"",""好他"",""坏他""]","[""强我"",""弱我"",""强他"",""弱他""]","","","","","","","","no","","","","","","","","","SRET","EW_formal","","key","j","20.83456790123428","683","380","朋友","虚伪","Negative","morality","","","","","","","","","","",""
"1034","","f","psychophysics","81","341251","0.0-7.0-3.0-0.67","5","4","4","3","5","5","2","4","5","5","5","2","1","0","-1","-1","0","1","1","5","5","5","1","5","4","4","4","5","4","5","5","5","5","3","3","4","6","6","5","6","3","5","5","2","6","3","5","4","1","4","3","5","5","5","6","6","1","4","4","3","4","3","7","4","7","6","7","7","7","3","4","5","6","1","5","2","7","6","7","773203800659070978","张","504","Male","[""好我"",""坏我"",""好他"",""坏他""]","[""强我"",""弱我"",""强他"",""弱他""]","","","","","","","","yes","","","","","","","","","SRET","EW_formal","","key","f","20.83402061855694","683","380","朋友","细心","Positive","ability","","","","","","","","","","",""
"1196","","f","psychophysics","82","343451","0.0-7.0-3.0-0.68","5","4","4","3","5","5","2","4","5","5","5","2","1","0","-1","-1","0","1","1","5","5","5","1","5","4","4","4","5","4","5","5","5","5","3","3","4","6","6","5","6","3","5","5","2","6","3","5","4","1","4","3","5","5","5","6","6","1","4","4","3","4","3","7","4","7","6","7","7","7","3","4","5","6","1","5","2","7","6","7","773203800659070978","张","504","Male","[""好我"",""坏我"",""好他"",""坏他""]","[""强我"",""弱我"",""强他"",""弱他""]","","","","","","","","yes","","","","","","","","","SRET","EW_formal","","key","f","20.835238095238207","683","380","自己","有力","Positive","ability","","","","","","","","","","",""
"1224","","j","psychophysics","83","345678","0.0-7.0-3.0-0.69","5","4","4","3","5","5","2","4","5","5","5","2","1","0","-1","-1","0","1","1","5","5","5","1","5","4","4","4","5","4","5","5","5","5","3","3","4","6","6","5","6","3","5","5","2","6","3","5","4","1","4","3","5","5","5","6","6","1","4","4","3","4","3","7","4","7","6","7","7","7","3","4","5","6","1","5","2","7","6","7","773203800659070978","张","504","Male","[""好我"",""坏我"",""好他"",""坏他""]","[""强我"",""弱我"",""强他"",""弱他""]","","","","","","","","no","","","","","","","","","SRET","EW_formal","","key","j","20.835849056604104","683","380","朋友","才尽","Negative","ability","","","","","","","","","","",""
"773","","j","psychophysics","84","347452","0.0-7.0-3.0-0.70","5","4","4","3","5","5","2","4","5","5","5","2","1","0","-1","-1","0","1","1","5","5","5","1","5","4","4","4","5","4","5","5","5","5","3","3","4","6","6","5","6","3","5","5","2","6","3","5","4","1","4","3","5","5","5","6","6","1","4","4","3","4","3","7","4","7","6","7","7","7","3","4","5","6","1","5","2","7","6","7","773203800659070978","张","504","Male","[""好我"",""坏我"",""好他"",""坏他""]","[""强我"",""弱我"",""强他"",""弱他""]","","","","","","","","no","","","","","","","","","SRET","EW_formal","","key","j","20.832142857143133","683","380","朋友","贪腐","Negative","morality","","","","","","","","","","",""
"754","","f","psychophysics","85","349208","0.0-7.0-3.0-0.71","5","4","4","3","5","5","2","4","5","5","5","2","1","0","-1","-1","0","1","1","5","5","5","1","5","4","4","4","5","4","5","5","5","5","3","3","4","6","6","5","6","3","5","5","2","6","3","5","4","1","4","3","5","5","5","6","6","1","4","4","3","4","3","7","4","7","6","7","7","7","3","4","5","6","1","5","2","7","6","7","773203800659070978","张","504","Male","[""好我"",""坏我"",""好他"",""坏他""]","[""强我"",""弱我"",""强他"",""弱他""]","","","","","","","","yes","","","","","","","","","SRET","EW_formal","","key","f","20.834939759036004","683","380","朋友","忠诚","Positive","morality","","","","","","","","","","",""
"741","","j","psychophysics","86","350950","0.0-7.0-3.0-0.72","5","4","4","3","5","5","2","4","5","5","5","2","1","0","-1","-1","0","1","1","5","5","5","1","5","4","4","4","5","4","5","5","5","5","3","3","4","6","6","5","6","3","5","5","2","6","3","5","4","1","4","3","5","5","5","6","6","1","4","4","3","4","3","7","4","7","6","7","7","7","3","4","5","6","1","5","2","7","6","7","773203800659070978","张","504","Male","[""好我"",""坏我"",""好他"",""坏他""]","[""强我"",""弱我"",""强他"",""弱他""]","","","","","","","","no","","","","","","","","","SRET","EW_formal","","key","j","20.834939759036004","683","380","朋友","缺德","Negative","morality","","","","","","","","","","",""
"1549","","j","psychophysics","87","353500","0.0-7.0-3.0-0.73","5","4","4","3","5","5","2","4","5","5","5","2","1","0","-1","-1","0","1","1","5","5","5","1","5","4","4","4","5","4","5","5","5","5","3","3","4","6","6","5","6","3","5","5","2","6","3","5","4","1","4","3","5","5","5","6","6","1","4","4","3","4","3","7","4","7","6","7","7","7","3","4","5","6","1","5","2","7","6","7","773203800659070978","张","504","Male","[""好我"",""坏我"",""好他"",""坏他""]","[""强我"",""弱我"",""强他"",""弱他""]","","","","","","","","no","","","","","","","","","SRET","EW_formal","","key","j","20.83553719008245","683","380","朋友","差生","Negative","ability","","","","","","","","","","",""
"703","","j","psychophysics","88","355204","0.0-7.0-3.0-0.74","5","4","4","3","5","5","2","4","5","5","5","2","1","0","-1","-1","0","1","1","5","5","5","1","5","4","4","4","5","4","5","5","5","5","3","3","4","6","6","5","6","3","5","5","2","6","3","5","4","1","4","3","5","5","5","6","6","1","4","4","3","4","3","7","4","7","6","7","7","7","3","4","5","6","1","5","2","7","6","7","773203800659070978","张","504","Male","[""好我"",""坏我"",""好他"",""坏他""]","[""强我"",""弱我"",""强他"",""弱他""]","","","","","","","","no","","","","","","","","","SRET","EW_formal","","key","j","20.83456790123428","683","380","朋友","弱智","Negative","ability","","","","","","","","","","",""
"837","","f","psychophysics","89","357043","0.0-7.0-3.0-0.75","5","4","4","3","5","5","2","4","5","5","5","2","1","0","-1","-1","0","1","1","5","5","5","1","5","4","4","4","5","4","5","5","5","5","3","3","4","6","6","5","6","3","5","5","2","6","3","5","4","1","4","3","5","5","5","6","6","1","4","4","3","4","3","7","4","7","6","7","7","7","3","4","5","6","1","5","2","7","6","7","773203800659070978","张","504","Male","[""好我"",""坏我"",""好他"",""坏他""]","[""强我"",""弱我"",""强他"",""弱他""]","","","","","","","","yes","","","","","","","","","SRET","EW_formal","","key","f","20.833333333333332","683","380","朋友","肯干","Positive","ability","","","","","","","","","","",""
"891","","j","psychophysics","90","358934","0.0-7.0-3.0-0.76","5","4","4","3","5","5","2","4","5","5","5","2","1","0","-1","-1","0","1","1","5","5","5","1","5","4","4","4","5","4","5","5","5","5","3","3","4","6","6","5","6","3","5","5","2","6","3","5","4","1","4","3","5","5","5","6","6","1","4","4","3","4","3","7","4","7","6","7","7","7","3","4","5","6","1","5","2","7","6","7","773203800659070978","张","504","Male","[""好我"",""坏我"",""好他"",""坏他""]","[""强我"",""弱我"",""强他"",""弱他""]","","","","","","","","no","","","","","","","","","SRET","EW_formal","","key","j","20.835555555555686","683","380","朋友","犹豫","Negative","ability","","","","","","","","","","",""
"960","","f","psychophysics","91","360896","0.0-7.0-3.0-0.77","5","4","4","3","5","5","2","4","5","5","5","2","1","0","-1","-1","0","1","1","5","5","5","1","5","4","4","4","5","4","5","5","5","5","3","3","4","6","6","5","6","3","5","5","2","6","3","5","4","1","4","3","5","5","5","6","6","1","4","4","3","4","3","7","4","7","6","7","7","7","3","4","5","6","1","5","2","7","6","7","773203800659070978","张","504","Male","[""好我"",""坏我"",""好他"",""坏他""]","[""强我"",""弱我"",""强他"",""弱他""]","","","","","","","","yes","","","","","","","","","SRET","EW_formal","","key","f","20.834408602150912","683","380","自己","诚信","Positive","morality","","","","","","","","","","",""
"932","","j","psychophysics","92","362828","0.0-7.0-3.0-0.78","5","4","4","3","5","5","2","4","5","5","5","2","1","0","-1","-1","0","1","1","5","5","5","1","5","4","4","4","5","4","5","5","5","5","3","3","4","6","6","5","6","3","5","5","2","6","3","5","4","1","4","3","5","5","5","6","6","1","4","4","3","4","3","7","4","7","6","7","7","7","3","4","5","6","1","5","2","7","6","7","773203800659070978","张","504","Male","[""好我"",""坏我"",""好他"",""坏他""]","[""强我"",""弱我"",""强他"",""弱他""]","","","","","","","","no","","","","","","","","","SRET","EW_formal","","key","j","20.83369565217404","683","380","朋友","无耻","Negative","morality","","","","","","","","","","",""
"871","","f","psychophysics","93","364701","0.0-7.0-3.0-0.79","5","4","4","3","5","5","2","4","5","5","5","2","1","0","-1","-1","0","1","1","5","5","5","1","5","4","4","4","5","4","5","5","5","5","3","3","4","6","6","5","6","3","5","5","2","6","3","5","4","1","4","3","5","5","5","6","6","1","4","4","3","4","3","7","4","7","6","7","7","7","3","4","5","6","1","5","2","7","6","7","773203800659070978","张","504","Male","[""好我"",""坏我"",""好他"",""坏他""]","[""强我"",""弱我"",""强他"",""弱他""]","","","","","","","","yes","","","","","","","","","SRET","EW_formal","","key","f","20.83370786516867","683","380","自己","刚正","Positive","morality","","","","","","","","","","",""
"1249","","j","psychophysics","94","366951","0.0-7.0-3.0-0.80","5","4","4","3","5","5","2","4","5","5","5","2","1","0","-1","-1","0","1","1","5","5","5","1","5","4","4","4","5","4","5","5","5","5","3","3","4","6","6","5","6","3","5","5","2","6","3","5","4","1","4","3","5","5","5","6","6","1","4","4","3","4","3","7","4","7","6","7","7","7","3","4","5","6","1","5","2","7","6","7","773203800659070978","张","504","Male","[""好我"",""坏我"",""好他"",""坏他""]","[""强我"",""弱我"",""强他"",""弱他""]","","","","","","","","no","","","","","","","","","SRET","EW_formal","","key","j","20.83457943925277","683","380","朋友","拙笨","Negative","ability","","","","","","","","","","",""
"1233","","f","psychophysics","95","369185","0.0-7.0-3.0-0.81","5","4","4","3","5","5","2","4","5","5","5","2","1","0","-1","-1","0","1","1","5","5","5","1","5","4","4","4","5","4","5","5","5","5","3","3","4","6","6","5","6","3","5","5","2","6","3","5","4","1","4","3","5","5","5","6","6","1","4","4","3","4","3","7","4","7","6","7","7","7","3","4","5","6","1","5","2","7","6","7","773203800659070978","张","504","Male","[""好我"",""坏我"",""好他"",""坏他""]","[""强我"",""弱我"",""强他"",""弱他""]","","","","","","","","yes","","","","","","","","","SRET","EW_formal","","key","f","20.83207547169822","683","380","朋友","宽容","Positive","morality","","","","","","","","","","",""
"1243","","j","psychophysics","96","371430","0.0-7.0-3.0-0.82","5","4","4","3","5","5","2","4","5","5","5","2","1","0","-1","-1","0","1","1","5","5","5","1","5","4","4","4","5","4","5","5","5","5","3","3","4","6","6","5","6","3","5","5","2","6","3","5","4","1","4","3","5","5","5","6","6","1","4","4","3","4","3","7","4","7","6","7","7","7","3","4","5","6","1","5","2","7","6","7","773203800659070978","张","504","Male","[""好我"",""坏我"",""好他"",""坏他""]","[""强我"",""弱我"",""强他"",""弱他""]","","","","","","","","no","","","","","","","","","SRET","EW_formal","","key","j","20.834579439252227","683","380","朋友","无敌","Positive","ability","","","","","","","","","","",""
"1355","","j","psychophysics","97","373787","0.0-7.0-3.0-0.83","5","4","4","3","5","5","2","4","5","5","5","2","1","0","-1","-1","0","1","1","5","5","5","1","5","4","4","4","5","4","5","5","5","5","3","3","4","6","6","5","6","3","5","5","2","6","3","5","4","1","4","3","5","5","5","6","6","1","4","4","3","4","3","7","4","7","6","7","7","7","3","4","5","6","1","5","2","7","6","7","773203800659070978","张","504","Male","[""好我"",""坏我"",""好他"",""坏他""]","[""强我"",""弱我"",""强他"",""弱他""]","","","","","","","","no","","","","","","","","","SRET","EW_formal","","key","j","20.83392857142826","683","380","自己","失信","Negative","morality","","","","","","","","","","",""
"938","","f","psychophysics","98","375727","0.0-7.0-3.0-0.84","5","4","4","3","5","5","2","4","5","5","5","2","1","0","-1","-1","0","1","1","5","5","5","1","5","4","4","4","5","4","5","5","5","5","3","3","4","6","6","5","6","3","5","5","2","6","3","5","4","1","4","3","5","5","5","6","6","1","4","4","3","4","3","7","4","7","6","7","7","7","3","4","5","6","1","5","2","7","6","7","773203800659070978","张","504","Male","[""好我"",""坏我"",""好他"",""坏他""]","[""强我"",""弱我"",""强他"",""弱他""]","","","","","","","","yes","","","","","","","","","SRET","EW_formal","","key","f","20.833695652173407","683","380","朋友","素养","Positive","morality","","","","","","","","","","",""
"1482","","f","psychophysics","99","378210","0.0-7.0-3.0-0.85","5","4","4","3","5","5","2","4","5","5","5","2","1","0","-1","-1","0","1","1","5","5","5","1","5","4","4","4","5","4","5","5","5","5","3","3","4","6","6","5","6","3","5","5","2","6","3","5","4","1","4","3","5","5","5","6","6","1","4","4","3","4","3","7","4","7","6","7","7","7","3","4","5","6","1","5","2","7","6","7","773203800659070978","张","504","Male","[""好我"",""坏我"",""好他"",""坏他""]","[""强我"",""弱我"",""强他"",""弱他""]","","","","","","","","yes","","","","","","","","","SRET","EW_formal","","key","f","20.83389830508445","683","380","自己","缓慢","Negative","ability","","","","","","","","","","",""
"1492","","f","psychophysics","100","380704","0.0-7.0-3.0-0.86","5","4","4","3","5","5","2","4","5","5","5","2","1","0","-1","-1","0","1","1","5","5","5","1","5","4","4","4","5","4","5","5","5","5","3","3","4","6","6","5","6","3","5","5","2","6","3","5","4","1","4","3","5","5","5","6","6","1","4","4","3","4","3","7","4","7","6","7","7","7","3","4","5","6","1","5","2","7","6","7","773203800659070978","张","504","Male","[""好我"",""坏我"",""好他"",""坏他""]","[""强我"",""弱我"",""强他"",""弱他""]","","","","","","","","yes","","","","","","","","","SRET","EW_formal","","key","f","20.834453781512995","683","380","自己","主见","Positive","ability","","","","","","","","","","",""
"1664","","j","psychophysics","101","383369","0.0-7.0-3.0-0.87","5","4","4","3","5","5","2","4","5","5","5","2","1","0","-1","-1","0","1","1","5","5","5","1","5","4","4","4","5","4","5","5","5","5","3","3","4","6","6","5","6","3","5","5","2","6","3","5","4","1","4","3","5","5","5","6","6","1","4","4","3","4","3","7","4","7","6","7","7","7","3","4","5","6","1","5","2","7","6","7","773203800659070978","张","504","Male","[""好我"",""坏我"",""好他"",""坏他""]","[""强我"",""弱我"",""强他"",""弱他""]","","","","","","","","no","","","","","","","","","SRET","EW_formal","","key","j","20.83307086614164","683","380","朋友","低俗","Negative","morality","","","","","","","","","","",""
"14679","
    <p><div style='color:white;font-size:35px; line-height:20px;'>计算任务</div></p><br>
    <p><div style='color:red;font-size:25px; line-height:20px;'>接下来，您将看到一些四则运算题，<b>请从键盘选择 0-9 进行反应。</b></div></p>
    <p><div style='color:red;font-size:25px; line-height:20px;'>请尽可能快地进行计算，计算的速度和正确率将影响报酬的发放。</div></p>
    <p><div class='footer' style='color:white;font-size:25px; line-height:20px;'>如果对本实验还有不清楚之处，请立即向实验员咨询。</p><p style='color:white;font-size:25px; line-height:20px;'>如果您明白了规则：</p><p style='color:white;font-size:22px; line-height:20px;'>请按 继续 进入练习</p>
    </div>
    ","0","html-button-response","102","398050","0.0-7.0-4.0","5","4","4","3","5","5","2","4","5","5","5","2","1","0","-1","-1","0","1","1","5","5","5","1","5","4","4","4","5","4","5","5","5","5","3","3","4","6","6","5","6","3","5","5","2","6","3","5","4","1","4","3","5","5","5","6","6","1","4","4","3","4","3","7","4","7","6","7","7","7","3","4","5","6","1","5","2","7","6","7","773203800659070978","张","504","Male","[""好我"",""坏我"",""好他"",""坏他""]","[""强我"",""弱我"",""强他"",""弱他""]","","","","","","","","","","","","","","","","","SRET_math","math_instructions","Sun Jan 07 2024 12:47:12 GMT+0800 (中国标准时间)","","","","","","","","","","","","","","","","","","","",""
"2525","","7","psychophysics","103","400579","0.0-7.0-5.0-0.0","5","4","4","3","5","5","2","4","5","5","5","2","1","0","-1","-1","0","1","1","5","5","5","1","5","4","4","4","5","4","5","5","5","5","3","3","4","6","6","5","6","3","5","5","2","6","3","5","4","1","4","3","5","5","5","6","6","1","4","4","3","4","3","7","4","7","6","7","7","7","3","4","5","6","1","5","2","7","6","7","773203800659070978","张","504","Male","[""好我"",""坏我"",""好他"",""坏他""]","[""强我"",""弱我"",""强他"",""弱他""]","","","","","","","","7","","","","","","","","","SRET","SRET_math_calculate","","key","7","20.801652892561982","683","380","","","","","12-5= ?","7","1","","","","","","","",""
"2267","","8","psychophysics","104","402847","0.0-7.0-5.0-0.1","5","4","4","3","5","5","2","4","5","5","5","2","1","0","-1","-1","0","1","1","5","5","5","1","5","4","4","4","5","4","5","5","5","5","3","3","4","6","6","5","6","3","5","5","2","6","3","5","4","1","4","3","5","5","5","6","6","1","4","4","3","4","3","7","4","7","6","7","7","7","3","4","5","6","1","5","2","7","6","7","773203800659070978","张","504","Male","[""好我"",""坏我"",""好他"",""坏他""]","[""强我"",""弱我"",""强他"",""弱他""]","","","","","","","","8","","","","","","","","","SRET","SRET_math_calculate","","key","8","20.835185185185292","683","380","","","","","6+3= ?","9","0","","","","","","","",""
"2431","","3","psychophysics","105","405279","0.0-7.0-5.0-0.2","5","4","4","3","5","5","2","4","5","5","5","2","1","0","-1","-1","0","1","1","5","5","5","1","5","4","4","4","5","4","5","5","5","5","3","3","4","6","6","5","6","3","5","5","2","6","3","5","4","1","4","3","5","5","5","6","6","1","4","4","3","4","3","7","4","7","6","7","7","7","3","4","5","6","1","5","2","7","6","7","773203800659070978","张","504","Male","[""好我"",""坏我"",""好他"",""坏他""]","[""强我"",""弱我"",""强他"",""弱他""]","","","","","","","","3","","","","","","","","","SRET","SRET_math_calculate","","key","3","20.83189655172414","683","380","","","","","3*1= ?","3","1","","","","","","","",""
"2165","","9","psychophysics","106","407447","0.0-7.0-5.0-0.3","5","4","4","3","5","5","2","4","5","5","5","2","1","0","-1","-1","0","1","1","5","5","5","1","5","4","4","4","5","4","5","5","5","5","3","3","4","6","6","5","6","3","5","5","2","6","3","5","4","1","4","3","5","5","5","6","6","1","4","4","3","4","3","7","4","7","6","7","7","7","3","4","5","6","1","5","2","7","6","7","773203800659070978","张","504","Male","[""好我"",""坏我"",""好他"",""坏他""]","[""强我"",""弱我"",""强他"",""弱他""]","","","","","","","","9","","","","","","","","","SRET","SRET_math_calculate","","key","9","20.833009708738317","683","380","","","","","2+7= ?","9","1","","","","","","","",""
"2665","","0","psychophysics","107","410114","0.0-7.0-5.0-0.4","5","4","4","3","5","5","2","4","5","5","5","2","1","0","-1","-1","0","1","1","5","5","5","1","5","4","4","4","5","4","5","5","5","5","3","3","4","6","6","5","6","3","5","5","2","6","3","5","4","1","4","3","5","5","5","6","6","1","4","4","3","4","3","7","4","7","6","7","7","7","3","4","5","6","1","5","2","7","6","7","773203800659070978","张","504","Male","[""好我"",""坏我"",""好他"",""坏他""]","[""强我"",""弱我"",""强他"",""弱他""]","","","","","","","","0","","","","","","","","","SRET","SRET_math_calculate","","key","0","20.833858267716717","683","380","","","","","5*0= ?","0","1","","","","","","","",""
"3005","","5","psychophysics","108","413121","0.0-7.0-5.0-0.5","5","4","4","3","5","5","2","4","5","5","5","2","1","0","-1","-1","0","1","1","5","5","5","1","5","4","4","4","5","4","5","5","5","5","3","3","4","6","6","5","6","3","5","5","2","6","3","5","4","1","4","3","5","5","5","6","6","1","4","4","3","4","3","7","4","7","6","7","7","7","3","4","5","6","1","5","2","7","6","7","773203800659070978","张","504","Male","[""好我"",""坏我"",""好他"",""坏他""]","[""强我"",""弱我"",""强他"",""弱他""]","","","","","","","","5","","","","","","","","","SRET","SRET_math_calculate","","key","5","20.834265734265653","683","380","","","","","5/1= ?","5","1","","","","","","","",""
"2286","","5","psychophysics","109","415408","0.0-7.0-5.0-0.6","5","4","4","3","5","5","2","4","5","5","5","2","1","0","-1","-1","0","1","1","5","5","5","1","5","4","4","4","5","4","5","5","5","5","3","3","4","6","6","5","6","3","5","5","2","6","3","5","4","1","4","3","5","5","5","6","6","1","4","4","3","4","3","7","4","7","6","7","7","7","3","4","5","6","1","5","2","7","6","7","773203800659070978","张","504","Male","[""好我"",""坏我"",""好他"",""坏他""]","[""强我"",""弱我"",""强他"",""弱他""]","","","","","","","","5","","","","","","","","","SRET","SRET_math_calculate","","key","5","20.833027522936206","683","380","","","","","2+3= ?","5","1","","","","","","","",""
"2130","","4","psychophysics","110","417540","0.0-7.0-5.0-0.7","5","4","4","3","5","5","2","4","5","5","5","2","1","0","-1","-1","0","1","1","5","5","5","1","5","4","4","4","5","4","5","5","5","5","3","3","4","6","6","5","6","3","5","5","2","6","3","5","4","1","4","3","5","5","5","6","6","1","4","4","3","4","3","7","4","7","6","7","7","7","3","4","5","6","1","5","2","7","6","7","773203800659070978","张","504","Male","[""好我"",""坏我"",""好他"",""坏他""]","[""强我"",""弱我"",""强他"",""弱他""]","","","","","","","","4","","","","","","","","","SRET","SRET_math_calculate","","key","4","20.833663366336747","683","380","","","","","9-5= ?","4","1","","","","","","","",""
"2466","","3","psychophysics","111","420009","0.0-7.0-5.0-0.8","5","4","4","3","5","5","2","4","5","5","5","2","1","0","-1","-1","0","1","1","5","5","5","1","5","4","4","4","5","4","5","5","5","5","3","3","4","6","6","5","6","3","5","5","2","6","3","5","4","1","4","3","5","5","5","6","6","1","4","4","3","4","3","7","4","7","6","7","7","7","3","4","5","6","1","5","2","7","6","7","773203800659070978","张","504","Male","[""好我"",""坏我"",""好他"",""坏他""]","[""强我"",""弱我"",""强他"",""弱他""]","","","","","","","","3","","","","","","","","","SRET","SRET_math_calculate","","key","3","20.833050847457528","683","380","","","","","6/2= ?","3","1","","","","","","","",""
"2287","","3","psychophysics","112","422298","0.0-7.0-5.0-0.9","5","4","4","3","5","5","2","4","5","5","5","2","1","0","-1","-1","0","1","1","5","5","5","1","5","4","4","4","5","4","5","5","5","5","3","3","4","6","6","5","6","3","5","5","2","6","3","5","4","1","4","3","5","5","5","6","6","1","4","4","3","4","3","7","4","7","6","7","7","7","3","4","5","6","1","5","2","7","6","7","773203800659070978","张","504","Male","[""好我"",""坏我"",""好他"",""坏他""]","[""强我"",""弱我"",""强他"",""弱他""]","","","","","","","","3","","","","","","","","","SRET","SRET_math_calculate","","key","3","20.834259259259042","683","380","","","","","8-5= ?","3","1","","","","","","","",""
"2182","","7","psychophysics","113","424482","0.0-7.0-5.0-0.10","5","4","4","3","5","5","2","4","5","5","5","2","1","0","-1","-1","0","1","1","5","5","5","1","5","4","4","4","5","4","5","5","5","5","3","3","4","6","6","5","6","3","5","5","2","6","3","5","4","1","4","3","5","5","5","6","6","1","4","4","3","4","3","7","4","7","6","7","7","7","3","4","5","6","1","5","2","7","6","7","773203800659070978","张","504","Male","[""好我"",""坏我"",""好他"",""坏他""]","[""强我"",""弱我"",""强他"",""弱他""]","","","","","","","","7","","","","","","","","","SRET","SRET_math_calculate","","key","7","20.834615384615272","683","380","","","","","6+1= ?","7","1","","","","","","","",""
"2182","","6","psychophysics","114","426665","0.0-7.0-5.0-0.11","5","4","4","3","5","5","2","4","5","5","5","2","1","0","-1","-1","0","1","1","5","5","5","1","5","4","4","4","5","4","5","5","5","5","3","3","4","6","6","5","6","3","5","5","2","6","3","5","4","1","4","3","5","5","5","6","6","1","4","4","3","4","3","7","4","7","6","7","7","7","3","4","5","6","1","5","2","7","6","7","773203800659070978","张","504","Male","[""好我"",""坏我"",""好他"",""坏他""]","[""强我"",""弱我"",""强他"",""弱他""]","","","","","","","","6","","","","","","","","","SRET","SRET_math_calculate","","key","6","20.833653846153958","683","380","","","","","3+3= ?","6","1","","","","","","","",""
"2722","","0","psychophysics","115","429388","0.0-7.0-5.0-0.12","5","4","4","3","5","5","2","4","5","5","5","2","1","0","-1","-1","0","1","1","5","5","5","1","5","4","4","4","5","4","5","5","5","5","3","3","4","6","6","5","6","3","5","5","2","6","3","5","4","1","4","3","5","5","5","6","6","1","4","4","3","4","3","7","4","7","6","7","7","7","3","4","5","6","1","5","2","7","6","7","773203800659070978","张","504","Male","[""好我"",""坏我"",""好他"",""坏他""]","[""强我"",""弱我"",""强他"",""弱他""]","","","","","","","","0","","","","","","","","","SRET","SRET_math_calculate","","key","0","20.834615384615386","683","380","","","","","7*0= ?","0","1","","","","","","","",""
"2602","","6","psychophysics","116","431992","0.0-7.0-5.0-0.13","5","4","4","3","5","5","2","4","5","5","5","2","1","0","-1","-1","0","1","1","5","5","5","1","5","4","4","4","5","4","5","5","5","5","3","3","4","6","6","5","6","3","5","5","2","6","3","5","4","1","4","3","5","5","5","6","6","1","4","4","3","4","3","7","4","7","6","7","7","7","3","4","5","6","1","5","2","7","6","7","773203800659070978","张","504","Male","[""好我"",""坏我"",""好他"",""坏他""]","[""强我"",""弱我"",""强他"",""弱他""]","","","","","","","","6","","","","","","","","","SRET","SRET_math_calculate","","key","6","20.833870967742122","683","380","","","","","13-5= ?","8","0","","","","","","","",""
"3011","","0","psychophysics","117","435004","0.0-7.0-5.0-0.14","5","4","4","3","5","5","2","4","5","5","5","2","1","0","-1","-1","0","1","1","5","5","5","1","5","4","4","4","5","4","5","5","5","5","3","3","4","6","6","5","6","3","5","5","2","6","3","5","4","1","4","3","5","5","5","6","6","1","4","4","3","4","3","7","4","7","6","7","7","7","3","4","5","6","1","5","2","7","6","7","773203800659070978","张","504","Male","[""好我"",""坏我"",""好他"",""坏他""]","[""强我"",""弱我"",""强他"",""弱他""]","","","","","","","","0","","","","","","","","","SRET","SRET_math_calculate","","key","0","20.835664335664337","683","380","","","","","1-1= ?","0","1","","","","","","","",""
"2670","","8","psychophysics","118","437675","0.0-7.0-5.0-0.15","5","4","4","3","5","5","2","4","5","5","5","2","1","0","-1","-1","0","1","1","5","5","5","1","5","4","4","4","5","4","5","5","5","5","3","3","4","6","6","5","6","3","5","5","2","6","3","5","4","1","4","3","5","5","5","6","6","1","4","4","3","4","3","7","4","7","6","7","7","7","3","4","5","6","1","5","2","7","6","7","773203800659070978","张","504","Male","[""好我"",""坏我"",""好他"",""坏他""]","[""强我"",""弱我"",""强他"",""弱他""]","","","","","","","","8","","","","","","","","","SRET","SRET_math_calculate","","key","8","20.83359375000009","683","380","","","","","2*4= ?","8","1","","","","","","","",""
"2336","","7","psychophysics","119","440013","0.0-7.0-5.0-0.16","5","4","4","3","5","5","2","4","5","5","5","2","1","0","-1","-1","0","1","1","5","5","5","1","5","4","4","4","5","4","5","5","5","5","3","3","4","6","6","5","6","3","5","5","2","6","3","5","4","1","4","3","5","5","5","6","6","1","4","4","3","4","3","7","4","7","6","7","7","7","3","4","5","6","1","5","2","7","6","7","773203800659070978","张","504","Male","[""好我"",""坏我"",""好他"",""坏他""]","[""强我"",""弱我"",""强他"",""弱他""]","","","","","","","","7","","","","","","","","","SRET","SRET_math_calculate","","key","7","20.83513513513524","683","380","","","","","8-1= ?","7","1","","","","","","","",""
"4744","","5","psychophysics","120","444758","0.0-7.0-5.0-0.17","5","4","4","3","5","5","2","4","5","5","5","2","1","0","-1","-1","0","1","1","5","5","5","1","5","4","4","4","5","4","5","5","5","5","3","3","4","6","6","5","6","3","5","5","2","6","3","5","4","1","4","3","5","5","5","6","6","1","4","4","3","4","3","7","4","7","6","7","7","7","3","4","5","6","1","5","2","7","6","7","773203800659070978","张","504","Male","[""好我"",""坏我"",""好他"",""坏他""]","[""强我"",""弱我"",""强他"",""弱他""]","","","","","","","","5","","","","","","","","","SRET","SRET_math_calculate","","key","5","20.833480176211506","683","380","","","","","14-9= ?","5","1","","","","","","","",""
"2422","","6","psychophysics","121","447181","0.0-7.0-5.0-0.18","5","4","4","3","5","5","2","4","5","5","5","2","1","0","-1","-1","0","1","1","5","5","5","1","5","4","4","4","5","4","5","5","5","5","3","3","4","6","6","5","6","3","5","5","2","6","3","5","4","1","4","3","5","5","5","6","6","1","4","4","3","4","3","7","4","7","6","7","7","7","3","4","5","6","1","5","2","7","6","7","773203800659070978","张","504","Male","[""好我"",""坏我"",""好他"",""坏他""]","[""强我"",""弱我"",""强他"",""弱他""]","","","","","","","","6","","","","","","","","","SRET","SRET_math_calculate","","key","6","20.833043478261274","683","380","","","","","4+2= ?","6","1","","","","","","","",""
"3590","","5","psychophysics","122","450773","0.0-7.0-5.0-0.19","5","4","4","3","5","5","2","4","5","5","5","2","1","0","-1","-1","0","1","1","5","5","5","1","5","4","4","4","5","4","5","5","5","5","3","3","4","6","6","5","6","3","5","5","2","6","3","5","4","1","4","3","5","5","5","6","6","1","4","4","3","4","3","7","4","7","6","7","7","7","3","4","5","6","1","5","2","7","6","7","773203800659070978","张","504","Male","[""好我"",""坏我"",""好他"",""坏他""]","[""强我"",""弱我"",""强他"",""弱他""]","","","","","","","","5","","","","","","","","","SRET","SRET_math_calculate","","key","5","20.833333333333332","683","380","","","","","12-7= ?","5","1","","","","","","","",""
"2321","","4","psychophysics","123","453096","0.0-7.0-5.0-0.20","5","4","4","3","5","5","2","4","5","5","5","2","1","0","-1","-1","0","1","1","5","5","5","1","5","4","4","4","5","4","5","5","5","5","3","3","4","6","6","5","6","3","5","5","2","6","3","5","4","1","4","3","5","5","5","6","6","1","4","4","3","4","3","7","4","7","6","7","7","7","3","4","5","6","1","5","2","7","6","7","773203800659070978","张","504","Male","[""好我"",""坏我"",""好他"",""坏他""]","[""强我"",""弱我"",""强他"",""弱他""]","","","","","","","","4","","","","","","","","","SRET","SRET_math_calculate","","key","4","20.83513513513524","683","380","","","","","3+1= ?","4","1","","","","","","","",""
"2174","","5","psychophysics","124","455271","0.0-7.0-5.0-0.21","5","4","4","3","5","5","2","4","5","5","5","2","1","0","-1","-1","0","1","1","5","5","5","1","5","4","4","4","5","4","5","5","5","5","3","3","4","6","6","5","6","3","5","5","2","6","3","5","4","1","4","3","5","5","5","6","6","1","4","4","3","4","3","7","4","7","6","7","7","7","3","4","5","6","1","5","2","7","6","7","773203800659070978","张","504","Male","[""好我"",""坏我"",""好他"",""坏他""]","[""强我"",""弱我"",""强他"",""弱他""]","","","","","","","","5","","","","","","","","","SRET","SRET_math_calculate","","key","5","20.832038834951568","683","380","","","","","10-5= ?","5","1","","","","","","","",""
"2250","","8","psychophysics","125","457522","0.0-7.0-5.0-0.22","5","4","4","3","5","5","2","4","5","5","5","2","1","0","-1","-1","0","1","1","5","5","5","1","5","4","4","4","5","4","5","5","5","5","3","3","4","6","6","5","6","3","5","5","2","6","3","5","4","1","4","3","5","5","5","6","6","1","4","4","3","4","3","7","4","7","6","7","7","7","3","4","5","6","1","5","2","7","6","7","773203800659070978","张","504","Male","[""好我"",""坏我"",""好他"",""坏他""]","[""强我"",""弱我"",""强他"",""弱他""]","","","","","","","","8","","","","","","","","","SRET","SRET_math_calculate","","key","8","20.833644859813194","683","380","","","","","4*2= ?","8","1","","","","","","","",""
"2172","","9","psychophysics","126","459695","0.0-7.0-5.0-0.23","5","4","4","3","5","5","2","4","5","5","5","2","1","0","-1","-1","0","1","1","5","5","5","1","5","4","4","4","5","4","5","5","5","5","3","3","4","6","6","5","6","3","5","5","2","6","3","5","4","1","4","3","5","5","5","6","6","1","4","4","3","4","3","7","4","7","6","7","7","7","3","4","5","6","1","5","2","7","6","7","773203800659070978","张","504","Male","[""好我"",""坏我"",""好他"",""坏他""]","[""强我"",""弱我"",""强他"",""弱他""]","","","","","","","","9","","","","","","","","","SRET","SRET_math_calculate","","key","9","20.833653846153958","683","380","","","","","7+2= ?","9","1","","","","","","","",""
"2647","","8","psychophysics","127","462344","0.0-7.0-5.0-0.24","5","4","4","3","5","5","2","4","5","5","5","2","1","0","-1","-1","0","1","1","5","5","5","1","5","4","4","4","5","4","5","5","5","5","3","3","4","6","6","5","6","3","5","5","2","6","3","5","4","1","4","3","5","5","5","6","6","1","4","4","3","4","3","7","4","7","6","7","7","7","3","4","5","6","1","5","2","7","6","7","773203800659070978","张","504","Male","[""好我"",""坏我"",""好他"",""坏他""]","[""强我"",""弱我"",""强他"",""弱他""]","","","","","","","","8","","","","","","","","","SRET","SRET_math_calculate","","key","8","20.8341269841268","683","380","","","","","72/9= ?","8","1","","","","","","","",""
"2419","","7","psychophysics","128","464764","0.0-7.0-5.0-0.25","5","4","4","3","5","5","2","4","5","5","5","2","1","0","-1","-1","0","1","1","5","5","5","1","5","4","4","4","5","4","5","5","5","5","3","3","4","6","6","5","6","3","5","5","2","6","3","5","4","1","4","3","5","5","5","6","6","1","4","4","3","4","3","7","4","7","6","7","7","7","3","4","5","6","1","5","2","7","6","7","773203800659070978","张","504","Male","[""好我"",""坏我"",""好他"",""坏他""]","[""强我"",""弱我"",""强他"",""弱他""]","","","","","","","","7","","","","","","","","","SRET","SRET_math_calculate","","key","7","20.833043478261274","683","380","","","","","21/3= ? ","7","1","","","","","","","",""
"2336","","0","psychophysics","129","467101","0.0-7.0-5.0-0.26","5","4","4","3","5","5","2","4","5","5","5","2","1","0","-1","-1","0","1","1","5","5","5","1","5","4","4","4","5","4","5","5","5","5","3","3","4","6","6","5","6","3","5","5","2","6","3","5","4","1","4","3","5","5","5","6","6","1","4","4","3","4","3","7","4","7","6","7","7","7","3","4","5","6","1","5","2","7","6","7","773203800659070978","张","504","Male","[""好我"",""坏我"",""好他"",""坏他""]","[""强我"",""弱我"",""强他"",""弱他""]","","","","","","","","0","","","","","","","","","SRET","SRET_math_calculate","","key","0","20.83513513513524","683","380","","","","","6*0= ?","0","1","","","","","","","",""
"2076","","7","psychophysics","130","469179","0.0-7.0-5.0-0.27","5","4","4","3","5","5","2","4","5","5","5","2","1","0","-1","-1","0","1","1","5","5","5","1","5","4","4","4","5","4","5","5","5","5","3","3","4","6","6","5","6","3","5","5","2","6","3","5","4","1","4","3","5","5","5","6","6","1","4","4","3","4","3","7","4","7","6","7","7","7","3","4","5","6","1","5","2","7","6","7","773203800659070978","张","504","Male","[""好我"",""坏我"",""好他"",""坏他""]","[""强我"",""弱我"",""强他"",""弱他""]","","","","","","","","7","","","","","","","","","SRET","SRET_math_calculate","","key","7","20.833333333333332","683","380","","","","","9-2= ?","7","1","","","","","","","",""
"2630","","2","psychophysics","131","471811","0.0-7.0-5.0-0.28","5","4","4","3","5","5","2","4","5","5","5","2","1","0","-1","-1","0","1","1","5","5","5","1","5","4","4","4","5","4","5","5","5","5","3","3","4","6","6","5","6","3","5","5","2","6","3","5","4","1","4","3","5","5","5","6","6","1","4","4","3","4","3","7","4","7","6","7","7","7","3","4","5","6","1","5","2","7","6","7","773203800659070978","张","504","Male","[""好我"",""坏我"",""好他"",""坏他""]","[""强我"",""弱我"",""强他"",""弱他""]","","","","","","","","2","","","","","","","","","SRET","SRET_math_calculate","","key","2","20.834399999999906","683","380","","","","","29-27= ?","2","1","","","","","","","",""
"2205","","9","psychophysics","132","474017","0.0-7.0-5.0-0.29","5","4","4","3","5","5","2","4","5","5","5","2","1","0","-1","-1","0","1","1","5","5","5","1","5","4","4","4","5","4","5","5","5","5","3","3","4","6","6","5","6","3","5","5","2","6","3","5","4","1","4","3","5","5","5","6","6","1","4","4","3","4","3","7","4","7","6","7","7","7","3","4","5","6","1","5","2","7","6","7","773203800659070978","张","504","Male","[""好我"",""坏我"",""好他"",""坏他""]","[""强我"",""弱我"",""强他"",""弱他""]","","","","","","","","9","","","","","","","","","SRET","SRET_math_calculate","","key","9","20.834285714285492","683","380","","","","","18/2= ?","9","1","","","","","","","",""
"2500","","2","psychophysics","133","476518","0.0-7.0-5.0-0.30","5","4","4","3","5","5","2","4","5","5","5","2","1","0","-1","-1","0","1","1","5","5","5","1","5","4","4","4","5","4","5","5","5","5","3","3","4","6","6","5","6","3","5","5","2","6","3","5","4","1","4","3","5","5","5","6","6","1","4","4","3","4","3","7","4","7","6","7","7","7","3","4","5","6","1","5","2","7","6","7","773203800659070978","张","504","Male","[""好我"",""坏我"",""好他"",""坏他""]","[""强我"",""弱我"",""强他"",""弱他""]","","","","","","","","2","","","","","","","","","SRET","SRET_math_calculate","","key","2","20.831932773109244","683","380","","","","","90/45= ?","2","1","","","","","","","",""
"2083","","9","psychophysics","134","478602","0.0-7.0-5.0-0.31","5","4","4","3","5","5","2","4","5","5","5","2","1","0","-1","-1","0","1","1","5","5","5","1","5","4","4","4","5","4","5","5","5","5","3","3","4","6","6","5","6","3","5","5","2","6","3","5","4","1","4","3","5","5","5","6","6","1","4","4","3","4","3","7","4","7","6","7","7","7","3","4","5","6","1","5","2","7","6","7","773203800659070978","张","504","Male","[""好我"",""坏我"",""好他"",""坏他""]","[""强我"",""弱我"",""强他"",""弱他""]","","","","","","","","9","","","","","","","","","SRET","SRET_math_calculate","","key","9","20.834343434343786","683","380","","","","","5+4= ?","9","1","","","","","","","",""
"2141","","7","psychophysics","135","480745","0.0-7.0-5.0-0.32","5","4","4","3","5","5","2","4","5","5","5","2","1","0","-1","-1","0","1","1","5","5","5","1","5","4","4","4","5","4","5","5","5","5","3","3","4","6","6","5","6","3","5","5","2","6","3","5","4","1","4","3","5","5","5","6","6","1","4","4","3","4","3","7","4","7","6","7","7","7","3","4","5","6","1","5","2","7","6","7","773203800659070978","张","504","Male","[""好我"",""坏我"",""好他"",""坏他""]","[""强我"",""弱我"",""强他"",""弱他""]","","","","","","","","7","","","","","","","","","SRET","SRET_math_calculate","","key","7","20.833333333333332","683","380","","","","","5+2= ?","7","1","","","","","","","",""
"2074","","6","psychophysics","136","482821","0.0-7.0-5.0-0.33","5","4","4","3","5","5","2","4","5","5","5","2","1","0","-1","-1","0","1","1","5","5","5","1","5","4","4","4","5","4","5","5","5","5","3","3","4","6","6","5","6","3","5","5","2","6","3","5","4","1","4","3","5","5","5","6","6","1","4","4","3","4","3","7","4","7","6","7","7","7","3","4","5","6","1","5","2","7","6","7","773203800659070978","张","504","Male","[""好我"",""坏我"",""好他"",""坏他""]","[""强我"",""弱我"",""强他"",""弱他""]","","","","","","","","6","","","","","","","","","SRET","SRET_math_calculate","","key","6","20.834343434343786","683","380","","","","","9-3= ?","6","1","","","","","","","",""
"2406","","7","psychophysics","137","485228","0.0-7.0-5.0-0.34","5","4","4","3","5","5","2","4","5","5","5","2","1","0","-1","-1","0","1","1","5","5","5","1","5","4","4","4","5","4","5","5","5","5","3","3","4","6","6","5","6","3","5","5","2","6","3","5","4","1","4","3","5","5","5","6","6","1","4","4","3","4","3","7","4","7","6","7","7","7","3","4","5","6","1","5","2","7","6","7","773203800659070978","张","504","Male","[""好我"",""坏我"",""好他"",""坏他""]","[""强我"",""弱我"",""强他"",""弱他""]","","","","","","","","7","","","","","","","","","SRET","SRET_math_calculate","","key","7","20.834210526315584","683","380","","","","","13-6= ?","7","1","","","","","","","",""
"2496","","3","psychophysics","138","487726","0.0-7.0-5.0-0.35","5","4","4","3","5","5","2","4","5","5","5","2","1","0","-1","-1","0","1","1","5","5","5","1","5","4","4","4","5","4","5","5","5","5","3","3","4","6","6","5","6","3","5","5","2","6","3","5","4","1","4","3","5","5","5","6","6","1","4","4","3","4","3","7","4","7","6","7","7","7","3","4","5","6","1","5","2","7","6","7","773203800659070978","张","504","Male","[""好我"",""坏我"",""好他"",""坏他""]","[""强我"",""弱我"",""强他"",""弱他""]","","","","","","","","3","","","","","","","","","SRET","SRET_math_calculate","","key","3","20.835294117646765","683","380","","","","","8/4= ?","2","0","","","","","","","",""
"2398","","6","psychophysics","139","490125","0.0-7.0-5.0-0.36","5","4","4","3","5","5","2","4","5","5","5","2","1","0","-1","-1","0","1","1","5","5","5","1","5","4","4","4","5","4","5","5","5","5","3","3","4","6","6","5","6","3","5","5","2","6","3","5","4","1","4","3","5","5","5","6","6","1","4","4","3","4","3","7","4","7","6","7","7","7","3","4","5","6","1","5","2","7","6","7","773203800659070978","张","504","Male","[""好我"",""坏我"",""好他"",""坏他""]","[""强我"",""弱我"",""强他"",""弱他""]","","","","","","","","6","","","","","","","","","SRET","SRET_math_calculate","","key","6","20.833333333333332","683","380","","","","","11-5= ?","6","1","","","","","","","",""
"4558","","4","psychophysics","140","494684","0.0-7.0-5.0-0.37","5","4","4","3","5","5","2","4","5","5","5","2","1","0","-1","-1","0","1","1","5","5","5","1","5","4","4","4","5","4","5","5","5","5","3","3","4","6","6","5","6","3","5","5","2","6","3","5","4","1","4","3","5","5","5","6","6","1","4","4","3","4","3","7","4","7","6","7","7","7","3","4","5","6","1","5","2","7","6","7","773203800659070978","张","504","Male","[""好我"",""坏我"",""好他"",""坏他""]","[""强我"",""弱我"",""强他"",""弱他""]","","","","","","","","4","","","","","","","","","SRET","SRET_math_calculate","","key","4","20.833944954128654","683","380","","","","","13-9= ?","4","1","","","","","","","",""
"2369","","3","psychophysics","141","497055","0.0-7.0-5.0-0.38","5","4","4","3","5","5","2","4","5","5","5","2","1","0","-1","-1","0","1","1","5","5","5","1","5","4","4","4","5","4","5","5","5","5","3","3","4","6","6","5","6","3","5","5","2","6","3","5","4","1","4","3","5","5","5","6","6","1","4","4","3","4","3","7","4","7","6","7","7","7","3","4","5","6","1","5","2","7","6","7","773203800659070978","张","504","Male","[""好我"",""坏我"",""好他"",""坏他""]","[""强我"",""弱我"",""强他"",""弱他""]","","","","","","","","3","","","","","","","","","SRET","SRET_math_calculate","","key","3","20.835398230088188","683","380","","","","","11-8= ?","3","1","","","","","","","",""
"2499","","7","psychophysics","142","499556","0.0-7.0-5.0-0.39","5","4","4","3","5","5","2","4","5","5","5","2","1","0","-1","-1","0","1","1","5","5","5","1","5","4","4","4","5","4","5","5","5","5","3","3","4","6","6","5","6","3","5","5","2","6","3","5","4","1","4","3","5","5","5","6","6","1","4","4","3","4","3","7","4","7","6","7","7","7","3","4","5","6","1","5","2","7","6","7","773203800659070978","张","504","Male","[""好我"",""坏我"",""好他"",""坏他""]","[""强我"",""弱我"",""强他"",""弱他""]","","","","","","","","7","","","","","","","","","SRET","SRET_math_calculate","","key","7","20.8327731092435","683","380","","","","","49/7 = ?","7","1","","","","","","","",""
