"rt","stimulus","response","trial_type","trial_index","time_elapsed","internal_node_id","swb_1","swb_2","swb_3","swb_4","swb_5","LOT_1","LOT_2","LOT_3","LOT_4","LOT_5","LOT_6","IPC_1","IPC_2","IPC_3","IPC_4","IPC_5","IPC_6","IPC_7","IPC_8","MorIden_1","MorIden_2","MorIden_3","MorIden_4","MorIden_5","MorIden_6","MorIden_7","MorIden_8","MorIden_9","MorIden_10","moralSeImag_1","moralSeImag_2","moralSeImag_3","moralSeImag_4","moralSeImag_5","moralSeImag_6","moralSeImag_7","moralSeImag_8","moralSeImag_9","sde_1","sde_2","sde_3","sde_4","sde_5","sde_6","sde_7","sde_8","sde_9","sde_10","trap2","sde_11","sde_12","sde_13","sde_14","sde_15","sde_16","sde_17","sde_18","sde_19","sde_20","IM_1","IM_2","IM_3","IM_4","IM_5","IM_6","IM_7","IM_8","IM_9","IM_10","IM_11","IM_12","IM_13","IM_14","IM_15","IM_16","IM_17","IM_18","IM_19","IM_20","subj_idx","friend_name","ParticipantID","Sex","Word","Word2","value","success","timeout","failed_images","failed_audio","failed_video","user_agent","responses","item_order","radio_event_ids","radio_event_times","key_event_times","mouse_event_times","straightlining","zigzagging","honeypot","view_history","response_type","key_press","avg_frame_time","center_x","center_y","correct_response","correct","identity","Image","word","condition","task_id","screen_id","time_stamp","person","valence","domain","math","status","duration","question_order","trap2_item"
"2545","
   <p><div style='color:white; font-size: 25px'>您好，欢迎参加本次实验。</div></p>
   <p><div style='color:white; font-size: 25px'>为充分保障您的权利，请确保您已经知晓并同意《参与实验同意书》以及《数据公开知情同意书》。</div></p>
   <p><div style='color:white; font-size: 25px'>如果您未见过上述内容，请咨询实验员。</div></p>
   <p style='color:white; font-size: 25px'>如果您选择继续实验，则表示您已经清楚两份知情同意书的内容并同意。</p>
   <p><div style = ""color: pink;font-size:30px;"">请确保您记得day0的实验编号，您将在本次实验输入该编号，若您忘记，请咨询实验员后作答。</div></p>
   <p><div style = ""color:lightblue;font-size:25px;"">请您尽可能认真地作答，我们将依据您在各问卷和按键任务中的作答质量发放报酬。</div></p>
   <p> <div style = ""color: green""><按空格键至下页></div> </p>
   "," ","html-keyboard-response","0","2548","0.0-0.0","6","5","7","6","5","4","4","4","4","5","4","-1","-3","1","0","2","0","1","2","4","5","5","4","4","5","4","4","5","4","8","6","7","7","8","9","7","8","6","5","6","6","7","5","7","6","5","5","6","1","6","6","3","7","5","7","6","5","7","6","3","7","3","6","6","7","5","6","7","6","6","5","7","2","5","6","7","7","6","6","625294467993174016","陈","140","Female","[""坏她"",""坏我"",""好我"",""好她""]","[""弱她"",""弱我"",""强我"",""强她""]","","","","","","","","","","","","","","","","","","","","","","","","","","","","","","","","","","","","","","",""
"","","","call-function","1","2549","0.0-1.0-0.0","6","5","7","6","5","4","4","4","4","5","4","-1","-3","1","0","2","0","1","2","4","5","5","4","4","5","4","4","5","4","8","6","7","7","8","9","7","8","6","5","6","6","7","5","7","6","5","5","6","1","6","6","3","7","5","7","6","5","7","6","3","7","3","6","6","7","5","6","7","6","6","5","7","2","5","6","7","7","6","6","625294467993174016","陈","140","Female","[""坏她"",""坏我"",""好我"",""好她""]","[""弱她"",""弱我"",""强我"",""强她""]","","","","","","","","","","","","","","","","","","","","","","","","","","","","","","","","","","","","","","",""
"62182","","[{""name"":""Sex"",""value"":""1""},{""name"":""friend_name"",""value"":""陈""},{""name"":""ParticipantID"",""value"":""140""}]","survey-html-form","2","64733","0.0-1.0-1.0","6","5","7","6","5","4","4","4","4","5","4","-1","-3","1","0","2","0","1","2","4","5","5","4","4","5","4","4","5","4","8","6","7","7","8","9","7","8","6","5","6","6","7","5","7","6","5","5","6","1","6","6","3","7","5","7","6","5","7","6","3","7","3","6","6","7","5","6","7","6","6","5","7","2","5","6","7","7","6","6","625294467993174016","陈","140","Female","[""坏她"",""坏我"",""好我"",""好她""]","[""弱她"",""弱我"",""强我"",""强她""]","","","","","","","","","","","","","","","","","","","","","","","","","","","","","","","","","","","","","","",""
"","","","preload","3","65311","0.0-2.0","6","5","7","6","5","4","4","4","4","5","4","-1","-3","1","0","2","0","1","2","4","5","5","4","4","5","4","4","5","4","8","6","7","7","8","9","7","8","6","5","6","6","7","5","7","6","5","5","6","1","6","6","3","7","5","7","6","5","7","6","3","7","3","6","6","7","5","6","7","6","6","5","7","2","5","6","7","7","6","6","625294467993174016","陈","140","Female","[""坏她"",""坏我"",""好我"",""好她""]","[""弱她"",""弱我"",""强我"",""强她""]","","true","false","[]","[]","[]","","","","","","","","","","","","","","","","","","","","","","","","","","","","","","","","",""
"","","","fullscreen","4","66500","0.0-3.0","6","5","7","6","5","4","4","4","4","5","4","-1","-3","1","0","2","0","1","2","4","5","5","4","4","5","4","4","5","4","8","6","7","7","8","9","7","8","6","5","6","6","7","5","7","6","5","5","6","1","6","6","3","7","5","7","6","5","7","6","3","7","3","6","6","7","5","6","7","6","6","5","7","2","5","6","7","7","6","6","625294467993174016","陈","140","Female","[""坏她"",""坏我"",""好我"",""好她""]","[""弱她"",""弱我"",""强我"",""强她""]","","true","","","","","{}","","","","","","","","","","","","","","","","","","","","","","","","","","","","","","","",""
"44494.5","","{""Q01"":""6"",""Q02"":""5"",""Q03"":""7"",""Q04"":""6"",""Q05"":""5""}","survey-template","5","111003","0.0-4.0","6","5","7","6","5","4","4","4","4","5","4","-1","-3","1","0","2","0","1","2","4","5","5","4","4","5","4","4","5","4","8","6","7","7","8","9","7","8","6","5","6","6","7","5","7","6","5","5","6","1","6","6","3","7","5","7","6","5","7","6","3","7","3","6","6","7","5","6","7","6","6","5","7","2","5","6","7","7","6","6","625294467993174016","陈","140","Female","[""坏她"",""坏我"",""好我"",""好她""]","[""弱她"",""弱我"",""强我"",""强她""]","","","","","","","","{""Q01"":""6"",""Q02"":""5"",""Q03"":""7"",""Q04"":""6"",""Q05"":""5""}","[0,1,2,3,4]","[""Q01"",""Q02"",""Q03"",""Q04"",""Q05""]","[5429.199999988079,6123.299999952316,7519.099999964237,9019.099999964237,10899]","[]","[5007.299999952316,5429.199999988079,6123.299999952316,7519.099999964237,9019.099999964237,10899,44493.09999996424]","0.4","0.75","0","","","","","","","","","","","","","","","","","","","","","","",""
"125460.30000001192","","{""Q01"":""4"",""Q02"":""4"",""Q03"":""4"",""Q04"":""4"",""Q05"":""5"",""Q06"":""4""}","survey-template","6","236469","0.0-5.0","6","5","7","6","5","4","4","4","4","5","4","-1","-3","1","0","2","0","1","2","4","5","5","4","4","5","4","4","5","4","8","6","7","7","8","9","7","8","6","5","6","6","7","5","7","6","5","5","6","1","6","6","3","7","5","7","6","5","7","6","3","7","3","6","6","7","5","6","7","6","6","5","7","2","5","6","7","7","6","6","625294467993174016","陈","140","Female","[""坏她"",""坏我"",""好我"",""好她""]","[""弱她"",""弱我"",""强我"",""强她""]","","","","","","","","{""Q01"":""4"",""Q02"":""4"",""Q03"":""4"",""Q04"":""4"",""Q05"":""5"",""Q06"":""4""}","[0,1,2,3,4,5]","[""Q01"",""Q02"",""Q03"",""Q04"",""Q05"",""Q06""]","[3493.399999976158,6427.399999976158,7805.599999964237,8837.699999988079,9361.599999964237,12019.599999964237]","[]","[3493.399999976158,6427.399999976158,7805.599999964237,8837.699999988079,9361.599999964237,11633.399999976158,12019.599999964237,125459.39999997616]","0.5","0.2","0","","","","","","","","","","","","","","","","","","","","","","",""
"58456.89999997616","","{""Q01"":""-1"",""Q02"":""-3"",""Q03"":""1"",""Q04"":""0"",""Q05"":""2"",""Q06"":""0"",""Q07"":""1"",""Q08"":""2""}","survey-template","7","294932","0.0-6.0","6","5","7","6","5","4","4","4","4","5","4","-1","-3","1","0","2","0","1","2","4","5","5","4","4","5","4","4","5","4","8","6","7","7","8","9","7","8","6","5","6","6","7","5","7","6","5","5","6","1","6","6","3","7","5","7","6","5","7","6","3","7","3","6","6","7","5","6","7","6","6","5","7","2","5","6","7","7","6","6","625294467993174016","陈","140","Female","[""坏她"",""坏我"",""好我"",""好她""]","[""弱她"",""弱我"",""强我"",""强她""]","","","","","","","","{""Q01"":""-1"",""Q02"":""-3"",""Q03"":""1"",""Q04"":""0"",""Q05"":""2"",""Q06"":""0"",""Q07"":""1"",""Q08"":""2""}","[0,1,2,3,4,5,6,7]","[""Q01"",""Q02"",""Q03"",""Q04"",""Q05"",""Q06"",""Q07"",""Q08""]","[35022.5,40242.5,41736.19999998808,43993.19999998808,45972.30000001192,48120,52312.19999998808,53380]","[]","[33739.39999997616,35022.5,39196.5,40242.5,41736.19999998808,43993.19999998808,45972.30000001192,48120,50116.39999997616,50646.19999998808,50996.30000001192,51588.19999998808,52008,52312.19999998808,53380,58454.19999998808]","0.25","0.42857142857142855","0","","","","","","","","","","","","","","","","","","","","","","",""
"9787","","","instructions","8","304726","0.0-7.0","6","5","7","6","5","4","4","4","4","5","4","-1","-3","1","0","2","0","1","2","4","5","5","4","4","5","4","4","5","4","8","6","7","7","8","9","7","8","6","5","6","6","7","5","7","6","5","5","6","1","6","6","3","7","5","7","6","5","7","6","3","7","3","6","6","7","5","6","7","6","6","5","7","2","5","6","7","7","6","6","625294467993174016","陈","140","Female","[""坏她"",""坏我"",""好我"",""好她""]","[""弱她"",""弱我"",""强我"",""强她""]","","","","","","","","","","","","","","","","","[{""page_index"":0,""viewing_time"":9786}]","","","","","","","","","","","","","","","","","","","","","",""
"42773","","","instructions","9","347500","0.0-8.0-0.0-0.0","6","5","7","6","5","4","4","4","4","5","4","-1","-3","1","0","2","0","1","2","4","5","5","4","4","5","4","4","5","4","8","6","7","7","8","9","7","8","6","5","6","6","7","5","7","6","5","5","6","1","6","6","3","7","5","7","6","5","7","6","3","7","3","6","6","7","5","6","7","6","6","5","7","2","5","6","7","7","6","6","625294467993174016","陈","140","Female","[""坏她"",""坏我"",""好我"",""好她""]","[""弱她"",""弱我"",""强我"",""强她""]","","","","","","","","","","","","","","","","","[{""page_index"":0,""viewing_time"":1987},{""page_index"":1,""viewing_time"":38592},{""page_index"":2,""viewing_time"":1146},{""page_index"":3,""viewing_time"":1048}]","","","","","","","","","","","","","","","","","","","","","",""
"911","","j","psychophysics","10","349419","0.0-8.0-0.0-1.0-0.0-0.0","6","5","7","6","5","4","4","4","4","5","4","-1","-3","1","0","2","0","1","2","4","5","5","4","4","5","4","4","5","4","8","6","7","7","8","9","7","8","6","5","6","6","7","5","7","6","5","5","6","1","6","6","3","7","5","7","6","5","7","6","3","7","3","6","6","7","5","6","7","6","6","5","7","2","5","6","7","7","6","6","625294467993174016","陈","140","Female","[""坏她"",""坏我"",""好我"",""好她""]","[""弱她"",""弱我"",""强我"",""强她""]","","","","","","","","nonmatch","","","","","","","","","","key","j","16.652955752212772","710.7407909492769","395.92595389514173","f","false","match","img/ellipse.png","好她","好她","prac_ALT2_moral","practice_moral","","","","","","","","",""
"null","<span style='color:red; font-size: 70px;'>错误! </span>","null","html-keyboard-response","11","349922","0.0-8.0-0.0-1.0-0.0-1.0","6","5","7","6","5","4","4","4","4","5","4","-1","-3","1","0","2","0","1","2","4","5","5","4","4","5","4","4","5","4","8","6","7","7","8","9","7","8","6","5","6","6","7","5","7","6","5","5","6","1","6","6","3","7","5","7","6","5","7","6","3","7","3","6","6","7","5","6","7","6","6","5","7","2","5","6","7","7","6","6","625294467993174016","陈","140","Female","[""坏她"",""坏我"",""好我"",""好她""]","[""弱她"",""弱我"",""强我"",""强她""]","","","","","","","","","","","","","","","","","","","","","","","","","","","","","","feedback_test","","","","","","","","",""
"995","","f","psychophysics","12","351919","0.0-8.0-0.0-1.0-0.0-0.1","6","5","7","6","5","4","4","4","4","5","4","-1","-3","1","0","2","0","1","2","4","5","5","4","4","5","4","4","5","4","8","6","7","7","8","9","7","8","6","5","6","6","7","5","7","6","5","5","6","1","6","6","3","7","5","7","6","5","7","6","3","7","3","6","6","7","5","6","7","6","6","5","7","2","5","6","7","7","6","6","625294467993174016","陈","140","Female","[""坏她"",""坏我"",""好我"",""好她""]","[""弱她"",""弱我"",""强我"",""强她""]","","","","","","","","match","","","","","","","","","","key","f","16.65357983193288","710.7407909492769","395.92595389514173","f","true","match","img/pentagon.png","坏我","坏我","prac_ALT2_moral","practice_moral","","","","","","","","",""
"null","<span style='color:GreenYellow; font-size: 70px;'>正确! </span>","null","html-keyboard-response","13","352420","0.0-8.0-0.0-1.0-0.0-1.1","6","5","7","6","5","4","4","4","4","5","4","-1","-3","1","0","2","0","1","2","4","5","5","4","4","5","4","4","5","4","8","6","7","7","8","9","7","8","6","5","6","6","7","5","7","6","5","5","6","1","6","6","3","7","5","7","6","5","7","6","3","7","3","6","6","7","5","6","7","6","6","5","7","2","5","6","7","7","6","6","625294467993174016","陈","140","Female","[""坏她"",""坏我"",""好我"",""好她""]","[""弱她"",""弱我"",""强我"",""强她""]","","","","","","","","","","","","","","","","","","","","","","","","","","","","","","feedback_test","","","","","","","","",""
"1087","","j","psychophysics","14","354508","0.0-8.0-0.0-1.0-0.0-0.2","6","5","7","6","5","4","4","4","4","5","4","-1","-3","1","0","2","0","1","2","4","5","5","4","4","5","4","4","5","4","8","6","7","7","8","9","7","8","6","5","6","6","7","5","7","6","5","5","6","1","6","6","3","7","5","7","6","5","7","6","3","7","3","6","6","7","5","6","7","6","6","5","7","2","5","6","7","7","6","6","625294467993174016","陈","140","Female","[""坏她"",""坏我"",""好我"",""好她""]","[""弱她"",""弱我"",""强我"",""强她""]","","","","","","","","nonmatch","","","","","","","","","","key","j","16.6501774193551","710.7407909492769","395.92595389514173","j","true","nonmatch","img/ellipse.png","坏我","好她","prac_ALT2_moral","practice_moral","","","","","","","","",""
"null","<span style='color:GreenYellow; font-size: 70px;'>正确! </span>","null","html-keyboard-response","15","355013","0.0-8.0-0.0-1.0-0.0-1.2","6","5","7","6","5","4","4","4","4","5","4","-1","-3","1","0","2","0","1","2","4","5","5","4","4","5","4","4","5","4","8","6","7","7","8","9","7","8","6","5","6","6","7","5","7","6","5","5","6","1","6","6","3","7","5","7","6","5","7","6","3","7","3","6","6","7","5","6","7","6","6","5","7","2","5","6","7","7","6","6","625294467993174016","陈","140","Female","[""坏她"",""坏我"",""好我"",""好她""]","[""弱她"",""弱我"",""强我"",""强她""]","","","","","","","","","","","","","","","","","","","","","","","","","","","","","","feedback_test","","","","","","","","",""
"837","","f","psychophysics","16","356852","0.0-8.0-0.0-1.0-0.0-0.3","6","5","7","6","5","4","4","4","4","5","4","-1","-3","1","0","2","0","1","2","4","5","5","4","4","5","4","4","5","4","8","6","7","7","8","9","7","8","6","5","6","6","7","5","7","6","5","5","6","1","6","6","3","7","5","7","6","5","7","6","3","7","3","6","6","7","5","6","7","6","6","5","7","2","5","6","7","7","6","6","625294467993174016","陈","140","Female","[""坏她"",""坏我"",""好我"",""好她""]","[""弱她"",""弱我"",""强我"",""强她""]","","","","","","","","match","","","","","","","","","","key","f","16.653321100917427","710.7407909492769","395.92595389514173","f","true","match","img/triangle.png","好我","好我","prac_ALT2_moral","practice_moral","","","","","","","","",""
"null","<span style='color:GreenYellow; font-size: 70px;'>正确! </span>","null","html-keyboard-response","17","357355","0.0-8.0-0.0-1.0-0.0-1.3","6","5","7","6","5","4","4","4","4","5","4","-1","-3","1","0","2","0","1","2","4","5","5","4","4","5","4","4","5","4","8","6","7","7","8","9","7","8","6","5","6","6","7","5","7","6","5","5","6","1","6","6","3","7","5","7","6","5","7","6","3","7","3","6","6","7","5","6","7","6","6","5","7","2","5","6","7","7","6","6","625294467993174016","陈","140","Female","[""坏她"",""坏我"",""好我"",""好她""]","[""弱她"",""弱我"",""强我"",""强她""]","","","","","","","","","","","","","","","","","","","","","","","","","","","","","","feedback_test","","","","","","","","",""
"1037","","f","psychophysics","18","359394","0.0-8.0-0.0-1.0-0.0-0.4","6","5","7","6","5","4","4","4","4","5","4","-1","-3","1","0","2","0","1","2","4","5","5","4","4","5","4","4","5","4","8","6","7","7","8","9","7","8","6","5","6","6","7","5","7","6","5","5","6","1","6","6","3","7","5","7","6","5","7","6","3","7","3","6","6","7","5","6","7","6","6","5","7","2","5","6","7","7","6","6","625294467993174016","陈","140","Female","[""坏她"",""坏我"",""好我"",""好她""]","[""弱她"",""弱我"",""强我"",""强她""]","","","","","","","","match","","","","","","","","","","key","f","16.65322950819639","710.7407909492769","395.92595389514173","f","true","match","img/pentagon.png","坏我","坏我","prac_ALT2_moral","practice_moral","","","","","","","","",""
"null","<span style='color:GreenYellow; font-size: 70px;'>正确! </span>","null","html-keyboard-response","19","359895","0.0-8.0-0.0-1.0-0.0-1.4","6","5","7","6","5","4","4","4","4","5","4","-1","-3","1","0","2","0","1","2","4","5","5","4","4","5","4","4","5","4","8","6","7","7","8","9","7","8","6","5","6","6","7","5","7","6","5","5","6","1","6","6","3","7","5","7","6","5","7","6","3","7","3","6","6","7","5","6","7","6","6","5","7","2","5","6","7","7","6","6","625294467993174016","陈","140","Female","[""坏她"",""坏我"",""好我"",""好她""]","[""弱她"",""弱我"",""强我"",""强她""]","","","","","","","","","","","","","","","","","","","","","","","","","","","","","","feedback_test","","","","","","","","",""
"830","","j","psychophysics","20","361726","0.0-8.0-0.0-1.0-0.0-0.5","6","5","7","6","5","4","4","4","4","5","4","-1","-3","1","0","2","0","1","2","4","5","5","4","4","5","4","4","5","4","8","6","7","7","8","9","7","8","6","5","6","6","7","5","7","6","5","5","6","1","6","6","3","7","5","7","6","5","7","6","3","7","3","6","6","7","5","6","7","6","6","5","7","2","5","6","7","7","6","6","625294467993174016","陈","140","Female","[""坏她"",""坏我"",""好我"",""好她""]","[""弱她"",""弱我"",""强我"",""强她""]","","","","","","","","nonmatch","","","","","","","","","","key","j","16.651486238531998","710.7407909492769","395.92595389514173","j","true","nonmatch","img/pentagon.png","好她","坏我","prac_ALT2_moral","practice_moral","","","","","","","","",""
"null","<span style='color:GreenYellow; font-size: 70px;'>正确! </span>","null","html-keyboard-response","21","362227","0.0-8.0-0.0-1.0-0.0-1.5","6","5","7","6","5","4","4","4","4","5","4","-1","-3","1","0","2","0","1","2","4","5","5","4","4","5","4","4","5","4","8","6","7","7","8","9","7","8","6","5","6","6","7","5","7","6","5","5","6","1","6","6","3","7","5","7","6","5","7","6","3","7","3","6","6","7","5","6","7","6","6","5","7","2","5","6","7","7","6","6","625294467993174016","陈","140","Female","[""坏她"",""坏我"",""好我"",""好她""]","[""弱她"",""弱我"",""强我"",""强她""]","","","","","","","","","","","","","","","","","","","","","","","","","","","","","","feedback_test","","","","","","","","",""
"929","","f","psychophysics","22","364158","0.0-8.0-0.0-1.0-0.0-0.6","6","5","7","6","5","4","4","4","4","5","4","-1","-3","1","0","2","0","1","2","4","5","5","4","4","5","4","4","5","4","8","6","7","7","8","9","7","8","6","5","6","6","7","5","7","6","5","5","6","1","6","6","3","7","5","7","6","5","7","6","3","7","3","6","6","7","5","6","7","6","6","5","7","2","5","6","7","7","6","6","625294467993174016","陈","140","Female","[""坏她"",""坏我"",""好我"",""好她""]","[""弱她"",""弱我"",""强我"",""强她""]","","","","","","","","match","","","","","","","","","","key","f","16.653269565217297","710.7407909492769","395.92595389514173","j","false","nonmatch","img/ellipse.png","好我","好她","prac_ALT2_moral","practice_moral","","","","","","","","",""
"null","<span style='color:red; font-size: 70px;'>错误! </span>","null","html-keyboard-response","23","364660","0.0-8.0-0.0-1.0-0.0-1.6","6","5","7","6","5","4","4","4","4","5","4","-1","-3","1","0","2","0","1","2","4","5","5","4","4","5","4","4","5","4","8","6","7","7","8","9","7","8","6","5","6","6","7","5","7","6","5","5","6","1","6","6","3","7","5","7","6","5","7","6","3","7","3","6","6","7","5","6","7","6","6","5","7","2","5","6","7","7","6","6","625294467993174016","陈","140","Female","[""坏她"",""坏我"",""好我"",""好她""]","[""弱她"",""弱我"",""强我"",""强她""]","","","","","","","","","","","","","","","","","","","","","","","","","","","","","","feedback_test","","","","","","","","",""
"null","","null","psychophysics","24","366865","0.0-8.0-0.0-1.0-0.0-0.7","6","5","7","6","5","4","4","4","4","5","4","-1","-3","1","0","2","0","1","2","4","5","5","4","4","5","4","4","5","4","8","6","7","7","8","9","7","8","6","5","6","6","7","5","7","6","5","5","6","1","6","6","3","7","5","7","6","5","7","6","3","7","3","6","6","7","5","6","7","6","6","5","7","2","5","6","7","7","6","6","625294467993174016","陈","140","Female","[""坏她"",""坏我"",""好我"",""好她""]","[""弱她"",""弱我"",""强我"",""强她""]","","","","","","","","null","","","","","","","","","","key","null","16.652549618320585","710.7407909492769","395.92595389514173","f","false","match","img/square.png","坏她","坏她","prac_ALT2_moral","practice_moral","","","","","","","","",""
"null","<span class='add_' style='color:yellow; font-size: 70px;'> 太慢! </span>","null","html-keyboard-response","25","367371","0.0-8.0-0.0-1.0-0.0-1.7","6","5","7","6","5","4","4","4","4","5","4","-1","-3","1","0","2","0","1","2","4","5","5","4","4","5","4","4","5","4","8","6","7","7","8","9","7","8","6","5","6","6","7","5","7","6","5","5","6","1","6","6","3","7","5","7","6","5","7","6","3","7","3","6","6","7","5","6","7","6","6","5","7","2","5","6","7","7","6","6","625294467993174016","陈","140","Female","[""坏她"",""坏我"",""好我"",""好她""]","[""弱她"",""弱我"",""强我"",""强她""]","","","","","","","","","","","","","","","","","","","","","","","","","","","","","","feedback_test","","","","","","","","",""
"1079","","j","psychophysics","26","369452","0.0-8.0-0.0-1.0-0.0-0.8","6","5","7","6","5","4","4","4","4","5","4","-1","-3","1","0","2","0","1","2","4","5","5","4","4","5","4","4","5","4","8","6","7","7","8","9","7","8","6","5","6","6","7","5","7","6","5","5","6","1","6","6","3","7","5","7","6","5","7","6","3","7","3","6","6","7","5","6","7","6","6","5","7","2","5","6","7","7","6","6","625294467993174016","陈","140","Female","[""坏她"",""坏我"",""好我"",""好她""]","[""弱她"",""弱我"",""强我"",""强她""]","","","","","","","","nonmatch","","","","","","","","","","key","j","16.653290322580894","710.7407909492769","395.92595389514173","j","true","nonmatch","img/ellipse.png","坏她","好她","prac_ALT2_moral","practice_moral","","","","","","","","",""
"null","<span style='color:GreenYellow; font-size: 70px;'>正确! </span>","null","html-keyboard-response","27","369955","0.0-8.0-0.0-1.0-0.0-1.8","6","5","7","6","5","4","4","4","4","5","4","-1","-3","1","0","2","0","1","2","4","5","5","4","4","5","4","4","5","4","8","6","7","7","8","9","7","8","6","5","6","6","7","5","7","6","5","5","6","1","6","6","3","7","5","7","6","5","7","6","3","7","3","6","6","7","5","6","7","6","6","5","7","2","5","6","7","7","6","6","625294467993174016","陈","140","Female","[""坏她"",""坏我"",""好我"",""好她""]","[""弱她"",""弱我"",""强我"",""强她""]","","","","","","","","","","","","","","","","","","","","","","","","","","","","","","feedback_test","","","","","","","","",""
"890","","j","psychophysics","28","371848","0.0-8.0-0.0-1.0-0.0-0.9","6","5","7","6","5","4","4","4","4","5","4","-1","-3","1","0","2","0","1","2","4","5","5","4","4","5","4","4","5","4","8","6","7","7","8","9","7","8","6","5","6","6","7","5","7","6","5","5","6","1","6","6","3","7","5","7","6","5","7","6","3","7","3","6","6","7","5","6","7","6","6","5","7","2","5","6","7","7","6","6","625294467993174016","陈","140","Female","[""坏她"",""坏我"",""好我"",""好她""]","[""弱她"",""弱我"",""强我"",""强她""]","","","","","","","","nonmatch","","","","","","","","","","key","j","16.65352212389379","710.7407909492769","395.92595389514173","j","true","nonmatch","img/triangle.png","坏她","好我","prac_ALT2_moral","practice_moral","","","","","","","","",""
"null","<span style='color:GreenYellow; font-size: 70px;'>正确! </span>","null","html-keyboard-response","29","372350","0.0-8.0-0.0-1.0-0.0-1.9","6","5","7","6","5","4","4","4","4","5","4","-1","-3","1","0","2","0","1","2","4","5","5","4","4","5","4","4","5","4","8","6","7","7","8","9","7","8","6","5","6","6","7","5","7","6","5","5","6","1","6","6","3","7","5","7","6","5","7","6","3","7","3","6","6","7","5","6","7","6","6","5","7","2","5","6","7","7","6","6","625294467993174016","陈","140","Female","[""坏她"",""坏我"",""好我"",""好她""]","[""弱她"",""弱我"",""强我"",""强她""]","","","","","","","","","","","","","","","","","","","","","","","","","","","","","","feedback_test","","","","","","","","",""
"854","","j","psychophysics","30","374207","0.0-8.0-0.0-1.0-0.0-0.10","6","5","7","6","5","4","4","4","4","5","4","-1","-3","1","0","2","0","1","2","4","5","5","4","4","5","4","4","5","4","8","6","7","7","8","9","7","8","6","5","6","6","7","5","7","6","5","5","6","1","6","6","3","7","5","7","6","5","7","6","3","7","3","6","6","7","5","6","7","6","6","5","7","2","5","6","7","7","6","6","625294467993174016","陈","140","Female","[""坏她"",""坏我"",""好我"",""好她""]","[""弱她"",""弱我"",""强我"",""强她""]","","","","","","","","nonmatch","","","","","","","","","","key","j","16.652154545454753","710.7407909492769","395.92595389514173","j","true","nonmatch","img/triangle.png","坏我","好我","prac_ALT2_moral","practice_moral","","","","","","","","",""
"null","<span style='color:GreenYellow; font-size: 70px;'>正确! </span>","null","html-keyboard-response","31","374708","0.0-8.0-0.0-1.0-0.0-1.10","6","5","7","6","5","4","4","4","4","5","4","-1","-3","1","0","2","0","1","2","4","5","5","4","4","5","4","4","5","4","8","6","7","7","8","9","7","8","6","5","6","6","7","5","7","6","5","5","6","1","6","6","3","7","5","7","6","5","7","6","3","7","3","6","6","7","5","6","7","6","6","5","7","2","5","6","7","7","6","6","625294467993174016","陈","140","Female","[""坏她"",""坏我"",""好我"",""好她""]","[""弱她"",""弱我"",""强我"",""强她""]","","","","","","","","","","","","","","","","","","","","","","","","","","","","","","feedback_test","","","","","","","","",""
"1081","","j","psychophysics","32","376792","0.0-8.0-0.0-1.0-0.0-0.11","6","5","7","6","5","4","4","4","4","5","4","-1","-3","1","0","2","0","1","2","4","5","5","4","4","5","4","4","5","4","8","6","7","7","8","9","7","8","6","5","6","6","7","5","7","6","5","5","6","1","6","6","3","7","5","7","6","5","7","6","3","7","3","6","6","7","5","6","7","6","6","5","7","2","5","6","7","7","6","6","625294467993174016","陈","140","Female","[""坏她"",""坏我"",""好我"",""好她""]","[""弱她"",""弱我"",""强我"",""强她""]","","","","","","","","nonmatch","","","","","","","","","","key","j","16.650829268292416","710.7407909492769","395.92595389514173","j","true","nonmatch","img/pentagon.png","好我","坏我","prac_ALT2_moral","practice_moral","","","","","","","","",""
"null","<span style='color:GreenYellow; font-size: 70px;'>正确! </span>","null","html-keyboard-response","33","377294","0.0-8.0-0.0-1.0-0.0-1.11","6","5","7","6","5","4","4","4","4","5","4","-1","-3","1","0","2","0","1","2","4","5","5","4","4","5","4","4","5","4","8","6","7","7","8","9","7","8","6","5","6","6","7","5","7","6","5","5","6","1","6","6","3","7","5","7","6","5","7","6","3","7","3","6","6","7","5","6","7","6","6","5","7","2","5","6","7","7","6","6","625294467993174016","陈","140","Female","[""坏她"",""坏我"",""好我"",""好她""]","[""弱她"",""弱我"",""强我"",""强她""]","","","","","","","","","","","","","","","","","","","","","","","","","","","","","","feedback_test","","","","","","","","",""
"817","","j","psychophysics","34","379113","0.0-8.0-0.0-1.0-0.0-0.12","6","5","7","6","5","4","4","4","4","5","4","-1","-3","1","0","2","0","1","2","4","5","5","4","4","5","4","4","5","4","8","6","7","7","8","9","7","8","6","5","6","6","7","5","7","6","5","5","6","1","6","6","3","7","5","7","6","5","7","6","3","7","3","6","6","7","5","6","7","6","6","5","7","2","5","6","7","7","6","6","625294467993174016","陈","140","Female","[""坏她"",""坏我"",""好我"",""好她""]","[""弱她"",""弱我"",""强我"",""强她""]","","","","","","","","nonmatch","","","","","","","","","","key","j","16.65326851851865","710.7407909492769","395.92595389514173","j","true","nonmatch","img/square.png","坏我","坏她","prac_ALT2_moral","practice_moral","","","","","","","","",""
"null","<span style='color:GreenYellow; font-size: 70px;'>正确! </span>","null","html-keyboard-response","35","379615","0.0-8.0-0.0-1.0-0.0-1.12","6","5","7","6","5","4","4","4","4","5","4","-1","-3","1","0","2","0","1","2","4","5","5","4","4","5","4","4","5","4","8","6","7","7","8","9","7","8","6","5","6","6","7","5","7","6","5","5","6","1","6","6","3","7","5","7","6","5","7","6","3","7","3","6","6","7","5","6","7","6","6","5","7","2","5","6","7","7","6","6","625294467993174016","陈","140","Female","[""坏她"",""坏我"",""好我"",""好她""]","[""弱她"",""弱我"",""强我"",""强她""]","","","","","","","","","","","","","","","","","","","","","","","","","","","","","","feedback_test","","","","","","","","",""
"773","","f","psychophysics","36","381389","0.0-8.0-0.0-1.0-0.0-0.13","6","5","7","6","5","4","4","4","4","5","4","-1","-3","1","0","2","0","1","2","4","5","5","4","4","5","4","4","5","4","8","6","7","7","8","9","7","8","6","5","6","6","7","5","7","6","5","5","6","1","6","6","3","7","5","7","6","5","7","6","3","7","3","6","6","7","5","6","7","6","6","5","7","2","5","6","7","7","6","6","625294467993174016","陈","140","Female","[""坏她"",""坏我"",""好我"",""好她""]","[""弱她"",""弱我"",""强我"",""强她""]","","","","","","","","match","","","","","","","","","","key","f","16.654301886792727","710.7407909492769","395.92595389514173","f","true","match","img/square.png","坏她","坏她","prac_ALT2_moral","practice_moral","","","","","","","","",""
"null","<span style='color:GreenYellow; font-size: 70px;'>正确! </span>","null","html-keyboard-response","37","381893","0.0-8.0-0.0-1.0-0.0-1.13","6","5","7","6","5","4","4","4","4","5","4","-1","-3","1","0","2","0","1","2","4","5","5","4","4","5","4","4","5","4","8","6","7","7","8","9","7","8","6","5","6","6","7","5","7","6","5","5","6","1","6","6","3","7","5","7","6","5","7","6","3","7","3","6","6","7","5","6","7","6","6","5","7","2","5","6","7","7","6","6","625294467993174016","陈","140","Female","[""坏她"",""坏我"",""好我"",""好她""]","[""弱她"",""弱我"",""强我"",""强她""]","","","","","","","","","","","","","","","","","","","","","","","","","","","","","","feedback_test","","","","","","","","",""
"717","","f","psychophysics","38","383612","0.0-8.0-0.0-1.0-0.0-0.14","6","5","7","6","5","4","4","4","4","5","4","-1","-3","1","0","2","0","1","2","4","5","5","4","4","5","4","4","5","4","8","6","7","7","8","9","7","8","6","5","6","6","7","5","7","6","5","5","6","1","6","6","3","7","5","7","6","5","7","6","3","7","3","6","6","7","5","6","7","6","6","5","7","2","5","6","7","7","6","6","625294467993174016","陈","140","Female","[""坏她"",""坏我"",""好我"",""好她""]","[""弱她"",""弱我"",""强我"",""强她""]","","","","","","","","match","","","","","","","","","","key","f","16.653656862745194","710.7407909492769","395.92595389514173","f","true","match","img/square.png","坏她","坏她","prac_ALT2_moral","practice_moral","","","","","","","","",""
"null","<span style='color:GreenYellow; font-size: 70px;'>正确! </span>","null","html-keyboard-response","39","384113","0.0-8.0-0.0-1.0-0.0-1.14","6","5","7","6","5","4","4","4","4","5","4","-1","-3","1","0","2","0","1","2","4","5","5","4","4","5","4","4","5","4","8","6","7","7","8","9","7","8","6","5","6","6","7","5","7","6","5","5","6","1","6","6","3","7","5","7","6","5","7","6","3","7","3","6","6","7","5","6","7","6","6","5","7","2","5","6","7","7","6","6","625294467993174016","陈","140","Female","[""坏她"",""坏我"",""好我"",""好她""]","[""弱她"",""弱我"",""强我"",""强她""]","","","","","","","","","","","","","","","","","","","","","","","","","","","","","","feedback_test","","","","","","","","",""
"808","","j","psychophysics","40","385923","0.0-8.0-0.0-1.0-0.0-0.15","6","5","7","6","5","4","4","4","4","5","4","-1","-3","1","0","2","0","1","2","4","5","5","4","4","5","4","4","5","4","8","6","7","7","8","9","7","8","6","5","6","6","7","5","7","6","5","5","6","1","6","6","3","7","5","7","6","5","7","6","3","7","3","6","6","7","5","6","7","6","6","5","7","2","5","6","7","7","6","6","625294467993174016","陈","140","Female","[""坏她"",""坏我"",""好我"",""好她""]","[""弱她"",""弱我"",""强我"",""强她""]","","","","","","","","nonmatch","","","","","","","","","","key","j","16.653212962963153","710.7407909492769","395.92595389514173","j","true","nonmatch","img/square.png","好我","坏她","prac_ALT2_moral","practice_moral","","","","","","","","",""
"null","<span style='color:GreenYellow; font-size: 70px;'>正确! </span>","null","html-keyboard-response","41","386425","0.0-8.0-0.0-1.0-0.0-1.15","6","5","7","6","5","4","4","4","4","5","4","-1","-3","1","0","2","0","1","2","4","5","5","4","4","5","4","4","5","4","8","6","7","7","8","9","7","8","6","5","6","6","7","5","7","6","5","5","6","1","6","6","3","7","5","7","6","5","7","6","3","7","3","6","6","7","5","6","7","6","6","5","7","2","5","6","7","7","6","6","625294467993174016","陈","140","Female","[""坏她"",""坏我"",""好我"",""好她""]","[""弱她"",""弱我"",""强我"",""强她""]","","","","","","","","","","","","","","","","","","","","","","","","","","","","","","feedback_test","","","","","","","","",""
"878","","j","psychophysics","42","388304","0.0-8.0-0.0-1.0-0.0-0.16","6","5","7","6","5","4","4","4","4","5","4","-1","-3","1","0","2","0","1","2","4","5","5","4","4","5","4","4","5","4","8","6","7","7","8","9","7","8","6","5","6","6","7","5","7","6","5","5","6","1","6","6","3","7","5","7","6","5","7","6","3","7","3","6","6","7","5","6","7","6","6","5","7","2","5","6","7","7","6","6","625294467993174016","陈","140","Female","[""坏她"",""坏我"",""好我"",""好她""]","[""弱她"",""弱我"",""强我"",""强她""]","","","","","","","","nonmatch","","","","","","","","","","key","j","16.653366071428277","710.7407909492769","395.92595389514173","j","true","nonmatch","img/pentagon.png","坏她","坏我","prac_ALT2_moral","practice_moral","","","","","","","","",""
"null","<span style='color:GreenYellow; font-size: 70px;'>正确! </span>","null","html-keyboard-response","43","388806","0.0-8.0-0.0-1.0-0.0-1.16","6","5","7","6","5","4","4","4","4","5","4","-1","-3","1","0","2","0","1","2","4","5","5","4","4","5","4","4","5","4","8","6","7","7","8","9","7","8","6","5","6","6","7","5","7","6","5","5","6","1","6","6","3","7","5","7","6","5","7","6","3","7","3","6","6","7","5","6","7","6","6","5","7","2","5","6","7","7","6","6","625294467993174016","陈","140","Female","[""坏她"",""坏我"",""好我"",""好她""]","[""弱她"",""弱我"",""强我"",""强她""]","","","","","","","","","","","","","","","","","","","","","","","","","","","","","","feedback_test","","","","","","","","",""
"1092","","f","psychophysics","44","390901","0.0-8.0-0.0-1.0-0.0-0.17","6","5","7","6","5","4","4","4","4","5","4","-1","-3","1","0","2","0","1","2","4","5","5","4","4","5","4","4","5","4","8","6","7","7","8","9","7","8","6","5","6","6","7","5","7","6","5","5","6","1","6","6","3","7","5","7","6","5","7","6","3","7","3","6","6","7","5","6","7","6","6","5","7","2","5","6","7","7","6","6","625294467993174016","陈","140","Female","[""坏她"",""坏我"",""好我"",""好她""]","[""弱她"",""弱我"",""强我"",""强她""]","","","","","","","","match","","","","","","","","","","key","f","16.649415999999736","710.7407909492769","395.92595389514173","f","true","match","img/triangle.png","好我","好我","prac_ALT2_moral","practice_moral","","","","","","","","",""
"null","<span style='color:GreenYellow; font-size: 70px;'>正确! </span>","null","html-keyboard-response","45","391403","0.0-8.0-0.0-1.0-0.0-1.17","6","5","7","6","5","4","4","4","4","5","4","-1","-3","1","0","2","0","1","2","4","5","5","4","4","5","4","4","5","4","8","6","7","7","8","9","7","8","6","5","6","6","7","5","7","6","5","5","6","1","6","6","3","7","5","7","6","5","7","6","3","7","3","6","6","7","5","6","7","6","6","5","7","2","5","6","7","7","6","6","625294467993174016","陈","140","Female","[""坏她"",""坏我"",""好我"",""好她""]","[""弱她"",""弱我"",""强我"",""强她""]","","","","","","","","","","","","","","","","","","","","","","","","","","","","","","feedback_test","","","","","","","","",""
"null","","null","psychophysics","46","393607","0.0-8.0-0.0-1.0-0.0-0.18","6","5","7","6","5","4","4","4","4","5","4","-1","-3","1","0","2","0","1","2","4","5","5","4","4","5","4","4","5","4","8","6","7","7","8","9","7","8","6","5","6","6","7","5","7","6","5","5","6","1","6","6","3","7","5","7","6","5","7","6","3","7","3","6","6","7","5","6","7","6","6","5","7","2","5","6","7","7","6","6","625294467993174016","陈","140","Female","[""坏她"",""坏我"",""好我"",""好她""]","[""弱她"",""弱我"",""强我"",""强她""]","","","","","","","","null","","","","","","","","","","key","null","16.650297709923763","710.7407909492769","395.92595389514173","f","false","match","img/ellipse.png","好她","好她","prac_ALT2_moral","practice_moral","","","","","","","","",""
"null","<span class='add_' style='color:yellow; font-size: 70px;'> 太慢! </span>","null","html-keyboard-response","47","394109","0.0-8.0-0.0-1.0-0.0-1.18","6","5","7","6","5","4","4","4","4","5","4","-1","-3","1","0","2","0","1","2","4","5","5","4","4","5","4","4","5","4","8","6","7","7","8","9","7","8","6","5","6","6","7","5","7","6","5","5","6","1","6","6","3","7","5","7","6","5","7","6","3","7","3","6","6","7","5","6","7","6","6","5","7","2","5","6","7","7","6","6","625294467993174016","陈","140","Female","[""坏她"",""坏我"",""好我"",""好她""]","[""弱她"",""弱我"",""强我"",""强她""]","","","","","","","","","","","","","","","","","","","","","","","","","","","","","","feedback_test","","","","","","","","",""
"982","","j","psychophysics","48","396093","0.0-8.0-0.0-1.0-0.0-0.19","6","5","7","6","5","4","4","4","4","5","4","-1","-3","1","0","2","0","1","2","4","5","5","4","4","5","4","4","5","4","8","6","7","7","8","9","7","8","6","5","6","6","7","5","7","6","5","5","6","1","6","6","3","7","5","7","6","5","7","6","3","7","3","6","6","7","5","6","7","6","6","5","7","2","5","6","7","7","6","6","625294467993174016","陈","140","Female","[""坏她"",""坏我"",""好我"",""好她""]","[""弱她"",""弱我"",""强我"",""强她""]","","","","","","","","nonmatch","","","","","","","","","","key","j","16.65481355932188","710.7407909492769","395.92595389514173","j","true","nonmatch","img/square.png","好她","坏她","prac_ALT2_moral","practice_moral","","","","","","","","",""
"null","<span style='color:GreenYellow; font-size: 70px;'>正确! </span>","null","html-keyboard-response","49","396596","0.0-8.0-0.0-1.0-0.0-1.19","6","5","7","6","5","4","4","4","4","5","4","-1","-3","1","0","2","0","1","2","4","5","5","4","4","5","4","4","5","4","8","6","7","7","8","9","7","8","6","5","6","6","7","5","7","6","5","5","6","1","6","6","3","7","5","7","6","5","7","6","3","7","3","6","6","7","5","6","7","6","6","5","7","2","5","6","7","7","6","6","625294467993174016","陈","140","Female","[""坏她"",""坏我"",""好我"",""好她""]","[""弱她"",""弱我"",""强我"",""强她""]","","","","","","","","","","","","","","","","","","","","","","","","","","","","","","feedback_test","","","","","","","","",""
"990","","f","psychophysics","50","398587","0.0-8.0-0.0-1.0-0.0-0.20","6","5","7","6","5","4","4","4","4","5","4","-1","-3","1","0","2","0","1","2","4","5","5","4","4","5","4","4","5","4","8","6","7","7","8","9","7","8","6","5","6","6","7","5","7","6","5","5","6","1","6","6","3","7","5","7","6","5","7","6","3","7","3","6","6","7","5","6","7","6","6","5","7","2","5","6","7","7","6","6","625294467993174016","陈","140","Female","[""坏她"",""坏我"",""好我"",""好她""]","[""弱她"",""弱我"",""强我"",""强她""]","","","","","","","","match","","","","","","","","","","key","f","16.65398305084732","710.7407909492769","395.92595389514173","j","false","nonmatch","img/triangle.png","好她","好我","prac_ALT2_moral","practice_moral","","","","","","","","",""
"null","<span style='color:red; font-size: 70px;'>错误! </span>","null","html-keyboard-response","51","399090","0.0-8.0-0.0-1.0-0.0-1.20","6","5","7","6","5","4","4","4","4","5","4","-1","-3","1","0","2","0","1","2","4","5","5","4","4","5","4","4","5","4","8","6","7","7","8","9","7","8","6","5","6","6","7","5","7","6","5","5","6","1","6","6","3","7","5","7","6","5","7","6","3","7","3","6","6","7","5","6","7","6","6","5","7","2","5","6","7","7","6","6","625294467993174016","陈","140","Female","[""坏她"",""坏我"",""好我"",""好她""]","[""弱她"",""弱我"",""强我"",""强她""]","","","","","","","","","","","","","","","","","","","","","","","","","","","","","","feedback_test","","","","","","","","",""
"994","","j","psychophysics","52","401085","0.0-8.0-0.0-1.0-0.0-0.21","6","5","7","6","5","4","4","4","4","5","4","-1","-3","1","0","2","0","1","2","4","5","5","4","4","5","4","4","5","4","8","6","7","7","8","9","7","8","6","5","6","6","7","5","7","6","5","5","6","1","6","6","3","7","5","7","6","5","7","6","3","7","3","6","6","7","5","6","7","6","6","5","7","2","5","6","7","7","6","6","625294467993174016","陈","140","Female","[""坏她"",""坏我"",""好我"",""好她""]","[""弱她"",""弱我"",""强我"",""强她""]","","","","","","","","nonmatch","","","","","","","","","","key","j","16.653271186440765","710.7407909492769","395.92595389514173","f","false","match","img/ellipse.png","好她","好她","prac_ALT2_moral","practice_moral","","","","","","","","",""
"null","<span style='color:red; font-size: 70px;'>错误! </span>","null","html-keyboard-response","53","401586","0.0-8.0-0.0-1.0-0.0-1.21","6","5","7","6","5","4","4","4","4","5","4","-1","-3","1","0","2","0","1","2","4","5","5","4","4","5","4","4","5","4","8","6","7","7","8","9","7","8","6","5","6","6","7","5","7","6","5","5","6","1","6","6","3","7","5","7","6","5","7","6","3","7","3","6","6","7","5","6","7","6","6","5","7","2","5","6","7","7","6","6","625294467993174016","陈","140","Female","[""坏她"",""坏我"",""好我"",""好她""]","[""弱她"",""弱我"",""强我"",""强她""]","","","","","","","","","","","","","","","","","","","","","","","","","","","","","","feedback_test","","","","","","","","",""
"1084","","f","psychophysics","54","403673","0.0-8.0-0.0-1.0-0.0-0.22","6","5","7","6","5","4","4","4","4","5","4","-1","-3","1","0","2","0","1","2","4","5","5","4","4","5","4","4","5","4","8","6","7","7","8","9","7","8","6","5","6","6","7","5","7","6","5","5","6","1","6","6","3","7","5","7","6","5","7","6","3","7","3","6","6","7","5","6","7","6","6","5","7","2","5","6","7","7","6","6","625294467993174016","陈","140","Female","[""坏她"",""坏我"",""好我"",""好她""]","[""弱她"",""弱我"",""强我"",""强她""]","","","","","","","","match","","","","","","","","","","key","f","16.653451612903623","710.7407909492769","395.92595389514173","f","true","match","img/pentagon.png","坏我","坏我","prac_ALT2_moral","practice_moral","","","","","","","","",""
"null","<span style='color:GreenYellow; font-size: 70px;'>正确! </span>","null","html-keyboard-response","55","404174","0.0-8.0-0.0-1.0-0.0-1.22","6","5","7","6","5","4","4","4","4","5","4","-1","-3","1","0","2","0","1","2","4","5","5","4","4","5","4","4","5","4","8","6","7","7","8","9","7","8","6","5","6","6","7","5","7","6","5","5","6","1","6","6","3","7","5","7","6","5","7","6","3","7","3","6","6","7","5","6","7","6","6","5","7","2","5","6","7","7","6","6","625294467993174016","陈","140","Female","[""坏她"",""坏我"",""好我"",""好她""]","[""弱她"",""弱我"",""强我"",""强她""]","","","","","","","","","","","","","","","","","","","","","","","","","","","","","","feedback_test","","","","","","","","",""
"1043","","f","psychophysics","56","406219","0.0-8.0-0.0-1.0-0.0-0.23","6","5","7","6","5","4","4","4","4","5","4","-1","-3","1","0","2","0","1","2","4","5","5","4","4","5","4","4","5","4","8","6","7","7","8","9","7","8","6","5","6","6","7","5","7","6","5","5","6","1","6","6","3","7","5","7","6","5","7","6","3","7","3","6","6","7","5","6","7","6","6","5","7","2","5","6","7","7","6","6","625294467993174016","陈","140","Female","[""坏她"",""坏我"",""好我"",""好她""]","[""弱她"",""弱我"",""强我"",""强她""]","","","","","","","","match","","","","","","","","","","key","f","16.65354098360623","710.7407909492769","395.92595389514173","f","true","match","img/triangle.png","好我","好我","prac_ALT2_moral","practice_moral","","","","","","","","",""
"null","<span style='color:GreenYellow; font-size: 70px;'>正确! </span>","null","html-keyboard-response","57","406722","0.0-8.0-0.0-1.0-0.0-1.23","6","5","7","6","5","4","4","4","4","5","4","-1","-3","1","0","2","0","1","2","4","5","5","4","4","5","4","4","5","4","8","6","7","7","8","9","7","8","6","5","6","6","7","5","7","6","5","5","6","1","6","6","3","7","5","7","6","5","7","6","3","7","3","6","6","7","5","6","7","6","6","5","7","2","5","6","7","7","6","6","625294467993174016","陈","140","Female","[""坏她"",""坏我"",""好我"",""好她""]","[""弱她"",""弱我"",""强我"",""强她""]","","","","","","","","","","","","","","","","","","","","","","","","","","","","","","feedback_test","","","","","","","","",""
"1029","","j","psychophysics","58","408755","0.0-8.0-0.0-1.0-0.0-0.24","6","5","7","6","5","4","4","4","4","5","4","-1","-3","1","0","2","0","1","2","4","5","5","4","4","5","4","4","5","4","8","6","7","7","8","9","7","8","6","5","6","6","7","5","7","6","5","5","6","1","6","6","3","7","5","7","6","5","7","6","3","7","3","6","6","7","5","6","7","6","6","5","7","2","5","6","7","7","6","6","625294467993174016","陈","140","Female","[""坏她"",""坏我"",""好我"",""好她""]","[""弱她"",""弱我"",""强我"",""强她""]","","","","","","","","nonmatch","","","","","","","","","","key","j","16.653297520661148","710.7407909492769","395.92595389514173","j","true","nonmatch","img/ellipse.png","坏我","好她","prac_ALT2_moral","practice_moral","","","","","","","","",""
"null","<span style='color:GreenYellow; font-size: 70px;'>正确! </span>","null","html-keyboard-response","59","409257","0.0-8.0-0.0-1.0-0.0-1.24","6","5","7","6","5","4","4","4","4","5","4","-1","-3","1","0","2","0","1","2","4","5","5","4","4","5","4","4","5","4","8","6","7","7","8","9","7","8","6","5","6","6","7","5","7","6","5","5","6","1","6","6","3","7","5","7","6","5","7","6","3","7","3","6","6","7","5","6","7","6","6","5","7","2","5","6","7","7","6","6","625294467993174016","陈","140","Female","[""坏她"",""坏我"",""好我"",""好她""]","[""弱她"",""弱我"",""强我"",""强她""]","","","","","","","","","","","","","","","","","","","","","","","","","","","","","","feedback_test","","","","","","","","",""
"862","","j","psychophysics","60","411120","0.0-8.0-0.0-1.0-0.0-0.25","6","5","7","6","5","4","4","4","4","5","4","-1","-3","1","0","2","0","1","2","4","5","5","4","4","5","4","4","5","4","8","6","7","7","8","9","7","8","6","5","6","6","7","5","7","6","5","5","6","1","6","6","3","7","5","7","6","5","7","6","3","7","3","6","6","7","5","6","7","6","6","5","7","2","5","6","7","7","6","6","625294467993174016","陈","140","Female","[""坏她"",""坏我"",""好我"",""好她""]","[""弱她"",""弱我"",""强我"",""强她""]","","","","","","","","nonmatch","","","","","","","","","","key","j","16.653432432432062","710.7407909492769","395.92595389514173","j","true","nonmatch","img/ellipse.png","坏她","好她","prac_ALT2_moral","practice_moral","","","","","","","","",""
"null","<span style='color:GreenYellow; font-size: 70px;'>正确! </span>","null","html-keyboard-response","61","411621","0.0-8.0-0.0-1.0-0.0-1.25","6","5","7","6","5","4","4","4","4","5","4","-1","-3","1","0","2","0","1","2","4","5","5","4","4","5","4","4","5","4","8","6","7","7","8","9","7","8","6","5","6","6","7","5","7","6","5","5","6","1","6","6","3","7","5","7","6","5","7","6","3","7","3","6","6","7","5","6","7","6","6","5","7","2","5","6","7","7","6","6","625294467993174016","陈","140","Female","[""坏她"",""坏我"",""好我"",""好她""]","[""弱她"",""弱我"",""强我"",""强她""]","","","","","","","","","","","","","","","","","","","","","","","","","","","","","","feedback_test","","","","","","","","",""
"768","","j","psychophysics","62","413390","0.0-8.0-0.0-1.0-0.0-0.26","6","5","7","6","5","4","4","4","4","5","4","-1","-3","1","0","2","0","1","2","4","5","5","4","4","5","4","4","5","4","8","6","7","7","8","9","7","8","6","5","6","6","7","5","7","6","5","5","6","1","6","6","3","7","5","7","6","5","7","6","3","7","3","6","6","7","5","6","7","6","6","5","7","2","5","6","7","7","6","6","625294467993174016","陈","140","Female","[""坏她"",""坏我"",""好我"",""好她""]","[""弱她"",""弱我"",""强我"",""强她""]","","","","","","","","nonmatch","","","","","","","","","","key","j","16.65419999999992","710.7407909492769","395.92595389514173","j","true","nonmatch","img/square.png","坏我","坏她","prac_ALT2_moral","practice_moral","","","","","","","","",""
"null","<span style='color:GreenYellow; font-size: 70px;'>正确! </span>","null","html-keyboard-response","63","413891","0.0-8.0-0.0-1.0-0.0-1.26","6","5","7","6","5","4","4","4","4","5","4","-1","-3","1","0","2","0","1","2","4","5","5","4","4","5","4","4","5","4","8","6","7","7","8","9","7","8","6","5","6","6","7","5","7","6","5","5","6","1","6","6","3","7","5","7","6","5","7","6","3","7","3","6","6","7","5","6","7","6","6","5","7","2","5","6","7","7","6","6","625294467993174016","陈","140","Female","[""坏她"",""坏我"",""好我"",""好她""]","[""弱她"",""弱我"",""强我"",""强她""]","","","","","","","","","","","","","","","","","","","","","","","","","","","","","","feedback_test","","","","","","","","",""
"1020","","j","psychophysics","64","415913","0.0-8.0-0.0-1.0-0.0-0.27","6","5","7","6","5","4","4","4","4","5","4","-1","-3","1","0","2","0","1","2","4","5","5","4","4","5","4","4","5","4","8","6","7","7","8","9","7","8","6","5","6","6","7","5","7","6","5","5","6","1","6","6","3","7","5","7","6","5","7","6","3","7","3","6","6","7","5","6","7","6","6","5","7","2","5","6","7","7","6","6","625294467993174016","陈","140","Female","[""坏她"",""坏我"",""好我"",""好她""]","[""弱她"",""弱我"",""强我"",""强她""]","","","","","","","","nonmatch","","","","","","","","","","key","j","16.653487603305667","710.7407909492769","395.92595389514173","j","true","nonmatch","img/square.png","好她","坏她","prac_ALT2_moral","practice_moral","","","","","","","","",""
"null","<span style='color:GreenYellow; font-size: 70px;'>正确! </span>","null","html-keyboard-response","65","416414","0.0-8.0-0.0-1.0-0.0-1.27","6","5","7","6","5","4","4","4","4","5","4","-1","-3","1","0","2","0","1","2","4","5","5","4","4","5","4","4","5","4","8","6","7","7","8","9","7","8","6","5","6","6","7","5","7","6","5","5","6","1","6","6","3","7","5","7","6","5","7","6","3","7","3","6","6","7","5","6","7","6","6","5","7","2","5","6","7","7","6","6","625294467993174016","陈","140","Female","[""坏她"",""坏我"",""好我"",""好她""]","[""弱她"",""弱我"",""强我"",""强她""]","","","","","","","","","","","","","","","","","","","","","","","","","","","","","","feedback_test","","","","","","","","",""
"862","","f","psychophysics","66","418279","0.0-8.0-0.0-1.0-0.0-0.28","6","5","7","6","5","4","4","4","4","5","4","-1","-3","1","0","2","0","1","2","4","5","5","4","4","5","4","4","5","4","8","6","7","7","8","9","7","8","6","5","6","6","7","5","7","6","5","5","6","1","6","6","3","7","5","7","6","5","7","6","3","7","3","6","6","7","5","6","7","6","6","5","7","2","5","6","7","7","6","6","625294467993174016","陈","140","Female","[""坏她"",""坏我"",""好我"",""好她""]","[""弱她"",""弱我"",""强我"",""强她""]","","","","","","","","match","","","","","","","","","","key","f","16.653612612612935","710.7407909492769","395.92595389514173","f","true","match","img/triangle.png","好我","好我","prac_ALT2_moral","practice_moral","","","","","","","","",""
"null","<span style='color:GreenYellow; font-size: 70px;'>正确! </span>","null","html-keyboard-response","67","418780","0.0-8.0-0.0-1.0-0.0-1.28","6","5","7","6","5","4","4","4","4","5","4","-1","-3","1","0","2","0","1","2","4","5","5","4","4","5","4","4","5","4","8","6","7","7","8","9","7","8","6","5","6","6","7","5","7","6","5","5","6","1","6","6","3","7","5","7","6","5","7","6","3","7","3","6","6","7","5","6","7","6","6","5","7","2","5","6","7","7","6","6","625294467993174016","陈","140","Female","[""坏她"",""坏我"",""好我"",""好她""]","[""弱她"",""弱我"",""强我"",""强她""]","","","","","","","","","","","","","","","","","","","","","","","","","","","","","","feedback_test","","","","","","","","",""
"453","","f","psychophysics","68","420234","0.0-8.0-0.0-1.0-0.0-0.29","6","5","7","6","5","4","4","4","4","5","4","-1","-3","1","0","2","0","1","2","4","5","5","4","4","5","4","4","5","4","8","6","7","7","8","9","7","8","6","5","6","6","7","5","7","6","5","5","6","1","6","6","3","7","5","7","6","5","7","6","3","7","3","6","6","7","5","6","7","6","6","5","7","2","5","6","7","7","6","6","625294467993174016","陈","140","Female","[""坏她"",""坏我"",""好我"",""好她""]","[""弱她"",""弱我"",""强我"",""强她""]","","","","","","","","match","","","","","","","","","","key","f","16.65363953488359","710.7407909492769","395.92595389514173","f","true","match","img/triangle.png","好我","好我","prac_ALT2_moral","practice_moral","","","","","","","","",""
"null","<span style='color:GreenYellow; font-size: 70px;'>正确! </span>","null","html-keyboard-response","69","420738","0.0-8.0-0.0-1.0-0.0-1.29","6","5","7","6","5","4","4","4","4","5","4","-1","-3","1","0","2","0","1","2","4","5","5","4","4","5","4","4","5","4","8","6","7","7","8","9","7","8","6","5","6","6","7","5","7","6","5","5","6","1","6","6","3","7","5","7","6","5","7","6","3","7","3","6","6","7","5","6","7","6","6","5","7","2","5","6","7","7","6","6","625294467993174016","陈","140","Female","[""坏她"",""坏我"",""好我"",""好她""]","[""弱她"",""弱我"",""强我"",""强她""]","","","","","","","","","","","","","","","","","","","","","","","","","","","","","","feedback_test","","","","","","","","",""
"817","","j","psychophysics","70","422558","0.0-8.0-0.0-1.0-0.0-0.30","6","5","7","6","5","4","4","4","4","5","4","-1","-3","1","0","2","0","1","2","4","5","5","4","4","5","4","4","5","4","8","6","7","7","8","9","7","8","6","5","6","6","7","5","7","6","5","5","6","1","6","6","3","7","5","7","6","5","7","6","3","7","3","6","6","7","5","6","7","6","6","5","7","2","5","6","7","7","6","6","625294467993174016","陈","140","Female","[""坏她"",""坏我"",""好我"",""好她""]","[""弱她"",""弱我"",""强我"",""强她""]","","","","","","","","nonmatch","","","","","","","","","","key","j","16.653064814814975","710.7407909492769","395.92595389514173","j","true","nonmatch","img/pentagon.png","好她","坏我","prac_ALT2_moral","practice_moral","","","","","","","","",""
"null","<span style='color:GreenYellow; font-size: 70px;'>正确! </span>","null","html-keyboard-response","71","423058","0.0-8.0-0.0-1.0-0.0-1.30","6","5","7","6","5","4","4","4","4","5","4","-1","-3","1","0","2","0","1","2","4","5","5","4","4","5","4","4","5","4","8","6","7","7","8","9","7","8","6","5","6","6","7","5","7","6","5","5","6","1","6","6","3","7","5","7","6","5","7","6","3","7","3","6","6","7","5","6","7","6","6","5","7","2","5","6","7","7","6","6","625294467993174016","陈","140","Female","[""坏她"",""坏我"",""好我"",""好她""]","[""弱她"",""弱我"",""强我"",""强她""]","","","","","","","","","","","","","","","","","","","","","","","","","","","","","","feedback_test","","","","","","","","",""
"1178","","f","psychophysics","72","425239","0.0-8.0-0.0-1.0-0.0-0.31","6","5","7","6","5","4","4","4","4","5","4","-1","-3","1","0","2","0","1","2","4","5","5","4","4","5","4","4","5","4","8","6","7","7","8","9","7","8","6","5","6","6","7","5","7","6","5","5","6","1","6","6","3","7","5","7","6","5","7","6","3","7","3","6","6","7","5","6","7","6","6","5","7","2","5","6","7","7","6","6","625294467993174016","陈","140","Female","[""坏她"",""坏我"",""好我"",""好她""]","[""弱她"",""弱我"",""强我"",""强她""]","","","","","","","","match","","","","","","","","","","key","f","16.653361538461805","710.7407909492769","395.92595389514173","f","true","match","img/square.png","坏她","坏她","prac_ALT2_moral","practice_moral","","","","","","","","",""
"null","<span style='color:GreenYellow; font-size: 70px;'>正确! </span>","null","html-keyboard-response","73","425740","0.0-8.0-0.0-1.0-0.0-1.31","6","5","7","6","5","4","4","4","4","5","4","-1","-3","1","0","2","0","1","2","4","5","5","4","4","5","4","4","5","4","8","6","7","7","8","9","7","8","6","5","6","6","7","5","7","6","5","5","6","1","6","6","3","7","5","7","6","5","7","6","3","7","3","6","6","7","5","6","7","6","6","5","7","2","5","6","7","7","6","6","625294467993174016","陈","140","Female","[""坏她"",""坏我"",""好我"",""好她""]","[""弱她"",""弱我"",""强我"",""强她""]","","","","","","","","","","","","","","","","","","","","","","","","","","","","","","feedback_test","","","","","","","","",""
"842","","f","psychophysics","74","427584","0.0-8.0-0.0-1.0-0.0-0.32","6","5","7","6","5","4","4","4","4","5","4","-1","-3","1","0","2","0","1","2","4","5","5","4","4","5","4","4","5","4","8","6","7","7","8","9","7","8","6","5","6","6","7","5","7","6","5","5","6","1","6","6","3","7","5","7","6","5","7","6","3","7","3","6","6","7","5","6","7","6","6","5","7","2","5","6","7","7","6","6","625294467993174016","陈","140","Female","[""坏她"",""坏我"",""好我"",""好她""]","[""弱她"",""弱我"",""强我"",""强她""]","","","","","","","","match","","","","","","","","","","key","f","16.653627272727054","710.7407909492769","395.92595389514173","j","false","nonmatch","img/triangle.png","好她","好我","prac_ALT2_moral","practice_moral","","","","","","","","",""
"null","<span style='color:red; font-size: 70px;'>错误! </span>","null","html-keyboard-response","75","428089","0.0-8.0-0.0-1.0-0.0-1.32","6","5","7","6","5","4","4","4","4","5","4","-1","-3","1","0","2","0","1","2","4","5","5","4","4","5","4","4","5","4","8","6","7","7","8","9","7","8","6","5","6","6","7","5","7","6","5","5","6","1","6","6","3","7","5","7","6","5","7","6","3","7","3","6","6","7","5","6","7","6","6","5","7","2","5","6","7","7","6","6","625294467993174016","陈","140","Female","[""坏她"",""坏我"",""好我"",""好她""]","[""弱她"",""弱我"",""强我"",""强她""]","","","","","","","","","","","","","","","","","","","","","","","","","","","","","","feedback_test","","","","","","","","",""
"783","","j","psychophysics","76","429874","0.0-8.0-0.0-1.0-0.0-0.33","6","5","7","6","5","4","4","4","4","5","4","-1","-3","1","0","2","0","1","2","4","5","5","4","4","5","4","4","5","4","8","6","7","7","8","9","7","8","6","5","6","6","7","5","7","6","5","5","6","1","6","6","3","7","5","7","6","5","7","6","3","7","3","6","6","7","5","6","7","6","6","5","7","2","5","6","7","7","6","6","625294467993174016","陈","140","Female","[""坏她"",""坏我"",""好我"",""好她""]","[""弱她"",""弱我"",""强我"",""强她""]","","","","","","","","nonmatch","","","","","","","","","","key","j","16.652962264150737","710.7407909492769","395.92595389514173","j","true","nonmatch","img/pentagon.png","好我","坏我","prac_ALT2_moral","practice_moral","","","","","","","","",""
"null","<span style='color:GreenYellow; font-size: 70px;'>正确! </span>","null","html-keyboard-response","77","430376","0.0-8.0-0.0-1.0-0.0-1.33","6","5","7","6","5","4","4","4","4","5","4","-1","-3","1","0","2","0","1","2","4","5","5","4","4","5","4","4","5","4","8","6","7","7","8","9","7","8","6","5","6","6","7","5","7","6","5","5","6","1","6","6","3","7","5","7","6","5","7","6","3","7","3","6","6","7","5","6","7","6","6","5","7","2","5","6","7","7","6","6","625294467993174016","陈","140","Female","[""坏她"",""坏我"",""好我"",""好她""]","[""弱她"",""弱我"",""强我"",""强她""]","","","","","","","","","","","","","","","","","","","","","","","","","","","","","","feedback_test","","","","","","","","",""
"1131","","j","psychophysics","78","432508","0.0-8.0-0.0-1.0-0.0-0.34","6","5","7","6","5","4","4","4","4","5","4","-1","-3","1","0","2","0","1","2","4","5","5","4","4","5","4","4","5","4","8","6","7","7","8","9","7","8","6","5","6","6","7","5","7","6","5","5","6","1","6","6","3","7","5","7","6","5","7","6","3","7","3","6","6","7","5","6","7","6","6","5","7","2","5","6","7","7","6","6","625294467993174016","陈","140","Female","[""坏她"",""坏我"",""好我"",""好她""]","[""弱她"",""弱我"",""强我"",""强她""]","","","","","","","","nonmatch","","","","","","","","","","key","j","16.653015748031645","710.7407909492769","395.92595389514173","j","true","nonmatch","img/pentagon.png","坏她","坏我","prac_ALT2_moral","practice_moral","","","","","","","","",""
"null","<span style='color:GreenYellow; font-size: 70px;'>正确! </span>","null","html-keyboard-response","79","433009","0.0-8.0-0.0-1.0-0.0-1.34","6","5","7","6","5","4","4","4","4","5","4","-1","-3","1","0","2","0","1","2","4","5","5","4","4","5","4","4","5","4","8","6","7","7","8","9","7","8","6","5","6","6","7","5","7","6","5","5","6","1","6","6","3","7","5","7","6","5","7","6","3","7","3","6","6","7","5","6","7","6","6","5","7","2","5","6","7","7","6","6","625294467993174016","陈","140","Female","[""坏她"",""坏我"",""好我"",""好她""]","[""弱她"",""弱我"",""强我"",""强她""]","","","","","","","","","","","","","","","","","","","","","","","","","","","","","","feedback_test","","","","","","","","",""
"814","","f","psychophysics","80","434824","0.0-8.0-0.0-1.0-0.0-0.35","6","5","7","6","5","4","4","4","4","5","4","-1","-3","1","0","2","0","1","2","4","5","5","4","4","5","4","4","5","4","8","6","7","7","8","9","7","8","6","5","6","6","7","5","7","6","5","5","6","1","6","6","3","7","5","7","6","5","7","6","3","7","3","6","6","7","5","6","7","6","6","5","7","2","5","6","7","7","6","6","625294467993174016","陈","140","Female","[""坏她"",""坏我"",""好我"",""好她""]","[""弱她"",""弱我"",""强我"",""强她""]","","","","","","","","match","","","","","","","","","","key","f","16.65356481481501","710.7407909492769","395.92595389514173","f","true","match","img/ellipse.png","好她","好她","prac_ALT2_moral","practice_moral","","","","","","","","",""
"null","<span style='color:GreenYellow; font-size: 70px;'>正确! </span>","null","html-keyboard-response","81","435327","0.0-8.0-0.0-1.0-0.0-1.35","6","5","7","6","5","4","4","4","4","5","4","-1","-3","1","0","2","0","1","2","4","5","5","4","4","5","4","4","5","4","8","6","7","7","8","9","7","8","6","5","6","6","7","5","7","6","5","5","6","1","6","6","3","7","5","7","6","5","7","6","3","7","3","6","6","7","5","6","7","6","6","5","7","2","5","6","7","7","6","6","625294467993174016","陈","140","Female","[""坏她"",""坏我"",""好我"",""好她""]","[""弱她"",""弱我"",""强我"",""强她""]","","","","","","","","","","","","","","","","","","","","","","","","","","","","","","feedback_test","","","","","","","","",""
"622","","f","psychophysics","82","436963","0.0-8.0-0.0-1.0-0.0-0.36","6","5","7","6","5","4","4","4","4","5","4","-1","-3","1","0","2","0","1","2","4","5","5","4","4","5","4","4","5","4","8","6","7","7","8","9","7","8","6","5","6","6","7","5","7","6","5","5","6","1","6","6","3","7","5","7","6","5","7","6","3","7","3","6","6","7","5","6","7","6","6","5","7","2","5","6","7","7","6","6","625294467993174016","陈","140","Female","[""坏她"",""坏我"",""好我"",""好她""]","[""弱她"",""弱我"",""强我"",""强她""]","","","","","","","","match","","","","","","","","","","key","f","16.65338144329924","710.7407909492769","395.92595389514173","f","true","match","img/triangle.png","好我","好我","prac_ALT2_moral","practice_moral","","","","","","","","",""
"null","<span style='color:GreenYellow; font-size: 70px;'>正确! </span>","null","html-keyboard-response","83","437465","0.0-8.0-0.0-1.0-0.0-1.36","6","5","7","6","5","4","4","4","4","5","4","-1","-3","1","0","2","0","1","2","4","5","5","4","4","5","4","4","5","4","8","6","7","7","8","9","7","8","6","5","6","6","7","5","7","6","5","5","6","1","6","6","3","7","5","7","6","5","7","6","3","7","3","6","6","7","5","6","7","6","6","5","7","2","5","6","7","7","6","6","625294467993174016","陈","140","Female","[""坏她"",""坏我"",""好我"",""好她""]","[""弱她"",""弱我"",""强我"",""强她""]","","","","","","","","","","","","","","","","","","","","","","","","","","","","","","feedback_test","","","","","","","","",""
"793","","f","psychophysics","84","439261","0.0-8.0-0.0-1.0-0.0-0.37","6","5","7","6","5","4","4","4","4","5","4","-1","-3","1","0","2","0","1","2","4","5","5","4","4","5","4","4","5","4","8","6","7","7","8","9","7","8","6","5","6","6","7","5","7","6","5","5","6","1","6","6","3","7","5","7","6","5","7","6","3","7","3","6","6","7","5","6","7","6","6","5","7","2","5","6","7","7","6","6","625294467993174016","陈","140","Female","[""坏她"",""坏我"",""好我"",""好她""]","[""弱她"",""弱我"",""强我"",""强她""]","","","","","","","","match","","","","","","","","","","key","f","16.6533831775702","710.7407909492769","395.92595389514173","f","true","match","img/pentagon.png","坏我","坏我","prac_ALT2_moral","practice_moral","","","","","","","","",""
"null","<span style='color:GreenYellow; font-size: 70px;'>正确! </span>","null","html-keyboard-response","85","439763","0.0-8.0-0.0-1.0-0.0-1.37","6","5","7","6","5","4","4","4","4","5","4","-1","-3","1","0","2","0","1","2","4","5","5","4","4","5","4","4","5","4","8","6","7","7","8","9","7","8","6","5","6","6","7","5","7","6","5","5","6","1","6","6","3","7","5","7","6","5","7","6","3","7","3","6","6","7","5","6","7","6","6","5","7","2","5","6","7","7","6","6","625294467993174016","陈","140","Female","[""坏她"",""坏我"",""好我"",""好她""]","[""弱她"",""弱我"",""强我"",""强她""]","","","","","","","","","","","","","","","","","","","","","","","","","","","","","","feedback_test","","","","","","","","",""
"735","","f","psychophysics","86","441500","0.0-8.0-0.0-1.0-0.0-0.38","6","5","7","6","5","4","4","4","4","5","4","-1","-3","1","0","2","0","1","2","4","5","5","4","4","5","4","4","5","4","8","6","7","7","8","9","7","8","6","5","6","6","7","5","7","6","5","5","6","1","6","6","3","7","5","7","6","5","7","6","3","7","3","6","6","7","5","6","7","6","6","5","7","2","5","6","7","7","6","6","625294467993174016","陈","140","Female","[""坏她"",""坏我"",""好我"",""好她""]","[""弱她"",""弱我"",""强我"",""强她""]","","","","","","","","match","","","","","","","","","","key","f","16.653504854368805","710.7407909492769","395.92595389514173","f","true","match","img/square.png","坏她","坏她","prac_ALT2_moral","practice_moral","","","","","","","","",""
"null","<span style='color:GreenYellow; font-size: 70px;'>正确! </span>","null","html-keyboard-response","87","442002","0.0-8.0-0.0-1.0-0.0-1.38","6","5","7","6","5","4","4","4","4","5","4","-1","-3","1","0","2","0","1","2","4","5","5","4","4","5","4","4","5","4","8","6","7","7","8","9","7","8","6","5","6","6","7","5","7","6","5","5","6","1","6","6","3","7","5","7","6","5","7","6","3","7","3","6","6","7","5","6","7","6","6","5","7","2","5","6","7","7","6","6","625294467993174016","陈","140","Female","[""坏她"",""坏我"",""好我"",""好她""]","[""弱她"",""弱我"",""强我"",""强她""]","","","","","","","","","","","","","","","","","","","","","","","","","","","","","","feedback_test","","","","","","","","",""
"787","","j","psychophysics","88","443790","0.0-8.0-0.0-1.0-0.0-0.39","6","5","7","6","5","4","4","4","4","5","4","-1","-3","1","0","2","0","1","2","4","5","5","4","4","5","4","4","5","4","8","6","7","7","8","9","7","8","6","5","6","6","7","5","7","6","5","5","6","1","6","6","3","7","5","7","6","5","7","6","3","7","3","6","6","7","5","6","7","6","6","5","7","2","5","6","7","7","6","6","625294467993174016","陈","140","Female","[""坏她"",""坏我"",""好我"",""好她""]","[""弱她"",""弱我"",""强我"",""强她""]","","","","","","","","nonmatch","","","","","","","","","","key","j","16.6409905660378","710.7407909492769","395.92595389514173","j","true","nonmatch","img/square.png","好我","坏她","prac_ALT2_moral","practice_moral","","","","","","","","",""
"null","<span style='color:GreenYellow; font-size: 70px;'>正确! </span>","null","html-keyboard-response","89","444293","0.0-8.0-0.0-1.0-0.0-1.39","6","5","7","6","5","4","4","4","4","5","4","-1","-3","1","0","2","0","1","2","4","5","5","4","4","5","4","4","5","4","8","6","7","7","8","9","7","8","6","5","6","6","7","5","7","6","5","5","6","1","6","6","3","7","5","7","6","5","7","6","3","7","3","6","6","7","5","6","7","6","6","5","7","2","5","6","7","7","6","6","625294467993174016","陈","140","Female","[""坏她"",""坏我"",""好我"",""好她""]","[""弱她"",""弱我"",""强我"",""强她""]","","","","","","","","","","","","","","","","","","","","","","","","","","","","","","feedback_test","","","","","","","","",""
"719","","f","psychophysics","90","446014","0.0-8.0-0.0-1.0-0.0-0.40","6","5","7","6","5","4","4","4","4","5","4","-1","-3","1","0","2","0","1","2","4","5","5","4","4","5","4","4","5","4","8","6","7","7","8","9","7","8","6","5","6","6","7","5","7","6","5","5","6","1","6","6","3","7","5","7","6","5","7","6","3","7","3","6","6","7","5","6","7","6","6","5","7","2","5","6","7","7","6","6","625294467993174016","陈","140","Female","[""坏她"",""坏我"",""好我"",""好她""]","[""弱她"",""弱我"",""强我"",""强她""]","","","","","","","","match","","","","","","","","","","key","f","16.653343137254932","710.7407909492769","395.92595389514173","f","true","match","img/ellipse.png","好她","好她","prac_ALT2_moral","practice_moral","","","","","","","","",""
"null","<span style='color:GreenYellow; font-size: 70px;'>正确! </span>","null","html-keyboard-response","91","446516","0.0-8.0-0.0-1.0-0.0-1.40","6","5","7","6","5","4","4","4","4","5","4","-1","-3","1","0","2","0","1","2","4","5","5","4","4","5","4","4","5","4","8","6","7","7","8","9","7","8","6","5","6","6","7","5","7","6","5","5","6","1","6","6","3","7","5","7","6","5","7","6","3","7","3","6","6","7","5","6","7","6","6","5","7","2","5","6","7","7","6","6","625294467993174016","陈","140","Female","[""坏她"",""坏我"",""好我"",""好她""]","[""弱她"",""弱我"",""强我"",""强她""]","","","","","","","","","","","","","","","","","","","","","","","","","","","","","","feedback_test","","","","","","","","",""
"994","","j","psychophysics","92","448511","0.0-8.0-0.0-1.0-0.0-0.41","6","5","7","6","5","4","4","4","4","5","4","-1","-3","1","0","2","0","1","2","4","5","5","4","4","5","4","4","5","4","8","6","7","7","8","9","7","8","6","5","6","6","7","5","7","6","5","5","6","1","6","6","3","7","5","7","6","5","7","6","3","7","3","6","6","7","5","6","7","6","6","5","7","2","5","6","7","7","6","6","625294467993174016","陈","140","Female","[""坏她"",""坏我"",""好我"",""好她""]","[""弱她"",""弱我"",""强我"",""强她""]","","","","","","","","nonmatch","","","","","","","","","","key","j","16.653372881355917","710.7407909492769","395.92595389514173","f","false","match","img/pentagon.png","坏我","坏我","prac_ALT2_moral","practice_moral","","","","","","","","",""
"null","<span style='color:red; font-size: 70px;'>错误! </span>","null","html-keyboard-response","93","449014","0.0-8.0-0.0-1.0-0.0-1.41","6","5","7","6","5","4","4","4","4","5","4","-1","-3","1","0","2","0","1","2","4","5","5","4","4","5","4","4","5","4","8","6","7","7","8","9","7","8","6","5","6","6","7","5","7","6","5","5","6","1","6","6","3","7","5","7","6","5","7","6","3","7","3","6","6","7","5","6","7","6","6","5","7","2","5","6","7","7","6","6","625294467993174016","陈","140","Female","[""坏她"",""坏我"",""好我"",""好她""]","[""弱她"",""弱我"",""强我"",""强她""]","","","","","","","","","","","","","","","","","","","","","","","","","","","","","","feedback_test","","","","","","","","",""
"694","","f","psychophysics","94","450709","0.0-8.0-0.0-1.0-0.0-0.42","6","5","7","6","5","4","4","4","4","5","4","-1","-3","1","0","2","0","1","2","4","5","5","4","4","5","4","4","5","4","8","6","7","7","8","9","7","8","6","5","6","6","7","5","7","6","5","5","6","1","6","6","3","7","5","7","6","5","7","6","3","7","3","6","6","7","5","6","7","6","6","5","7","2","5","6","7","7","6","6","625294467993174016","陈","140","Female","[""坏她"",""坏我"",""好我"",""好她""]","[""弱她"",""弱我"",""强我"",""强她""]","","","","","","","","match","","","","","","","","","","key","f","16.65338999999978","710.7407909492769","395.92595389514173","f","true","match","img/square.png","坏她","坏她","prac_ALT2_moral","practice_moral","","","","","","","","",""
"null","<span style='color:GreenYellow; font-size: 70px;'>正确! </span>","null","html-keyboard-response","95","451210","0.0-8.0-0.0-1.0-0.0-1.42","6","5","7","6","5","4","4","4","4","5","4","-1","-3","1","0","2","0","1","2","4","5","5","4","4","5","4","4","5","4","8","6","7","7","8","9","7","8","6","5","6","6","7","5","7","6","5","5","6","1","6","6","3","7","5","7","6","5","7","6","3","7","3","6","6","7","5","6","7","6","6","5","7","2","5","6","7","7","6","6","625294467993174016","陈","140","Female","[""坏她"",""坏我"",""好我"",""好她""]","[""弱她"",""弱我"",""强我"",""强她""]","","","","","","","","","","","","","","","","","","","","","","","","","","","","","","feedback_test","","","","","","","","",""
"723","","f","psychophysics","96","452934","0.0-8.0-0.0-1.0-0.0-0.43","6","5","7","6","5","4","4","4","4","5","4","-1","-3","1","0","2","0","1","2","4","5","5","4","4","5","4","4","5","4","8","6","7","7","8","9","7","8","6","5","6","6","7","5","7","6","5","5","6","1","6","6","3","7","5","7","6","5","7","6","3","7","3","6","6","7","5","6","7","6","6","5","7","2","5","6","7","7","6","6","625294467993174016","陈","140","Female","[""坏她"",""坏我"",""好我"",""好她""]","[""弱她"",""弱我"",""强我"",""强她""]","","","","","","","","match","","","","","","","","","","key","f","16.653747572815632","710.7407909492769","395.92595389514173","f","true","match","img/ellipse.png","好她","好她","prac_ALT2_moral","practice_moral","","","","","","","","",""
"null","<span style='color:GreenYellow; font-size: 70px;'>正确! </span>","null","html-keyboard-response","97","453435","0.0-8.0-0.0-1.0-0.0-1.43","6","5","7","6","5","4","4","4","4","5","4","-1","-3","1","0","2","0","1","2","4","5","5","4","4","5","4","4","5","4","8","6","7","7","8","9","7","8","6","5","6","6","7","5","7","6","5","5","6","1","6","6","3","7","5","7","6","5","7","6","3","7","3","6","6","7","5","6","7","6","6","5","7","2","5","6","7","7","6","6","625294467993174016","陈","140","Female","[""坏她"",""坏我"",""好我"",""好她""]","[""弱她"",""弱我"",""强我"",""强她""]","","","","","","","","","","","","","","","","","","","","","","","","","","","","","","feedback_test","","","","","","","","",""
"828","","j","psychophysics","98","455265","0.0-8.0-0.0-1.0-0.0-0.44","6","5","7","6","5","4","4","4","4","5","4","-1","-3","1","0","2","0","1","2","4","5","5","4","4","5","4","4","5","4","8","6","7","7","8","9","7","8","6","5","6","6","7","5","7","6","5","5","6","1","6","6","3","7","5","7","6","5","7","6","3","7","3","6","6","7","5","6","7","6","6","5","7","2","5","6","7","7","6","6","625294467993174016","陈","140","Female","[""坏她"",""坏我"",""好我"",""好她""]","[""弱她"",""弱我"",""强我"",""强她""]","","","","","","","","nonmatch","","","","","","","","","","key","j","16.65185321100887","710.7407909492769","395.92595389514173","j","true","nonmatch","img/triangle.png","坏我","好我","prac_ALT2_moral","practice_moral","","","","","","","","",""
"null","<span style='color:GreenYellow; font-size: 70px;'>正确! </span>","null","html-keyboard-response","99","455767","0.0-8.0-0.0-1.0-0.0-1.44","6","5","7","6","5","4","4","4","4","5","4","-1","-3","1","0","2","0","1","2","4","5","5","4","4","5","4","4","5","4","8","6","7","7","8","9","7","8","6","5","6","6","7","5","7","6","5","5","6","1","6","6","3","7","5","7","6","5","7","6","3","7","3","6","6","7","5","6","7","6","6","5","7","2","5","6","7","7","6","6","625294467993174016","陈","140","Female","[""坏她"",""坏我"",""好我"",""好她""]","[""弱她"",""弱我"",""强我"",""强她""]","","","","","","","","","","","","","","","","","","","","","","","","","","","","","","feedback_test","","","","","","","","",""
"661","","j","psychophysics","100","457429","0.0-8.0-0.0-1.0-0.0-0.45","6","5","7","6","5","4","4","4","4","5","4","-1","-3","1","0","2","0","1","2","4","5","5","4","4","5","4","4","5","4","8","6","7","7","8","9","7","8","6","5","6","6","7","5","7","6","5","5","6","1","6","6","3","7","5","7","6","5","7","6","3","7","3","6","6","7","5","6","7","6","6","5","7","2","5","6","7","7","6","6","625294467993174016","陈","140","Female","[""坏她"",""坏我"",""好我"",""好她""]","[""弱她"",""弱我"",""强我"",""强她""]","","","","","","","","nonmatch","","","","","","","","","","key","j","16.6537272727271","710.7407909492769","395.92595389514173","j","true","nonmatch","img/triangle.png","坏她","好我","prac_ALT2_moral","practice_moral","","","","","","","","",""
"null","<span style='color:GreenYellow; font-size: 70px;'>正确! </span>","null","html-keyboard-response","101","457930","0.0-8.0-0.0-1.0-0.0-1.45","6","5","7","6","5","4","4","4","4","5","4","-1","-3","1","0","2","0","1","2","4","5","5","4","4","5","4","4","5","4","8","6","7","7","8","9","7","8","6","5","6","6","7","5","7","6","5","5","6","1","6","6","3","7","5","7","6","5","7","6","3","7","3","6","6","7","5","6","7","6","6","5","7","2","5","6","7","7","6","6","625294467993174016","陈","140","Female","[""坏她"",""坏我"",""好我"",""好她""]","[""弱她"",""弱我"",""强我"",""强她""]","","","","","","","","","","","","","","","","","","","","","","","","","","","","","","feedback_test","","","","","","","","",""
"663","","f","psychophysics","102","459594","0.0-8.0-0.0-1.0-0.0-0.46","6","5","7","6","5","4","4","4","4","5","4","-1","-3","1","0","2","0","1","2","4","5","5","4","4","5","4","4","5","4","8","6","7","7","8","9","7","8","6","5","6","6","7","5","7","6","5","5","6","1","6","6","3","7","5","7","6","5","7","6","3","7","3","6","6","7","5","6","7","6","6","5","7","2","5","6","7","7","6","6","625294467993174016","陈","140","Female","[""坏她"",""坏我"",""好我"",""好她""]","[""弱她"",""弱我"",""强我"",""强她""]","","","","","","","","match","","","","","","","","","","key","f","16.653464646464347","710.7407909492769","395.92595389514173","j","false","nonmatch","img/ellipse.png","好我","好她","prac_ALT2_moral","practice_moral","","","","","","","","",""
"null","<span style='color:red; font-size: 70px;'>错误! </span>","null","html-keyboard-response","103","460095","0.0-8.0-0.0-1.0-0.0-1.46","6","5","7","6","5","4","4","4","4","5","4","-1","-3","1","0","2","0","1","2","4","5","5","4","4","5","4","4","5","4","8","6","7","7","8","9","7","8","6","5","6","6","7","5","7","6","5","5","6","1","6","6","3","7","5","7","6","5","7","6","3","7","3","6","6","7","5","6","7","6","6","5","7","2","5","6","7","7","6","6","625294467993174016","陈","140","Female","[""坏她"",""坏我"",""好我"",""好她""]","[""弱她"",""弱我"",""强我"",""强她""]","","","","","","","","","","","","","","","","","","","","","","","","","","","","","","feedback_test","","","","","","","","",""
"896","","f","psychophysics","104","461993","0.0-8.0-0.0-1.0-0.0-0.47","6","5","7","6","5","4","4","4","4","5","4","-1","-3","1","0","2","0","1","2","4","5","5","4","4","5","4","4","5","4","8","6","7","7","8","9","7","8","6","5","6","6","7","5","7","6","5","5","6","1","6","6","3","7","5","7","6","5","7","6","3","7","3","6","6","7","5","6","7","6","6","5","7","2","5","6","7","7","6","6","625294467993174016","陈","140","Female","[""坏她"",""坏我"",""好我"",""好她""]","[""弱她"",""弱我"",""强我"",""强她""]","","","","","","","","match","","","","","","","","","","key","f","16.653477876106138","710.7407909492769","395.92595389514173","f","true","match","img/pentagon.png","坏我","坏我","prac_ALT2_moral","practice_moral","","","","","","","","",""
"null","<span style='color:GreenYellow; font-size: 70px;'>正确! </span>","null","html-keyboard-response","105","462496","0.0-8.0-0.0-1.0-0.0-1.47","6","5","7","6","5","4","4","4","4","5","4","-1","-3","1","0","2","0","1","2","4","5","5","4","4","5","4","4","5","4","8","6","7","7","8","9","7","8","6","5","6","6","7","5","7","6","5","5","6","1","6","6","3","7","5","7","6","5","7","6","3","7","3","6","6","7","5","6","7","6","6","5","7","2","5","6","7","7","6","6","625294467993174016","陈","140","Female","[""坏她"",""坏我"",""好我"",""好她""]","[""弱她"",""弱我"",""强我"",""强她""]","","","","","","","","","","","","","","","","","","","","","","","","","","","","","","feedback_test","","","","","","","","",""
"1230","<style>.context{color:white; font-size: 35px; line-height:40px}</style>                            <div><p class='context'>您正确回答了81% 的试次。</p><p class='context'>您的平均反应时为873毫秒。</p><p class='context'>恭喜您完成练习。按空格键进入正式实验。</p><p class='footer' style='font-size: 35px; line-height:40px;'>请在进入正式实验实验之前将您的<span style='color: lightgreen;'>食指</span>放在电脑键盘的相应键位上进行按键。</p>"," ","html-keyboard-response","106","463731","0.0-8.0-0.0-2.0","6","5","7","6","5","4","4","4","4","5","4","-1","-3","1","0","2","0","1","2","4","5","5","4","4","5","4","4","5","4","8","6","7","7","8","9","7","8","6","5","6","6","7","5","7","6","5","5","6","1","6","6","3","7","5","7","6","5","7","6","3","7","3","6","6","7","5","6","7","6","6","5","7","2","5","6","7","7","6","6","625294467993174016","陈","140","Female","[""坏她"",""坏我"",""好我"",""好她""]","[""弱她"",""弱我"",""强我"",""强她""]","","","","","","","","","","","","","","","","","","","","","","","","","","","","","","","","","","","","","","",""
"1126","
    <p style='color: white; font-size: 22px'>请您将手指放在按键上，准备进入正式的匹配任务。</p>
    <p> <div style = ""color: green""><按空格键进入下一阶段的匹配任务></div></p>
    "," ","html-keyboard-response","107","464861","0.0-8.0-0.0-3.0","6","5","7","6","5","4","4","4","4","5","4","-1","-3","1","0","2","0","1","2","4","5","5","4","4","5","4","4","5","4","8","6","7","7","8","9","7","8","6","5","6","6","7","5","7","6","5","5","6","1","6","6","3","7","5","7","6","5","7","6","3","7","3","6","6","7","5","6","7","6","6","5","7","2","5","6","7","7","6","6","625294467993174016","陈","140","Female","[""坏她"",""坏我"",""好我"",""好她""]","[""弱她"",""弱我"",""强我"",""强她""]","","","","","","","","","","","","","","","","","","","","","","","","","","","","","","","","","","","","","","",""
"819","","j","psychophysics","108","466682","0.0-8.0-0.0-4.0-0.0-0.0","6","5","7","6","5","4","4","4","4","5","4","-1","-3","1","0","2","0","1","2","4","5","5","4","4","5","4","4","5","4","8","6","7","7","8","9","7","8","6","5","6","6","7","5","7","6","5","5","6","1","6","6","3","7","5","7","6","5","7","6","3","7","3","6","6","7","5","6","7","6","6","5","7","2","5","6","7","7","6","6","625294467993174016","陈","140","Female","[""坏她"",""坏我"",""好我"",""好她""]","[""弱她"",""弱我"",""强我"",""强她""]","","","","","","","","nonmatch","","","","","","","","","","key","j","16.652101851851544","710.7407909492769","395.92595389514173","j","true","nonmatch","img/square.png","好我","坏她","ALT2","moral","","","","","","","","",""
"null","<span style='color:GreenYellow; font-size: 70px;'>正确! </span>","null","html-keyboard-response","109","467185","0.0-8.0-0.0-4.0-0.0-1.0","6","5","7","6","5","4","4","4","4","5","4","-1","-3","1","0","2","0","1","2","4","5","5","4","4","5","4","4","5","4","8","6","7","7","8","9","7","8","6","5","6","6","7","5","7","6","5","5","6","1","6","6","3","7","5","7","6","5","7","6","3","7","3","6","6","7","5","6","7","6","6","5","7","2","5","6","7","7","6","6","625294467993174016","陈","140","Female","[""坏她"",""坏我"",""好我"",""好她""]","[""弱她"",""弱我"",""强我"",""强她""]","","","","","","","","","","","","","","","","","","","","","","","","","","","","","","feedback_test","","","","","","","","",""
"773","","j","psychophysics","110","468961","0.0-8.0-0.0-4.0-0.0-0.1","6","5","7","6","5","4","4","4","4","5","4","-1","-3","1","0","2","0","1","2","4","5","5","4","4","5","4","4","5","4","8","6","7","7","8","9","7","8","6","5","6","6","7","5","7","6","5","5","6","1","6","6","3","7","5","7","6","5","7","6","3","7","3","6","6","7","5","6","7","6","6","5","7","2","5","6","7","7","6","6","625294467993174016","陈","140","Female","[""坏她"",""坏我"",""好我"",""好她""]","[""弱她"",""弱我"",""强我"",""强她""]","","","","","","","","nonmatch","","","","","","","","","","key","j","16.65374285714324","710.7407909492769","395.92595389514173","j","true","nonmatch","img/pentagon.png","好我","坏我","ALT2","moral","","","","","","","","",""
"null","<span style='color:GreenYellow; font-size: 70px;'>正确! </span>","null","html-keyboard-response","111","469462","0.0-8.0-0.0-4.0-0.0-1.1","6","5","7","6","5","4","4","4","4","5","4","-1","-3","1","0","2","0","1","2","4","5","5","4","4","5","4","4","5","4","8","6","7","7","8","9","7","8","6","5","6","6","7","5","7","6","5","5","6","1","6","6","3","7","5","7","6","5","7","6","3","7","3","6","6","7","5","6","7","6","6","5","7","2","5","6","7","7","6","6","625294467993174016","陈","140","Female","[""坏她"",""坏我"",""好我"",""好她""]","[""弱她"",""弱我"",""强我"",""强她""]","","","","","","","","","","","","","","","","","","","","","","","","","","","","","","feedback_test","","","","","","","","",""
"747","","f","psychophysics","112","471210","0.0-8.0-0.0-4.0-0.0-0.2","6","5","7","6","5","4","4","4","4","5","4","-1","-3","1","0","2","0","1","2","4","5","5","4","4","5","4","4","5","4","8","6","7","7","8","9","7","8","6","5","6","6","7","5","7","6","5","5","6","1","6","6","3","7","5","7","6","5","7","6","3","7","3","6","6","7","5","6","7","6","6","5","7","2","5","6","7","7","6","6","625294467993174016","陈","140","Female","[""坏她"",""坏我"",""好我"",""好她""]","[""弱她"",""弱我"",""强我"",""强她""]","","","","","","","","match","","","","","","","","","","key","f","16.653451923076666","710.7407909492769","395.92595389514173","f","true","match","img/ellipse.png","好她","好她","ALT2","moral","","","","","","","","",""
"null","<span style='color:GreenYellow; font-size: 70px;'>正确! </span>","null","html-keyboard-response","113","471711","0.0-8.0-0.0-4.0-0.0-1.2","6","5","7","6","5","4","4","4","4","5","4","-1","-3","1","0","2","0","1","2","4","5","5","4","4","5","4","4","5","4","8","6","7","7","8","9","7","8","6","5","6","6","7","5","7","6","5","5","6","1","6","6","3","7","5","7","6","5","7","6","3","7","3","6","6","7","5","6","7","6","6","5","7","2","5","6","7","7","6","6","625294467993174016","陈","140","Female","[""坏她"",""坏我"",""好我"",""好她""]","[""弱她"",""弱我"",""强我"",""强她""]","","","","","","","","","","","","","","","","","","","","","","","","","","","","","","feedback_test","","","","","","","","",""
"771","","j","psychophysics","114","473486","0.0-8.0-0.0-4.0-0.0-0.3","6","5","7","6","5","4","4","4","4","5","4","-1","-3","1","0","2","0","1","2","4","5","5","4","4","5","4","4","5","4","8","6","7","7","8","9","7","8","6","5","6","6","7","5","7","6","5","5","6","1","6","6","3","7","5","7","6","5","7","6","3","7","3","6","6","7","5","6","7","6","6","5","7","2","5","6","7","7","6","6","625294467993174016","陈","140","Female","[""坏她"",""坏我"",""好我"",""好她""]","[""弱她"",""弱我"",""强我"",""强她""]","","","","","","","","nonmatch","","","","","","","","","","key","j","16.640866666666366","710.7407909492769","395.92595389514173","j","true","nonmatch","img/pentagon.png","好她","坏我","ALT2","moral","","","","","","","","",""
"null","<span style='color:GreenYellow; font-size: 70px;'>正确! </span>","null","html-keyboard-response","115","473987","0.0-8.0-0.0-4.0-0.0-1.3","6","5","7","6","5","4","4","4","4","5","4","-1","-3","1","0","2","0","1","2","4","5","5","4","4","5","4","4","5","4","8","6","7","7","8","9","7","8","6","5","6","6","7","5","7","6","5","5","6","1","6","6","3","7","5","7","6","5","7","6","3","7","3","6","6","7","5","6","7","6","6","5","7","2","5","6","7","7","6","6","625294467993174016","陈","140","Female","[""坏她"",""坏我"",""好我"",""好她""]","[""弱她"",""弱我"",""强我"",""强她""]","","","","","","","","","","","","","","","","","","","","","","","","","","","","","","feedback_test","","","","","","","","",""
"791","","f","psychophysics","116","475781","0.0-8.0-0.0-4.0-0.0-0.4","6","5","7","6","5","4","4","4","4","5","4","-1","-3","1","0","2","0","1","2","4","5","5","4","4","5","4","4","5","4","8","6","7","7","8","9","7","8","6","5","6","6","7","5","7","6","5","5","6","1","6","6","3","7","5","7","6","5","7","6","3","7","3","6","6","7","5","6","7","6","6","5","7","2","5","6","7","7","6","6","625294467993174016","陈","140","Female","[""坏她"",""坏我"",""好我"",""好她""]","[""弱她"",""弱我"",""强我"",""强她""]","","","","","","","","match","","","","","","","","","","key","f","16.651514018691586","710.7407909492769","395.92595389514173","j","false","nonmatch","img/triangle.png","好她","好我","ALT2","moral","","","","","","","","",""
"null","<span style='color:red; font-size: 70px;'>错误! </span>","null","html-keyboard-response","117","476282","0.0-8.0-0.0-4.0-0.0-1.4","6","5","7","6","5","4","4","4","4","5","4","-1","-3","1","0","2","0","1","2","4","5","5","4","4","5","4","4","5","4","8","6","7","7","8","9","7","8","6","5","6","6","7","5","7","6","5","5","6","1","6","6","3","7","5","7","6","5","7","6","3","7","3","6","6","7","5","6","7","6","6","5","7","2","5","6","7","7","6","6","625294467993174016","陈","140","Female","[""坏她"",""坏我"",""好我"",""好她""]","[""弱她"",""弱我"",""强我"",""强她""]","","","","","","","","","","","","","","","","","","","","","","","","","","","","","","feedback_test","","","","","","","","",""
"763","","f","psychophysics","118","478046","0.0-8.0-0.0-4.0-0.0-0.5","6","5","7","6","5","4","4","4","4","5","4","-1","-3","1","0","2","0","1","2","4","5","5","4","4","5","4","4","5","4","8","6","7","7","8","9","7","8","6","5","6","6","7","5","7","6","5","5","6","1","6","6","3","7","5","7","6","5","7","6","3","7","3","6","6","7","5","6","7","6","6","5","7","2","5","6","7","7","6","6","625294467993174016","陈","140","Female","[""坏她"",""坏我"",""好我"",""好她""]","[""弱她"",""弱我"",""强我"",""强她""]","","","","","","","","match","","","","","","","","","","key","f","16.653685714286155","710.7407909492769","395.92595389514173","f","true","match","img/ellipse.png","好她","好她","ALT2","moral","","","","","","","","",""
"null","<span style='color:GreenYellow; font-size: 70px;'>正确! </span>","null","html-keyboard-response","119","478547","0.0-8.0-0.0-4.0-0.0-1.5","6","5","7","6","5","4","4","4","4","5","4","-1","-3","1","0","2","0","1","2","4","5","5","4","4","5","4","4","5","4","8","6","7","7","8","9","7","8","6","5","6","6","7","5","7","6","5","5","6","1","6","6","3","7","5","7","6","5","7","6","3","7","3","6","6","7","5","6","7","6","6","5","7","2","5","6","7","7","6","6","625294467993174016","陈","140","Female","[""坏她"",""坏我"",""好我"",""好她""]","[""弱她"",""弱我"",""强我"",""强她""]","","","","","","","","","","","","","","","","","","","","","","","","","","","","","","feedback_test","","","","","","","","",""
"898","","f","psychophysics","120","480447","0.0-8.0-0.0-4.0-0.0-0.6","6","5","7","6","5","4","4","4","4","5","4","-1","-3","1","0","2","0","1","2","4","5","5","4","4","5","4","4","5","4","8","6","7","7","8","9","7","8","6","5","6","6","7","5","7","6","5","5","6","1","6","6","3","7","5","7","6","5","7","6","3","7","3","6","6","7","5","6","7","6","6","5","7","2","5","6","7","7","6","6","625294467993174016","陈","140","Female","[""坏她"",""坏我"",""好我"",""好她""]","[""弱她"",""弱我"",""强我"",""强她""]","","","","","","","","match","","","","","","","","","","key","f","16.653141592920292","710.7407909492769","395.92595389514173","f","true","match","img/square.png","坏她","坏她","ALT2","moral","","","","","","","","",""
"null","<span style='color:GreenYellow; font-size: 70px;'>正确! </span>","null","html-keyboard-response","121","480948","0.0-8.0-0.0-4.0-0.0-1.6","6","5","7","6","5","4","4","4","4","5","4","-1","-3","1","0","2","0","1","2","4","5","5","4","4","5","4","4","5","4","8","6","7","7","8","9","7","8","6","5","6","6","7","5","7","6","5","5","6","1","6","6","3","7","5","7","6","5","7","6","3","7","3","6","6","7","5","6","7","6","6","5","7","2","5","6","7","7","6","6","625294467993174016","陈","140","Female","[""坏她"",""坏我"",""好我"",""好她""]","[""弱她"",""弱我"",""强我"",""强她""]","","","","","","","","","","","","","","","","","","","","","","","","","","","","","","feedback_test","","","","","","","","",""
"695","","f","psychophysics","122","482645","0.0-8.0-0.0-4.0-0.0-0.7","6","5","7","6","5","4","4","4","4","5","4","-1","-3","1","0","2","0","1","2","4","5","5","4","4","5","4","4","5","4","8","6","7","7","8","9","7","8","6","5","6","6","7","5","7","6","5","5","6","1","6","6","3","7","5","7","6","5","7","6","3","7","3","6","6","7","5","6","7","6","6","5","7","2","5","6","7","7","6","6","625294467993174016","陈","140","Female","[""坏她"",""坏我"",""好我"",""好她""]","[""弱她"",""弱我"",""强我"",""强她""]","","","","","","","","match","","","","","","","","","","key","f","16.650019801980218","710.7407909492769","395.92595389514173","j","false","nonmatch","img/ellipse.png","坏她","好她","ALT2","moral","","","","","","","","",""
"null","<span style='color:red; font-size: 70px;'>错误! </span>","null","html-keyboard-response","123","483147","0.0-8.0-0.0-4.0-0.0-1.7","6","5","7","6","5","4","4","4","4","5","4","-1","-3","1","0","2","0","1","2","4","5","5","4","4","5","4","4","5","4","8","6","7","7","8","9","7","8","6","5","6","6","7","5","7","6","5","5","6","1","6","6","3","7","5","7","6","5","7","6","3","7","3","6","6","7","5","6","7","6","6","5","7","2","5","6","7","7","6","6","625294467993174016","陈","140","Female","[""坏她"",""坏我"",""好我"",""好她""]","[""弱她"",""弱我"",""强我"",""强她""]","","","","","","","","","","","","","","","","","","","","","","","","","","","","","","feedback_test","","","","","","","","",""
"857","","f","psychophysics","124","485006","0.0-8.0-0.0-4.0-0.0-0.8","6","5","7","6","5","4","4","4","4","5","4","-1","-3","1","0","2","0","1","2","4","5","5","4","4","5","4","4","5","4","8","6","7","7","8","9","7","8","6","5","6","6","7","5","7","6","5","5","6","1","6","6","3","7","5","7","6","5","7","6","3","7","3","6","6","7","5","6","7","6","6","5","7","2","5","6","7","7","6","6","625294467993174016","陈","140","Female","[""坏她"",""坏我"",""好我"",""好她""]","[""弱她"",""弱我"",""强我"",""强她""]","","","","","","","","match","","","","","","","","","","key","f","16.653657657657497","710.7407909492769","395.92595389514173","f","true","match","img/pentagon.png","坏我","坏我","ALT2","moral","","","","","","","","",""
"null","<span style='color:GreenYellow; font-size: 70px;'>正确! </span>","null","html-keyboard-response","125","485508","0.0-8.0-0.0-4.0-0.0-1.8","6","5","7","6","5","4","4","4","4","5","4","-1","-3","1","0","2","0","1","2","4","5","5","4","4","5","4","4","5","4","8","6","7","7","8","9","7","8","6","5","6","6","7","5","7","6","5","5","6","1","6","6","3","7","5","7","6","5","7","6","3","7","3","6","6","7","5","6","7","6","6","5","7","2","5","6","7","7","6","6","625294467993174016","陈","140","Female","[""坏她"",""坏我"",""好我"",""好她""]","[""弱她"",""弱我"",""强我"",""强她""]","","","","","","","","","","","","","","","","","","","","","","","","","","","","","","feedback_test","","","","","","","","",""
"807","","j","psychophysics","126","487318","0.0-8.0-0.0-4.0-0.0-0.9","6","5","7","6","5","4","4","4","4","5","4","-1","-3","1","0","2","0","1","2","4","5","5","4","4","5","4","4","5","4","8","6","7","7","8","9","7","8","6","5","6","6","7","5","7","6","5","5","6","1","6","6","3","7","5","7","6","5","7","6","3","7","3","6","6","7","5","6","7","6","6","5","7","2","5","6","7","7","6","6","625294467993174016","陈","140","Female","[""坏她"",""坏我"",""好我"",""好她""]","[""弱她"",""弱我"",""强我"",""强她""]","","","","","","","","nonmatch","","","","","","","","","","key","j","16.65370370370349","710.7407909492769","395.92595389514173","j","true","nonmatch","img/ellipse.png","坏我","好她","ALT2","moral","","","","","","","","",""
"null","<span style='color:GreenYellow; font-size: 70px;'>正确! </span>","null","html-keyboard-response","127","487822","0.0-8.0-0.0-4.0-0.0-1.9","6","5","7","6","5","4","4","4","4","5","4","-1","-3","1","0","2","0","1","2","4","5","5","4","4","5","4","4","5","4","8","6","7","7","8","9","7","8","6","5","6","6","7","5","7","6","5","5","6","1","6","6","3","7","5","7","6","5","7","6","3","7","3","6","6","7","5","6","7","6","6","5","7","2","5","6","7","7","6","6","625294467993174016","陈","140","Female","[""坏她"",""坏我"",""好我"",""好她""]","[""弱她"",""弱我"",""强我"",""强她""]","","","","","","","","","","","","","","","","","","","","","","","","","","","","","","feedback_test","","","","","","","","",""
"956","","j","psychophysics","128","489779","0.0-8.0-0.0-4.0-0.0-0.10","6","5","7","6","5","4","4","4","4","5","4","-1","-3","1","0","2","0","1","2","4","5","5","4","4","5","4","4","5","4","8","6","7","7","8","9","7","8","6","5","6","6","7","5","7","6","5","5","6","1","6","6","3","7","5","7","6","5","7","6","3","7","3","6","6","7","5","6","7","6","6","5","7","2","5","6","7","7","6","6","625294467993174016","陈","140","Female","[""坏她"",""坏我"",""好我"",""好她""]","[""弱她"",""弱我"",""强我"",""强她""]","","","","","","","","nonmatch","","","","","","","","","","key","j","16.65350000000035","710.7407909492769","395.92595389514173","f","false","match","img/square.png","坏她","坏她","ALT2","moral","","","","","","","","",""
"null","<span style='color:red; font-size: 70px;'>错误! </span>","null","html-keyboard-response","129","490281","0.0-8.0-0.0-4.0-0.0-1.10","6","5","7","6","5","4","4","4","4","5","4","-1","-3","1","0","2","0","1","2","4","5","5","4","4","5","4","4","5","4","8","6","7","7","8","9","7","8","6","5","6","6","7","5","7","6","5","5","6","1","6","6","3","7","5","7","6","5","7","6","3","7","3","6","6","7","5","6","7","6","6","5","7","2","5","6","7","7","6","6","625294467993174016","陈","140","Female","[""坏她"",""坏我"",""好我"",""好她""]","[""弱她"",""弱我"",""强我"",""强她""]","","","","","","","","","","","","","","","","","","","","","","","","","","","","","","feedback_test","","","","","","","","",""
"894","","f","psychophysics","130","492177","0.0-8.0-0.0-4.0-0.0-0.11","6","5","7","6","5","4","4","4","4","5","4","-1","-3","1","0","2","0","1","2","4","5","5","4","4","5","4","4","5","4","8","6","7","7","8","9","7","8","6","5","6","6","7","5","7","6","5","5","6","1","6","6","3","7","5","7","6","5","7","6","3","7","3","6","6","7","5","6","7","6","6","5","7","2","5","6","7","7","6","6","625294467993174016","陈","140","Female","[""坏她"",""坏我"",""好我"",""好她""]","[""弱她"",""弱我"",""强我"",""强她""]","","","","","","","","match","","","","","","","","","","key","f","16.653553571428866","710.7407909492769","395.92595389514173","j","false","nonmatch","img/ellipse.png","好我","好她","ALT2","moral","","","","","","","","",""
"null","<span style='color:red; font-size: 70px;'>错误! </span>","null","html-keyboard-response","131","492679","0.0-8.0-0.0-4.0-0.0-1.11","6","5","7","6","5","4","4","4","4","5","4","-1","-3","1","0","2","0","1","2","4","5","5","4","4","5","4","4","5","4","8","6","7","7","8","9","7","8","6","5","6","6","7","5","7","6","5","5","6","1","6","6","3","7","5","7","6","5","7","6","3","7","3","6","6","7","5","6","7","6","6","5","7","2","5","6","7","7","6","6","625294467993174016","陈","140","Female","[""坏她"",""坏我"",""好我"",""好她""]","[""弱她"",""弱我"",""强我"",""强她""]","","","","","","","","","","","","","","","","","","","","","","","","","","","","","","feedback_test","","","","","","","","",""
"null","","null","psychophysics","132","494883","0.0-8.0-0.0-4.0-0.0-0.12","6","5","7","6","5","4","4","4","4","5","4","-1","-3","1","0","2","0","1","2","4","5","5","4","4","5","4","4","5","4","8","6","7","7","8","9","7","8","6","5","6","6","7","5","7","6","5","5","6","1","6","6","3","7","5","7","6","5","7","6","3","7","3","6","6","7","5","6","7","6","6","5","7","2","5","6","7","7","6","6","625294467993174016","陈","140","Female","[""坏她"",""坏我"",""好我"",""好她""]","[""弱她"",""弱我"",""强我"",""强她""]","","","","","","","","null","","","","","","","","","","key","null","16.65316030534361","710.7407909492769","395.92595389514173","j","false","nonmatch","img/pentagon.png","坏她","坏我","ALT2","moral","","","","","","","","",""
"null","<span class='add_' style='color:yellow; font-size: 70px;'> 太慢! </span>","null","html-keyboard-response","133","495384","0.0-8.0-0.0-4.0-0.0-1.12","6","5","7","6","5","4","4","4","4","5","4","-1","-3","1","0","2","0","1","2","4","5","5","4","4","5","4","4","5","4","8","6","7","7","8","9","7","8","6","5","6","6","7","5","7","6","5","5","6","1","6","6","3","7","5","7","6","5","7","6","3","7","3","6","6","7","5","6","7","6","6","5","7","2","5","6","7","7","6","6","625294467993174016","陈","140","Female","[""坏她"",""坏我"",""好我"",""好她""]","[""弱她"",""弱我"",""强我"",""强她""]","","","","","","","","","","","","","","","","","","","","","","","","","","","","","","feedback_test","","","","","","","","",""
"848","","f","psychophysics","134","497233","0.0-8.0-0.0-4.0-0.0-0.13","6","5","7","6","5","4","4","4","4","5","4","-1","-3","1","0","2","0","1","2","4","5","5","4","4","5","4","4","5","4","8","6","7","7","8","9","7","8","6","5","6","6","7","5","7","6","5","5","6","1","6","6","3","7","5","7","6","5","7","6","3","7","3","6","6","7","5","6","7","6","6","5","7","2","5","6","7","7","6","6","625294467993174016","陈","140","Female","[""坏她"",""坏我"",""好我"",""好她""]","[""弱她"",""弱我"",""强我"",""强她""]","","","","","","","","match","","","","","","","","","","key","f","16.65349090909056","710.7407909492769","395.92595389514173","f","true","match","img/triangle.png","好我","好我","ALT2","moral","","","","","","","","",""
"null","<span style='color:GreenYellow; font-size: 70px;'>正确! </span>","null","html-keyboard-response","135","497736","0.0-8.0-0.0-4.0-0.0-1.13","6","5","7","6","5","4","4","4","4","5","4","-1","-3","1","0","2","0","1","2","4","5","5","4","4","5","4","4","5","4","8","6","7","7","8","9","7","8","6","5","6","6","7","5","7","6","5","5","6","1","6","6","3","7","5","7","6","5","7","6","3","7","3","6","6","7","5","6","7","6","6","5","7","2","5","6","7","7","6","6","625294467993174016","陈","140","Female","[""坏她"",""坏我"",""好我"",""好她""]","[""弱她"",""弱我"",""强我"",""强她""]","","","","","","","","","","","","","","","","","","","","","","","","","","","","","","feedback_test","","","","","","","","",""
