"rt","stimulus","response","trial_type","trial_index","time_elapsed","internal_node_id","swb_1","swb_2","swb_3","swb_4","swb_5","LOT_1","LOT_2","LOT_3","LOT_4","LOT_5","LOT_6","IPC_1","IPC_2","IPC_3","IPC_4","IPC_5","IPC_6","IPC_7","IPC_8","MorIden_1","MorIden_2","MorIden_3","MorIden_4","MorIden_5","MorIden_6","MorIden_7","MorIden_8","MorIden_9","MorIden_10","moralSeImag_1","moralSeImag_2","moralSeImag_3","moralSeImag_4","moralSeImag_5","moralSeImag_6","moralSeImag_7","moralSeImag_8","moralSeImag_9","sde_1","sde_2","sde_3","sde_4","sde_5","sde_6","sde_7","sde_8","sde_9","sde_10","trap2","sde_11","sde_12","sde_13","sde_14","sde_15","sde_16","sde_17","sde_18","sde_19","sde_20","IM_1","IM_2","IM_3","IM_4","IM_5","IM_6","IM_7","IM_8","IM_9","IM_10","IM_11","IM_12","IM_13","IM_14","IM_15","IM_16","IM_17","IM_18","IM_19","IM_20","subj_idx","friend_name","ParticipantID","Sex","Word","Word2","value","success","timeout","failed_images","failed_audio","failed_video","user_agent","responses","item_order","radio_event_ids","radio_event_times","key_event_times","mouse_event_times","straightlining","zigzagging","honeypot","task_id","screen_id","time_stamp","response_type","key_press","avg_frame_time","center_x","center_y","person","word","valence","domain","math","correct_response","correct","status","view_history","identity","duration","Image","condition","question_order","trap2_item"
"1836","
   <p><div style='color:white; font-size: 25px'>您好，欢迎参加本次实验。</div></p>
   <p><div style='color:white; font-size: 25px'>为充分保障您的权利，请确保您已经知晓并同意《参与实验同意书》以及《数据公开知情同意书》。</div></p>
   <p><div style='color:white; font-size: 25px'>如果您未见过上述内容，请咨询实验员。</div></p>
   <p style='color:white; font-size: 25px'>如果您选择继续实验，则表示您已经清楚两份知情同意书的内容并同意。</p>
   <p><div style = ""color: pink;font-size:30px;"">请确保您记得day0的实验编号，您将在本次实验输入该编号，若您忘记，请咨询实验员后作答。</div></p>
   <p><div style = ""color:lightblue;font-size:25px;"">请您尽可能认真地作答，我们将依据您在各问卷和按键任务中的作答质量发放报酬。</div></p>
   <p> <div style = ""color: green""><按空格键至下页></div> </p>
   "," ","html-keyboard-response","0","1838","0.0-0.0","7","7","7","7","7","5","5","5","5","5","5","2","2","2","2","2","2","2","2","5","5","5","5","5","5","5","5","5","5","6","5","5","5","5","5","5","5","5","7","7","7","7","7","7","7","1","7","7","1","7","7","7","7","7","7","7","7","1","7","7","7","7","7","7","7","7","7","7","7","7","7","7","7","7","7","7","7","7","7","628519267599384576","董","235","Male","[""坏他"",""好我"",""好他"",""坏我""]","[""弱他"",""强我"",""强他"",""弱我""]","","","","","","","","","","","","","","","","","","","","","","","","","","","","","","","","","","","","","","",""
"","","","call-function","1","1838","0.0-1.0-0.0","7","7","7","7","7","5","5","5","5","5","5","2","2","2","2","2","2","2","2","5","5","5","5","5","5","5","5","5","5","6","5","5","5","5","5","5","5","5","7","7","7","7","7","7","7","1","7","7","1","7","7","7","7","7","7","7","7","1","7","7","7","7","7","7","7","7","7","7","7","7","7","7","7","7","7","7","7","7","7","628519267599384576","董","235","Male","[""坏他"",""好我"",""好他"",""坏我""]","[""弱他"",""强我"",""强他"",""弱我""]","","","","","","","","","","","","","","","","","","","","","","","","","","","","","","","","","","","","","","",""
"45245","","[{""name"":""Sex"",""value"":""0""},{""name"":""friend_name"",""value"":""董""},{""name"":""ParticipantID"",""value"":""235""}]","survey-html-form","2","47084","0.0-1.0-1.0","7","7","7","7","7","5","5","5","5","5","5","2","2","2","2","2","2","2","2","5","5","5","5","5","5","5","5","5","5","6","5","5","5","5","5","5","5","5","7","7","7","7","7","7","7","1","7","7","1","7","7","7","7","7","7","7","7","1","7","7","7","7","7","7","7","7","7","7","7","7","7","7","7","7","7","7","7","7","7","628519267599384576","董","235","Male","[""坏他"",""好我"",""好他"",""坏我""]","[""弱他"",""强我"",""强他"",""弱我""]","","","","","","","","","","","","","","","","","","","","","","","","","","","","","","","","","","","","","","",""
"","","","preload","3","47791","0.0-2.0","7","7","7","7","7","5","5","5","5","5","5","2","2","2","2","2","2","2","2","5","5","5","5","5","5","5","5","5","5","6","5","5","5","5","5","5","5","5","7","7","7","7","7","7","7","1","7","7","1","7","7","7","7","7","7","7","7","1","7","7","7","7","7","7","7","7","7","7","7","7","7","7","7","7","7","7","7","7","7","628519267599384576","董","235","Male","[""坏他"",""好我"",""好他"",""坏我""]","[""弱他"",""强我"",""强他"",""弱我""]","","true","false","[]","[]","[]","","","","","","","","","","","","","","","","","","","","","","","","","","","","","","","","",""
"","","","fullscreen","4","49479","0.0-3.0","7","7","7","7","7","5","5","5","5","5","5","2","2","2","2","2","2","2","2","5","5","5","5","5","5","5","5","5","5","6","5","5","5","5","5","5","5","5","7","7","7","7","7","7","7","1","7","7","1","7","7","7","7","7","7","7","7","1","7","7","7","7","7","7","7","7","7","7","7","7","7","7","7","7","7","7","7","7","7","628519267599384576","董","235","Male","[""坏他"",""好我"",""好他"",""坏我""]","[""弱他"",""强我"",""强他"",""弱我""]","","true","","","","","{}","","","","","","","","","","","","","","","","","","","","","","","","","","","","","","","",""
"9609.899999976158","","{""Q01"":""7"",""Q02"":""7"",""Q03"":""7"",""Q04"":""7"",""Q05"":""7""}","survey-template","5","59090","0.0-4.0","7","7","7","7","7","5","5","5","5","5","5","2","2","2","2","2","2","2","2","5","5","5","5","5","5","5","5","5","5","6","5","5","5","5","5","5","5","5","7","7","7","7","7","7","7","1","7","7","1","7","7","7","7","7","7","7","7","1","7","7","7","7","7","7","7","7","7","7","7","7","7","7","7","7","7","7","7","7","7","628519267599384576","董","235","Male","[""坏他"",""好我"",""好他"",""坏我""]","[""弱他"",""强我"",""强他"",""弱我""]","","","","","","","","{""Q01"":""7"",""Q02"":""7"",""Q03"":""7"",""Q04"":""7"",""Q05"":""7""}","[0,1,2,3,4]","[""Q01"",""Q02"",""Q03"",""Q04"",""Q05""]","[2516.199999988079,4543.300000011921,5287.100000023842,7575.5,8857.800000011921]","[]","[2516.199999988079,4543.300000011921,5287.100000023842,6629.899999976158,7575.5,8857.800000011921,9608]","1","0","0","","","","","","","","","","","","","","","","","","","","","","",""
"22769.099999964237","","{""Q01"":""5"",""Q02"":""5"",""Q03"":""5"",""Q04"":""5"",""Q05"":""5"",""Q06"":""5""}","survey-template","6","81863","0.0-5.0","7","7","7","7","7","5","5","5","5","5","5","2","2","2","2","2","2","2","2","5","5","5","5","5","5","5","5","5","5","6","5","5","5","5","5","5","5","5","7","7","7","7","7","7","7","1","7","7","1","7","7","7","7","7","7","7","7","1","7","7","7","7","7","7","7","7","7","7","7","7","7","7","7","7","7","7","7","7","7","628519267599384576","董","235","Male","[""坏他"",""好我"",""好他"",""坏我""]","[""弱他"",""强我"",""强他"",""弱我""]","","","","","","","","{""Q01"":""5"",""Q02"":""5"",""Q03"":""5"",""Q04"":""5"",""Q05"":""5"",""Q06"":""5""}","[0,1,2,3,4,5]","[""Q01"",""Q02"",""Q03"",""Q04"",""Q05"",""Q06""]","[3546.800000011921,9664.399999976158,11118.699999988079,14110.399999976158,17309.599999964237,21914.599999964237]","[]","[3546.800000011921,9664.399999976158,11118.699999988079,14110.399999976158,17309.599999964237,21914.599999964237,22768.30000001192]","0.5","0.8","0","","","","","","","","","","","","","","","","","","","","","","",""
"18164.80000001192","","{""Q01"":""2"",""Q02"":""2"",""Q03"":""2"",""Q04"":""2"",""Q05"":""2"",""Q06"":""2"",""Q07"":""2"",""Q08"":""2""}","survey-template","7","100030","0.0-6.0","7","7","7","7","7","5","5","5","5","5","5","2","2","2","2","2","2","2","2","5","5","5","5","5","5","5","5","5","5","6","5","5","5","5","5","5","5","5","7","7","7","7","7","7","7","1","7","7","1","7","7","7","7","7","7","7","7","1","7","7","7","7","7","7","7","7","7","7","7","7","7","7","7","7","7","7","7","7","7","628519267599384576","董","235","Male","[""坏他"",""好我"",""好他"",""坏我""]","[""弱他"",""强我"",""强他"",""弱我""]","","","","","","","","{""Q01"":""2"",""Q02"":""2"",""Q03"":""2"",""Q04"":""2"",""Q05"":""2"",""Q06"":""2"",""Q07"":""2"",""Q08"":""2""}","[0,1,2,3,4,5,6,7]","[""Q01"",""Q02"",""Q03"",""Q04"",""Q05"",""Q06"",""Q07"",""Q08""]","[2065.600000023842,6023.900000035763,10154.600000023842,11594.600000023842,13160.199999988079,14171.600000023842,16144.600000023842,17433.900000035763]","[]","[2065.600000023842,6023.900000035763,10154.600000023842,11594.600000023842,13160.199999988079,14171.600000023842,16144.600000023842,17433.900000035763,18162.900000035763]","1","0","0","","","","","","","","","","","","","","","","","","","","","","",""
"19621","
    <p><div style='color:white;font-size:35px; line-height:20px;'>词汇评估任务</div></p><br>
    <p><div style='color:white;font-size:25px; line-height:20px;'>请再次回忆该亲密的朋友，你们至少2年前就认识了，并且最近2年经常见面。</div></p>
    <p><div style='color:white;font-size:25px; line-height:20px;'>在本实验中，您将会看到一些形容词。</div></p>
    <p><div style='color:yellow;font-size:25px; line-height:20px;'>您的任务是判断这些形容词是否符合对您自己或您的朋友的描述。</div></p><p style='font-size:35px'>符合按<span style=""color:lightgreen""> j 键</span>，不符合按<span style=""color:red""> f 键</span></p>","0","html-button-response","8","119653","0.0-7.0-0.0","7","7","7","7","7","5","5","5","5","5","5","2","2","2","2","2","2","2","2","5","5","5","5","5","5","5","5","5","5","6","5","5","5","5","5","5","5","5","7","7","7","7","7","7","7","1","7","7","1","7","7","7","7","7","7","7","7","1","7","7","7","7","7","7","7","7","7","7","7","7","7","7","7","7","7","7","7","7","7","628519267599384576","董","235","Male","[""坏他"",""好我"",""好他"",""坏我""]","[""弱他"",""强我"",""强他"",""弱我""]","","","","","","","","","","","","","","","","","SRET_EW","EW_instructions","Sun Jan 07 2024 21:33:44 GMT+0800 (中国标准时间)","","","","","","","","","","","","","","","","","","","",""
"708","","j","psychophysics","9","121365","0.0-7.0-1.0-0.0","7","7","7","7","7","5","5","5","5","5","5","2","2","2","2","2","2","2","2","5","5","5","5","5","5","5","5","5","5","6","5","5","5","5","5","5","5","5","7","7","7","7","7","7","7","1","7","7","1","7","7","7","7","7","7","7","7","1","7","7","7","7","7","7","7","7","7","7","7","7","7","7","7","7","7","7","7","7","7","628519267599384576","董","235","Male","[""坏他"",""好我"",""好他"",""坏我""]","[""弱他"",""强我"",""强他"",""弱我""]","","","","","","","","yes","","","","","","","","","SRET_EW","EW_practice","","key","j","16.655640776699055","752.9411201521092","419.2156549180233","自己","严谨","Positive","ability","","","","","","","","","","",""
"886","","j","psychophysics","10","123253","0.0-7.0-1.0-0.1","7","7","7","7","7","5","5","5","5","5","5","2","2","2","2","2","2","2","2","5","5","5","5","5","5","5","5","5","5","6","5","5","5","5","5","5","5","5","7","7","7","7","7","7","7","1","7","7","1","7","7","7","7","7","7","7","7","1","7","7","7","7","7","7","7","7","7","7","7","7","7","7","7","7","7","7","7","7","7","628519267599384576","董","235","Male","[""坏他"",""好我"",""好他"",""坏我""]","[""弱他"",""强我"",""强他"",""弱我""]","","","","","","","","yes","","","","","","","","","SRET_EW","EW_practice","","key","j","16.65612500000004","752.9411201521092","419.2156549180233","自己","刻板","Negative","ability","","","","","","","","","","",""
"1142","","j","psychophysics","11","125396","0.0-7.0-1.0-0.2","7","7","7","7","7","5","5","5","5","5","5","2","2","2","2","2","2","2","2","5","5","5","5","5","5","5","5","5","5","6","5","5","5","5","5","5","5","5","7","7","7","7","7","7","7","1","7","7","1","7","7","7","7","7","7","7","7","1","7","7","7","7","7","7","7","7","7","7","7","7","7","7","7","7","7","7","7","7","7","628519267599384576","董","235","Male","[""坏他"",""好我"",""好他"",""坏我""]","[""弱他"",""强我"",""强他"",""弱我""]","","","","","","","","yes","","","","","","","","","SRET_EW","EW_practice","","key","j","16.65307031249995","752.9411201521092","419.2156549180233","朋友","忠实","Positive","morality","","","","","","","","","","",""
"840","","f","psychophysics","12","127237","0.0-7.0-1.0-0.3","7","7","7","7","7","5","5","5","5","5","5","2","2","2","2","2","2","2","2","5","5","5","5","5","5","5","5","5","5","6","5","5","5","5","5","5","5","5","7","7","7","7","7","7","7","1","7","7","1","7","7","7","7","7","7","7","7","1","7","7","7","7","7","7","7","7","7","7","7","7","7","7","7","7","7","7","7","7","7","628519267599384576","董","235","Male","[""坏他"",""好我"",""好他"",""坏我""]","[""弱他"",""强我"",""强他"",""弱我""]","","","","","","","","no","","","","","","","","","SRET_EW","EW_practice","","key","f","16.65244954128439","752.9411201521092","419.2156549180233","朋友","徇私","Negative","morality","","","","","","","","","","",""
"4027","
    <p><div style='color:white;font-size:35px; line-height:20px;'>请您再次阅读实验要求</div></p><br>
    <p><div style='color:white;font-size:25px; line-height:20px;'>请回忆某一个亲密的朋友，你们至少2年前就认识了，并且最近2年经常见面。</div></p>
    <p><div style='color:white;font-size:25px; line-height:20px;'>在本实验中，您将会看到一些形容词。</div></p>
    <p><div style='color:yellow;font-size:25px; line-height:20px;'>您的任务是判断这些形容词是否符合对您自己或您的朋友的描述。</div></p>
    <p><div class='footer' style='font-size:25px; line-height:20px;'>如果对本实验还有不清楚之处，请立即向实验员咨询。</p><p style='font-size:25px; line-height:20px;'>如果您明白了规则：</p><p style='font-size:22px; line-height:20px;'>请按 继续 进入正式实验</p>
    </div>
    <p style='font-size:35px'>符合按<span style=""color:lightgreen""> j 键</span>，不符合按<span style=""color:red""> f 键</span></p>","0","html-button-response","13","131265","0.0-7.0-2.0","7","7","7","7","7","5","5","5","5","5","5","2","2","2","2","2","2","2","2","5","5","5","5","5","5","5","5","5","5","6","5","5","5","5","5","5","5","5","7","7","7","7","7","7","7","1","7","7","1","7","7","7","7","7","7","7","7","1","7","7","7","7","7","7","7","7","7","7","7","7","7","7","7","7","7","7","7","7","7","628519267599384576","董","235","Male","[""坏他"",""好我"",""好他"",""坏我""]","[""弱他"",""强我"",""强他"",""弱我""]","","","","","","","","","","","","","","","","","SRET_EW","prac_instructions","Sun Jan 07 2024 21:33:44 GMT+0800 (中国标准时间)","","","","","","","","","","","","","","","","","","","",""
"714","","j","psychophysics","14","132981","0.0-7.0-3.0-0.0","7","7","7","7","7","5","5","5","5","5","5","2","2","2","2","2","2","2","2","5","5","5","5","5","5","5","5","5","5","6","5","5","5","5","5","5","5","5","7","7","7","7","7","7","7","1","7","7","1","7","7","7","7","7","7","7","7","1","7","7","7","7","7","7","7","7","7","7","7","7","7","7","7","7","7","7","7","7","7","628519267599384576","董","235","Male","[""坏他"",""好我"",""好他"",""坏我""]","[""弱他"",""强我"",""强他"",""弱我""]","","","","","","","","yes","","","","","","","","","SRET","EW_formal","","key","j","16.65074757281555","752.9411201521092","419.2156549180233","自己","坚贞","Positive","morality","","","","","","","","","","",""
"789","","f","psychophysics","15","134773","0.0-7.0-3.0-0.1","7","7","7","7","7","5","5","5","5","5","5","2","2","2","2","2","2","2","2","5","5","5","5","5","5","5","5","5","5","6","5","5","5","5","5","5","5","5","7","7","7","7","7","7","7","1","7","7","1","7","7","7","7","7","7","7","7","1","7","7","7","7","7","7","7","7","7","7","7","7","7","7","7","7","7","7","7","7","7","628519267599384576","董","235","Male","[""坏他"",""好我"",""好他"",""坏我""]","[""弱他"",""强我"",""强他"",""弱我""]","","","","","","","","no","","","","","","","","","SRET","EW_formal","","key","f","16.653439252336497","752.9411201521092","419.2156549180233","自己","说谎","Negative","morality","","","","","","","","","","",""
"839","","j","psychophysics","16","136613","0.0-7.0-3.0-0.2","7","7","7","7","7","5","5","5","5","5","5","2","2","2","2","2","2","2","2","5","5","5","5","5","5","5","5","5","5","6","5","5","5","5","5","5","5","5","7","7","7","7","7","7","7","1","7","7","1","7","7","7","7","7","7","7","7","1","7","7","7","7","7","7","7","7","7","7","7","7","7","7","7","7","7","7","7","7","7","628519267599384576","董","235","Male","[""坏他"",""好我"",""好他"",""坏我""]","[""弱他"",""强我"",""强他"",""弱我""]","","","","","","","","yes","","","","","","","","","SRET","EW_formal","","key","j","16.653477064220112","752.9411201521092","419.2156549180233","朋友","务实","Positive","ability","","","","","","","","","","",""
"902","","f","psychophysics","17","138516","0.0-7.0-3.0-0.3","7","7","7","7","7","5","5","5","5","5","5","2","2","2","2","2","2","2","2","5","5","5","5","5","5","5","5","5","5","6","5","5","5","5","5","5","5","5","7","7","7","7","7","7","7","1","7","7","1","7","7","7","7","7","7","7","7","1","7","7","7","7","7","7","7","7","7","7","7","7","7","7","7","7","7","7","7","7","7","628519267599384576","董","235","Male","[""坏他"",""好我"",""好他"",""坏我""]","[""弱他"",""强我"",""强他"",""弱我""]","","","","","","","","no","","","","","","","","","SRET","EW_formal","","key","f","16.654026315789547","752.9411201521092","419.2156549180233","朋友","迷糊","Negative","ability","","","","","","","","","","",""
"1663","","j","psychophysics","18","141181","0.0-7.0-3.0-0.4","7","7","7","7","7","5","5","5","5","5","5","2","2","2","2","2","2","2","2","5","5","5","5","5","5","5","5","5","5","6","5","5","5","5","5","5","5","5","7","7","7","7","7","7","7","1","7","7","1","7","7","7","7","7","7","7","7","1","7","7","7","7","7","7","7","7","7","7","7","7","7","7","7","7","7","7","7","7","7","628519267599384576","董","235","Male","[""坏他"",""好我"",""好他"",""坏我""]","[""弱他"",""强我"",""强他"",""弱我""]","","","","","","","","yes","","","","","","","","","SRET","EW_formal","","key","j","16.65102515723256","752.9411201521092","419.2156549180233","朋友","好心","Positive","morality","","","","","","","","","","",""
"791","","j","psychophysics","19","142973","0.0-7.0-3.0-0.5","7","7","7","7","7","5","5","5","5","5","5","2","2","2","2","2","2","2","2","5","5","5","5","5","5","5","5","5","5","6","5","5","5","5","5","5","5","5","7","7","7","7","7","7","7","1","7","7","1","7","7","7","7","7","7","7","7","1","7","7","7","7","7","7","7","7","7","7","7","7","7","7","7","7","7","7","7","7","7","628519267599384576","董","235","Male","[""坏他"",""好我"",""好他"",""坏我""]","[""弱他"",""强我"",""强他"",""弱我""]","","","","","","","","yes","","","","","","","","","SRET","EW_formal","","key","j","16.65337735849058","752.9411201521092","419.2156549180233","自己","敬业","Positive","morality","","","","","","","","","","",""
"1191","","j","psychophysics","20","145166","0.0-7.0-3.0-0.6","7","7","7","7","7","5","5","5","5","5","5","2","2","2","2","2","2","2","2","5","5","5","5","5","5","5","5","5","5","6","5","5","5","5","5","5","5","5","7","7","7","7","7","7","7","1","7","7","1","7","7","7","7","7","7","7","7","1","7","7","7","7","7","7","7","7","7","7","7","7","7","7","7","7","7","7","7","7","7","628519267599384576","董","235","Male","[""坏他"",""好我"",""好他"",""坏我""]","[""弱他"",""强我"",""强他"",""弱我""]","","","","","","","","yes","","","","","","","","","SRET","EW_formal","","key","j","16.655748091603208","752.9411201521092","419.2156549180233","朋友","果决","Positive","ability","","","","","","","","","","",""
"1165","","f","psychophysics","21","147333","0.0-7.0-3.0-0.7","7","7","7","7","7","5","5","5","5","5","5","2","2","2","2","2","2","2","2","5","5","5","5","5","5","5","5","5","5","6","5","5","5","5","5","5","5","5","7","7","7","7","7","7","7","1","7","7","1","7","7","7","7","7","7","7","7","1","7","7","7","7","7","7","7","7","7","7","7","7","7","7","7","7","7","7","7","7","7","628519267599384576","董","235","Male","[""坏他"",""好我"",""好他"",""坏我""]","[""弱他"",""强我"",""强他"",""弱我""]","","","","","","","","no","","","","","","","","","SRET","EW_formal","","key","f","16.651131782945843","752.9411201521092","419.2156549180233","朋友","利己","Negative","morality","","","","","","","","","","",""
"990","","j","psychophysics","22","149324","0.0-7.0-3.0-0.8","7","7","7","7","7","5","5","5","5","5","5","2","2","2","2","2","2","2","2","5","5","5","5","5","5","5","5","5","5","6","5","5","5","5","5","5","5","5","7","7","7","7","7","7","7","1","7","7","1","7","7","7","7","7","7","7","7","1","7","7","7","7","7","7","7","7","7","7","7","7","7","7","7","7","7","7","7","7","7","628519267599384576","董","235","Male","[""坏他"",""好我"",""好他"",""坏我""]","[""弱他"",""强我"",""强他"",""弱我""]","","","","","","","","yes","","","","","","","","","SRET","EW_formal","","key","j","16.65294957983194","752.9411201521092","419.2156549180233","朋友","自律","Positive","ability","","","","","","","","","","",""
"1119","","f","psychophysics","23","151445","0.0-7.0-3.0-0.9","7","7","7","7","7","5","5","5","5","5","5","2","2","2","2","2","2","2","2","5","5","5","5","5","5","5","5","5","5","6","5","5","5","5","5","5","5","5","7","7","7","7","7","7","7","1","7","7","1","7","7","7","7","7","7","7","7","1","7","7","7","7","7","7","7","7","7","7","7","7","7","7","7","7","7","7","7","7","7","628519267599384576","董","235","Male","[""坏他"",""好我"",""好他"",""坏我""]","[""弱他"",""强我"",""强他"",""弱我""]","","","","","","","","no","","","","","","","","","SRET","EW_formal","","key","f","16.652388888888897","752.9411201521092","419.2156549180233","自己","诡诈","Negative","morality","","","","","","","","","","",""
"982","","f","psychophysics","24","153429","0.0-7.0-3.0-0.10","7","7","7","7","7","5","5","5","5","5","5","2","2","2","2","2","2","2","2","5","5","5","5","5","5","5","5","5","5","6","5","5","5","5","5","5","5","5","7","7","7","7","7","7","7","1","7","7","1","7","7","7","7","7","7","7","7","1","7","7","7","7","7","7","7","7","7","7","7","7","7","7","7","7","7","7","7","7","7","628519267599384576","董","235","Male","[""坏他"",""好我"",""好他"",""坏我""]","[""弱他"",""强我"",""强他"",""弱我""]","","","","","","","","no","","","","","","","","","SRET","EW_formal","","key","f","16.653245762711975","752.9411201521092","419.2156549180233","朋友","邪恶","Negative","morality","","","","","","","","","","",""
"1064","","f","psychophysics","25","155494","0.0-7.0-3.0-0.11","7","7","7","7","7","5","5","5","5","5","5","2","2","2","2","2","2","2","2","5","5","5","5","5","5","5","5","5","5","6","5","5","5","5","5","5","5","5","7","7","7","7","7","7","7","1","7","7","1","7","7","7","7","7","7","7","7","1","7","7","7","7","7","7","7","7","7","7","7","7","7","7","7","7","7","7","7","7","7","628519267599384576","董","235","Male","[""坏他"",""好我"",""好他"",""坏我""]","[""弱他"",""强我"",""强他"",""弱我""]","","","","","","","","no","","","","","","","","","SRET","EW_formal","","key","f","16.654926829268387","752.9411201521092","419.2156549180233","朋友","愚蠢","Negative","ability","","","","","","","","","","",""
"614","","j","psychophysics","26","157109","0.0-7.0-3.0-0.12","7","7","7","7","7","5","5","5","5","5","5","2","2","2","2","2","2","2","2","5","5","5","5","5","5","5","5","5","5","6","5","5","5","5","5","5","5","5","7","7","7","7","7","7","7","1","7","7","1","7","7","7","7","7","7","7","7","1","7","7","7","7","7","7","7","7","7","7","7","7","7","7","7","7","7","7","7","7","7","628519267599384576","董","235","Male","[""坏他"",""好我"",""好他"",""坏我""]","[""弱他"",""强我"",""强他"",""弱我""]","","","","","","","","yes","","","","","","","","","SRET","EW_formal","","key","j","16.652000000000044","752.9411201521092","419.2156549180233","朋友","热心","Positive","morality","","","","","","","","","","",""
"1223","","j","psychophysics","27","159334","0.0-7.0-3.0-0.13","7","7","7","7","7","5","5","5","5","5","5","2","2","2","2","2","2","2","2","5","5","5","5","5","5","5","5","5","5","6","5","5","5","5","5","5","5","5","7","7","7","7","7","7","7","1","7","7","1","7","7","7","7","7","7","7","7","1","7","7","7","7","7","7","7","7","7","7","7","7","7","7","7","7","7","7","7","7","7","628519267599384576","董","235","Male","[""坏他"",""好我"",""好他"",""坏我""]","[""弱他"",""强我"",""强他"",""弱我""]","","","","","","","","yes","","","","","","","","","SRET","EW_formal","","key","j","16.652992481202993","752.9411201521092","419.2156549180233","自己","淡泊","Positive","morality","","","","","","","","","","",""
"695","","j","psychophysics","28","161030","0.0-7.0-3.0-0.14","7","7","7","7","7","5","5","5","5","5","5","2","2","2","2","2","2","2","2","5","5","5","5","5","5","5","5","5","5","6","5","5","5","5","5","5","5","5","7","7","7","7","7","7","7","1","7","7","1","7","7","7","7","7","7","7","7","1","7","7","7","7","7","7","7","7","7","7","7","7","7","7","7","7","7","7","7","7","7","628519267599384576","董","235","Male","[""坏他"",""好我"",""好他"",""坏我""]","[""弱他"",""强我"",""强他"",""弱我""]","","","","","","","","yes","","","","","","","","","SRET","EW_formal","","key","j","16.653653465346537","752.9411201521092","419.2156549180233","自己","坚持","Positive","ability","","","","","","","","","","",""
"764","","f","psychophysics","29","162797","0.0-7.0-3.0-0.15","7","7","7","7","7","5","5","5","5","5","5","2","2","2","2","2","2","2","2","5","5","5","5","5","5","5","5","5","5","6","5","5","5","5","5","5","5","5","7","7","7","7","7","7","7","1","7","7","1","7","7","7","7","7","7","7","7","1","7","7","7","7","7","7","7","7","7","7","7","7","7","7","7","7","7","7","7","7","7","628519267599384576","董","235","Male","[""坏他"",""好我"",""好他"",""坏我""]","[""弱他"",""强我"",""强他"",""弱我""]","","","","","","","","no","","","","","","","","","SRET","EW_formal","","key","f","16.65247619047628","752.9411201521092","419.2156549180233","自己","淫乱","Negative","morality","","","","","","","","","","",""
"767","","j","psychophysics","30","164565","0.0-7.0-3.0-0.16","7","7","7","7","7","5","5","5","5","5","5","2","2","2","2","2","2","2","2","5","5","5","5","5","5","5","5","5","5","6","5","5","5","5","5","5","5","5","7","7","7","7","7","7","7","1","7","7","1","7","7","7","7","7","7","7","7","1","7","7","7","7","7","7","7","7","7","7","7","7","7","7","7","7","7","7","7","7","7","628519267599384576","董","235","Male","[""坏他"",""好我"",""好他"",""坏我""]","[""弱他"",""强我"",""强他"",""弱我""]","","","","","","","","yes","","","","","","","","","SRET","EW_formal","","key","j","16.653409523809316","752.9411201521092","419.2156549180233","自己","谦逊","Positive","morality","","","","","","","","","","",""
"694","","j","psychophysics","31","166261","0.0-7.0-3.0-0.17","7","7","7","7","7","5","5","5","5","5","5","2","2","2","2","2","2","2","2","5","5","5","5","5","5","5","5","5","5","6","5","5","5","5","5","5","5","5","7","7","7","7","7","7","7","1","7","7","1","7","7","7","7","7","7","7","7","1","7","7","7","7","7","7","7","7","7","7","7","7","7","7","7","7","7","7","7","7","7","628519267599384576","董","235","Male","[""坏他"",""好我"",""好他"",""坏我""]","[""弱他"",""强我"",""强他"",""弱我""]","","","","","","","","yes","","","","","","","","","SRET","EW_formal","","key","j","16.6535049504952","752.9411201521092","419.2156549180233","自己","忠义","Positive","morality","","","","","","","","","","",""
"632","","j","psychophysics","32","167894","0.0-7.0-3.0-0.18","7","7","7","7","7","5","5","5","5","5","5","2","2","2","2","2","2","2","2","5","5","5","5","5","5","5","5","5","5","6","5","5","5","5","5","5","5","5","7","7","7","7","7","7","7","1","7","7","1","7","7","7","7","7","7","7","7","1","7","7","7","7","7","7","7","7","7","7","7","7","7","7","7","7","7","7","7","7","7","628519267599384576","董","235","Male","[""坏他"",""好我"",""好他"",""坏我""]","[""弱他"",""强我"",""强他"",""弱我""]","","","","","","","","yes","","","","","","","","","SRET","EW_formal","","key","j","16.65179381443286","752.9411201521092","419.2156549180233","朋友","努力","Positive","ability","","","","","","","","","","",""
"839","","j","psychophysics","33","169734","0.0-7.0-3.0-0.19","7","7","7","7","7","5","5","5","5","5","5","2","2","2","2","2","2","2","2","5","5","5","5","5","5","5","5","5","5","6","5","5","5","5","5","5","5","5","7","7","7","7","7","7","7","1","7","7","1","7","7","7","7","7","7","7","7","1","7","7","7","7","7","7","7","7","7","7","7","7","7","7","7","7","7","7","7","7","7","628519267599384576","董","235","Male","[""坏他"",""好我"",""好他"",""坏我""]","[""弱他"",""强我"",""强他"",""弱我""]","","","","","","","","yes","","","","","","","","","SRET","EW_formal","","key","j","16.652834862385184","752.9411201521092","419.2156549180233","朋友","奉献","Positive","morality","","","","","","","","","","",""
"622","","j","psychophysics","34","171357","0.0-7.0-3.0-0.20","7","7","7","7","7","5","5","5","5","5","5","2","2","2","2","2","2","2","2","5","5","5","5","5","5","5","5","5","5","6","5","5","5","5","5","5","5","5","7","7","7","7","7","7","7","1","7","7","1","7","7","7","7","7","7","7","7","1","7","7","7","7","7","7","7","7","7","7","7","7","7","7","7","7","7","7","7","7","7","628519267599384576","董","235","Male","[""坏他"",""好我"",""好他"",""坏我""]","[""弱他"",""强我"",""强他"",""弱我""]","","","","","","","","yes","","","","","","","","","SRET","EW_formal","","key","j","16.65286597938153","752.9411201521092","419.2156549180233","朋友","正气","Positive","morality","","","","","","","","","","",""
"711","","j","psychophysics","35","173070","0.0-7.0-3.0-0.21","7","7","7","7","7","5","5","5","5","5","5","2","2","2","2","2","2","2","2","5","5","5","5","5","5","5","5","5","5","6","5","5","5","5","5","5","5","5","7","7","7","7","7","7","7","1","7","7","1","7","7","7","7","7","7","7","7","1","7","7","7","7","7","7","7","7","7","7","7","7","7","7","7","7","7","7","7","7","7","628519267599384576","董","235","Male","[""坏他"",""好我"",""好他"",""坏我""]","[""弱他"",""强我"",""强他"",""弱我""]","","","","","","","","yes","","","","","","","","","SRET","EW_formal","","key","j","16.657303921568754","752.9411201521092","419.2156549180233","自己","仗义","Positive","morality","","","","","","","","","","",""
"669","","j","psychophysics","36","174741","0.0-7.0-3.0-0.22","7","7","7","7","7","5","5","5","5","5","5","2","2","2","2","2","2","2","2","5","5","5","5","5","5","5","5","5","5","6","5","5","5","5","5","5","5","5","7","7","7","7","7","7","7","1","7","7","1","7","7","7","7","7","7","7","7","1","7","7","7","7","7","7","7","7","7","7","7","7","7","7","7","7","7","7","7","7","7","628519267599384576","董","235","Male","[""坏他"",""好我"",""好他"",""坏我""]","[""弱他"",""强我"",""强他"",""弱我""]","","","","","","","","yes","","","","","","","","","SRET","EW_formal","","key","j","16.6514646464646","752.9411201521092","419.2156549180233","朋友","仁厚","Positive","morality","","","","","","","","","","",""
"623","","j","psychophysics","37","176366","0.0-7.0-3.0-0.23","7","7","7","7","7","5","5","5","5","5","5","2","2","2","2","2","2","2","2","5","5","5","5","5","5","5","5","5","5","6","5","5","5","5","5","5","5","5","7","7","7","7","7","7","7","1","7","7","1","7","7","7","7","7","7","7","7","1","7","7","7","7","7","7","7","7","7","7","7","7","7","7","7","7","7","7","7","7","7","628519267599384576","董","235","Male","[""坏他"",""好我"",""好他"",""坏我""]","[""弱他"",""强我"",""强他"",""弱我""]","","","","","","","","yes","","","","","","","","","SRET","EW_formal","","key","j","16.652979381443075","752.9411201521092","419.2156549180233","自己","仁爱","Positive","morality","","","","","","","","","","",""
"758","","j","psychophysics","38","178126","0.0-7.0-3.0-0.24","7","7","7","7","7","5","5","5","5","5","5","2","2","2","2","2","2","2","2","5","5","5","5","5","5","5","5","5","5","6","5","5","5","5","5","5","5","5","7","7","7","7","7","7","7","1","7","7","1","7","7","7","7","7","7","7","7","1","7","7","7","7","7","7","7","7","7","7","7","7","7","7","7","7","7","7","7","7","7","628519267599384576","董","235","Male","[""坏他"",""好我"",""好他"",""坏我""]","[""弱他"",""强我"",""强他"",""弱我""]","","","","","","","","yes","","","","","","","","","SRET","EW_formal","","key","j","16.653855769230667","752.9411201521092","419.2156549180233","自己","盲目","Negative","ability","","","","","","","","","","",""
"927","","f","psychophysics","39","180053","0.0-7.0-3.0-0.25","7","7","7","7","7","5","5","5","5","5","5","2","2","2","2","2","2","2","2","5","5","5","5","5","5","5","5","5","5","6","5","5","5","5","5","5","5","5","7","7","7","7","7","7","7","1","7","7","1","7","7","7","7","7","7","7","7","1","7","7","7","7","7","7","7","7","7","7","7","7","7","7","7","7","7","7","7","7","7","628519267599384576","董","235","Male","[""坏他"",""好我"",""好他"",""坏我""]","[""弱他"",""强我"",""强他"",""弱我""]","","","","","","","","no","","","","","","","","","SRET","EW_formal","","key","f","16.653765217391218","752.9411201521092","419.2156549180233","自己","自私","Negative","morality","","","","","","","","","","",""
"1007","","f","psychophysics","40","182062","0.0-7.0-3.0-0.26","7","7","7","7","7","5","5","5","5","5","5","2","2","2","2","2","2","2","2","5","5","5","5","5","5","5","5","5","5","6","5","5","5","5","5","5","5","5","7","7","7","7","7","7","7","1","7","7","1","7","7","7","7","7","7","7","7","1","7","7","7","7","7","7","7","7","7","7","7","7","7","7","7","7","7","7","7","7","7","628519267599384576","董","235","Male","[""坏他"",""好我"",""好他"",""坏我""]","[""弱他"",""强我"",""强他"",""弱我""]","","","","","","","","no","","","","","","","","","SRET","EW_formal","","key","f","16.655758333333505","752.9411201521092","419.2156549180233","自己","利落","Positive","ability","","","","","","","","","","",""
"1116","","j","psychophysics","41","184181","0.0-7.0-3.0-0.27","7","7","7","7","7","5","5","5","5","5","5","2","2","2","2","2","2","2","2","5","5","5","5","5","5","5","5","5","5","6","5","5","5","5","5","5","5","5","7","7","7","7","7","7","7","1","7","7","1","7","7","7","7","7","7","7","7","1","7","7","7","7","7","7","7","7","7","7","7","7","7","7","7","7","7","7","7","7","7","628519267599384576","董","235","Male","[""坏他"",""好我"",""好他"",""坏我""]","[""弱他"",""强我"",""强他"",""弱我""]","","","","","","","","yes","","","","","","","","","SRET","EW_formal","","key","j","16.653436507936615","752.9411201521092","419.2156549180233","自己","宽容","Positive","morality","","","","","","","","","","",""
"950","","j","psychophysics","42","186133","0.0-7.0-3.0-0.28","7","7","7","7","7","5","5","5","5","5","5","2","2","2","2","2","2","2","2","5","5","5","5","5","5","5","5","5","5","6","5","5","5","5","5","5","5","5","7","7","7","7","7","7","7","1","7","7","1","7","7","7","7","7","7","7","7","1","7","7","7","7","7","7","7","7","7","7","7","7","7","7","7","7","7","7","7","7","7","628519267599384576","董","235","Male","[""坏他"",""好我"",""好他"",""坏我""]","[""弱他"",""强我"",""强他"",""弱我""]","","","","","","","","yes","","","","","","","","","SRET","EW_formal","","key","j","16.656094827586113","752.9411201521092","419.2156549180233","自己","独断","Negative","ability","","","","","","","","","","",""
"695","","f","psychophysics","43","187830","0.0-7.0-3.0-0.29","7","7","7","7","7","5","5","5","5","5","5","2","2","2","2","2","2","2","2","5","5","5","5","5","5","5","5","5","5","6","5","5","5","5","5","5","5","5","7","7","7","7","7","7","7","1","7","7","1","7","7","7","7","7","7","7","7","1","7","7","7","7","7","7","7","7","7","7","7","7","7","7","7","7","7","7","7","7","7","628519267599384576","董","235","Male","[""坏他"",""好我"",""好他"",""坏我""]","[""弱他"",""强我"",""强他"",""弱我""]","","","","","","","","no","","","","","","","","","SRET","EW_formal","","key","f","16.656198019801817","752.9411201521092","419.2156549180233","自己","恶劣","Negative","morality","","","","","","","","","","",""
"694","","f","psychophysics","44","189525","0.0-7.0-3.0-0.30","7","7","7","7","7","5","5","5","5","5","5","2","2","2","2","2","2","2","2","5","5","5","5","5","5","5","5","5","5","6","5","5","5","5","5","5","5","5","7","7","7","7","7","7","7","1","7","7","1","7","7","7","7","7","7","7","7","1","7","7","7","7","7","7","7","7","7","7","7","7","7","7","7","7","7","7","7","7","7","628519267599384576","董","235","Male","[""坏他"",""好我"",""好他"",""坏我""]","[""弱他"",""强我"",""强他"",""弱我""]","","","","","","","","no","","","","","","","","","SRET","EW_formal","","key","f","16.65700990099017","752.9411201521092","419.2156549180233","自己","弱智","Negative","ability","","","","","","","","","","",""
"799","","f","psychophysics","45","191326","0.0-7.0-3.0-0.31","7","7","7","7","7","5","5","5","5","5","5","2","2","2","2","2","2","2","2","5","5","5","5","5","5","5","5","5","5","6","5","5","5","5","5","5","5","5","7","7","7","7","7","7","7","1","7","7","1","7","7","7","7","7","7","7","7","1","7","7","7","7","7","7","7","7","7","7","7","7","7","7","7","7","7","7","7","7","7","628519267599384576","董","235","Male","[""坏他"",""好我"",""好他"",""坏我""]","[""弱他"",""强我"",""强他"",""弱我""]","","","","","","","","no","","","","","","","","","SRET","EW_formal","","key","f","16.65486915887847","752.9411201521092","419.2156549180233","自己","迂拙","Negative","ability","","","","","","","","","","",""
"1350","","f","psychophysics","46","193677","0.0-7.0-3.0-0.32","7","7","7","7","7","5","5","5","5","5","5","2","2","2","2","2","2","2","2","5","5","5","5","5","5","5","5","5","5","6","5","5","5","5","5","5","5","5","7","7","7","7","7","7","7","1","7","7","1","7","7","7","7","7","7","7","7","1","7","7","7","7","7","7","7","7","7","7","7","7","7","7","7","7","7","7","7","7","7","628519267599384576","董","235","Male","[""坏他"",""好我"",""好他"",""坏我""]","[""弱他"",""强我"",""强他"",""弱我""]","","","","","","","","no","","","","","","","","","SRET","EW_formal","","key","f","16.65364999999999","752.9411201521092","419.2156549180233","朋友","伪善","Negative","morality","","","","","","","","","","",""
"631","","f","psychophysics","47","195309","0.0-7.0-3.0-0.33","7","7","7","7","7","5","5","5","5","5","5","2","2","2","2","2","2","2","2","5","5","5","5","5","5","5","5","5","5","6","5","5","5","5","5","5","5","5","7","7","7","7","7","7","7","1","7","7","1","7","7","7","7","7","7","7","7","1","7","7","7","7","7","7","7","7","7","7","7","7","7","7","7","7","7","7","7","7","7","628519267599384576","董","235","Male","[""坏他"",""好我"",""好他"",""坏我""]","[""弱他"",""强我"",""强他"",""弱我""]","","","","","","","","no","","","","","","","","","SRET","EW_formal","","key","f","16.655824742267946","752.9411201521092","419.2156549180233","朋友","毛糙","Negative","ability","","","","","","","","","","",""
"1103","","j","psychophysics","48","197414","0.0-7.0-3.0-0.34","7","7","7","7","7","5","5","5","5","5","5","2","2","2","2","2","2","2","2","5","5","5","5","5","5","5","5","5","5","6","5","5","5","5","5","5","5","5","7","7","7","7","7","7","7","1","7","7","1","7","7","7","7","7","7","7","7","1","7","7","7","7","7","7","7","7","7","7","7","7","7","7","7","7","7","7","7","7","7","628519267599384576","董","235","Male","[""坏他"",""好我"",""好他"",""坏我""]","[""弱他"",""强我"",""强他"",""弱我""]","","","","","","","","yes","","","","","","","","","SRET","EW_formal","","key","j","16.653312000000152","752.9411201521092","419.2156549180233","自己","博识","Positive","ability","","","","","","","","","","",""
"606","","j","psychophysics","49","199021","0.0-7.0-3.0-0.35","7","7","7","7","7","5","5","5","5","5","5","2","2","2","2","2","2","2","2","5","5","5","5","5","5","5","5","5","5","6","5","5","5","5","5","5","5","5","7","7","7","7","7","7","7","1","7","7","1","7","7","7","7","7","7","7","7","1","7","7","7","7","7","7","7","7","7","7","7","7","7","7","7","7","7","7","7","7","7","628519267599384576","董","235","Male","[""坏他"",""好我"",""好他"",""坏我""]","[""弱他"",""强我"",""强他"",""弱我""]","","","","","","","","yes","","","","","","","","","SRET","EW_formal","","key","j","16.653385416666726","752.9411201521092","419.2156549180233","朋友","勤奋","Positive","ability","","","","","","","","","","",""
"1478","","f","psychophysics","50","201501","0.0-7.0-3.0-0.36","7","7","7","7","7","5","5","5","5","5","5","2","2","2","2","2","2","2","2","5","5","5","5","5","5","5","5","5","5","6","5","5","5","5","5","5","5","5","7","7","7","7","7","7","7","1","7","7","1","7","7","7","7","7","7","7","7","1","7","7","7","7","7","7","7","7","7","7","7","7","7","7","7","7","7","7","7","7","7","628519267599384576","董","235","Male","[""坏他"",""好我"",""好他"",""坏我""]","[""弱他"",""强我"",""强他"",""弱我""]","","","","","","","","no","","","","","","","","","SRET","EW_formal","","key","f","16.652520270270298","752.9411201521092","419.2156549180233","朋友","无敌","Positive","ability","","","","","","","","","","",""
"928","","j","psychophysics","51","203429","0.0-7.0-3.0-0.37","7","7","7","7","7","5","5","5","5","5","5","2","2","2","2","2","2","2","2","5","5","5","5","5","5","5","5","5","5","6","5","5","5","5","5","5","5","5","7","7","7","7","7","7","7","1","7","7","1","7","7","7","7","7","7","7","7","1","7","7","7","7","7","7","7","7","7","7","7","7","7","7","7","7","7","7","7","7","7","628519267599384576","董","235","Male","[""坏他"",""好我"",""好他"",""坏我""]","[""弱他"",""强我"",""强他"",""弱我""]","","","","","","","","yes","","","","","","","","","SRET","EW_formal","","key","j","16.65347826086977","752.9411201521092","419.2156549180233","自己","肯干","Positive","ability","","","","","","","","","","",""
"895","","f","psychophysics","52","205326","0.0-7.0-3.0-0.38","7","7","7","7","7","5","5","5","5","5","5","2","2","2","2","2","2","2","2","5","5","5","5","5","5","5","5","5","5","6","5","5","5","5","5","5","5","5","7","7","7","7","7","7","7","1","7","7","1","7","7","7","7","7","7","7","7","1","7","7","7","7","7","7","7","7","7","7","7","7","7","7","7","7","7","7","7","7","7","628519267599384576","董","235","Male","[""坏他"",""好我"",""好他"",""坏我""]","[""弱他"",""强我"",""强他"",""弱我""]","","","","","","","","no","","","","","","","","","SRET","EW_formal","","key","f","16.65361946902652","752.9411201521092","419.2156549180233","朋友","无知","Negative","ability","","","","","","","","","","",""
"1079","","j","psychophysics","53","207406","0.0-7.0-3.0-0.39","7","7","7","7","7","5","5","5","5","5","5","2","2","2","2","2","2","2","2","5","5","5","5","5","5","5","5","5","5","6","5","5","5","5","5","5","5","5","7","7","7","7","7","7","7","1","7","7","1","7","7","7","7","7","7","7","7","1","7","7","7","7","7","7","7","7","7","7","7","7","7","7","7","7","7","7","7","7","7","628519267599384576","董","235","Male","[""坏他"",""好我"",""好他"",""坏我""]","[""弱他"",""强我"",""强他"",""弱我""]","","","","","","","","yes","","","","","","","","","SRET","EW_formal","","key","j","16.654097560975593","752.9411201521092","419.2156549180233","自己","懂行","Positive","ability","","","","","","","","","","",""
"621","","j","psychophysics","54","209029","0.0-7.0-3.0-0.40","7","7","7","7","7","5","5","5","5","5","5","2","2","2","2","2","2","2","2","5","5","5","5","5","5","5","5","5","5","6","5","5","5","5","5","5","5","5","7","7","7","7","7","7","7","1","7","7","1","7","7","7","7","7","7","7","7","1","7","7","7","7","7","7","7","7","7","7","7","7","7","7","7","7","7","7","7","7","7","628519267599384576","董","235","Male","[""坏他"",""好我"",""好他"",""坏我""]","[""弱他"",""强我"",""强他"",""弱我""]","","","","","","","","yes","","","","","","","","","SRET","EW_formal","","key","j","17.00345263157873","752.9411201521092","419.2156549180233","自己","忠诚","Positive","morality","","","","","","","","","","",""
"567","","j","psychophysics","55","210597","0.0-7.0-3.0-0.41","7","7","7","7","7","5","5","5","5","5","5","2","2","2","2","2","2","2","2","5","5","5","5","5","5","5","5","5","5","6","5","5","5","5","5","5","5","5","7","7","7","7","7","7","7","1","7","7","1","7","7","7","7","7","7","7","7","1","7","7","7","7","7","7","7","7","7","7","7","7","7","7","7","7","7","7","7","7","7","628519267599384576","董","235","Male","[""坏他"",""好我"",""好他"",""坏我""]","[""弱他"",""强我"",""强他"",""弱我""]","","","","","","","","yes","","","","","","","","","SRET","EW_formal","","key","j","16.653795698924572","752.9411201521092","419.2156549180233","自己","高尚","Positive","morality","","","","","","","","","","",""
"721","","f","psychophysics","56","212319","0.0-7.0-3.0-0.42","7","7","7","7","7","5","5","5","5","5","5","2","2","2","2","2","2","2","2","5","5","5","5","5","5","5","5","5","5","6","5","5","5","5","5","5","5","5","7","7","7","7","7","7","7","1","7","7","1","7","7","7","7","7","7","7","7","1","7","7","7","7","7","7","7","7","7","7","7","7","7","7","7","7","7","7","7","7","7","628519267599384576","董","235","Male","[""坏他"",""好我"",""好他"",""坏我""]","[""弱他"",""强我"",""强他"",""弱我""]","","","","","","","","no","","","","","","","","","SRET","EW_formal","","key","f","16.6534215686275","752.9411201521092","419.2156549180233","自己","罪恶","Negative","morality","","","","","","","","","","",""
"652","","f","psychophysics","57","213974","0.0-7.0-3.0-0.43","7","7","7","7","7","5","5","5","5","5","5","2","2","2","2","2","2","2","2","5","5","5","5","5","5","5","5","5","5","6","5","5","5","5","5","5","5","5","7","7","7","7","7","7","7","1","7","7","1","7","7","7","7","7","7","7","7","1","7","7","7","7","7","7","7","7","7","7","7","7","7","7","7","7","7","7","7","7","7","628519267599384576","董","235","Male","[""坏他"",""好我"",""好他"",""坏我""]","[""弱他"",""强我"",""强他"",""弱我""]","","","","","","","","no","","","","","","","","","SRET","EW_formal","","key","f","16.65210101010091","752.9411201521092","419.2156549180233","自己","黑心","Negative","morality","","","","","","","","","","",""
"919","","f","psychophysics","58","215894","0.0-7.0-3.0-0.44","7","7","7","7","7","5","5","5","5","5","5","2","2","2","2","2","2","2","2","5","5","5","5","5","5","5","5","5","5","6","5","5","5","5","5","5","5","5","7","7","7","7","7","7","7","1","7","7","1","7","7","7","7","7","7","7","7","1","7","7","7","7","7","7","7","7","7","7","7","7","7","7","7","7","7","7","7","7","7","628519267599384576","董","235","Male","[""坏他"",""好我"",""好他"",""坏我""]","[""弱他"",""强我"",""强他"",""弱我""]","","","","","","","","no","","","","","","","","","SRET","EW_formal","","key","f","16.65424561403511","752.9411201521092","419.2156549180233","自己","刻苦","Positive","ability","","","","","","","","","","",""
"694","","j","psychophysics","59","217589","0.0-7.0-3.0-0.45","7","7","7","7","7","5","5","5","5","5","5","2","2","2","2","2","2","2","2","5","5","5","5","5","5","5","5","5","5","6","5","5","5","5","5","5","5","5","7","7","7","7","7","7","7","1","7","7","1","7","7","7","7","7","7","7","7","1","7","7","7","7","7","7","7","7","7","7","7","7","7","7","7","7","7","7","7","7","7","628519267599384576","董","235","Male","[""坏他"",""好我"",""好他"",""坏我""]","[""弱他"",""强我"",""强他"",""弱我""]","","","","","","","","yes","","","","","","","","","SRET","EW_formal","","key","j","16.65478217821784","752.9411201521092","419.2156549180233","朋友","高明","Positive","ability","","","","","","","","","","",""
"742","","f","psychophysics","60","219333","0.0-7.0-3.0-0.46","7","7","7","7","7","5","5","5","5","5","5","2","2","2","2","2","2","2","2","5","5","5","5","5","5","5","5","5","5","6","5","5","5","5","5","5","5","5","7","7","7","7","7","7","7","1","7","7","1","7","7","7","7","7","7","7","7","1","7","7","7","7","7","7","7","7","7","7","7","7","7","7","7","7","7","7","7","7","7","628519267599384576","董","235","Male","[""坏他"",""好我"",""好他"",""坏我""]","[""弱他"",""强我"",""强他"",""弱我""]","","","","","","","","no","","","","","","","","","SRET","EW_formal","","key","f","16.655230769230773","752.9411201521092","419.2156549180233","朋友","畏难","Negative","ability","","","","","","","","","","",""
"745","","j","psychophysics","61","221079","0.0-7.0-3.0-0.47","7","7","7","7","7","5","5","5","5","5","5","2","2","2","2","2","2","2","2","5","5","5","5","5","5","5","5","5","5","6","5","5","5","5","5","5","5","5","7","7","7","7","7","7","7","1","7","7","1","7","7","7","7","7","7","7","7","1","7","7","7","7","7","7","7","7","7","7","7","7","7","7","7","7","7","7","7","7","7","628519267599384576","董","235","Male","[""坏他"",""好我"",""好他"",""坏我""]","[""弱他"",""强我"",""强他"",""弱我""]","","","","","","","","yes","","","","","","","","","SRET","EW_formal","","key","j","16.65243269230772","752.9411201521092","419.2156549180233","自己","稳健","Positive","ability","","","","","","","","","","",""
"1069","","j","psychophysics","62","223149","0.0-7.0-3.0-0.48","7","7","7","7","7","5","5","5","5","5","5","2","2","2","2","2","2","2","2","5","5","5","5","5","5","5","5","5","5","6","5","5","5","5","5","5","5","5","7","7","7","7","7","7","7","1","7","7","1","7","7","7","7","7","7","7","7","1","7","7","7","7","7","7","7","7","7","7","7","7","7","7","7","7","7","7","7","7","7","628519267599384576","董","235","Male","[""坏他"",""好我"",""好他"",""坏我""]","[""弱他"",""强我"",""强他"",""弱我""]","","","","","","","","yes","","","","","","","","","SRET","EW_formal","","key","j","16.650219512195232","752.9411201521092","419.2156549180233","朋友","文明","Positive","morality","","","","","","","","","","",""
"880","","j","psychophysics","63","225030","0.0-7.0-3.0-0.49","7","7","7","7","7","5","5","5","5","5","5","2","2","2","2","2","2","2","2","5","5","5","5","5","5","5","5","5","5","6","5","5","5","5","5","5","5","5","7","7","7","7","7","7","7","1","7","7","1","7","7","7","7","7","7","7","7","1","7","7","7","7","7","7","7","7","7","7","7","7","7","7","7","7","7","7","7","7","7","628519267599384576","董","235","Male","[""坏他"",""好我"",""好他"",""坏我""]","[""弱他"",""强我"",""强他"",""弱我""]","","","","","","","","yes","","","","","","","","","SRET","EW_formal","","key","j","16.654187500000003","752.9411201521092","419.2156549180233","自己","细心","Positive","ability","","","","","","","","","","",""
"799","","f","psychophysics","64","226829","0.0-7.0-3.0-0.50","7","7","7","7","7","5","5","5","5","5","5","2","2","2","2","2","2","2","2","5","5","5","5","5","5","5","5","5","5","6","5","5","5","5","5","5","5","5","7","7","7","7","7","7","7","1","7","7","1","7","7","7","7","7","7","7","7","1","7","7","7","7","7","7","7","7","7","7","7","7","7","7","7","7","7","7","7","7","7","628519267599384576","董","235","Male","[""坏他"",""好我"",""好他"",""坏我""]","[""弱他"",""强我"",""强他"",""弱我""]","","","","","","","","no","","","","","","","","","SRET","EW_formal","","key","f","16.65340186915878","752.9411201521092","419.2156549180233","朋友","低劣","Negative","morality","","","","","","","","","","",""
"630","","f","psychophysics","65","228461","0.0-7.0-3.0-0.51","7","7","7","7","7","5","5","5","5","5","5","2","2","2","2","2","2","2","2","5","5","5","5","5","5","5","5","5","5","6","5","5","5","5","5","5","5","5","7","7","7","7","7","7","7","1","7","7","1","7","7","7","7","7","7","7","7","1","7","7","7","7","7","7","7","7","7","7","7","7","7","7","7","7","7","7","7","7","7","628519267599384576","董","235","Male","[""坏他"",""好我"",""好他"",""坏我""]","[""弱他"",""强我"",""强他"",""弱我""]","","","","","","","","no","","","","","","","","","SRET","EW_formal","","key","f","16.654329896907228","752.9411201521092","419.2156549180233","自己","狡诈","Negative","morality","","","","","","","","","","",""
"1089","","f","psychophysics","66","230550","0.0-7.0-3.0-0.52","7","7","7","7","7","5","5","5","5","5","5","2","2","2","2","2","2","2","2","5","5","5","5","5","5","5","5","5","5","6","5","5","5","5","5","5","5","5","7","7","7","7","7","7","7","1","7","7","1","7","7","7","7","7","7","7","7","1","7","7","7","7","7","7","7","7","7","7","7","7","7","7","7","7","7","7","7","7","7","628519267599384576","董","235","Male","[""坏他"",""好我"",""好他"",""坏我""]","[""弱他"",""强我"",""强他"",""弱我""]","","","","","","","","no","","","","","","","","","SRET","EW_formal","","key","f","16.6525887096772","752.9411201521092","419.2156549180233","朋友","缺德","Negative","morality","","","","","","","","","","",""
"613","","f","psychophysics","67","232165","0.0-7.0-3.0-0.53","7","7","7","7","7","5","5","5","5","5","5","2","2","2","2","2","2","2","2","5","5","5","5","5","5","5","5","5","5","6","5","5","5","5","5","5","5","5","7","7","7","7","7","7","7","1","7","7","1","7","7","7","7","7","7","7","7","1","7","7","7","7","7","7","7","7","7","7","7","7","7","7","7","7","7","7","7","7","7","628519267599384576","董","235","Male","[""坏他"",""好我"",""好他"",""坏我""]","[""弱他"",""强我"",""强他"",""弱我""]","","","","","","","","no","","","","","","","","","SRET","EW_formal","","key","f","16.65372916666638","752.9411201521092","419.2156549180233","自己","贪污","Negative","morality","","","","","","","","","","",""
"767","","f","psychophysics","68","233933","0.0-7.0-3.0-0.54","7","7","7","7","7","5","5","5","5","5","5","2","2","2","2","2","2","2","2","5","5","5","5","5","5","5","5","5","5","6","5","5","5","5","5","5","5","5","7","7","7","7","7","7","7","1","7","7","1","7","7","7","7","7","7","7","7","1","7","7","7","7","7","7","7","7","7","7","7","7","7","7","7","7","7","7","7","7","7","628519267599384576","董","235","Male","[""坏他"",""好我"",""好他"",""坏我""]","[""弱他"",""强我"",""强他"",""弱我""]","","","","","","","","no","","","","","","","","","SRET","EW_formal","","key","f","16.651685714285676","752.9411201521092","419.2156549180233","朋友","拜金","Negative","morality","","","","","","","","","","",""
"1039","","j","psychophysics","69","235973","0.0-7.0-3.0-0.55","7","7","7","7","7","5","5","5","5","5","5","2","2","2","2","2","2","2","2","5","5","5","5","5","5","5","5","5","5","6","5","5","5","5","5","5","5","5","7","7","7","7","7","7","7","1","7","7","1","7","7","7","7","7","7","7","7","1","7","7","7","7","7","7","7","7","7","7","7","7","7","7","7","7","7","7","7","7","7","628519267599384576","董","235","Male","[""坏他"",""好我"",""好他"",""坏我""]","[""弱他"",""强我"",""强他"",""弱我""]","","","","","","","","yes","","","","","","","","","SRET","EW_formal","","key","j","16.65606557377032","752.9411201521092","419.2156549180233","朋友","扎实","Positive","ability","","","","","","","","","","",""
"663","","j","psychophysics","70","237637","0.0-7.0-3.0-0.56","7","7","7","7","7","5","5","5","5","5","5","2","2","2","2","2","2","2","2","5","5","5","5","5","5","5","5","5","5","6","5","5","5","5","5","5","5","5","7","7","7","7","7","7","7","1","7","7","1","7","7","7","7","7","7","7","7","1","7","7","7","7","7","7","7","7","7","7","7","7","7","7","7","7","7","7","7","7","7","628519267599384576","董","235","Male","[""坏他"",""好我"",""好他"",""坏我""]","[""弱他"",""强我"",""强他"",""弱我""]","","","","","","","","yes","","","","","","","","","SRET","EW_formal","","key","j","16.650353535353336","752.9411201521092","419.2156549180233","朋友","高效","Positive","ability","","","","","","","","","","",""
"1070","","f","psychophysics","71","239709","0.0-7.0-3.0-0.57","7","7","7","7","7","5","5","5","5","5","5","2","2","2","2","2","2","2","2","5","5","5","5","5","5","5","5","5","5","6","5","5","5","5","5","5","5","5","7","7","7","7","7","7","7","1","7","7","1","7","7","7","7","7","7","7","7","1","7","7","7","7","7","7","7","7","7","7","7","7","7","7","7","7","7","7","7","7","7","628519267599384576","董","235","Male","[""坏他"",""好我"",""好他"",""坏我""]","[""弱他"",""强我"",""强他"",""弱我""]","","","","","","","","no","","","","","","","","","SRET","EW_formal","","key","f","16.652707317073137","752.9411201521092","419.2156549180233","朋友","新手","Negative","ability","","","","","","","","","","",""
"670","","f","psychophysics","72","241381","0.0-7.0-3.0-0.58","7","7","7","7","7","5","5","5","5","5","5","2","2","2","2","2","2","2","2","5","5","5","5","5","5","5","5","5","5","6","5","5","5","5","5","5","5","5","7","7","7","7","7","7","7","1","7","7","1","7","7","7","7","7","7","7","7","1","7","7","7","7","7","7","7","7","7","7","7","7","7","7","7","7","7","7","7","7","7","628519267599384576","董","235","Male","[""坏他"",""好我"",""好他"",""坏我""]","[""弱他"",""强我"",""强他"",""弱我""]","","","","","","","","no","","","","","","","","","SRET","EW_formal","","key","f","16.654320000000006","752.9411201521092","419.2156549180233","自己","怠惰","Negative","ability","","","","","","","","","","",""
"798","","f","psychophysics","73","243181","0.0-7.0-3.0-0.59","7","7","7","7","7","5","5","5","5","5","5","2","2","2","2","2","2","2","2","5","5","5","5","5","5","5","5","5","5","6","5","5","5","5","5","5","5","5","7","7","7","7","7","7","7","1","7","7","1","7","7","7","7","7","7","7","7","1","7","7","7","7","7","7","7","7","7","7","7","7","7","7","7","7","7","7","7","7","7","628519267599384576","董","235","Male","[""坏他"",""好我"",""好他"",""坏我""]","[""弱他"",""强我"",""强他"",""弱我""]","","","","","","","","no","","","","","","","","","SRET","EW_formal","","key","f","16.64886915887854","752.9411201521092","419.2156549180233","自己","迟钝","Negative","ability","","","","","","","","","","",""
"1025","","j","psychophysics","74","245206","0.0-7.0-3.0-0.60","7","7","7","7","7","5","5","5","5","5","5","2","2","2","2","2","2","2","2","5","5","5","5","5","5","5","5","5","5","6","5","5","5","5","5","5","5","5","7","7","7","7","7","7","7","1","7","7","1","7","7","7","7","7","7","7","7","1","7","7","7","7","7","7","7","7","7","7","7","7","7","7","7","7","7","7","7","7","7","628519267599384576","董","235","Male","[""坏他"",""好我"",""好他"",""坏我""]","[""弱他"",""强我"",""强他"",""弱我""]","","","","","","","","yes","","","","","","","","","SRET","EW_formal","","key","j","16.65314166666673","752.9411201521092","419.2156549180233","朋友","周到","Positive","ability","","","","","","","","","","",""
"950","","f","psychophysics","75","247158","0.0-7.0-3.0-0.61","7","7","7","7","7","5","5","5","5","5","5","2","2","2","2","2","2","2","2","5","5","5","5","5","5","5","5","5","5","6","5","5","5","5","5","5","5","5","7","7","7","7","7","7","7","1","7","7","1","7","7","7","7","7","7","7","7","1","7","7","7","7","7","7","7","7","7","7","7","7","7","7","7","7","7","7","7","7","7","628519267599384576","董","235","Male","[""坏他"",""好我"",""好他"",""坏我""]","[""弱他"",""强我"",""强他"",""弱我""]","","","","","","","","no","","","","","","","","","SRET","EW_formal","","key","f","16.654196581196558","752.9411201521092","419.2156549180233","朋友","无助","Negative","ability","","","","","","","","","","",""
"670","","f","psychophysics","76","248829","0.0-7.0-3.0-0.62","7","7","7","7","7","5","5","5","5","5","5","2","2","2","2","2","2","2","2","5","5","5","5","5","5","5","5","5","5","6","5","5","5","5","5","5","5","5","7","7","7","7","7","7","7","1","7","7","1","7","7","7","7","7","7","7","7","1","7","7","7","7","7","7","7","7","7","7","7","7","7","7","7","7","7","7","7","7","7","628519267599384576","董","235","Male","[""坏他"",""好我"",""好他"",""坏我""]","[""弱他"",""强我"",""强他"",""弱我""]","","","","","","","","no","","","","","","","","","SRET","EW_formal","","key","f","16.651272727272676","752.9411201521092","419.2156549180233","朋友","不孝","Negative","morality","","","","","","","","","","",""
"662","","f","psychophysics","77","250492","0.0-7.0-3.0-0.63","7","7","7","7","7","5","5","5","5","5","5","2","2","2","2","2","2","2","2","5","5","5","5","5","5","5","5","5","5","6","5","5","5","5","5","5","5","5","7","7","7","7","7","7","7","1","7","7","1","7","7","7","7","7","7","7","7","1","7","7","7","7","7","7","7","7","7","7","7","7","7","7","7","7","7","7","7","7","7","628519267599384576","董","235","Male","[""坏他"",""好我"",""好他"",""坏我""]","[""弱他"",""强我"",""强他"",""弱我""]","","","","","","","","no","","","","","","","","","SRET","EW_formal","","key","f","16.65280808080805","752.9411201521092","419.2156549180233","朋友","博学","Positive","ability","","","","","","","","","","",""
"687","","j","psychophysics","78","252181","0.0-7.0-3.0-0.64","7","7","7","7","7","5","5","5","5","5","5","2","2","2","2","2","2","2","2","5","5","5","5","5","5","5","5","5","5","6","5","5","5","5","5","5","5","5","7","7","7","7","7","7","7","1","7","7","1","7","7","7","7","7","7","7","7","1","7","7","7","7","7","7","7","7","7","7","7","7","7","7","7","7","7","7","7","7","7","628519267599384576","董","235","Male","[""坏他"",""好我"",""好他"",""坏我""]","[""弱他"",""强我"",""强他"",""弱我""]","","","","","","","","yes","","","","","","","","","SRET","EW_formal","","key","j","16.65164999999979","752.9411201521092","419.2156549180233","朋友","慷慨","Positive","morality","","","","","","","","","","",""
"831","","f","psychophysics","79","254015","0.0-7.0-3.0-0.65","7","7","7","7","7","5","5","5","5","5","5","2","2","2","2","2","2","2","2","5","5","5","5","5","5","5","5","5","5","6","5","5","5","5","5","5","5","5","7","7","7","7","7","7","7","1","7","7","1","7","7","7","7","7","7","7","7","1","7","7","7","7","7","7","7","7","7","7","7","7","7","7","7","7","7","7","7","7","7","628519267599384576","董","235","Male","[""坏他"",""好我"",""好他"",""坏我""]","[""弱他"",""强我"",""强他"",""弱我""]","","","","","","","","no","","","","","","","","","SRET","EW_formal","","key","f","16.653678899082472","752.9411201521092","419.2156549180233","朋友","不端","Negative","morality","","","","","","","","","","",""
"613","","j","psychophysics","80","255630","0.0-7.0-3.0-0.66","7","7","7","7","7","5","5","5","5","5","5","2","2","2","2","2","2","2","2","5","5","5","5","5","5","5","5","5","5","6","5","5","5","5","5","5","5","5","7","7","7","7","7","7","7","1","7","7","1","7","7","7","7","7","7","7","7","1","7","7","7","7","7","7","7","7","7","7","7","7","7","7","7","7","7","7","7","7","7","628519267599384576","董","235","Male","[""坏他"",""好我"",""好他"",""坏我""]","[""弱他"",""强我"",""强他"",""弱我""]","","","","","","","","yes","","","","","","","","","SRET","EW_formal","","key","j","16.654583333333296","752.9411201521092","419.2156549180233","朋友","坦荡","Positive","morality","","","","","","","","","","",""
"685","","f","psychophysics","81","257316","0.0-7.0-3.0-0.67","7","7","7","7","7","5","5","5","5","5","5","2","2","2","2","2","2","2","2","5","5","5","5","5","5","5","5","5","5","6","5","5","5","5","5","5","5","5","7","7","7","7","7","7","7","1","7","7","1","7","7","7","7","7","7","7","7","1","7","7","7","7","7","7","7","7","7","7","7","7","7","7","7","7","7","7","7","7","7","628519267599384576","董","235","Male","[""坏他"",""好我"",""好他"",""坏我""]","[""弱他"",""强我"",""强他"",""弱我""]","","","","","","","","no","","","","","","","","","SRET","EW_formal","","key","f","16.655069306930805","752.9411201521092","419.2156549180233","自己","龌龊","Negative","morality","","","","","","","","","","",""
"1439","","j","psychophysics","82","259757","0.0-7.0-3.0-0.68","7","7","7","7","7","5","5","5","5","5","5","2","2","2","2","2","2","2","2","5","5","5","5","5","5","5","5","5","5","6","5","5","5","5","5","5","5","5","7","7","7","7","7","7","7","1","7","7","1","7","7","7","7","7","7","7","7","1","7","7","7","7","7","7","7","7","7","7","7","7","7","7","7","7","7","7","7","7","7","628519267599384576","董","235","Male","[""坏他"",""好我"",""好他"",""坏我""]","[""弱他"",""强我"",""强他"",""弱我""]","","","","","","","","yes","","","","","","","","","SRET","EW_formal","","key","j","16.64984137931024","752.9411201521092","419.2156549180233","自己","无私","Positive","morality","","","","","","","","","","",""
"719","","f","psychophysics","83","261477","0.0-7.0-3.0-0.69","7","7","7","7","7","5","5","5","5","5","5","2","2","2","2","2","2","2","2","5","5","5","5","5","5","5","5","5","5","6","5","5","5","5","5","5","5","5","7","7","7","7","7","7","7","1","7","7","1","7","7","7","7","7","7","7","7","1","7","7","7","7","7","7","7","7","7","7","7","7","7","7","7","7","7","7","7","7","7","628519267599384576","董","235","Male","[""坏他"",""好我"",""好他"",""坏我""]","[""弱他"",""强我"",""强他"",""弱我""]","","","","","","","","no","","","","","","","","","SRET","EW_formal","","key","f","16.65452941176459","752.9411201521092","419.2156549180233","自己","奸险","Negative","morality","","","","","","","","","","",""
"1118","","f","psychophysics","84","263597","0.0-7.0-3.0-0.70","7","7","7","7","7","5","5","5","5","5","5","2","2","2","2","2","2","2","2","5","5","5","5","5","5","5","5","5","5","6","5","5","5","5","5","5","5","5","7","7","7","7","7","7","7","1","7","7","1","7","7","7","7","7","7","7","7","1","7","7","7","7","7","7","7","7","7","7","7","7","7","7","7","7","7","7","7","7","7","628519267599384576","董","235","Male","[""坏他"",""好我"",""好他"",""坏我""]","[""弱他"",""强我"",""强他"",""弱我""]","","","","","","","","no","","","","","","","","","SRET","EW_formal","","key","f","16.65295275590542","752.9411201521092","419.2156549180233","朋友","业余","Negative","ability","","","","","","","","","","",""
"1143","","f","psychophysics","85","265742","0.0-7.0-3.0-0.71","7","7","7","7","7","5","5","5","5","5","5","2","2","2","2","2","2","2","2","5","5","5","5","5","5","5","5","5","5","6","5","5","5","5","5","5","5","5","7","7","7","7","7","7","7","1","7","7","1","7","7","7","7","7","7","7","7","1","7","7","7","7","7","7","7","7","7","7","7","7","7","7","7","7","7","7","7","7","7","628519267599384576","董","235","Male","[""坏他"",""好我"",""好他"",""坏我""]","[""弱他"",""强我"",""强他"",""弱我""]","","","","","","","","no","","","","","","","","","SRET","EW_formal","","key","f","16.652421875000073","752.9411201521092","419.2156549180233","朋友","屈才","Negative","ability","","","","","","","","","","",""
"854","","f","psychophysics","86","267597","0.0-7.0-3.0-0.72","7","7","7","7","7","5","5","5","5","5","5","2","2","2","2","2","2","2","2","5","5","5","5","5","5","5","5","5","5","6","5","5","5","5","5","5","5","5","7","7","7","7","7","7","7","1","7","7","1","7","7","7","7","7","7","7","7","1","7","7","7","7","7","7","7","7","7","7","7","7","7","7","7","7","7","7","7","7","7","628519267599384576","董","235","Male","[""坏他"",""好我"",""好他"",""坏我""]","[""弱他"",""强我"",""强他"",""弱我""]","","","","","","","","no","","","","","","","","","SRET","EW_formal","","key","f","16.654736363636435","752.9411201521092","419.2156549180233","朋友","无赖","Negative","morality","","","","","","","","","","",""
"1039","","f","psychophysics","87","269638","0.0-7.0-3.0-0.73","7","7","7","7","7","5","5","5","5","5","5","2","2","2","2","2","2","2","2","5","5","5","5","5","5","5","5","5","5","6","5","5","5","5","5","5","5","5","7","7","7","7","7","7","7","1","7","7","1","7","7","7","7","7","7","7","7","1","7","7","7","7","7","7","7","7","7","7","7","7","7","7","7","7","7","7","7","7","7","628519267599384576","董","235","Male","[""坏他"",""好我"",""好他"",""坏我""]","[""弱他"",""强我"",""强他"",""弱我""]","","","","","","","","no","","","","","","","","","SRET","EW_formal","","key","f","16.653165289256165","752.9411201521092","419.2156549180233","朋友","才尽","Negative","ability","","","","","","","","","","",""
"680","","f","psychophysics","88","271318","0.0-7.0-3.0-0.74","7","7","7","7","7","5","5","5","5","5","5","2","2","2","2","2","2","2","2","5","5","5","5","5","5","5","5","5","5","6","5","5","5","5","5","5","5","5","7","7","7","7","7","7","7","1","7","7","1","7","7","7","7","7","7","7","7","1","7","7","7","7","7","7","7","7","7","7","7","7","7","7","7","7","7","7","7","7","7","628519267599384576","董","235","Male","[""坏他"",""好我"",""好他"",""坏我""]","[""弱他"",""强我"",""强他"",""弱我""]","","","","","","","","no","","","","","","","","","SRET","EW_formal","","key","f","16.65353999999992","752.9411201521092","419.2156549180233","自己","拙笨","Negative","ability","","","","","","","","","","",""
"885","","f","psychophysics","89","273204","0.0-7.0-3.0-0.75","7","7","7","7","7","5","5","5","5","5","5","2","2","2","2","2","2","2","2","5","5","5","5","5","5","5","5","5","5","6","5","5","5","5","5","5","5","5","7","7","7","7","7","7","7","1","7","7","1","7","7","7","7","7","7","7","7","1","7","7","7","7","7","7","7","7","7","7","7","7","7","7","7","7","7","7","7","7","7","628519267599384576","董","235","Male","[""坏他"",""好我"",""好他"",""坏我""]","[""弱他"",""强我"",""强他"",""弱我""]","","","","","","","","no","","","","","","","","","SRET","EW_formal","","key","f","16.654053097345095","752.9411201521092","419.2156549180233","自己","逞能","Negative","ability","","","","","","","","","","",""
"735","","f","psychophysics","90","274940","0.0-7.0-3.0-0.76","7","7","7","7","7","5","5","5","5","5","5","2","2","2","2","2","2","2","2","5","5","5","5","5","5","5","5","5","5","6","5","5","5","5","5","5","5","5","7","7","7","7","7","7","7","1","7","7","1","7","7","7","7","7","7","7","7","1","7","7","7","7","7","7","7","7","7","7","7","7","7","7","7","7","7","7","7","7","7","628519267599384576","董","235","Male","[""坏他"",""好我"",""好他"",""坏我""]","[""弱他"",""强我"",""强他"",""弱我""]","","","","","","","","no","","","","","","","","","SRET","EW_formal","","key","f","16.652203883494824","752.9411201521092","419.2156549180233","朋友","混账","Negative","morality","","","","","","","","","","",""
"816","","j","psychophysics","91","276757","0.0-7.0-3.0-0.77","7","7","7","7","7","5","5","5","5","5","5","2","2","2","2","2","2","2","2","5","5","5","5","5","5","5","5","5","5","6","5","5","5","5","5","5","5","5","7","7","7","7","7","7","7","1","7","7","1","7","7","7","7","7","7","7","7","1","7","7","7","7","7","7","7","7","7","7","7","7","7","7","7","7","7","7","7","7","7","628519267599384576","董","235","Male","[""坏他"",""好我"",""好他"",""坏我""]","[""弱他"",""强我"",""强他"",""弱我""]","","","","","","","","yes","","","","","","","","","SRET","EW_formal","","key","j","16.654111111111384","752.9411201521092","419.2156549180233","朋友","厚道","Positive","morality","","","","","","","","","","",""
"751","","j","psychophysics","92","278510","0.0-7.0-3.0-0.78","7","7","7","7","7","5","5","5","5","5","5","2","2","2","2","2","2","2","2","5","5","5","5","5","5","5","5","5","5","6","5","5","5","5","5","5","5","5","7","7","7","7","7","7","7","1","7","7","1","7","7","7","7","7","7","7","7","1","7","7","7","7","7","7","7","7","7","7","7","7","7","7","7","7","7","7","7","7","7","628519267599384576","董","235","Male","[""坏他"",""好我"",""好他"",""坏我""]","[""弱他"",""强我"",""强他"",""弱我""]","","","","","","","","yes","","","","","","","","","SRET","EW_formal","","key","j","16.653855769230667","752.9411201521092","419.2156549180233","朋友","善心","Positive","morality","","","","","","","","","","",""
"1063","","j","psychophysics","93","280574","0.0-7.0-3.0-0.79","7","7","7","7","7","5","5","5","5","5","5","2","2","2","2","2","2","2","2","5","5","5","5","5","5","5","5","5","5","6","5","5","5","5","5","5","5","5","7","7","7","7","7","7","7","1","7","7","1","7","7","7","7","7","7","7","7","1","7","7","7","7","7","7","7","7","7","7","7","7","7","7","7","7","7","7","7","7","7","628519267599384576","董","235","Male","[""坏他"",""好我"",""好他"",""坏我""]","[""弱他"",""强我"",""强他"",""弱我""]","","","","","","","","yes","","","","","","","","","SRET","EW_formal","","key","j","16.652780487805007","752.9411201521092","419.2156549180233","自己","远见","Positive","ability","","","","","","","","","","",""
"670","","f","psychophysics","94","282245","0.0-7.0-3.0-0.80","7","7","7","7","7","5","5","5","5","5","5","2","2","2","2","2","2","2","2","5","5","5","5","5","5","5","5","5","5","6","5","5","5","5","5","5","5","5","7","7","7","7","7","7","7","1","7","7","1","7","7","7","7","7","7","7","7","1","7","7","7","7","7","7","7","7","7","7","7","7","7","7","7","7","7","7","7","7","7","628519267599384576","董","235","Male","[""坏他"",""好我"",""好他"",""坏我""]","[""弱他"",""强我"",""强他"",""弱我""]","","","","","","","","no","","","","","","","","","SRET","EW_formal","","key","f","16.653820000000415","752.9411201521092","419.2156549180233","自己","马虎","Negative","ability","","","","","","","","","","",""
"1126","","j","psychophysics","95","284372","0.0-7.0-3.0-0.81","7","7","7","7","7","5","5","5","5","5","5","2","2","2","2","2","2","2","2","5","5","5","5","5","5","5","5","5","5","6","5","5","5","5","5","5","5","5","7","7","7","7","7","7","7","1","7","7","1","7","7","7","7","7","7","7","7","1","7","7","7","7","7","7","7","7","7","7","7","7","7","7","7","7","7","7","7","7","7","628519267599384576","董","235","Male","[""坏他"",""好我"",""好他"",""坏我""]","[""弱他"",""强我"",""强他"",""弱我""]","","","","","","","","yes","","","","","","","","","SRET","EW_formal","","key","j","16.652634920635066","752.9411201521092","419.2156549180233","自己","沉着","Positive","ability","","","","","","","","","","",""
"910","","f","psychophysics","96","286284","0.0-7.0-3.0-0.82","7","7","7","7","7","5","5","5","5","5","5","2","2","2","2","2","2","2","2","5","5","5","5","5","5","5","5","5","5","6","5","5","5","5","5","5","5","5","7","7","7","7","7","7","7","1","7","7","1","7","7","7","7","7","7","7","7","1","7","7","7","7","7","7","7","7","7","7","7","7","7","7","7","7","7","7","7","7","7","628519267599384576","董","235","Male","[""坏他"",""好我"",""好他"",""坏我""]","[""弱他"",""强我"",""强他"",""弱我""]","","","","","","","","no","","","","","","","","","SRET","EW_formal","","key","f","16.654342105263424","752.9411201521092","419.2156549180233","朋友","差生","Negative","ability","","","","","","","","","","",""
"729","","f","psychophysics","97","288014","0.0-7.0-3.0-0.83","7","7","7","7","7","5","5","5","5","5","5","2","2","2","2","2","2","2","2","5","5","5","5","5","5","5","5","5","5","6","5","5","5","5","5","5","5","5","7","7","7","7","7","7","7","1","7","7","1","7","7","7","7","7","7","7","7","1","7","7","7","7","7","7","7","7","7","7","7","7","7","7","7","7","7","7","7","7","7","628519267599384576","董","235","Male","[""坏他"",""好我"",""好他"",""坏我""]","[""弱他"",""强我"",""强他"",""弱我""]","","","","","","","","no","","","","","","","","","SRET","EW_formal","","key","f","16.65184466019431","752.9411201521092","419.2156549180233","自己","浅薄","Negative","ability","","","","","","","","","","",""
"1126","","f","psychophysics","98","290141","0.0-7.0-3.0-0.84","7","7","7","7","7","5","5","5","5","5","5","2","2","2","2","2","2","2","2","5","5","5","5","5","5","5","5","5","5","6","5","5","5","5","5","5","5","5","7","7","7","7","7","7","7","1","7","7","1","7","7","7","7","7","7","7","7","1","7","7","7","7","7","7","7","7","7","7","7","7","7","7","7","7","7","7","7","7","7","628519267599384576","董","235","Male","[""坏他"",""好我"",""好他"",""坏我""]","[""弱他"",""强我"",""强他"",""弱我""]","","","","","","","","no","","","","","","","","","SRET","EW_formal","","key","f","16.65335433070885","752.9411201521092","419.2156549180233","自己","缓慢","Negative","ability","","","","","","","","","","",""
"638","","f","psychophysics","99","291781","0.0-7.0-3.0-0.85","7","7","7","7","7","5","5","5","5","5","5","2","2","2","2","2","2","2","2","5","5","5","5","5","5","5","5","5","5","6","5","5","5","5","5","5","5","5","7","7","7","7","7","7","7","1","7","7","1","7","7","7","7","7","7","7","7","1","7","7","7","7","7","7","7","7","7","7","7","7","7","7","7","7","7","7","7","7","7","628519267599384576","董","235","Male","[""坏他"",""好我"",""好他"",""坏我""]","[""弱他"",""强我"",""强他"",""弱我""]","","","","","","","","no","","","","","","","","","SRET","EW_formal","","key","f","16.646463917525722","752.9411201521092","419.2156549180233","朋友","低俗","Negative","morality","","","","","","","","","","",""
"664","","f","psychophysics","100","293446","0.0-7.0-3.0-0.86","7","7","7","7","7","5","5","5","5","5","5","2","2","2","2","2","2","2","2","5","5","5","5","5","5","5","5","5","5","6","5","5","5","5","5","5","5","5","7","7","7","7","7","7","7","1","7","7","1","7","7","7","7","7","7","7","7","1","7","7","7","7","7","7","7","7","7","7","7","7","7","7","7","7","7","7","7","7","7","628519267599384576","董","235","Male","[""坏他"",""好我"",""好他"",""坏我""]","[""弱他"",""强我"",""强他"",""弱我""]","","","","","","","","no","","","","","","","","","SRET","EW_formal","","key","f","16.653414141413794","752.9411201521092","419.2156549180233","朋友","素养","Positive","morality","","","","","","","","","","",""
"982","","j","psychophysics","101","295429","0.0-7.0-3.0-0.87","7","7","7","7","7","5","5","5","5","5","5","2","2","2","2","2","2","2","2","5","5","5","5","5","5","5","5","5","5","6","5","5","5","5","5","5","5","5","7","7","7","7","7","7","7","1","7","7","1","7","7","7","7","7","7","7","7","1","7","7","7","7","7","7","7","7","7","7","7","7","7","7","7","7","7","7","7","7","7","628519267599384576","董","235","Male","[""坏他"",""好我"",""好他"",""坏我""]","[""弱他"",""强我"",""强他"",""弱我""]","","","","","","","","yes","","","","","","","","","SRET","EW_formal","","key","j","16.654135593220047","752.9411201521092","419.2156549180233","自己","主见","Positive","ability","","","","","","","","","","",""
"4033","
    <p><div style='color:white;font-size:35px; line-height:20px;'>计算任务</div></p><br>
    <p><div style='color:red;font-size:25px; line-height:20px;'>接下来，您将看到一些四则运算题，<b>请从键盘选择 0-9 进行反应。</b></div></p>
    <p><div style='color:red;font-size:25px; line-height:20px;'>请尽可能快地进行计算，计算的速度和正确率将影响报酬的发放。</div></p>
    <p><div class='footer' style='color:white;font-size:25px; line-height:20px;'>如果对本实验还有不清楚之处，请立即向实验员咨询。</p><p style='color:white;font-size:25px; line-height:20px;'>如果您明白了规则：</p><p style='color:white;font-size:22px; line-height:20px;'>请按 继续 进入练习</p>
    </div>
    ","0","html-button-response","102","299464","0.0-7.0-4.0","7","7","7","7","7","5","5","5","5","5","5","2","2","2","2","2","2","2","2","5","5","5","5","5","5","5","5","5","5","6","5","5","5","5","5","5","5","5","7","7","7","7","7","7","7","1","7","7","1","7","7","7","7","7","7","7","7","1","7","7","7","7","7","7","7","7","7","7","7","7","7","7","7","7","7","7","7","7","7","628519267599384576","董","235","Male","[""坏他"",""好我"",""好他"",""坏我""]","[""弱他"",""强我"",""强他"",""弱我""]","","","","","","","","","","","","","","","","","SRET_math","math_instructions","Sun Jan 07 2024 21:33:44 GMT+0800 (中国标准时间)","","","","","","","","","","","","","","","","","","","",""
"2002","","5","psychophysics","103","301469","0.0-7.0-5.0-0.0","7","7","7","7","7","5","5","5","5","5","5","2","2","2","2","2","2","2","2","5","5","5","5","5","5","5","5","5","5","6","5","5","5","5","5","5","5","5","7","7","7","7","7","7","7","1","7","7","1","7","7","7","7","7","7","7","7","1","7","7","7","7","7","7","7","7","7","7","7","7","7","7","7","7","7","7","7","7","7","628519267599384576","董","235","Male","[""坏他"",""好我"",""好他"",""坏我""]","[""弱他"",""强我"",""强他"",""弱我""]","","","","","","","","5","","","","","","","","","SRET","SRET_math_calculate","","key","5","16.652999999999885","752.9411201521092","419.2156549180233","","","","","10-5= ?","5","1","","","","","","","",""
"2854","","8","psychophysics","104","304325","0.0-7.0-5.0-0.1","7","7","7","7","7","5","5","5","5","5","5","2","2","2","2","2","2","2","2","5","5","5","5","5","5","5","5","5","5","6","5","5","5","5","5","5","5","5","7","7","7","7","7","7","7","1","7","7","1","7","7","7","7","7","7","7","7","1","7","7","7","7","7","7","7","7","7","7","7","7","7","7","7","7","7","7","7","7","7","628519267599384576","董","235","Male","[""坏他"",""好我"",""好他"",""坏我""]","[""弱他"",""强我"",""强他"",""弱我""]","","","","","","","","8","","","","","","","","","SRET","SRET_math_calculate","","key","8","16.65313529411762","752.9411201521092","419.2156549180233","","","","","72/9= ?","8","1","","","","","","","",""
"2239","","8","psychophysics","105","306565","0.0-7.0-5.0-0.2","7","7","7","7","7","5","5","5","5","5","5","2","2","2","2","2","2","2","2","5","5","5","5","5","5","5","5","5","5","6","5","5","5","5","5","5","5","5","7","7","7","7","7","7","7","1","7","7","1","7","7","7","7","7","7","7","7","1","7","7","7","7","7","7","7","7","7","7","7","7","7","7","7","7","7","7","7","7","7","628519267599384576","董","235","Male","[""坏他"",""好我"",""好他"",""坏我""]","[""弱他"",""强我"",""强他"",""弱我""]","","","","","","","","8","","","","","","","","","SRET","SRET_math_calculate","","key","8","16.652783582089537","752.9411201521092","419.2156549180233","","","","","5+3= ?","8","1","","","","","","","",""
"1943","","5","psychophysics","106","308509","0.0-7.0-5.0-0.3","7","7","7","7","7","5","5","5","5","5","5","2","2","2","2","2","2","2","2","5","5","5","5","5","5","5","5","5","5","6","5","5","5","5","5","5","5","5","7","7","7","7","7","7","7","1","7","7","1","7","7","7","7","7","7","7","7","1","7","7","7","7","7","7","7","7","7","7","7","7","7","7","7","7","7","7","7","7","7","628519267599384576","董","235","Male","[""坏他"",""好我"",""好他"",""坏我""]","[""弱他"",""强我"",""强他"",""弱我""]","","","","","","","","5","","","","","","","","","SRET","SRET_math_calculate","","key","5","16.651241379310296","752.9411201521092","419.2156549180233","","","","","2+3= ?","5","1","","","","","","","",""
"2062","","0","psychophysics","107","310573","0.0-7.0-5.0-0.4","7","7","7","7","7","5","5","5","5","5","5","2","2","2","2","2","2","2","2","5","5","5","5","5","5","5","5","5","5","6","5","5","5","5","5","5","5","5","7","7","7","7","7","7","7","1","7","7","1","7","7","7","7","7","7","7","7","1","7","7","7","7","7","7","7","7","7","7","7","7","7","7","7","7","7","7","7","7","7","628519267599384576","董","235","Male","[""坏他"",""好我"",""好他"",""坏我""]","[""弱他"",""强我"",""强他"",""弱我""]","","","","","","","","0","","","","","","","","","SRET","SRET_math_calculate","","key","0","16.65417886178844","752.9411201521092","419.2156549180233","","","","","7*0= ?","0","1","","","","","","","",""
"1998","","6","psychophysics","108","312573","0.0-7.0-5.0-0.5","7","7","7","7","7","5","5","5","5","5","5","2","2","2","2","2","2","2","2","5","5","5","5","5","5","5","5","5","5","6","5","5","5","5","5","5","5","5","7","7","7","7","7","7","7","1","7","7","1","7","7","7","7","7","7","7","7","1","7","7","7","7","7","7","7","7","7","7","7","7","7","7","7","7","7","7","7","7","7","628519267599384576","董","235","Male","[""坏他"",""好我"",""好他"",""坏我""]","[""弱他"",""强我"",""强他"",""弱我""]","","","","","","","","6","","","","","","","","","SRET","SRET_math_calculate","","key","6","16.653184873949513","752.9411201521092","419.2156549180233","","","","","2+4= ?","6","1","","","","","","","",""
"2118","","7","psychophysics","109","314693","0.0-7.0-5.0-0.6","7","7","7","7","7","5","5","5","5","5","5","2","2","2","2","2","2","2","2","5","5","5","5","5","5","5","5","5","5","6","5","5","5","5","5","5","5","5","7","7","7","7","7","7","7","1","7","7","1","7","7","7","7","7","7","7","7","1","7","7","7","7","7","7","7","7","7","7","7","7","7","7","7","7","7","7","7","7","7","628519267599384576","董","235","Male","[""坏他"",""好我"",""好他"",""坏我""]","[""弱他"",""强我"",""强他"",""弱我""]","","","","","","","","7","","","","","","","","","SRET","SRET_math_calculate","","key","7","16.651484126984123","752.9411201521092","419.2156549180233","","","","","4+3= ?","7","1","","","","","","","",""
"2024","","0","psychophysics","110","316718","0.0-7.0-5.0-0.7","7","7","7","7","7","5","5","5","5","5","5","2","2","2","2","2","2","2","2","5","5","5","5","5","5","5","5","5","5","6","5","5","5","5","5","5","5","5","7","7","7","7","7","7","7","1","7","7","1","7","7","7","7","7","7","7","7","1","7","7","7","7","7","7","7","7","7","7","7","7","7","7","7","7","7","7","7","7","7","628519267599384576","董","235","Male","[""坏他"",""好我"",""好他"",""坏我""]","[""弱他"",""强我"",""强他"",""弱我""]","","","","","","","","0","","","","","","","","","SRET","SRET_math_calculate","","key","0","16.654190082644682","752.9411201521092","419.2156549180233","","","","","1-1= ?","0","1","","","","","","","",""
"4246","","8","psychophysics","111","320965","0.0-7.0-5.0-0.8","7","7","7","7","7","5","5","5","5","5","5","2","2","2","2","2","2","2","2","5","5","5","5","5","5","5","5","5","5","6","5","5","5","5","5","5","5","5","7","7","7","7","7","7","7","1","7","7","1","7","7","7","7","7","7","7","7","1","7","7","7","7","7","7","7","7","7","7","7","7","7","7","7","7","7","7","7","7","7","628519267599384576","董","235","Male","[""坏他"",""好我"",""好他"",""坏我""]","[""弱他"",""强我"",""强他"",""弱我""]","","","","","","","","8","","","","","","","","","SRET","SRET_math_calculate","","key","8","16.653330708661404","752.9411201521092","419.2156549180233","","","","","56/7= ?","8","1","","","","","","","",""
"3614","","9","psychophysics","112","324581","0.0-7.0-5.0-0.9","7","7","7","7","7","5","5","5","5","5","5","2","2","2","2","2","2","2","2","5","5","5","5","5","5","5","5","5","5","6","5","5","5","5","5","5","5","5","7","7","7","7","7","7","7","1","7","7","1","7","7","7","7","7","7","7","7","1","7","7","7","7","7","7","7","7","7","7","7","7","7","7","7","7","7","7","7","7","7","628519267599384576","董","235","Male","[""坏他"",""好我"",""好他"",""坏我""]","[""弱他"",""强我"",""强他"",""弱我""]","","","","","","","","9","","","","","","","","","SRET","SRET_math_calculate","","key","9","16.651856481481648","752.9411201521092","419.2156549180233","","","","","43-34= ?","9","1","","","","","","","",""
"3775","","9","psychophysics","113","328357","0.0-7.0-5.0-0.10","7","7","7","7","7","5","5","5","5","5","5","2","2","2","2","2","2","2","2","5","5","5","5","5","5","5","5","5","5","6","5","5","5","5","5","5","5","5","7","7","7","7","7","7","7","1","7","7","1","7","7","7","7","7","7","7","7","1","7","7","7","7","7","7","7","7","7","7","7","7","7","7","7","7","7","7","7","7","7","628519267599384576","董","235","Male","[""坏他"",""好我"",""好他"",""坏我""]","[""弱他"",""强我"",""强他"",""弱我""]","","","","","","","","9","","","","","","","","","SRET","SRET_math_calculate","","key","9","16.65312389380518","752.9411201521092","419.2156549180233","","","","","32-23= ?","9","1","","","","","","","",""
"2374","","1","psychophysics","114","330733","0.0-7.0-5.0-0.11","7","7","7","7","7","5","5","5","5","5","5","2","2","2","2","2","2","2","2","5","5","5","5","5","5","5","5","5","5","6","5","5","5","5","5","5","5","5","7","7","7","7","7","7","7","1","7","7","1","7","7","7","7","7","7","7","7","1","7","7","7","7","7","7","7","7","7","7","7","7","7","7","7","7","7","7","7","7","7","628519267599384576","董","235","Male","[""坏他"",""好我"",""好他"",""坏我""]","[""弱他"",""强我"",""强他"",""弱我""]","","","","","","","","1","","","","","","","","","SRET","SRET_math_calculate","","key","1","16.652680851063767","752.9411201521092","419.2156549180233","","","","","4/4= ?","1","1","","","","","","","",""
"2182","","7","psychophysics","115","332917","0.0-7.0-5.0-0.12","7","7","7","7","7","5","5","5","5","5","5","2","2","2","2","2","2","2","2","5","5","5","5","5","5","5","5","5","5","6","5","5","5","5","5","5","5","5","7","7","7","7","7","7","7","1","7","7","1","7","7","7","7","7","7","7","7","1","7","7","7","7","7","7","7","7","7","7","7","7","7","7","7","7","7","7","7","7","7","628519267599384576","董","235","Male","[""坏他"",""好我"",""好他"",""坏我""]","[""弱他"",""强我"",""强他"",""弱我""]","","","","","","","","7","","","","","","","","","SRET","SRET_math_calculate","","key","7","16.65316923076932","752.9411201521092","419.2156549180233","","","","","5+2= ?","7","1","","","","","","","",""
"2220","","8","psychophysics","116","335140","0.0-7.0-5.0-0.13","7","7","7","7","7","5","5","5","5","5","5","2","2","2","2","2","2","2","2","5","5","5","5","5","5","5","5","5","5","6","5","5","5","5","5","5","5","5","7","7","7","7","7","7","7","1","7","7","1","7","7","7","7","7","7","7","7","1","7","7","7","7","7","7","7","7","7","7","7","7","7","7","7","7","7","7","7","7","7","628519267599384576","董","235","Male","[""坏他"",""好我"",""好他"",""坏我""]","[""弱他"",""强我"",""强他"",""弱我""]","","","","","","","","8","","","","","","","","","SRET","SRET_math_calculate","","key","8","16.65411278195469","752.9411201521092","419.2156549180233","","","","","4*2= ?","8","1","","","","","","","",""
"2583","","4","psychophysics","117","337725","0.0-7.0-5.0-0.14","7","7","7","7","7","5","5","5","5","5","5","2","2","2","2","2","2","2","2","5","5","5","5","5","5","5","5","5","5","6","5","5","5","5","5","5","5","5","7","7","7","7","7","7","7","1","7","7","1","7","7","7","7","7","7","7","7","1","7","7","7","7","7","7","7","7","7","7","7","7","7","7","7","7","7","7","7","7","7","628519267599384576","董","235","Male","[""坏他"",""好我"",""好他"",""坏我""]","[""弱他"",""强我"",""强他"",""弱我""]","","","","","","","","4","","","","","","","","","SRET","SRET_math_calculate","","key","4","16.653402597402668","752.9411201521092","419.2156549180233","","","","","13-9= ?","4","1","","","","","","","",""
"2174","","1","psychophysics","118","339900","0.0-7.0-5.0-0.15","7","7","7","7","7","5","5","5","5","5","5","2","2","2","2","2","2","2","2","5","5","5","5","5","5","5","5","5","5","6","5","5","5","5","5","5","5","5","7","7","7","7","7","7","7","1","7","7","1","7","7","7","7","7","7","7","7","1","7","7","7","7","7","7","7","7","7","7","7","7","7","7","7","7","7","7","7","7","7","628519267599384576","董","235","Male","[""坏他"",""好我"",""好他"",""坏我""]","[""弱他"",""强我"",""强他"",""弱我""]","","","","","","","","1","","","","","","","","","SRET","SRET_math_calculate","","key","1","16.65324615384631","752.9411201521092","419.2156549180233","","","","","12/12= ?","1","1","","","","","","","",""
"2294","","7","psychophysics","119","342197","0.0-7.0-5.0-0.16","7","7","7","7","7","5","5","5","5","5","5","2","2","2","2","2","2","2","2","5","5","5","5","5","5","5","5","5","5","6","5","5","5","5","5","5","5","5","7","7","7","7","7","7","7","1","7","7","1","7","7","7","7","7","7","7","7","1","7","7","7","7","7","7","7","7","7","7","7","7","7","7","7","7","7","7","7","7","7","628519267599384576","董","235","Male","[""坏他"",""好我"",""好他"",""坏我""]","[""弱他"",""强我"",""强他"",""弱我""]","","","","","","","","7","","","","","","","","","SRET","SRET_math_calculate","","key","7","16.6528613138689","752.9411201521092","419.2156549180233","","","","","9-2= ?","7","1","","","","","","","",""
"2327","","8","psychophysics","120","344525","0.0-7.0-5.0-0.17","7","7","7","7","7","5","5","5","5","5","5","2","2","2","2","2","2","2","2","5","5","5","5","5","5","5","5","5","5","6","5","5","5","5","5","5","5","5","7","7","7","7","7","7","7","1","7","7","1","7","7","7","7","7","7","7","7","1","7","7","7","7","7","7","7","7","7","7","7","7","7","7","7","7","7","7","7","7","7","628519267599384576","董","235","Male","[""坏他"",""好我"",""好他"",""坏我""]","[""弱他"",""强我"",""强他"",""弱我""]","","","","","","","","8","","","","","","","","","SRET","SRET_math_calculate","","key","8","16.653282608695587","752.9411201521092","419.2156549180233","","","","","8*1= ?","8","1","","","","","","","",""
"2383","","3","psychophysics","121","346910","0.0-7.0-5.0-0.18","7","7","7","7","7","5","5","5","5","5","5","2","2","2","2","2","2","2","2","5","5","5","5","5","5","5","5","5","5","6","5","5","5","5","5","5","5","5","7","7","7","7","7","7","7","1","7","7","1","7","7","7","7","7","7","7","7","1","7","7","7","7","7","7","7","7","7","7","7","7","7","7","7","7","7","7","7","7","7","628519267599384576","董","235","Male","[""坏他"",""好我"",""好他"",""坏我""]","[""弱他"",""强我"",""强他"",""弱我""]","","","","","","","","3","","","","","","","","","SRET","SRET_math_calculate","","key","3","16.656377622377782","752.9411201521092","419.2156549180233","","","","","8-5= ?","3","1","","","","","","","",""
"2901","","8","psychophysics","122","349813","0.0-7.0-5.0-0.19","7","7","7","7","7","5","5","5","5","5","5","2","2","2","2","2","2","2","2","5","5","5","5","5","5","5","5","5","5","6","5","5","5","5","5","5","5","5","7","7","7","7","7","7","7","1","7","7","1","7","7","7","7","7","7","7","7","1","7","7","7","7","7","7","7","7","7","7","7","7","7","7","7","7","7","7","7","7","7","628519267599384576","董","235","Male","[""坏他"",""好我"",""好他"",""坏我""]","[""弱他"",""强我"",""强他"",""弱我""]","","","","","","","","8","","","","","","","","","SRET","SRET_math_calculate","","key","8","16.65272254335278","752.9411201521092","419.2156549180233","","","","","13-5= ?","8","1","","","","","","","",""
"2183","","9","psychophysics","123","351997","0.0-7.0-5.0-0.20","7","7","7","7","7","5","5","5","5","5","5","2","2","2","2","2","2","2","2","5","5","5","5","5","5","5","5","5","5","6","5","5","5","5","5","5","5","5","7","7","7","7","7","7","7","1","7","7","1","7","7","7","7","7","7","7","7","1","7","7","7","7","7","7","7","7","7","7","7","7","7","7","7","7","7","7","7","7","7","628519267599384576","董","235","Male","[""坏他"",""好我"",""好他"",""坏我""]","[""弱他"",""强我"",""强他"",""弱我""]","","","","","","","","9","","","","","","","","","SRET","SRET_math_calculate","","key","9","16.653546153846232","752.9411201521092","419.2156549180233","","","","","1+8= ?","9","1","","","","","","","",""
"2312","","2","psychophysics","124","354310","0.0-7.0-5.0-0.21","7","7","7","7","7","5","5","5","5","5","5","2","2","2","2","2","2","2","2","5","5","5","5","5","5","5","5","5","5","6","5","5","5","5","5","5","5","5","7","7","7","7","7","7","7","1","7","7","1","7","7","7","7","7","7","7","7","1","7","7","7","7","7","7","7","7","7","7","7","7","7","7","7","7","7","7","7","7","7","628519267599384576","董","235","Male","[""坏他"",""好我"",""好他"",""坏我""]","[""弱他"",""强我"",""强他"",""弱我""]","","","","","","","","2","","","","","","","","","SRET","SRET_math_calculate","","key","2","16.65232608695616","752.9411201521092","419.2156549180233","","","","","5-3= ?","2","1","","","","","","","",""
"2663","","2","psychophysics","125","356974","0.0-7.0-5.0-0.22","7","7","7","7","7","5","5","5","5","5","5","2","2","2","2","2","2","2","2","5","5","5","5","5","5","5","5","5","5","6","5","5","5","5","5","5","5","5","7","7","7","7","7","7","7","1","7","7","1","7","7","7","7","7","7","7","7","1","7","7","7","7","7","7","7","7","7","7","7","7","7","7","7","7","7","7","7","7","7","628519267599384576","董","235","Male","[""坏他"",""好我"",""好他"",""坏我""]","[""弱他"",""强我"",""强他"",""弱我""]","","","","","","","","2","","","","","","","","","SRET","SRET_math_calculate","","key","2","16.654075471697883","752.9411201521092","419.2156549180233","","","","","12/6= ?","2","1","","","","","","","",""
"2135","","4","psychophysics","126","359110","0.0-7.0-5.0-0.23","7","7","7","7","7","5","5","5","5","5","5","2","2","2","2","2","2","2","2","5","5","5","5","5","5","5","5","5","5","6","5","5","5","5","5","5","5","5","7","7","7","7","7","7","7","1","7","7","1","7","7","7","7","7","7","7","7","1","7","7","7","7","7","7","7","7","7","7","7","7","7","7","7","7","7","7","7","7","7","628519267599384576","董","235","Male","[""坏他"",""好我"",""好他"",""坏我""]","[""弱他"",""强我"",""强他"",""弱我""]","","","","","","","","4","","","","","","","","","SRET","SRET_math_calculate","","key","4","16.653850393700708","752.9411201521092","419.2156549180233","","","","","4*1= ?","4","1","","","","","","","",""
"1924","","8","psychophysics","127","361036","0.0-7.0-5.0-0.24","7","7","7","7","7","5","5","5","5","5","5","2","2","2","2","2","2","2","2","5","5","5","5","5","5","5","5","5","5","6","5","5","5","5","5","5","5","5","7","7","7","7","7","7","7","1","7","7","1","7","7","7","7","7","7","7","7","1","7","7","7","7","7","7","7","7","7","7","7","7","7","7","7","7","7","7","7","7","7","628519267599384576","董","235","Male","[""坏他"",""好我"",""好他"",""坏我""]","[""弱他"",""强我"",""强他"",""弱我""]","","","","","","","","8","","","","","","","","","SRET","SRET_math_calculate","","key","8","16.65348695652185","752.9411201521092","419.2156549180233","","","","","3+5= ?","8","1","","","","","","","",""
"2110","","7","psychophysics","128","363148","0.0-7.0-5.0-0.25","7","7","7","7","7","5","5","5","5","5","5","2","2","2","2","2","2","2","2","5","5","5","5","5","5","5","5","5","5","6","5","5","5","5","5","5","5","5","7","7","7","7","7","7","7","1","7","7","1","7","7","7","7","7","7","7","7","1","7","7","7","7","7","7","7","7","7","7","7","7","7","7","7","7","7","7","7","7","7","628519267599384576","董","235","Male","[""坏他"",""好我"",""好他"",""坏我""]","[""弱他"",""强我"",""强他"",""弱我""]","","","","","","","","7","","","","","","","","","SRET","SRET_math_calculate","","key","7","16.653476190476102","752.9411201521092","419.2156549180233","","","","","3+4= ?","7","1","","","","","","","",""
"2112","","3","psychophysics","129","365261","0.0-7.0-5.0-0.26","7","7","7","7","7","5","5","5","5","5","5","2","2","2","2","2","2","2","2","5","5","5","5","5","5","5","5","5","5","6","5","5","5","5","5","5","5","5","7","7","7","7","7","7","7","1","7","7","1","7","7","7","7","7","7","7","7","1","7","7","7","7","7","7","7","7","7","7","7","7","7","7","7","7","7","7","7","7","7","628519267599384576","董","235","Male","[""坏他"",""好我"",""好他"",""坏我""]","[""弱他"",""强我"",""强他"",""弱我""]","","","","","","","","3","","","","","","","","","SRET","SRET_math_calculate","","key","3","16.655626984126958","752.9411201521092","419.2156549180233","","","","","1+2= ?","3","1","","","","","","","",""
"2071","","0","psychophysics","130","367333","0.0-7.0-5.0-0.27","7","7","7","7","7","5","5","5","5","5","5","2","2","2","2","2","2","2","2","5","5","5","5","5","5","5","5","5","5","6","5","5","5","5","5","5","5","5","7","7","7","7","7","7","7","1","7","7","1","7","7","7","7","7","7","7","7","1","7","7","7","7","7","7","7","7","7","7","7","7","7","7","7","7","7","7","7","7","7","628519267599384576","董","235","Male","[""坏他"",""好我"",""好他"",""坏我""]","[""弱他"",""强我"",""强他"",""弱我""]","","","","","","","","0","","","","","","","","","SRET","SRET_math_calculate","","key","0","16.65164227642278","752.9411201521092","419.2156549180233","","","","","6*0= ?","0","1","","","","","","","",""
"2599","","9","psychophysics","131","369933","0.0-7.0-5.0-0.28","7","7","7","7","7","5","5","5","5","5","5","2","2","2","2","2","2","2","2","5","5","5","5","5","5","5","5","5","5","6","5","5","5","5","5","5","5","5","7","7","7","7","7","7","7","1","7","7","1","7","7","7","7","7","7","7","7","1","7","7","7","7","7","7","7","7","7","7","7","7","7","7","7","7","7","7","7","7","7","628519267599384576","董","235","Male","[""坏他"",""好我"",""好他"",""坏我""]","[""弱他"",""强我"",""强他"",""弱我""]","","","","","","","","9","","","","","","","","","SRET","SRET_math_calculate","","key","9","16.653490322580442","752.9411201521092","419.2156549180233","","","","","81/9= ?","9","1","","","","","","","",""
"2217","","0","psychophysics","132","372152","0.0-7.0-5.0-0.29","7","7","7","7","7","5","5","5","5","5","5","2","2","2","2","2","2","2","2","5","5","5","5","5","5","5","5","5","5","6","5","5","5","5","5","5","5","5","7","7","7","7","7","7","7","1","7","7","1","7","7","7","7","7","7","7","7","1","7","7","7","7","7","7","7","7","7","7","7","7","7","7","7","7","7","7","7","7","7","628519267599384576","董","235","Male","[""坏他"",""好我"",""好他"",""坏我""]","[""弱他"",""强我"",""强他"",""弱我""]","","","","","","","","0","","","","","","","","","SRET","SRET_math_calculate","","key","0","16.65293181818208","752.9411201521092","419.2156549180233","","","","","32-32= ?","0","1","","","","","","","",""
"2547","","8","psychophysics","133","374701","0.0-7.0-5.0-0.30","7","7","7","7","7","5","5","5","5","5","5","2","2","2","2","2","2","2","2","5","5","5","5","5","5","5","5","5","5","6","5","5","5","5","5","5","5","5","7","7","7","7","7","7","7","1","7","7","1","7","7","7","7","7","7","7","7","1","7","7","7","7","7","7","7","7","7","7","7","7","7","7","7","7","7","7","7","7","7","628519267599384576","董","235","Male","[""坏他"",""好我"",""好他"",""坏我""]","[""弱他"",""强我"",""强他"",""弱我""]","","","","","","","","8","","","","","","","","","SRET","SRET_math_calculate","","key","8","16.65291447368432","752.9411201521092","419.2156549180233","","","","","2*4= ?","8","1","","","","","","","",""
"2263","","3","psychophysics","134","376966","0.0-7.0-5.0-0.31","7","7","7","7","7","5","5","5","5","5","5","2","2","2","2","2","2","2","2","5","5","5","5","5","5","5","5","5","5","6","5","5","5","5","5","5","5","5","7","7","7","7","7","7","7","1","7","7","1","7","7","7","7","7","7","7","7","1","7","7","7","7","7","7","7","7","7","7","7","7","7","7","7","7","7","7","7","7","7","628519267599384576","董","235","Male","[""坏他"",""好我"",""好他"",""坏我""]","[""弱他"",""强我"",""强他"",""弱我""]","","","","","","","","3","","","","","","","","","SRET","SRET_math_calculate","","key","3","16.652404411764806","752.9411201521092","419.2156549180233","","","","","12/4= ?","3","1","","","","","","","",""
"2150","","6","psychophysics","135","379118","0.0-7.0-5.0-0.32","7","7","7","7","7","5","5","5","5","5","5","2","2","2","2","2","2","2","2","5","5","5","5","5","5","5","5","5","5","6","5","5","5","5","5","5","5","5","7","7","7","7","7","7","7","1","7","7","1","7","7","7","7","7","7","7","7","1","7","7","7","7","7","7","7","7","7","7","7","7","7","7","7","7","7","7","7","7","7","628519267599384576","董","235","Male","[""坏他"",""好我"",""好他"",""坏我""]","[""弱他"",""强我"",""强他"",""弱我""]","","","","","","","","6","","","","","","","","","SRET","SRET_math_calculate","","key","6","16.65289843749997","752.9411201521092","419.2156549180233","","","","","2*3= ?","6","1","","","","","","","",""
"2094","","9","psychophysics","136","381213","0.0-7.0-5.0-0.33","7","7","7","7","7","5","5","5","5","5","5","2","2","2","2","2","2","2","2","5","5","5","5","5","5","5","5","5","5","6","5","5","5","5","5","5","5","5","7","7","7","7","7","7","7","1","7","7","1","7","7","7","7","7","7","7","7","1","7","7","7","7","7","7","7","7","7","7","7","7","7","7","7","7","7","7","7","7","7","628519267599384576","董","235","Male","[""坏他"",""好我"",""好他"",""坏我""]","[""弱他"",""强我"",""强他"",""弱我""]","","","","","","","","9","","","","","","","","","SRET","SRET_math_calculate","","key","9","16.651336000000125","752.9411201521092","419.2156549180233","","","","","6+3= ?","9","1","","","","","","","",""
"1998","","9","psychophysics","137","383213","0.0-7.0-5.0-0.34","7","7","7","7","7","5","5","5","5","5","5","2","2","2","2","2","2","2","2","5","5","5","5","5","5","5","5","5","5","6","5","5","5","5","5","5","5","5","7","7","7","7","7","7","7","1","7","7","1","7","7","7","7","7","7","7","7","1","7","7","7","7","7","7","7","7","7","7","7","7","7","7","7","7","7","7","7","7","7","628519267599384576","董","235","Male","[""坏他"",""好我"",""好他"",""坏我""]","[""弱他"",""强我"",""强他"",""弱我""]","","","","","","","","9","","","","","","","","","SRET","SRET_math_calculate","","key","9","16.652058823529668","752.9411201521092","419.2156549180233","","","","","1+8= ?","9","1","","","","","","","",""
