"rt","stimulus","response","trial_type","trial_index","time_elapsed","internal_node_id","swb_1","swb_2","swb_3","swb_4","swb_5","LOT_1","LOT_2","LOT_3","LOT_4","LOT_5","LOT_6","IPC_1","IPC_2","IPC_3","IPC_4","IPC_5","IPC_6","IPC_7","IPC_8","MorIden_1","MorIden_2","MorIden_3","MorIden_4","MorIden_5","MorIden_6","MorIden_7","MorIden_8","MorIden_9","MorIden_10","moralSeImag_1","moralSeImag_2","moralSeImag_3","moralSeImag_4","moralSeImag_5","moralSeImag_6","moralSeImag_7","moralSeImag_8","moralSeImag_9","sde_1","sde_2","sde_3","sde_4","sde_5","sde_6","sde_7","sde_8","sde_9","sde_10","trap2","sde_11","sde_12","sde_13","sde_14","sde_15","sde_16","sde_17","sde_18","sde_19","sde_20","IM_1","IM_2","IM_3","IM_4","IM_5","IM_6","IM_7","IM_8","IM_9","IM_10","IM_11","IM_12","IM_13","IM_14","IM_15","IM_16","IM_17","IM_18","IM_19","IM_20","subj_idx","friend_name","ParticipantID","Sex","Word","Word2","value","success","timeout","failed_images","failed_audio","failed_video","user_agent","responses","item_order","radio_event_ids","radio_event_times","key_event_times","mouse_event_times","straightlining","zigzagging","honeypot","view_history","response_type","key_press","avg_frame_time","center_x","center_y","correct_response","correct","identity","Image","word","condition","task_id","screen_id","time_stamp","person","valence","domain","math","status","duration","question_order","trap2_item"
"28635","
   <p><div style='color:white; font-size: 25px'>您好，欢迎参加本次实验。</div></p>
   <p><div style='color:white; font-size: 25px'>为充分保障您的权利，请确保您已经知晓并同意《参与实验同意书》以及《数据公开知情同意书》。</div></p>
   <p><div style='color:white; font-size: 25px'>如果您未见过上述内容，请咨询实验员。</div></p>
   <p style='color:white; font-size: 25px'>如果您选择继续实验，则表示您已经清楚两份知情同意书的内容并同意。</p>
   <p><div style = ""color: pink;font-size:30px;"">请确保您记得day0的实验编号，您将在本次实验输入该编号，若您忘记，请咨询实验员后作答。</div></p>
   <p><div style = ""color:lightblue;font-size:25px;"">请您尽可能认真地作答，我们将依据您在各问卷和按键任务中的作答质量发放报酬。</div></p>
   <p> <div style = ""color: green""><按空格键至下页></div> </p>
   "," ","html-keyboard-response","0","28636","0.0-0.0","3","4","4","3","4","4","4","3","4","5","5","1","-2","-1","1","0","1","1","1","4","5","5","4","4","3","3","3","4","4","7","8","6","8","7","7","8","7","8","2","5","4","5","3","4","3","5","5","5","1","4","4","5","3","6","4","3","6","2","5","5","4","5","5","5","5","5","6","6","1","6","4","4","5","5","4","7","3","4","5","631517716984889344","杨","257","Male","[""好他"",""坏他"",""坏我"",""好我""]","[""强他"",""弱他"",""弱我"",""强我""]","","","","","","","","","","","","","","","","","","","","","","","","","","","","","","","","","","","","","","",""
"","","","call-function","1","28637","0.0-1.0-0.0","3","4","4","3","4","4","4","3","4","5","5","1","-2","-1","1","0","1","1","1","4","5","5","4","4","3","3","3","4","4","7","8","6","8","7","7","8","7","8","2","5","4","5","3","4","3","5","5","5","1","4","4","5","3","6","4","3","6","2","5","5","4","5","5","5","5","5","6","6","1","6","4","4","5","5","4","7","3","4","5","631517716984889344","杨","257","Male","[""好他"",""坏他"",""坏我"",""好我""]","[""强他"",""弱他"",""弱我"",""强我""]","","","","","","","","","","","","","","","","","","","","","","","","","","","","","","","","","","","","","","",""
"12659","","[{""name"":""Sex"",""value"":""0""},{""name"":""friend_name"",""value"":""杨""},{""name"":""ParticipantID"",""value"":""257""}]","survey-html-form","2","41297","0.0-1.0-1.0","3","4","4","3","4","4","4","3","4","5","5","1","-2","-1","1","0","1","1","1","4","5","5","4","4","3","3","3","4","4","7","8","6","8","7","7","8","7","8","2","5","4","5","3","4","3","5","5","5","1","4","4","5","3","6","4","3","6","2","5","5","4","5","5","5","5","5","6","6","1","6","4","4","5","5","4","7","3","4","5","631517716984889344","杨","257","Male","[""好他"",""坏他"",""坏我"",""好我""]","[""强他"",""弱他"",""弱我"",""强我""]","","","","","","","","","","","","","","","","","","","","","","","","","","","","","","","","","","","","","","",""
"","","","preload","3","41674","0.0-2.0","3","4","4","3","4","4","4","3","4","5","5","1","-2","-1","1","0","1","1","1","4","5","5","4","4","3","3","3","4","4","7","8","6","8","7","7","8","7","8","2","5","4","5","3","4","3","5","5","5","1","4","4","5","3","6","4","3","6","2","5","5","4","5","5","5","5","5","6","6","1","6","4","4","5","5","4","7","3","4","5","631517716984889344","杨","257","Male","[""好他"",""坏他"",""坏我"",""好我""]","[""强他"",""弱他"",""弱我"",""强我""]","","true","false","[]","[]","[]","","","","","","","","","","","","","","","","","","","","","","","","","","","","","","","","",""
"","","","fullscreen","4","45431","0.0-3.0","3","4","4","3","4","4","4","3","4","5","5","1","-2","-1","1","0","1","1","1","4","5","5","4","4","3","3","3","4","4","7","8","6","8","7","7","8","7","8","2","5","4","5","3","4","3","5","5","5","1","4","4","5","3","6","4","3","6","2","5","5","4","5","5","5","5","5","6","6","1","6","4","4","5","5","4","7","3","4","5","631517716984889344","杨","257","Male","[""好他"",""坏他"",""坏我"",""好我""]","[""强他"",""弱他"",""弱我"",""强我""]","","true","","","","","{}","","","","","","","","","","","","","","","","","","","","","","","","","","","","","","","",""
"14928.600000143051","","{""Q01"":""3"",""Q02"":""4"",""Q03"":""4"",""Q04"":""3"",""Q05"":""4""}","survey-template","5","60361","0.0-4.0","3","4","4","3","4","4","4","3","4","5","5","1","-2","-1","1","0","1","1","1","4","5","5","4","4","3","3","3","4","4","7","8","6","8","7","7","8","7","8","2","5","4","5","3","4","3","5","5","5","1","4","4","5","3","6","4","3","6","2","5","5","4","5","5","5","5","5","6","6","1","6","4","4","5","5","4","7","3","4","5","631517716984889344","杨","257","Male","[""好他"",""坏他"",""坏我"",""好我""]","[""强他"",""弱他"",""弱我"",""强我""]","","","","","","","","{""Q01"":""3"",""Q02"":""4"",""Q03"":""4"",""Q04"":""3"",""Q05"":""4""}","[0,1,2,3,4]","[""Q01"",""Q02"",""Q03"",""Q04"",""Q05""]","[7228.200000047684,9531.800000190735,10544.400000095367,11853,14504]","[]","[7228.200000047684,8468.700000047684,9531.800000190735,10544.400000095367,11853,14504,14927.900000095367]","0.6","0.75","0","","","","","","","","","","","","","","","","","","","","","","",""
"28430.300000190735","","{""Q01"":""4"",""Q02"":""4"",""Q03"":""3"",""Q04"":""4"",""Q05"":""5"",""Q06"":""5""}","survey-template","6","88794","0.0-5.0","3","4","4","3","4","4","4","3","4","5","5","1","-2","-1","1","0","1","1","1","4","5","5","4","4","3","3","3","4","4","7","8","6","8","7","7","8","7","8","2","5","4","5","3","4","3","5","5","5","1","4","4","5","3","6","4","3","6","2","5","5","4","5","5","5","5","5","6","6","1","6","4","4","5","5","4","7","3","4","5","631517716984889344","杨","257","Male","[""好他"",""坏他"",""坏我"",""好我""]","[""强他"",""弱他"",""弱我"",""强我""]","","","","","","","","{""Q01"":""4"",""Q02"":""4"",""Q03"":""3"",""Q04"":""4"",""Q05"":""5"",""Q06"":""5""}","[0,1,2,3,4,5]","[""Q01"",""Q02"",""Q03"",""Q04"",""Q05"",""Q05"",""Q06""]","[3742.600000143051,8864,13060.5,16476.800000190735,21437.60000014305,22262.900000095367,26764.400000095367]","[]","[3742.600000143051,8864,13060.5,16476.800000190735,21437.60000014305,21876.5,22262.900000095367,26764.400000095367,28429.900000095367]","0.3333333333333333","0.8","0","","","","","","","","","","","","","","","","","","","","","","",""
"22349.900000095367","","{""Q01"":""1"",""Q02"":""-2"",""Q03"":""-1"",""Q04"":""1"",""Q05"":""0"",""Q06"":""1"",""Q07"":""1"",""Q08"":""1""}","survey-template","7","111147","0.0-6.0","3","4","4","3","4","4","4","3","4","5","5","1","-2","-1","1","0","1","1","1","4","5","5","4","4","3","3","3","4","4","7","8","6","8","7","7","8","7","8","2","5","4","5","3","4","3","5","5","5","1","4","4","5","3","6","4","3","6","2","5","5","4","5","5","5","5","5","6","6","1","6","4","4","5","5","4","7","3","4","5","631517716984889344","杨","257","Male","[""好他"",""坏他"",""坏我"",""好我""]","[""强他"",""弱他"",""弱我"",""强我""]","","","","","","","","{""Q01"":""1"",""Q02"":""-2"",""Q03"":""-1"",""Q04"":""1"",""Q05"":""0"",""Q06"":""1"",""Q07"":""1"",""Q08"":""1""}","[0,1,2,3,4,5,6,7]","[""Q01"",""Q02"",""Q02"",""Q03"",""Q04"",""Q05"",""Q06"",""Q08"",""Q07""]","[2637.600000143051,5591.900000095367,6377.5,9185.900000095367,13071.900000095367,16326,18557.10000014305,21387.5,21921.799999952316]","[]","[2637.600000143051,5591.900000095367,6377.5,9185.900000095367,13071.900000095367,16326,18557.10000014305,20228.10000014305,21387.5,21921.799999952316,22349.10000014305]","0.625","0.42857142857142855","0","","","","","","","","","","","","","","","","","","","","","","",""
"10390","","","instructions","8","121539","0.0-7.0","3","4","4","3","4","4","4","3","4","5","5","1","-2","-1","1","0","1","1","1","4","5","5","4","4","3","3","3","4","4","7","8","6","8","7","7","8","7","8","2","5","4","5","3","4","3","5","5","5","1","4","4","5","3","6","4","3","6","2","5","5","4","5","5","5","5","5","6","6","1","6","4","4","5","5","4","7","3","4","5","631517716984889344","杨","257","Male","[""好他"",""坏他"",""坏我"",""好我""]","[""强他"",""弱他"",""弱我"",""强我""]","","","","","","","","","","","","","","","","","[{""page_index"":0,""viewing_time"":10390}]","","","","","","","","","","","","","","","","","","","","","",""
"52688","","","instructions","9","174227","0.0-8.0-1.0-0.0","3","4","4","3","4","4","4","3","4","5","5","1","-2","-1","1","0","1","1","1","4","5","5","4","4","3","3","3","4","4","7","8","6","8","7","7","8","7","8","2","5","4","5","3","4","3","5","5","5","1","4","4","5","3","6","4","3","6","2","5","5","4","5","5","5","5","5","6","6","1","6","4","4","5","5","4","7","3","4","5","631517716984889344","杨","257","Male","[""好他"",""坏他"",""坏我"",""好我""]","[""强他"",""弱他"",""弱我"",""强我""]","","","","","","","","","","","","","","","","","[{""page_index"":0,""viewing_time"":18597},{""page_index"":1,""viewing_time"":30271},{""page_index"":2,""viewing_time"":1612},{""page_index"":3,""viewing_time"":2208}]","","","","","","","","","","","","","","","","","","","","","",""
"1114","","j","psychophysics","10","176344","0.0-8.0-1.0-1.0-0.0-0.0","3","4","4","3","4","4","4","3","4","5","5","1","-2","-1","1","0","1","1","1","4","5","5","4","4","3","3","3","4","4","7","8","6","8","7","7","8","7","8","2","5","4","5","3","4","3","5","5","5","1","4","4","5","3","6","4","3","6","2","5","5","4","5","5","5","5","5","6","6","1","6","4","4","5","5","4","7","3","4","5","631517716984889344","杨","257","Male","[""好他"",""坏他"",""坏我"",""好我""]","[""强他"",""弱他"",""弱我"",""强我""]","","","","","","","","match","","","","","","","","","","key","j","6.060344827586207","768","428","j","true","match","img/ellipse.png","弱他","弱他","prac_ALT2_ability","practice_ability","","","","","","","","",""
"null","<span style='color:GreenYellow; font-size: 70px;'>正确! </span>","null","html-keyboard-response","11","176845","0.0-8.0-1.0-1.0-0.0-1.0","3","4","4","3","4","4","4","3","4","5","5","1","-2","-1","1","0","1","1","1","4","5","5","4","4","3","3","3","4","4","7","8","6","8","7","7","8","7","8","2","5","4","5","3","4","3","5","5","5","1","4","4","5","3","6","4","3","6","2","5","5","4","5","5","5","5","5","6","6","1","6","4","4","5","5","4","7","3","4","5","631517716984889344","杨","257","Male","[""好他"",""坏他"",""坏我"",""好我""]","[""强他"",""弱他"",""弱我"",""强我""]","","","","","","","","","","","","","","","","","","","","","","","","","","","","","","feedback_test","","","","","","","","",""
"859","","j","psychophysics","12","178706","0.0-8.0-1.0-1.0-0.0-0.1","3","4","4","3","4","4","4","3","4","5","5","1","-2","-1","1","0","1","1","1","4","5","5","4","4","3","3","3","4","4","7","8","6","8","7","7","8","7","8","2","5","4","5","3","4","3","5","5","5","1","4","4","5","3","6","4","3","6","2","5","5","4","5","5","5","5","5","6","6","1","6","4","4","5","5","4","7","3","4","5","631517716984889344","杨","257","Male","[""好他"",""坏他"",""坏我"",""好我""]","[""强他"",""弱他"",""弱我"",""强我""]","","","","","","","","match","","","","","","","","","","key","j","6.0607843137254145","768","428","f","false","nonmatch","img/square.png","强我","弱我","prac_ALT2_ability","practice_ability","","","","","","","","",""
"null","<span style='color:red; font-size: 70px;'>错误! </span>","null","html-keyboard-response","13","179207","0.0-8.0-1.0-1.0-0.0-1.1","3","4","4","3","4","4","4","3","4","5","5","1","-2","-1","1","0","1","1","1","4","5","5","4","4","3","3","3","4","4","7","8","6","8","7","7","8","7","8","2","5","4","5","3","4","3","5","5","5","1","4","4","5","3","6","4","3","6","2","5","5","4","5","5","5","5","5","6","6","1","6","4","4","5","5","4","7","3","4","5","631517716984889344","杨","257","Male","[""好他"",""坏他"",""坏我"",""好我""]","[""强他"",""弱他"",""弱我"",""强我""]","","","","","","","","","","","","","","","","","","","","","","","","","","","","","","feedback_test","","","","","","","","",""
"991","","j","psychophysics","14","181199","0.0-8.0-1.0-1.0-0.0-0.2","3","4","4","3","4","4","4","3","4","5","5","1","-2","-1","1","0","1","1","1","4","5","5","4","4","3","3","3","4","4","7","8","6","8","7","7","8","7","8","2","5","4","5","3","4","3","5","5","5","1","4","4","5","3","6","4","3","6","2","5","5","4","5","5","5","5","5","6","6","1","6","4","4","5","5","4","7","3","4","5","631517716984889344","杨","257","Male","[""好他"",""坏他"",""坏我"",""好我""]","[""强他"",""弱他"",""弱我"",""强我""]","","","","","","","","match","","","","","","","","","","key","j","6.057798165137686","768","428","j","true","match","img/diamond.png","强他","强他","prac_ALT2_ability","practice_ability","","","","","","","","",""
"null","<span style='color:GreenYellow; font-size: 70px;'>正确! </span>","null","html-keyboard-response","15","181700","0.0-8.0-1.0-1.0-0.0-1.2","3","4","4","3","4","4","4","3","4","5","5","1","-2","-1","1","0","1","1","1","4","5","5","4","4","3","3","3","4","4","7","8","6","8","7","7","8","7","8","2","5","4","5","3","4","3","5","5","5","1","4","4","5","3","6","4","3","6","2","5","5","4","5","5","5","5","5","6","6","1","6","4","4","5","5","4","7","3","4","5","631517716984889344","杨","257","Male","[""好他"",""坏他"",""坏我"",""好我""]","[""强他"",""弱他"",""弱我"",""强我""]","","","","","","","","","","","","","","","","","","","","","","","","","","","","","","feedback_test","","","","","","","","",""
"948","","f","psychophysics","16","183650","0.0-8.0-1.0-1.0-0.0-0.3","3","4","4","3","4","4","4","3","4","5","5","1","-2","-1","1","0","1","1","1","4","5","5","4","4","3","3","3","4","4","7","8","6","8","7","7","8","7","8","2","5","4","5","3","4","3","5","5","5","1","4","4","5","3","6","4","3","6","2","5","5","4","5","5","5","5","5","6","6","1","6","4","4","5","5","4","7","3","4","5","631517716984889344","杨","257","Male","[""好他"",""坏他"",""坏我"",""好我""]","[""强他"",""弱他"",""弱我"",""强我""]","","","","","","","","nonmatch","","","","","","","","","","key","f","6.060624999999982","768","428","f","true","nonmatch","img/pentagon.png","强他","强我","prac_ALT2_ability","practice_ability","","","","","","","","",""
"null","<span style='color:GreenYellow; font-size: 70px;'>正确! </span>","null","html-keyboard-response","17","184151","0.0-8.0-1.0-1.0-0.0-1.3","3","4","4","3","4","4","4","3","4","5","5","1","-2","-1","1","0","1","1","1","4","5","5","4","4","3","3","3","4","4","7","8","6","8","7","7","8","7","8","2","5","4","5","3","4","3","5","5","5","1","4","4","5","3","6","4","3","6","2","5","5","4","5","5","5","5","5","6","6","1","6","4","4","5","5","4","7","3","4","5","631517716984889344","杨","257","Male","[""好他"",""坏他"",""坏我"",""好我""]","[""强他"",""弱他"",""弱我"",""强我""]","","","","","","","","","","","","","","","","","","","","","","","","","","","","","","feedback_test","","","","","","","","",""
"1015","","j","psychophysics","18","186168","0.0-8.0-1.0-1.0-0.0-0.4","3","4","4","3","4","4","4","3","4","5","5","1","-2","-1","1","0","1","1","1","4","5","5","4","4","3","3","3","4","4","7","8","6","8","7","7","8","7","8","2","5","4","5","3","4","3","5","5","5","1","4","4","5","3","6","4","3","6","2","5","5","4","5","5","5","5","5","6","6","1","6","4","4","5","5","4","7","3","4","5","631517716984889344","杨","257","Male","[""好他"",""坏他"",""坏我"",""好我""]","[""强他"",""弱他"",""弱我"",""强我""]","","","","","","","","match","","","","","","","","","","key","j","6.060542168674629","768","428","f","false","nonmatch","img/diamond.png","强我","强他","prac_ALT2_ability","practice_ability","","","","","","","","",""
"null","<span style='color:red; font-size: 70px;'>错误! </span>","null","html-keyboard-response","19","186668","0.0-8.0-1.0-1.0-0.0-1.4","3","4","4","3","4","4","4","3","4","5","5","1","-2","-1","1","0","1","1","1","4","5","5","4","4","3","3","3","4","4","7","8","6","8","7","7","8","7","8","2","5","4","5","3","4","3","5","5","5","1","4","4","5","3","6","4","3","6","2","5","5","4","5","5","5","5","5","6","6","1","6","4","4","5","5","4","7","3","4","5","631517716984889344","杨","257","Male","[""好他"",""坏他"",""坏我"",""好我""]","[""强他"",""弱他"",""弱我"",""强我""]","","","","","","","","","","","","","","","","","","","","","","","","","","","","","","feedback_test","","","","","","","","",""
"null","","null","psychophysics","20","188872","0.0-8.0-1.0-1.0-0.0-0.5","3","4","4","3","4","4","4","3","4","5","5","1","-2","-1","1","0","1","1","1","4","5","5","4","4","3","3","3","4","4","7","8","6","8","7","7","8","7","8","2","5","4","5","3","4","3","5","5","5","1","4","4","5","3","6","4","3","6","2","5","5","4","5","5","5","5","5","6","6","1","6","4","4","5","5","4","7","3","4","5","631517716984889344","杨","257","Male","[""好他"",""坏他"",""坏我"",""好我""]","[""强他"",""弱他"",""弱我"",""强我""]","","","","","","","","null","","","","","","","","","","key","null","6.060773480662983","768","428","f","false","nonmatch","img/diamond.png","弱我","强他","prac_ALT2_ability","practice_ability","","","","","","","","",""
"null","<span class='add_' style='color:yellow; font-size: 70px;'> 太慢! </span>","null","html-keyboard-response","21","189373","0.0-8.0-1.0-1.0-0.0-1.5","3","4","4","3","4","4","4","3","4","5","5","1","-2","-1","1","0","1","1","1","4","5","5","4","4","3","3","3","4","4","7","8","6","8","7","7","8","7","8","2","5","4","5","3","4","3","5","5","5","1","4","4","5","3","6","4","3","6","2","5","5","4","5","5","5","5","5","6","6","1","6","4","4","5","5","4","7","3","4","5","631517716984889344","杨","257","Male","[""好他"",""坏他"",""坏我"",""好我""]","[""强他"",""弱他"",""弱我"",""强我""]","","","","","","","","","","","","","","","","","","","","","","","","","","","","","","feedback_test","","","","","","","","",""
"846","","j","psychophysics","22","191221","0.0-8.0-1.0-1.0-0.0-0.6","3","4","4","3","4","4","4","3","4","5","5","1","-2","-1","1","0","1","1","1","4","5","5","4","4","3","3","3","4","4","7","8","6","8","7","7","8","7","8","2","5","4","5","3","4","3","5","5","5","1","4","4","5","3","6","4","3","6","2","5","5","4","5","5","5","5","5","6","6","1","6","4","4","5","5","4","7","3","4","5","631517716984889344","杨","257","Male","[""好他"",""坏他"",""坏我"",""好我""]","[""强他"",""弱他"",""弱我"",""强我""]","","","","","","","","match","","","","","","","","","","key","j","6.060855263157895","768","428","f","false","nonmatch","img/pentagon.png","弱我","强我","prac_ALT2_ability","practice_ability","","","","","","","","",""
"null","<span style='color:red; font-size: 70px;'>错误! </span>","null","html-keyboard-response","23","191722","0.0-8.0-1.0-1.0-0.0-1.6","3","4","4","3","4","4","4","3","4","5","5","1","-2","-1","1","0","1","1","1","4","5","5","4","4","3","3","3","4","4","7","8","6","8","7","7","8","7","8","2","5","4","5","3","4","3","5","5","5","1","4","4","5","3","6","4","3","6","2","5","5","4","5","5","5","5","5","6","6","1","6","4","4","5","5","4","7","3","4","5","631517716984889344","杨","257","Male","[""好他"",""坏他"",""坏我"",""好我""]","[""强他"",""弱他"",""弱我"",""强我""]","","","","","","","","","","","","","","","","","","","","","","","","","","","","","","feedback_test","","","","","","","","",""
"null","","null","psychophysics","24","193926","0.0-8.0-1.0-1.0-0.0-0.7","3","4","4","3","4","4","4","3","4","5","5","1","-2","-1","1","0","1","1","1","4","5","5","4","4","3","3","3","4","4","7","8","6","8","7","7","8","7","8","2","5","4","5","3","4","3","5","5","5","1","4","4","5","3","6","4","3","6","2","5","5","4","5","5","5","5","5","6","6","1","6","4","4","5","5","4","7","3","4","5","631517716984889344","杨","257","Male","[""好他"",""坏他"",""坏我"",""好我""]","[""强他"",""弱他"",""弱我"",""强我""]","","","","","","","","null","","","","","","","","","","key","null","6.056353591160205","768","428","f","false","nonmatch","img/square.png","弱他","弱我","prac_ALT2_ability","practice_ability","","","","","","","","",""
"null","<span class='add_' style='color:yellow; font-size: 70px;'> 太慢! </span>","null","html-keyboard-response","25","194427","0.0-8.0-1.0-1.0-0.0-1.7","3","4","4","3","4","4","4","3","4","5","5","1","-2","-1","1","0","1","1","1","4","5","5","4","4","3","3","3","4","4","7","8","6","8","7","7","8","7","8","2","5","4","5","3","4","3","5","5","5","1","4","4","5","3","6","4","3","6","2","5","5","4","5","5","5","5","5","6","6","1","6","4","4","5","5","4","7","3","4","5","631517716984889344","杨","257","Male","[""好他"",""坏他"",""坏我"",""好我""]","[""强他"",""弱他"",""弱我"",""强我""]","","","","","","","","","","","","","","","","","","","","","","","","","","","","","","feedback_test","","","","","","","","",""
"716","","j","psychophysics","26","196144","0.0-8.0-1.0-1.0-0.0-0.8","3","4","4","3","4","4","4","3","4","5","5","1","-2","-1","1","0","1","1","1","4","5","5","4","4","3","3","3","4","4","7","8","6","8","7","7","8","7","8","2","5","4","5","3","4","3","5","5","5","1","4","4","5","3","6","4","3","6","2","5","5","4","5","5","5","5","5","6","6","1","6","4","4","5","5","4","7","3","4","5","631517716984889344","杨","257","Male","[""好他"",""坏他"",""坏我"",""好我""]","[""强他"",""弱他"",""弱我"",""强我""]","","","","","","","","match","","","","","","","","","","key","j","6.060638297872361","768","428","j","true","match","img/diamond.png","强他","强他","prac_ALT2_ability","practice_ability","","","","","","","","",""
"null","<span style='color:GreenYellow; font-size: 70px;'>正确! </span>","null","html-keyboard-response","27","196645","0.0-8.0-1.0-1.0-0.0-1.8","3","4","4","3","4","4","4","3","4","5","5","1","-2","-1","1","0","1","1","1","4","5","5","4","4","3","3","3","4","4","7","8","6","8","7","7","8","7","8","2","5","4","5","3","4","3","5","5","5","1","4","4","5","3","6","4","3","6","2","5","5","4","5","5","5","5","5","6","6","1","6","4","4","5","5","4","7","3","4","5","631517716984889344","杨","257","Male","[""好他"",""坏他"",""坏我"",""好我""]","[""强他"",""弱他"",""弱我"",""强我""]","","","","","","","","","","","","","","","","","","","","","","","","","","","","","","feedback_test","","","","","","","","",""
"961","","j","psychophysics","28","198607","0.0-8.0-1.0-1.0-0.0-0.9","3","4","4","3","4","4","4","3","4","5","5","1","-2","-1","1","0","1","1","1","4","5","5","4","4","3","3","3","4","4","7","8","6","8","7","7","8","7","8","2","5","4","5","3","4","3","5","5","5","1","4","4","5","3","6","4","3","6","2","5","5","4","5","5","5","5","5","6","6","1","6","4","4","5","5","4","7","3","4","5","631517716984889344","杨","257","Male","[""好他"",""坏他"",""坏我"",""好我""]","[""强他"",""弱他"",""弱我"",""强我""]","","","","","","","","match","","","","","","","","","","key","j","6.060869565217409","768","428","j","true","match","img/square.png","弱我","弱我","prac_ALT2_ability","practice_ability","","","","","","","","",""
"null","<span style='color:GreenYellow; font-size: 70px;'>正确! </span>","null","html-keyboard-response","29","199109","0.0-8.0-1.0-1.0-0.0-1.9","3","4","4","3","4","4","4","3","4","5","5","1","-2","-1","1","0","1","1","1","4","5","5","4","4","3","3","3","4","4","7","8","6","8","7","7","8","7","8","2","5","4","5","3","4","3","5","5","5","1","4","4","5","3","6","4","3","6","2","5","5","4","5","5","5","5","5","6","6","1","6","4","4","5","5","4","7","3","4","5","631517716984889344","杨","257","Male","[""好他"",""坏他"",""坏我"",""好我""]","[""强他"",""弱他"",""弱我"",""强我""]","","","","","","","","","","","","","","","","","","","","","","","","","","","","","","feedback_test","","","","","","","","",""
"1020","","j","psychophysics","30","201131","0.0-8.0-1.0-1.0-0.0-0.10","3","4","4","3","4","4","4","3","4","5","5","1","-2","-1","1","0","1","1","1","4","5","5","4","4","3","3","3","4","4","7","8","6","8","7","7","8","7","8","2","5","4","5","3","4","3","5","5","5","1","4","4","5","3","6","4","3","6","2","5","5","4","5","5","5","5","5","6","6","1","6","4","4","5","5","4","7","3","4","5","631517716984889344","杨","257","Male","[""好他"",""坏他"",""坏我"",""好我""]","[""强他"",""弱他"",""弱我"",""强我""]","","","","","","","","match","","","","","","","","","","key","j","6.060360360360378","768","428","f","false","nonmatch","img/diamond.png","弱他","强他","prac_ALT2_ability","practice_ability","","","","","","","","",""
"null","<span style='color:red; font-size: 70px;'>错误! </span>","null","html-keyboard-response","31","201632","0.0-8.0-1.0-1.0-0.0-1.10","3","4","4","3","4","4","4","3","4","5","5","1","-2","-1","1","0","1","1","1","4","5","5","4","4","3","3","3","4","4","7","8","6","8","7","7","8","7","8","2","5","4","5","3","4","3","5","5","5","1","4","4","5","3","6","4","3","6","2","5","5","4","5","5","5","5","5","6","6","1","6","4","4","5","5","4","7","3","4","5","631517716984889344","杨","257","Male","[""好他"",""坏他"",""坏我"",""好我""]","[""强他"",""弱他"",""弱我"",""强我""]","","","","","","","","","","","","","","","","","","","","","","","","","","","","","","feedback_test","","","","","","","","",""
"998","","f","psychophysics","32","203631","0.0-8.0-1.0-1.0-0.0-0.11","3","4","4","3","4","4","4","3","4","5","5","1","-2","-1","1","0","1","1","1","4","5","5","4","4","3","3","3","4","4","7","8","6","8","7","7","8","7","8","2","5","4","5","3","4","3","5","5","5","1","4","4","5","3","6","4","3","6","2","5","5","4","5","5","5","5","5","6","6","1","6","4","4","5","5","4","7","3","4","5","631517716984889344","杨","257","Male","[""好他"",""坏他"",""坏我"",""好我""]","[""强他"",""弱他"",""弱我"",""强我""]","","","","","","","","nonmatch","","","","","","","","","","key","f","6.060670731707299","768","428","f","true","nonmatch","img/pentagon.png","弱他","强我","prac_ALT2_ability","practice_ability","","","","","","","","",""
"null","<span style='color:GreenYellow; font-size: 70px;'>正确! </span>","null","html-keyboard-response","33","204132","0.0-8.0-1.0-1.0-0.0-1.11","3","4","4","3","4","4","4","3","4","5","5","1","-2","-1","1","0","1","1","1","4","5","5","4","4","3","3","3","4","4","7","8","6","8","7","7","8","7","8","2","5","4","5","3","4","3","5","5","5","1","4","4","5","3","6","4","3","6","2","5","5","4","5","5","5","5","5","6","6","1","6","4","4","5","5","4","7","3","4","5","631517716984889344","杨","257","Male","[""好他"",""坏他"",""坏我"",""好我""]","[""强他"",""弱他"",""弱我"",""强我""]","","","","","","","","","","","","","","","","","","","","","","","","","","","","","","feedback_test","","","","","","","","",""
"879","","j","psychophysics","34","206012","0.0-8.0-1.0-1.0-0.0-0.12","3","4","4","3","4","4","4","3","4","5","5","1","-2","-1","1","0","1","1","1","4","5","5","4","4","3","3","3","4","4","7","8","6","8","7","7","8","7","8","2","5","4","5","3","4","3","5","5","5","1","4","4","5","3","6","4","3","6","2","5","5","4","5","5","5","5","5","6","6","1","6","4","4","5","5","4","7","3","4","5","631517716984889344","杨","257","Male","[""好他"",""坏他"",""坏我"",""好我""]","[""强他"",""弱他"",""弱我"",""强我""]","","","","","","","","match","","","","","","","","","","key","j","6.0601941747573","768","428","j","true","match","img/ellipse.png","弱他","弱他","prac_ALT2_ability","practice_ability","","","","","","","","",""
"null","<span style='color:GreenYellow; font-size: 70px;'>正确! </span>","null","html-keyboard-response","35","206512","0.0-8.0-1.0-1.0-0.0-1.12","3","4","4","3","4","4","4","3","4","5","5","1","-2","-1","1","0","1","1","1","4","5","5","4","4","3","3","3","4","4","7","8","6","8","7","7","8","7","8","2","5","4","5","3","4","3","5","5","5","1","4","4","5","3","6","4","3","6","2","5","5","4","5","5","5","5","5","6","6","1","6","4","4","5","5","4","7","3","4","5","631517716984889344","杨","257","Male","[""好他"",""坏他"",""坏我"",""好我""]","[""强他"",""弱他"",""弱我"",""强我""]","","","","","","","","","","","","","","","","","","","","","","","","","","","","","","feedback_test","","","","","","","","",""
"1060","","f","psychophysics","36","208575","0.0-8.0-1.0-1.0-0.0-0.13","3","4","4","3","4","4","4","3","4","5","5","1","-2","-1","1","0","1","1","1","4","5","5","4","4","3","3","3","4","4","7","8","6","8","7","7","8","7","8","2","5","4","5","3","4","3","5","5","5","1","4","4","5","3","6","4","3","6","2","5","5","4","5","5","5","5","5","6","6","1","6","4","4","5","5","4","7","3","4","5","631517716984889344","杨","257","Male","[""好他"",""坏他"",""坏我"",""好我""]","[""强他"",""弱他"",""弱我"",""强我""]","","","","","","","","nonmatch","","","","","","","","","","key","f","6.060766961651934","768","428","f","true","nonmatch","img/square.png","强他","弱我","prac_ALT2_ability","practice_ability","","","","","","","","",""
"null","<span style='color:GreenYellow; font-size: 70px;'>正确! </span>","null","html-keyboard-response","37","209075","0.0-8.0-1.0-1.0-0.0-1.13","3","4","4","3","4","4","4","3","4","5","5","1","-2","-1","1","0","1","1","1","4","5","5","4","4","3","3","3","4","4","7","8","6","8","7","7","8","7","8","2","5","4","5","3","4","3","5","5","5","1","4","4","5","3","6","4","3","6","2","5","5","4","5","5","5","5","5","6","6","1","6","4","4","5","5","4","7","3","4","5","631517716984889344","杨","257","Male","[""好他"",""坏他"",""坏我"",""好我""]","[""强他"",""弱他"",""弱我"",""强我""]","","","","","","","","","","","","","","","","","","","","","","","","","","","","","","feedback_test","","","","","","","","",""
"null","","null","psychophysics","38","211278","0.0-8.0-1.0-1.0-0.0-0.14","3","4","4","3","4","4","4","3","4","5","5","1","-2","-1","1","0","1","1","1","4","5","5","4","4","3","3","3","4","4","7","8","6","8","7","7","8","7","8","2","5","4","5","3","4","3","5","5","5","1","4","4","5","3","6","4","3","6","2","5","5","4","5","5","5","5","5","6","6","1","6","4","4","5","5","4","7","3","4","5","631517716984889344","杨","257","Male","[""好他"",""坏他"",""坏我"",""好我""]","[""强他"",""弱他"",""弱我"",""强我""]","","","","","","","","null","","","","","","","","","","key","null","6.060773480662983","768","428","f","false","nonmatch","img/ellipse.png","强他","弱他","prac_ALT2_ability","practice_ability","","","","","","","","",""
"null","<span class='add_' style='color:yellow; font-size: 70px;'> 太慢! </span>","null","html-keyboard-response","39","211779","0.0-8.0-1.0-1.0-0.0-1.14","3","4","4","3","4","4","4","3","4","5","5","1","-2","-1","1","0","1","1","1","4","5","5","4","4","3","3","3","4","4","7","8","6","8","7","7","8","7","8","2","5","4","5","3","4","3","5","5","5","1","4","4","5","3","6","4","3","6","2","5","5","4","5","5","5","5","5","6","6","1","6","4","4","5","5","4","7","3","4","5","631517716984889344","杨","257","Male","[""好他"",""坏他"",""坏我"",""好我""]","[""强他"",""弱他"",""弱我"",""强我""]","","","","","","","","","","","","","","","","","","","","","","","","","","","","","","feedback_test","","","","","","","","",""
"601","","j","psychophysics","40","213381","0.0-8.0-1.0-1.0-0.0-0.15","3","4","4","3","4","4","4","3","4","5","5","1","-2","-1","1","0","1","1","1","4","5","5","4","4","3","3","3","4","4","7","8","6","8","7","7","8","7","8","2","5","4","5","3","4","3","5","5","5","1","4","4","5","3","6","4","3","6","2","5","5","4","5","5","5","5","5","6","6","1","6","4","4","5","5","4","7","3","4","5","631517716984889344","杨","257","Male","[""好他"",""坏他"",""坏我"",""好我""]","[""强他"",""弱他"",""弱我"",""强我""]","","","","","","","","match","","","","","","","","","","key","j","6.0604562737642365","768","428","f","false","nonmatch","img/ellipse.png","强我","弱他","prac_ALT2_ability","practice_ability","","","","","","","","",""
"null","<span style='color:red; font-size: 70px;'>错误! </span>","null","html-keyboard-response","41","213882","0.0-8.0-1.0-1.0-0.0-1.15","3","4","4","3","4","4","4","3","4","5","5","1","-2","-1","1","0","1","1","1","4","5","5","4","4","3","3","3","4","4","7","8","6","8","7","7","8","7","8","2","5","4","5","3","4","3","5","5","5","1","4","4","5","3","6","4","3","6","2","5","5","4","5","5","5","5","5","6","6","1","6","4","4","5","5","4","7","3","4","5","631517716984889344","杨","257","Male","[""好他"",""坏他"",""坏我"",""好我""]","[""强他"",""弱他"",""弱我"",""强我""]","","","","","","","","","","","","","","","","","","","","","","","","","","","","","","feedback_test","","","","","","","","",""
"879","","f","psychophysics","42","215762","0.0-8.0-1.0-1.0-0.0-0.16","3","4","4","3","4","4","4","3","4","5","5","1","-2","-1","1","0","1","1","1","4","5","5","4","4","3","3","3","4","4","7","8","6","8","7","7","8","7","8","2","5","4","5","3","4","3","5","5","5","1","4","4","5","3","6","4","3","6","2","5","5","4","5","5","5","5","5","6","6","1","6","4","4","5","5","4","7","3","4","5","631517716984889344","杨","257","Male","[""好他"",""坏他"",""坏我"",""好我""]","[""强他"",""弱他"",""弱我"",""强我""]","","","","","","","","nonmatch","","","","","","","","","","key","f","6.060517799352788","768","428","f","true","nonmatch","img/ellipse.png","弱我","弱他","prac_ALT2_ability","practice_ability","","","","","","","","",""
"null","<span style='color:GreenYellow; font-size: 70px;'>正确! </span>","null","html-keyboard-response","43","216263","0.0-8.0-1.0-1.0-0.0-1.16","3","4","4","3","4","4","4","3","4","5","5","1","-2","-1","1","0","1","1","1","4","5","5","4","4","3","3","3","4","4","7","8","6","8","7","7","8","7","8","2","5","4","5","3","4","3","5","5","5","1","4","4","5","3","6","4","3","6","2","5","5","4","5","5","5","5","5","6","6","1","6","4","4","5","5","4","7","3","4","5","631517716984889344","杨","257","Male","[""好他"",""坏他"",""坏我"",""好我""]","[""强他"",""弱他"",""弱我"",""强我""]","","","","","","","","","","","","","","","","","","","","","","","","","","","","","","feedback_test","","","","","","","","",""
"739","","j","psychophysics","44","218002","0.0-8.0-1.0-1.0-0.0-0.17","3","4","4","3","4","4","4","3","4","5","5","1","-2","-1","1","0","1","1","1","4","5","5","4","4","3","3","3","4","4","7","8","6","8","7","7","8","7","8","2","5","4","5","3","4","3","5","5","5","1","4","4","5","3","6","4","3","6","2","5","5","4","5","5","5","5","5","6","6","1","6","4","4","5","5","4","7","3","4","5","631517716984889344","杨","257","Male","[""好他"",""坏他"",""坏我"",""好我""]","[""强他"",""弱他"",""弱我"",""强我""]","","","","","","","","match","","","","","","","","","","key","j","6.056140350877193","768","428","j","true","match","img/square.png","弱我","弱我","prac_ALT2_ability","practice_ability","","","","","","","","",""
"null","<span style='color:GreenYellow; font-size: 70px;'>正确! </span>","null","html-keyboard-response","45","218503","0.0-8.0-1.0-1.0-0.0-1.17","3","4","4","3","4","4","4","3","4","5","5","1","-2","-1","1","0","1","1","1","4","5","5","4","4","3","3","3","4","4","7","8","6","8","7","7","8","7","8","2","5","4","5","3","4","3","5","5","5","1","4","4","5","3","6","4","3","6","2","5","5","4","5","5","5","5","5","6","6","1","6","4","4","5","5","4","7","3","4","5","631517716984889344","杨","257","Male","[""好他"",""坏他"",""坏我"",""好我""]","[""强他"",""弱他"",""弱我"",""强我""]","","","","","","","","","","","","","","","","","","","","","","","","","","","","","","feedback_test","","","","","","","","",""
"779","","j","psychophysics","46","220284","0.0-8.0-1.0-1.0-0.0-0.18","3","4","4","3","4","4","4","3","4","5","5","1","-2","-1","1","0","1","1","1","4","5","5","4","4","3","3","3","4","4","7","8","6","8","7","7","8","7","8","2","5","4","5","3","4","3","5","5","5","1","4","4","5","3","6","4","3","6","2","5","5","4","5","5","5","5","5","6","6","1","6","4","4","5","5","4","7","3","4","5","631517716984889344","杨","257","Male","[""好他"",""坏他"",""坏我"",""好我""]","[""强他"",""弱他"",""弱我"",""强我""]","","","","","","","","match","","","","","","","","","","key","j","6.060409556314033","768","428","j","true","match","img/pentagon.png","强我","强我","prac_ALT2_ability","practice_ability","","","","","","","","",""
"null","<span style='color:GreenYellow; font-size: 70px;'>正确! </span>","null","html-keyboard-response","47","220785","0.0-8.0-1.0-1.0-0.0-1.18","3","4","4","3","4","4","4","3","4","5","5","1","-2","-1","1","0","1","1","1","4","5","5","4","4","3","3","3","4","4","7","8","6","8","7","7","8","7","8","2","5","4","5","3","4","3","5","5","5","1","4","4","5","3","6","4","3","6","2","5","5","4","5","5","5","5","5","6","6","1","6","4","4","5","5","4","7","3","4","5","631517716984889344","杨","257","Male","[""好他"",""坏他"",""坏我"",""好我""]","[""强他"",""弱他"",""弱我"",""强我""]","","","","","","","","","","","","","","","","","","","","","","","","","","","","","","feedback_test","","","","","","","","",""
"697","","j","psychophysics","48","222483","0.0-8.0-1.0-1.0-0.0-0.19","3","4","4","3","4","4","4","3","4","5","5","1","-2","-1","1","0","1","1","1","4","5","5","4","4","3","3","3","4","4","7","8","6","8","7","7","8","7","8","2","5","4","5","3","4","3","5","5","5","1","4","4","5","3","6","4","3","6","2","5","5","4","5","5","5","5","5","6","6","1","6","4","4","5","5","4","7","3","4","5","631517716984889344","杨","257","Male","[""好他"",""坏他"",""坏我"",""好我""]","[""强他"",""弱他"",""弱我"",""强我""]","","","","","","","","match","","","","","","","","","","key","j","6.060931899641577","768","428","j","true","match","img/pentagon.png","强我","强我","prac_ALT2_ability","practice_ability","","","","","","","","",""
"null","<span style='color:GreenYellow; font-size: 70px;'>正确! </span>","null","html-keyboard-response","49","222983","0.0-8.0-1.0-1.0-0.0-1.19","3","4","4","3","4","4","4","3","4","5","5","1","-2","-1","1","0","1","1","1","4","5","5","4","4","3","3","3","4","4","7","8","6","8","7","7","8","7","8","2","5","4","5","3","4","3","5","5","5","1","4","4","5","3","6","4","3","6","2","5","5","4","5","5","5","5","5","6","6","1","6","4","4","5","5","4","7","3","4","5","631517716984889344","杨","257","Male","[""好他"",""坏他"",""坏我"",""好我""]","[""强他"",""弱他"",""弱我"",""强我""]","","","","","","","","","","","","","","","","","","","","","","","","","","","","","","feedback_test","","","","","","","","",""
"923","","j","psychophysics","50","224907","0.0-8.0-1.0-1.0-0.0-0.20","3","4","4","3","4","4","4","3","4","5","5","1","-2","-1","1","0","1","1","1","4","5","5","4","4","3","3","3","4","4","7","8","6","8","7","7","8","7","8","2","5","4","5","3","4","3","5","5","5","1","4","4","5","3","6","4","3","6","2","5","5","4","5","5","5","5","5","6","6","1","6","4","4","5","5","4","7","3","4","5","631517716984889344","杨","257","Male","[""好他"",""坏他"",""坏我"",""好我""]","[""强他"",""弱他"",""弱我"",""强我""]","","","","","","","","match","","","","","","","","","","key","j","6.060252365930618","768","428","j","true","match","img/diamond.png","强他","强他","prac_ALT2_ability","practice_ability","","","","","","","","",""
"null","<span style='color:GreenYellow; font-size: 70px;'>正确! </span>","null","html-keyboard-response","51","225408","0.0-8.0-1.0-1.0-0.0-1.20","3","4","4","3","4","4","4","3","4","5","5","1","-2","-1","1","0","1","1","1","4","5","5","4","4","3","3","3","4","4","7","8","6","8","7","7","8","7","8","2","5","4","5","3","4","3","5","5","5","1","4","4","5","3","6","4","3","6","2","5","5","4","5","5","5","5","5","6","6","1","6","4","4","5","5","4","7","3","4","5","631517716984889344","杨","257","Male","[""好他"",""坏他"",""坏我"",""好我""]","[""强他"",""弱他"",""弱我"",""强我""]","","","","","","","","","","","","","","","","","","","","","","","","","","","","","","feedback_test","","","","","","","","",""
"740","","j","psychophysics","52","227148","0.0-8.0-1.0-1.0-0.0-0.21","3","4","4","3","4","4","4","3","4","5","5","1","-2","-1","1","0","1","1","1","4","5","5","4","4","3","3","3","4","4","7","8","6","8","7","7","8","7","8","2","5","4","5","3","4","3","5","5","5","1","4","4","5","3","6","4","3","6","2","5","5","4","5","5","5","5","5","6","6","1","6","4","4","5","5","4","7","3","4","5","631517716984889344","杨","257","Male","[""好他"",""坏他"",""坏我"",""好我""]","[""强他"",""弱他"",""弱我"",""强我""]","","","","","","","","match","","","","","","","","","","key","j","6.0573426573426365","768","428","j","true","match","img/pentagon.png","强我","强我","prac_ALT2_ability","practice_ability","","","","","","","","",""
"null","<span style='color:GreenYellow; font-size: 70px;'>正确! </span>","null","html-keyboard-response","53","227650","0.0-8.0-1.0-1.0-0.0-1.21","3","4","4","3","4","4","4","3","4","5","5","1","-2","-1","1","0","1","1","1","4","5","5","4","4","3","3","3","4","4","7","8","6","8","7","7","8","7","8","2","5","4","5","3","4","3","5","5","5","1","4","4","5","3","6","4","3","6","2","5","5","4","5","5","5","5","5","6","6","1","6","4","4","5","5","4","7","3","4","5","631517716984889344","杨","257","Male","[""好他"",""坏他"",""坏我"",""好我""]","[""强他"",""弱他"",""弱我"",""强我""]","","","","","","","","","","","","","","","","","","","","","","","","","","","","","","feedback_test","","","","","","","","",""
"840","","j","psychophysics","54","229490","0.0-8.0-1.0-1.0-0.0-0.22","3","4","4","3","4","4","4","3","4","5","5","1","-2","-1","1","0","1","1","1","4","5","5","4","4","3","3","3","4","4","7","8","6","8","7","7","8","7","8","2","5","4","5","3","4","3","5","5","5","1","4","4","5","3","6","4","3","6","2","5","5","4","5","5","5","5","5","6","6","1","6","4","4","5","5","4","7","3","4","5","631517716984889344","杨","257","Male","[""好他"",""坏他"",""坏我"",""好我""]","[""强他"",""弱他"",""弱我"",""强我""]","","","","","","","","match","","","","","","","","","","key","j","6.060726072607242","768","428","j","true","match","img/square.png","弱我","弱我","prac_ALT2_ability","practice_ability","","","","","","","","",""
"null","<span style='color:GreenYellow; font-size: 70px;'>正确! </span>","null","html-keyboard-response","55","229991","0.0-8.0-1.0-1.0-0.0-1.22","3","4","4","3","4","4","4","3","4","5","5","1","-2","-1","1","0","1","1","1","4","5","5","4","4","3","3","3","4","4","7","8","6","8","7","7","8","7","8","2","5","4","5","3","4","3","5","5","5","1","4","4","5","3","6","4","3","6","2","5","5","4","5","5","5","5","5","6","6","1","6","4","4","5","5","4","7","3","4","5","631517716984889344","杨","257","Male","[""好他"",""坏他"",""坏我"",""好我""]","[""强他"",""弱他"",""弱我"",""强我""]","","","","","","","","","","","","","","","","","","","","","","","","","","","","","","feedback_test","","","","","","","","",""
"1060","","j","psychophysics","56","232051","0.0-8.0-1.0-1.0-0.0-0.23","3","4","4","3","4","4","4","3","4","5","5","1","-2","-1","1","0","1","1","1","4","5","5","4","4","3","3","3","4","4","7","8","6","8","7","7","8","7","8","2","5","4","5","3","4","3","5","5","5","1","4","4","5","3","6","4","3","6","2","5","5","4","5","5","5","5","5","6","6","1","6","4","4","5","5","4","7","3","4","5","631517716984889344","杨","257","Male","[""好他"",""坏他"",""坏我"",""好我""]","[""强他"",""弱他"",""弱我"",""强我""]","","","","","","","","match","","","","","","","","","","key","j","6.06047197640118","768","428","j","true","match","img/ellipse.png","弱他","弱他","prac_ALT2_ability","practice_ability","","","","","","","","",""
"null","<span style='color:GreenYellow; font-size: 70px;'>正确! </span>","null","html-keyboard-response","57","232553","0.0-8.0-1.0-1.0-0.0-1.23","3","4","4","3","4","4","4","3","4","5","5","1","-2","-1","1","0","1","1","1","4","5","5","4","4","3","3","3","4","4","7","8","6","8","7","7","8","7","8","2","5","4","5","3","4","3","5","5","5","1","4","4","5","3","6","4","3","6","2","5","5","4","5","5","5","5","5","6","6","1","6","4","4","5","5","4","7","3","4","5","631517716984889344","杨","257","Male","[""好他"",""坏他"",""坏我"",""好我""]","[""强他"",""弱他"",""弱我"",""强我""]","","","","","","","","","","","","","","","","","","","","","","","","","","","","","","feedback_test","","","","","","","","",""
"944","","j","psychophysics","58","234498","0.0-8.0-1.0-1.0-0.0-0.24","3","4","4","3","4","4","4","3","4","5","5","1","-2","-1","1","0","1","1","1","4","5","5","4","4","3","3","3","4","4","7","8","6","8","7","7","8","7","8","2","5","4","5","3","4","3","5","5","5","1","4","4","5","3","6","4","3","6","2","5","5","4","5","5","5","5","5","6","6","1","6","4","4","5","5","4","7","3","4","5","631517716984889344","杨","257","Male","[""好他"",""坏他"",""坏我"",""好我""]","[""强他"",""弱他"",""弱我"",""强我""]","","","","","","","","match","","","","","","","","","","key","j","6.060624999999982","768","428","f","false","nonmatch","img/pentagon.png","强他","强我","prac_ALT2_ability","practice_ability","","","","","","","","",""
"null","<span style='color:red; font-size: 70px;'>错误! </span>","null","html-keyboard-response","59","234999","0.0-8.0-1.0-1.0-0.0-1.24","3","4","4","3","4","4","4","3","4","5","5","1","-2","-1","1","0","1","1","1","4","5","5","4","4","3","3","3","4","4","7","8","6","8","7","7","8","7","8","2","5","4","5","3","4","3","5","5","5","1","4","4","5","3","6","4","3","6","2","5","5","4","5","5","5","5","5","6","6","1","6","4","4","5","5","4","7","3","4","5","631517716984889344","杨","257","Male","[""好他"",""坏他"",""坏我"",""好我""]","[""强他"",""弱他"",""弱我"",""强我""]","","","","","","","","","","","","","","","","","","","","","","","","","","","","","","feedback_test","","","","","","","","",""
"1012","","f","psychophysics","60","237013","0.0-8.0-1.0-1.0-0.0-0.25","3","4","4","3","4","4","4","3","4","5","5","1","-2","-1","1","0","1","1","1","4","5","5","4","4","3","3","3","4","4","7","8","6","8","7","7","8","7","8","2","5","4","5","3","4","3","5","5","5","1","4","4","5","3","6","4","3","6","2","5","5","4","5","5","5","5","5","6","6","1","6","4","4","5","5","4","7","3","4","5","631517716984889344","杨","257","Male","[""好他"",""坏他"",""坏我"",""好我""]","[""强他"",""弱他"",""弱我"",""强我""]","","","","","","","","nonmatch","","","","","","","","","","key","f","6.060725075528718","768","428","j","false","match","img/diamond.png","强他","强他","prac_ALT2_ability","practice_ability","","","","","","","","",""
"null","<span style='color:red; font-size: 70px;'>错误! </span>","null","html-keyboard-response","61","237514","0.0-8.0-1.0-1.0-0.0-1.25","3","4","4","3","4","4","4","3","4","5","5","1","-2","-1","1","0","1","1","1","4","5","5","4","4","3","3","3","4","4","7","8","6","8","7","7","8","7","8","2","5","4","5","3","4","3","5","5","5","1","4","4","5","3","6","4","3","6","2","5","5","4","5","5","5","5","5","6","6","1","6","4","4","5","5","4","7","3","4","5","631517716984889344","杨","257","Male","[""好他"",""坏他"",""坏我"",""好我""]","[""强他"",""弱他"",""弱我"",""强我""]","","","","","","","","","","","","","","","","","","","","","","","","","","","","","","feedback_test","","","","","","","","",""
"1033","","j","psychophysics","62","239548","0.0-8.0-1.0-1.0-0.0-0.26","3","4","4","3","4","4","4","3","4","5","5","1","-2","-1","1","0","1","1","1","4","5","5","4","4","3","3","3","4","4","7","8","6","8","7","7","8","7","8","2","5","4","5","3","4","3","5","5","5","1","4","4","5","3","6","4","3","6","2","5","5","4","5","5","5","5","5","6","6","1","6","4","4","5","5","4","7","3","4","5","631517716984889344","杨","257","Male","[""好他"",""坏他"",""坏我"",""好我""]","[""强他"",""弱他"",""弱我"",""强我""]","","","","","","","","match","","","","","","","","","","key","j","6.060778443113825","768","428","j","true","match","img/square.png","弱我","弱我","prac_ALT2_ability","practice_ability","","","","","","","","",""
"null","<span style='color:GreenYellow; font-size: 70px;'>正确! </span>","null","html-keyboard-response","63","240048","0.0-8.0-1.0-1.0-0.0-1.26","3","4","4","3","4","4","4","3","4","5","5","1","-2","-1","1","0","1","1","1","4","5","5","4","4","3","3","3","4","4","7","8","6","8","7","7","8","7","8","2","5","4","5","3","4","3","5","5","5","1","4","4","5","3","6","4","3","6","2","5","5","4","5","5","5","5","5","6","6","1","6","4","4","5","5","4","7","3","4","5","631517716984889344","杨","257","Male","[""好他"",""坏他"",""坏我"",""好我""]","[""强他"",""弱他"",""弱我"",""强我""]","","","","","","","","","","","","","","","","","","","","","","","","","","","","","","feedback_test","","","","","","","","",""
"750","","j","psychophysics","64","241800","0.0-8.0-1.0-1.0-0.0-0.27","3","4","4","3","4","4","4","3","4","5","5","1","-2","-1","1","0","1","1","1","4","5","5","4","4","3","3","3","4","4","7","8","6","8","7","7","8","7","8","2","5","4","5","3","4","3","5","5","5","1","4","4","5","3","6","4","3","6","2","5","5","4","5","5","5","5","5","6","6","1","6","4","4","5","5","4","7","3","4","5","631517716984889344","杨","257","Male","[""好他"",""坏他"",""坏我"",""好我""]","[""强他"",""弱他"",""弱我"",""强我""]","","","","","","","","match","","","","","","","","","","key","j","6.060416666666646","768","428","j","true","match","img/ellipse.png","弱他","弱他","prac_ALT2_ability","practice_ability","","","","","","","","",""
"null","<span style='color:GreenYellow; font-size: 70px;'>正确! </span>","null","html-keyboard-response","65","242301","0.0-8.0-1.0-1.0-0.0-1.27","3","4","4","3","4","4","4","3","4","5","5","1","-2","-1","1","0","1","1","1","4","5","5","4","4","3","3","3","4","4","7","8","6","8","7","7","8","7","8","2","5","4","5","3","4","3","5","5","5","1","4","4","5","3","6","4","3","6","2","5","5","4","5","5","5","5","5","6","6","1","6","4","4","5","5","4","7","3","4","5","631517716984889344","杨","257","Male","[""好他"",""坏他"",""坏我"",""好我""]","[""强他"",""弱他"",""弱我"",""强我""]","","","","","","","","","","","","","","","","","","","","","","","","","","","","","","feedback_test","","","","","","","","",""
"649","","j","psychophysics","66","243951","0.0-8.0-1.0-1.0-0.0-0.28","3","4","4","3","4","4","4","3","4","5","5","1","-2","-1","1","0","1","1","1","4","5","5","4","4","3","3","3","4","4","7","8","6","8","7","7","8","7","8","2","5","4","5","3","4","3","5","5","5","1","4","4","5","3","6","4","3","6","2","5","5","4","5","5","5","5","5","6","6","1","6","4","4","5","5","4","7","3","4","5","631517716984889344","杨","257","Male","[""好他"",""坏他"",""坏我"",""好我""]","[""强他"",""弱他"",""弱我"",""强我""]","","","","","","","","match","","","","","","","","","","key","j","6.06051660516603","768","428","f","false","nonmatch","img/square.png","弱他","弱我","prac_ALT2_ability","practice_ability","","","","","","","","",""
"null","<span style='color:red; font-size: 70px;'>错误! </span>","null","html-keyboard-response","67","244452","0.0-8.0-1.0-1.0-0.0-1.28","3","4","4","3","4","4","4","3","4","5","5","1","-2","-1","1","0","1","1","1","4","5","5","4","4","3","3","3","4","4","7","8","6","8","7","7","8","7","8","2","5","4","5","3","4","3","5","5","5","1","4","4","5","3","6","4","3","6","2","5","5","4","5","5","5","5","5","6","6","1","6","4","4","5","5","4","7","3","4","5","631517716984889344","杨","257","Male","[""好他"",""坏他"",""坏我"",""好我""]","[""强他"",""弱他"",""弱我"",""强我""]","","","","","","","","","","","","","","","","","","","","","","","","","","","","","","feedback_test","","","","","","","","",""
"846","","j","psychophysics","68","246300","0.0-8.0-1.0-1.0-0.0-0.29","3","4","4","3","4","4","4","3","4","5","5","1","-2","-1","1","0","1","1","1","4","5","5","4","4","3","3","3","4","4","7","8","6","8","7","7","8","7","8","2","5","4","5","3","4","3","5","5","5","1","4","4","5","3","6","4","3","6","2","5","5","4","5","5","5","5","5","6","6","1","6","4","4","5","5","4","7","3","4","5","631517716984889344","杨","257","Male","[""好他"",""坏他"",""坏我"",""好我""]","[""强他"",""弱他"",""弱我"",""强我""]","","","","","","","","match","","","","","","","","","","key","j","6.060526315789454","768","428","f","false","nonmatch","img/diamond.png","弱我","强他","prac_ALT2_ability","practice_ability","","","","","","","","",""
"null","<span style='color:red; font-size: 70px;'>错误! </span>","null","html-keyboard-response","69","246801","0.0-8.0-1.0-1.0-0.0-1.29","3","4","4","3","4","4","4","3","4","5","5","1","-2","-1","1","0","1","1","1","4","5","5","4","4","3","3","3","4","4","7","8","6","8","7","7","8","7","8","2","5","4","5","3","4","3","5","5","5","1","4","4","5","3","6","4","3","6","2","5","5","4","5","5","5","5","5","6","6","1","6","4","4","5","5","4","7","3","4","5","631517716984889344","杨","257","Male","[""好他"",""坏他"",""坏我"",""好我""]","[""强他"",""弱他"",""弱我"",""强我""]","","","","","","","","","","","","","","","","","","","","","","","","","","","","","","feedback_test","","","","","","","","",""
"274","","j","psychophysics","70","248076","0.0-8.0-1.0-1.0-0.0-0.30","3","4","4","3","4","4","4","3","4","5","5","1","-2","-1","1","0","1","1","1","4","5","5","4","4","3","3","3","4","4","7","8","6","8","7","7","8","7","8","2","5","4","5","3","4","3","5","5","5","1","4","4","5","3","6","4","3","6","2","5","5","4","5","5","5","5","5","6","6","1","6","4","4","5","5","4","7","3","4","5","631517716984889344","杨","257","Male","[""好他"",""坏他"",""坏我"",""好我""]","[""强他"",""弱他"",""弱我"",""强我""]","","","","","","","","match","","","","","","","","","","key","j","6.053588516746328","768","428","j","true","match","img/pentagon.png","强我","强我","prac_ALT2_ability","practice_ability","","","","","","","","",""
"null","<span style='color:GreenYellow; font-size: 70px;'>正确! </span>","null","html-keyboard-response","71","248577","0.0-8.0-1.0-1.0-0.0-1.30","3","4","4","3","4","4","4","3","4","5","5","1","-2","-1","1","0","1","1","1","4","5","5","4","4","3","3","3","4","4","7","8","6","8","7","7","8","7","8","2","5","4","5","3","4","3","5","5","5","1","4","4","5","3","6","4","3","6","2","5","5","4","5","5","5","5","5","6","6","1","6","4","4","5","5","4","7","3","4","5","631517716984889344","杨","257","Male","[""好他"",""坏他"",""坏我"",""好我""]","[""强他"",""弱他"",""弱我"",""强我""]","","","","","","","","","","","","","","","","","","","","","","","","","","","","","","feedback_test","","","","","","","","",""
"392","","j","psychophysics","72","249970","0.0-8.0-1.0-1.0-0.0-0.31","3","4","4","3","4","4","4","3","4","5","5","1","-2","-1","1","0","1","1","1","4","5","5","4","4","3","3","3","4","4","7","8","6","8","7","7","8","7","8","2","5","4","5","3","4","3","5","5","5","1","4","4","5","3","6","4","3","6","2","5","5","4","5","5","5","5","5","6","6","1","6","4","4","5","5","4","7","3","4","5","631517716984889344","杨","257","Male","[""好他"",""坏他"",""坏我"",""好我""]","[""强他"",""弱他"",""弱我"",""强我""]","","","","","","","","match","","","","","","","","","","key","j","6.06113537117904","768","428","f","false","nonmatch","img/diamond.png","强我","强他","prac_ALT2_ability","practice_ability","","","","","","","","",""
"null","<span style='color:red; font-size: 70px;'>错误! </span>","null","html-keyboard-response","73","250471","0.0-8.0-1.0-1.0-0.0-1.31","3","4","4","3","4","4","4","3","4","5","5","1","-2","-1","1","0","1","1","1","4","5","5","4","4","3","3","3","4","4","7","8","6","8","7","7","8","7","8","2","5","4","5","3","4","3","5","5","5","1","4","4","5","3","6","4","3","6","2","5","5","4","5","5","5","5","5","6","6","1","6","4","4","5","5","4","7","3","4","5","631517716984889344","杨","257","Male","[""好他"",""坏他"",""坏我"",""好我""]","[""强他"",""弱他"",""弱我"",""强我""]","","","","","","","","","","","","","","","","","","","","","","","","","","","","","","feedback_test","","","","","","","","",""
"415","","j","psychophysics","74","251887","0.0-8.0-1.0-1.0-0.0-0.32","3","4","4","3","4","4","4","3","4","5","5","1","-2","-1","1","0","1","1","1","4","5","5","4","4","3","3","3","4","4","7","8","6","8","7","7","8","7","8","2","5","4","5","3","4","3","5","5","5","1","4","4","5","3","6","4","3","6","2","5","5","4","5","5","5","5","5","6","6","1","6","4","4","5","5","4","7","3","4","5","631517716984889344","杨","257","Male","[""好他"",""坏他"",""坏我"",""好我""]","[""强他"",""弱他"",""弱我"",""强我""]","","","","","","","","match","","","","","","","","","","key","j","6.060344827586207","768","428","j","true","match","img/ellipse.png","弱他","弱他","prac_ALT2_ability","practice_ability","","","","","","","","",""
"null","<span style='color:GreenYellow; font-size: 70px;'>正确! </span>","null","html-keyboard-response","75","252388","0.0-8.0-1.0-1.0-0.0-1.32","3","4","4","3","4","4","4","3","4","5","5","1","-2","-1","1","0","1","1","1","4","5","5","4","4","3","3","3","4","4","7","8","6","8","7","7","8","7","8","2","5","4","5","3","4","3","5","5","5","1","4","4","5","3","6","4","3","6","2","5","5","4","5","5","5","5","5","6","6","1","6","4","4","5","5","4","7","3","4","5","631517716984889344","杨","257","Male","[""好他"",""坏他"",""坏我"",""好我""]","[""强他"",""弱他"",""弱我"",""强我""]","","","","","","","","","","","","","","","","","","","","","","","","","","","","","","feedback_test","","","","","","","","",""
"613","","j","psychophysics","76","254002","0.0-8.0-1.0-1.0-0.0-0.33","3","4","4","3","4","4","4","3","4","5","5","1","-2","-1","1","0","1","1","1","4","5","5","4","4","3","3","3","4","4","7","8","6","8","7","7","8","7","8","2","5","4","5","3","4","3","5","5","5","1","4","4","5","3","6","4","3","6","2","5","5","4","5","5","5","5","5","6","6","1","6","4","4","5","5","4","7","3","4","5","631517716984889344","杨","257","Male","[""好他"",""坏他"",""坏我"",""好我""]","[""强他"",""弱他"",""弱我"",""强我""]","","","","","","","","match","","","","","","","","","","key","j","6.060377358490566","768","428","f","false","nonmatch","img/ellipse.png","强他","弱他","prac_ALT2_ability","practice_ability","","","","","","","","",""
"null","<span style='color:red; font-size: 70px;'>错误! </span>","null","html-keyboard-response","77","254503","0.0-8.0-1.0-1.0-0.0-1.33","3","4","4","3","4","4","4","3","4","5","5","1","-2","-1","1","0","1","1","1","4","5","5","4","4","3","3","3","4","4","7","8","6","8","7","7","8","7","8","2","5","4","5","3","4","3","5","5","5","1","4","4","5","3","6","4","3","6","2","5","5","4","5","5","5","5","5","6","6","1","6","4","4","5","5","4","7","3","4","5","631517716984889344","杨","257","Male","[""好他"",""坏他"",""坏我"",""好我""]","[""强他"",""弱他"",""弱我"",""强我""]","","","","","","","","","","","","","","","","","","","","","","","","","","","","","","feedback_test","","","","","","","","",""
"581","","j","psychophysics","78","256085","0.0-8.0-1.0-1.0-0.0-0.34","3","4","4","3","4","4","4","3","4","5","5","1","-2","-1","1","0","1","1","1","4","5","5","4","4","3","3","3","4","4","7","8","6","8","7","7","8","7","8","2","5","4","5","3","4","3","5","5","5","1","4","4","5","3","6","4","3","6","2","5","5","4","5","5","5","5","5","6","6","1","6","4","4","5","5","4","7","3","4","5","631517716984889344","杨","257","Male","[""好他"",""坏他"",""坏我"",""好我""]","[""强他"",""弱他"",""弱我"",""强我""]","","","","","","","","match","","","","","","","","","","key","j","6.060769230769186","768","428","f","false","nonmatch","img/square.png","强我","弱我","prac_ALT2_ability","practice_ability","","","","","","","","",""
"null","<span style='color:red; font-size: 70px;'>错误! </span>","null","html-keyboard-response","79","256586","0.0-8.0-1.0-1.0-0.0-1.34","3","4","4","3","4","4","4","3","4","5","5","1","-2","-1","1","0","1","1","1","4","5","5","4","4","3","3","3","4","4","7","8","6","8","7","7","8","7","8","2","5","4","5","3","4","3","5","5","5","1","4","4","5","3","6","4","3","6","2","5","5","4","5","5","5","5","5","6","6","1","6","4","4","5","5","4","7","3","4","5","631517716984889344","杨","257","Male","[""好他"",""坏他"",""坏我"",""好我""]","[""强他"",""弱他"",""弱我"",""强我""]","","","","","","","","","","","","","","","","","","","","","","","","","","","","","","feedback_test","","","","","","","","",""
"684","","j","psychophysics","80","258271","0.0-8.0-1.0-1.0-0.0-0.35","3","4","4","3","4","4","4","3","4","5","5","1","-2","-1","1","0","1","1","1","4","5","5","4","4","3","3","3","4","4","7","8","6","8","7","7","8","7","8","2","5","4","5","3","4","3","5","5","5","1","4","4","5","3","6","4","3","6","2","5","5","4","5","5","5","5","5","6","6","1","6","4","4","5","5","4","7","3","4","5","631517716984889344","杨","257","Male","[""好他"",""坏他"",""坏我"",""好我""]","[""强他"",""弱他"",""弱我"",""强我""]","","","","","","","","match","","","","","","","","","","key","j","6.060288808664302","768","428","j","true","match","img/pentagon.png","强我","强我","prac_ALT2_ability","practice_ability","","","","","","","","",""
"null","<span style='color:GreenYellow; font-size: 70px;'>正确! </span>","null","html-keyboard-response","81","258772","0.0-8.0-1.0-1.0-0.0-1.35","3","4","4","3","4","4","4","3","4","5","5","1","-2","-1","1","0","1","1","1","4","5","5","4","4","3","3","3","4","4","7","8","6","8","7","7","8","7","8","2","5","4","5","3","4","3","5","5","5","1","4","4","5","3","6","4","3","6","2","5","5","4","5","5","5","5","5","6","6","1","6","4","4","5","5","4","7","3","4","5","631517716984889344","杨","257","Male","[""好他"",""坏他"",""坏我"",""好我""]","[""强他"",""弱他"",""弱我"",""强我""]","","","","","","","","","","","","","","","","","","","","","","","","","","","","","","feedback_test","","","","","","","","",""
"815","","j","psychophysics","82","260588","0.0-8.0-1.0-1.0-0.0-0.36","3","4","4","3","4","4","4","3","4","5","5","1","-2","-1","1","0","1","1","1","4","5","5","4","4","3","3","3","4","4","7","8","6","8","7","7","8","7","8","2","5","4","5","3","4","3","5","5","5","1","4","4","5","3","6","4","3","6","2","5","5","4","5","5","5","5","5","6","6","1","6","4","4","5","5","4","7","3","4","5","631517716984889344","杨","257","Male","[""好他"",""坏他"",""坏我"",""好我""]","[""强他"",""弱他"",""弱我"",""强我""]","","","","","","","","match","","","","","","","","","","key","j","6.060402684563856","768","428","j","true","match","img/square.png","弱我","弱我","prac_ALT2_ability","practice_ability","","","","","","","","",""
"null","<span style='color:GreenYellow; font-size: 70px;'>正确! </span>","null","html-keyboard-response","83","261089","0.0-8.0-1.0-1.0-0.0-1.36","3","4","4","3","4","4","4","3","4","5","5","1","-2","-1","1","0","1","1","1","4","5","5","4","4","3","3","3","4","4","7","8","6","8","7","7","8","7","8","2","5","4","5","3","4","3","5","5","5","1","4","4","5","3","6","4","3","6","2","5","5","4","5","5","5","5","5","6","6","1","6","4","4","5","5","4","7","3","4","5","631517716984889344","杨","257","Male","[""好他"",""坏他"",""坏我"",""好我""]","[""强他"",""弱他"",""弱我"",""强我""]","","","","","","","","","","","","","","","","","","","","","","","","","","","","","","feedback_test","","","","","","","","",""
"914","","j","psychophysics","84","263007","0.0-8.0-1.0-1.0-0.0-0.37","3","4","4","3","4","4","4","3","4","5","5","1","-2","-1","1","0","1","1","1","4","5","5","4","4","3","3","3","4","4","7","8","6","8","7","7","8","7","8","2","5","4","5","3","4","3","5","5","5","1","4","4","5","3","6","4","3","6","2","5","5","4","5","5","5","5","5","6","6","1","6","4","4","5","5","4","7","3","4","5","631517716984889344","杨","257","Male","[""好他"",""坏他"",""坏我"",""好我""]","[""强他"",""弱他"",""弱我"",""强我""]","","","","","","","","match","","","","","","","","","","key","j","6.060634920634847","768","428","f","false","nonmatch","img/diamond.png","弱他","强他","prac_ALT2_ability","practice_ability","","","","","","","","",""
"null","<span style='color:red; font-size: 70px;'>错误! </span>","null","html-keyboard-response","85","263513","0.0-8.0-1.0-1.0-0.0-1.37","3","4","4","3","4","4","4","3","4","5","5","1","-2","-1","1","0","1","1","1","4","5","5","4","4","3","3","3","4","4","7","8","6","8","7","7","8","7","8","2","5","4","5","3","4","3","5","5","5","1","4","4","5","3","6","4","3","6","2","5","5","4","5","5","5","5","5","6","6","1","6","4","4","5","5","4","7","3","4","5","631517716984889344","杨","257","Male","[""好他"",""坏他"",""坏我"",""好我""]","[""强他"",""弱他"",""弱我"",""强我""]","","","","","","","","","","","","","","","","","","","","","","","","","","","","","","feedback_test","","","","","","","","",""
"618","","j","psychophysics","86","265132","0.0-8.0-1.0-1.0-0.0-0.38","3","4","4","3","4","4","4","3","4","5","5","1","-2","-1","1","0","1","1","1","4","5","5","4","4","3","3","3","4","4","7","8","6","8","7","7","8","7","8","2","5","4","5","3","4","3","5","5","5","1","4","4","5","3","6","4","3","6","2","5","5","4","5","5","5","5","5","6","6","1","6","4","4","5","5","4","7","3","4","5","631517716984889344","杨","257","Male","[""好他"",""坏他"",""坏我"",""好我""]","[""强他"",""弱他"",""弱我"",""强我""]","","","","","","","","match","","","","","","","","","","key","j","6.060526315789386","768","428","j","true","match","img/ellipse.png","弱他","弱他","prac_ALT2_ability","practice_ability","","","","","","","","",""
"null","<span style='color:GreenYellow; font-size: 70px;'>正确! </span>","null","html-keyboard-response","87","265633","0.0-8.0-1.0-1.0-0.0-1.38","3","4","4","3","4","4","4","3","4","5","5","1","-2","-1","1","0","1","1","1","4","5","5","4","4","3","3","3","4","4","7","8","6","8","7","7","8","7","8","2","5","4","5","3","4","3","5","5","5","1","4","4","5","3","6","4","3","6","2","5","5","4","5","5","5","5","5","6","6","1","6","4","4","5","5","4","7","3","4","5","631517716984889344","杨","257","Male","[""好他"",""坏他"",""坏我"",""好我""]","[""强他"",""弱他"",""弱我"",""强我""]","","","","","","","","","","","","","","","","","","","","","","","","","","","","","","feedback_test","","","","","","","","",""
"696","","j","psychophysics","88","267330","0.0-8.0-1.0-1.0-0.0-0.39","3","4","4","3","4","4","4","3","4","5","5","1","-2","-1","1","0","1","1","1","4","5","5","4","4","3","3","3","4","4","7","8","6","8","7","7","8","7","8","2","5","4","5","3","4","3","5","5","5","1","4","4","5","3","6","4","3","6","2","5","5","4","5","5","5","5","5","6","6","1","6","4","4","5","5","4","7","3","4","5","631517716984889344","杨","257","Male","[""好他"",""坏他"",""坏我"",""好我""]","[""强他"",""弱他"",""弱我"",""强我""]","","","","","","","","match","","","","","","","","","","key","j","6.060573476702384","768","428","j","true","match","img/square.png","弱我","弱我","prac_ALT2_ability","practice_ability","","","","","","","","",""
"null","<span style='color:GreenYellow; font-size: 70px;'>正确! </span>","null","html-keyboard-response","89","267831","0.0-8.0-1.0-1.0-0.0-1.39","3","4","4","3","4","4","4","3","4","5","5","1","-2","-1","1","0","1","1","1","4","5","5","4","4","3","3","3","4","4","7","8","6","8","7","7","8","7","8","2","5","4","5","3","4","3","5","5","5","1","4","4","5","3","6","4","3","6","2","5","5","4","5","5","5","5","5","6","6","1","6","4","4","5","5","4","7","3","4","5","631517716984889344","杨","257","Male","[""好他"",""坏他"",""坏我"",""好我""]","[""强他"",""弱他"",""弱我"",""强我""]","","","","","","","","","","","","","","","","","","","","","","","","","","","","","","feedback_test","","","","","","","","",""
"632","","j","psychophysics","90","269464","0.0-8.0-1.0-1.0-0.0-0.40","3","4","4","3","4","4","4","3","4","5","5","1","-2","-1","1","0","1","1","1","4","5","5","4","4","3","3","3","4","4","7","8","6","8","7","7","8","7","8","2","5","4","5","3","4","3","5","5","5","1","4","4","5","3","6","4","3","6","2","5","5","4","5","5","5","5","5","6","6","1","6","4","4","5","5","4","7","3","4","5","631517716984889344","杨","257","Male","[""好他"",""坏他"",""坏我"",""好我""]","[""强他"",""弱他"",""弱我"",""强我""]","","","","","","","","match","","","","","","","","","","key","j","6.06059479553899","768","428","f","false","nonmatch","img/ellipse.png","弱我","弱他","prac_ALT2_ability","practice_ability","","","","","","","","",""
"null","<span style='color:red; font-size: 70px;'>错误! </span>","null","html-keyboard-response","91","269965","0.0-8.0-1.0-1.0-0.0-1.40","3","4","4","3","4","4","4","3","4","5","5","1","-2","-1","1","0","1","1","1","4","5","5","4","4","3","3","3","4","4","7","8","6","8","7","7","8","7","8","2","5","4","5","3","4","3","5","5","5","1","4","4","5","3","6","4","3","6","2","5","5","4","5","5","5","5","5","6","6","1","6","4","4","5","5","4","7","3","4","5","631517716984889344","杨","257","Male","[""好他"",""坏他"",""坏我"",""好我""]","[""强他"",""弱他"",""弱我"",""强我""]","","","","","","","","","","","","","","","","","","","","","","","","","","","","","","feedback_test","","","","","","","","",""
"844","","j","psychophysics","92","271810","0.0-8.0-1.0-1.0-0.0-0.41","3","4","4","3","4","4","4","3","4","5","5","1","-2","-1","1","0","1","1","1","4","5","5","4","4","3","3","3","4","4","7","8","6","8","7","7","8","7","8","2","5","4","5","3","4","3","5","5","5","1","4","4","5","3","6","4","3","6","2","5","5","4","5","5","5","5","5","6","6","1","6","4","4","5","5","4","7","3","4","5","631517716984889344","杨","257","Male","[""好他"",""坏他"",""坏我"",""好我""]","[""强他"",""弱他"",""弱我"",""强我""]","","","","","","","","match","","","","","","","","","","key","j","6.060855263157895","768","428","f","false","nonmatch","img/ellipse.png","强我","弱他","prac_ALT2_ability","practice_ability","","","","","","","","",""
"null","<span style='color:red; font-size: 70px;'>错误! </span>","null","html-keyboard-response","93","272311","0.0-8.0-1.0-1.0-0.0-1.41","3","4","4","3","4","4","4","3","4","5","5","1","-2","-1","1","0","1","1","1","4","5","5","4","4","3","3","3","4","4","7","8","6","8","7","7","8","7","8","2","5","4","5","3","4","3","5","5","5","1","4","4","5","3","6","4","3","6","2","5","5","4","5","5","5","5","5","6","6","1","6","4","4","5","5","4","7","3","4","5","631517716984889344","杨","257","Male","[""好他"",""坏他"",""坏我"",""好我""]","[""强他"",""弱他"",""弱我"",""强我""]","","","","","","","","","","","","","","","","","","","","","","","","","","","","","","feedback_test","","","","","","","","",""
"1165","","f","psychophysics","94","274476","0.0-8.0-1.0-1.0-0.0-0.42","3","4","4","3","4","4","4","3","4","5","5","1","-2","-1","1","0","1","1","1","4","5","5","4","4","3","3","3","4","4","7","8","6","8","7","7","8","7","8","2","5","4","5","3","4","3","5","5","5","1","4","4","5","3","6","4","3","6","2","5","5","4","5","5","5","5","5","6","6","1","6","4","4","5","5","4","7","3","4","5","631517716984889344","杨","257","Male","[""好他"",""坏他"",""坏我"",""好我""]","[""强他"",""弱他"",""弱我"",""强我""]","","","","","","","","nonmatch","","","","","","","","","","key","f","6.05674157303374","768","428","j","false","match","img/diamond.png","强他","强他","prac_ALT2_ability","practice_ability","","","","","","","","",""
"null","<span style='color:red; font-size: 70px;'>错误! </span>","null","html-keyboard-response","95","274977","0.0-8.0-1.0-1.0-0.0-1.42","3","4","4","3","4","4","4","3","4","5","5","1","-2","-1","1","0","1","1","1","4","5","5","4","4","3","3","3","4","4","7","8","6","8","7","7","8","7","8","2","5","4","5","3","4","3","5","5","5","1","4","4","5","3","6","4","3","6","2","5","5","4","5","5","5","5","5","6","6","1","6","4","4","5","5","4","7","3","4","5","631517716984889344","杨","257","Male","[""好他"",""坏他"",""坏我"",""好我""]","[""强他"",""弱他"",""弱我"",""强我""]","","","","","","","","","","","","","","","","","","","","","","","","","","","","","","feedback_test","","","","","","","","",""
"834","","f","psychophysics","96","276812","0.0-8.0-1.0-1.0-0.0-0.43","3","4","4","3","4","4","4","3","4","5","5","1","-2","-1","1","0","1","1","1","4","5","5","4","4","3","3","3","4","4","7","8","6","8","7","7","8","7","8","2","5","4","5","3","4","3","5","5","5","1","4","4","5","3","6","4","3","6","2","5","5","4","5","5","5","5","5","6","6","1","6","4","4","5","5","4","7","3","4","5","631517716984889344","杨","257","Male","[""好他"",""坏他"",""坏我"",""好我""]","[""强他"",""弱他"",""弱我"",""强我""]","","","","","","","","nonmatch","","","","","","","","","","key","f","6.05382059800649","768","428","f","true","nonmatch","img/pentagon.png","弱他","强我","prac_ALT2_ability","practice_ability","","","","","","","","",""
"null","<span style='color:GreenYellow; font-size: 70px;'>正确! </span>","null","html-keyboard-response","97","277314","0.0-8.0-1.0-1.0-0.0-1.43","3","4","4","3","4","4","4","3","4","5","5","1","-2","-1","1","0","1","1","1","4","5","5","4","4","3","3","3","4","4","7","8","6","8","7","7","8","7","8","2","5","4","5","3","4","3","5","5","5","1","4","4","5","3","6","4","3","6","2","5","5","4","5","5","5","5","5","6","6","1","6","4","4","5","5","4","7","3","4","5","631517716984889344","杨","257","Male","[""好他"",""坏他"",""坏我"",""好我""]","[""强他"",""弱他"",""弱我"",""强我""]","","","","","","","","","","","","","","","","","","","","","","","","","","","","","","feedback_test","","","","","","","","",""
"894","","j","psychophysics","98","279209","0.0-8.0-1.0-1.0-0.0-0.44","3","4","4","3","4","4","4","3","4","5","5","1","-2","-1","1","0","1","1","1","4","5","5","4","4","3","3","3","4","4","7","8","6","8","7","7","8","7","8","2","5","4","5","3","4","3","5","5","5","1","4","4","5","3","6","4","3","6","2","5","5","4","5","5","5","5","5","6","6","1","6","4","4","5","5","4","7","3","4","5","631517716984889344","杨","257","Male","[""好他"",""坏他"",""坏我"",""好我""]","[""强他"",""弱他"",""弱我"",""强我""]","","","","","","","","match","","","","","","","","","","key","j","6.0604501607716665","768","428","f","false","nonmatch","img/pentagon.png","弱我","强我","prac_ALT2_ability","practice_ability","","","","","","","","",""
"null","<span style='color:red; font-size: 70px;'>错误! </span>","null","html-keyboard-response","99","279709","0.0-8.0-1.0-1.0-0.0-1.44","3","4","4","3","4","4","4","3","4","5","5","1","-2","-1","1","0","1","1","1","4","5","5","4","4","3","3","3","4","4","7","8","6","8","7","7","8","7","8","2","5","4","5","3","4","3","5","5","5","1","4","4","5","3","6","4","3","6","2","5","5","4","5","5","5","5","5","6","6","1","6","4","4","5","5","4","7","3","4","5","631517716984889344","杨","257","Male","[""好他"",""坏他"",""坏我"",""好我""]","[""强他"",""弱他"",""弱我"",""强我""]","","","","","","","","","","","","","","","","","","","","","","","","","","","","","","feedback_test","","","","","","","","",""
"815","","j","psychophysics","100","281525","0.0-8.0-1.0-1.0-0.0-0.45","3","4","4","3","4","4","4","3","4","5","5","1","-2","-1","1","0","1","1","1","4","5","5","4","4","3","3","3","4","4","7","8","6","8","7","7","8","7","8","2","5","4","5","3","4","3","5","5","5","1","4","4","5","3","6","4","3","6","2","5","5","4","5","5","5","5","5","6","6","1","6","4","4","5","5","4","7","3","4","5","631517716984889344","杨","257","Male","[""好他"",""坏他"",""坏我"",""好我""]","[""强他"",""弱他"",""弱我"",""强我""]","","","","","","","","match","","","","","","","","","","key","j","6.0602006688963215","768","428","f","false","nonmatch","img/square.png","强他","弱我","prac_ALT2_ability","practice_ability","","","","","","","","",""
"null","<span style='color:red; font-size: 70px;'>错误! </span>","null","html-keyboard-response","101","282026","0.0-8.0-1.0-1.0-0.0-1.45","3","4","4","3","4","4","4","3","4","5","5","1","-2","-1","1","0","1","1","1","4","5","5","4","4","3","3","3","4","4","7","8","6","8","7","7","8","7","8","2","5","4","5","3","4","3","5","5","5","1","4","4","5","3","6","4","3","6","2","5","5","4","5","5","5","5","5","6","6","1","6","4","4","5","5","4","7","3","4","5","631517716984889344","杨","257","Male","[""好他"",""坏他"",""坏我"",""好我""]","[""强他"",""弱他"",""弱我"",""强我""]","","","","","","","","","","","","","","","","","","","","","","","","","","","","","","feedback_test","","","","","","","","",""
"760","","j","psychophysics","102","283788","0.0-8.0-1.0-1.0-0.0-0.46","3","4","4","3","4","4","4","3","4","5","5","1","-2","-1","1","0","1","1","1","4","5","5","4","4","3","3","3","4","4","7","8","6","8","7","7","8","7","8","2","5","4","5","3","4","3","5","5","5","1","4","4","5","3","6","4","3","6","2","5","5","4","5","5","5","5","5","6","6","1","6","4","4","5","5","4","7","3","4","5","631517716984889344","杨","257","Male","[""好他"",""坏他"",""坏我"",""好我""]","[""强他"",""弱他"",""弱我"",""强我""]","","","","","","","","match","","","","","","","","","","key","j","6.06089965397936","768","428","j","true","match","img/pentagon.png","强我","强我","prac_ALT2_ability","practice_ability","","","","","","","","",""
"null","<span style='color:GreenYellow; font-size: 70px;'>正确! </span>","null","html-keyboard-response","103","284289","0.0-8.0-1.0-1.0-0.0-1.46","3","4","4","3","4","4","4","3","4","5","5","1","-2","-1","1","0","1","1","1","4","5","5","4","4","3","3","3","4","4","7","8","6","8","7","7","8","7","8","2","5","4","5","3","4","3","5","5","5","1","4","4","5","3","6","4","3","6","2","5","5","4","5","5","5","5","5","6","6","1","6","4","4","5","5","4","7","3","4","5","631517716984889344","杨","257","Male","[""好他"",""坏他"",""坏我"",""好我""]","[""强他"",""弱他"",""弱我"",""强我""]","","","","","","","","","","","","","","","","","","","","","","","","","","","","","","feedback_test","","","","","","","","",""
"824","","f","psychophysics","104","286114","0.0-8.0-1.0-1.0-0.0-0.47","3","4","4","3","4","4","4","3","4","5","5","1","-2","-1","1","0","1","1","1","4","5","5","4","4","3","3","3","4","4","7","8","6","8","7","7","8","7","8","2","5","4","5","3","4","3","5","5","5","1","4","4","5","3","6","4","3","6","2","5","5","4","5","5","5","5","5","6","6","1","6","4","4","5","5","4","7","3","4","5","631517716984889344","杨","257","Male","[""好他"",""坏他"",""坏我"",""好我""]","[""强他"",""弱他"",""弱我"",""强我""]","","","","","","","","nonmatch","","","","","","","","","","key","f","6.060333333333256","768","428","j","false","match","img/diamond.png","强他","强他","prac_ALT2_ability","practice_ability","","","","","","","","",""
"null","<span style='color:red; font-size: 70px;'>错误! </span>","null","html-keyboard-response","105","286622","0.0-8.0-1.0-1.0-0.0-1.47","3","4","4","3","4","4","4","3","4","5","5","1","-2","-1","1","0","1","1","1","4","5","5","4","4","3","3","3","4","4","7","8","6","8","7","7","8","7","8","2","5","4","5","3","4","3","5","5","5","1","4","4","5","3","6","4","3","6","2","5","5","4","5","5","5","5","5","6","6","1","6","4","4","5","5","4","7","3","4","5","631517716984889344","杨","257","Male","[""好他"",""坏他"",""坏我"",""好我""]","[""强他"",""弱他"",""弱我"",""强我""]","","","","","","","","","","","","","","","","","","","","","","","","","","","","","","feedback_test","","","","","","","","",""
"13168","<style>.context{color:white; font-size: 35px; line-height:40px}</style>                          <div><p class='context'>您正确回答了54% 的试次。</p><p class='context'>您的平均反应时为816毫秒。</p><p class='context'>恭喜您完成练习。按空格键继续。</p></div>"," ","html-keyboard-response","106","299792","0.0-8.0-1.0-1.0-1.0-0.0","3","4","4","3","4","4","4","3","4","5","5","1","-2","-1","1","0","1","1","1","4","5","5","4","4","3","3","3","4","4","7","8","6","8","7","7","8","7","8","2","5","4","5","3","4","3","5","5","5","1","4","4","5","3","6","4","3","6","2","5","5","4","5","5","5","5","5","6","6","1","6","4","4","5","5","4","7","3","4","5","631517716984889344","杨","257","Male","[""好他"",""坏他"",""坏我"",""好我""]","[""强他"",""弱他"",""弱我"",""强我""]","","","","","","","","","","","","","","","","","","","","","","","","","","","","","","","","","","","","","","",""
"8533","","","instructions","107","308327","0.0-8.0-1.0-1.0-1.0-1.0","3","4","4","3","4","4","4","3","4","5","5","1","-2","-1","1","0","1","1","1","4","5","5","4","4","3","3","3","4","4","7","8","6","8","7","7","8","7","8","2","5","4","5","3","4","3","5","5","5","1","4","4","5","3","6","4","3","6","2","5","5","4","5","5","5","5","5","6","6","1","6","4","4","5","5","4","7","3","4","5","631517716984889344","杨","257","Male","[""好他"",""坏他"",""坏我"",""好我""]","[""强他"",""弱他"",""弱我"",""强我""]","","","","","","","","","","","","","","","","","[{""page_index"":0,""viewing_time"":1653},{""page_index"":1,""viewing_time"":4853},{""page_index"":2,""viewing_time"":2027}]","","","","","","","","","","","","","","","","","","","","","",""
"795","","j","psychophysics","108","310124","0.0-8.0-1.0-1.1-0.1-0.48","3","4","4","3","4","4","4","3","4","5","5","1","-2","-1","1","0","1","1","1","4","5","5","4","4","3","3","3","4","4","7","8","6","8","7","7","8","7","8","2","5","4","5","3","4","3","5","5","5","1","4","4","5","3","6","4","3","6","2","5","5","4","5","5","5","5","5","6","6","1","6","4","4","5","5","4","7","3","4","5","631517716984889344","杨","257","Male","[""好他"",""坏他"",""坏我"",""好我""]","[""强他"",""弱他"",""弱我"",""强我""]","","","","","","","","match","","","","","","","","","","key","j","6.0608108108108105","768","428","j","true","match","img/square.png","弱我","弱我","prac_ALT2_ability","practice_ability","","","","","","","","",""
"null","<span style='color:GreenYellow; font-size: 70px;'>正确! </span>","null","html-keyboard-response","109","310626","0.0-8.0-1.0-1.1-0.1-1.48","3","4","4","3","4","4","4","3","4","5","5","1","-2","-1","1","0","1","1","1","4","5","5","4","4","3","3","3","4","4","7","8","6","8","7","7","8","7","8","2","5","4","5","3","4","3","5","5","5","1","4","4","5","3","6","4","3","6","2","5","5","4","5","5","5","5","5","6","6","1","6","4","4","5","5","4","7","3","4","5","631517716984889344","杨","257","Male","[""好他"",""坏他"",""坏我"",""好我""]","[""强他"",""弱他"",""弱我"",""强我""]","","","","","","","","","","","","","","","","","","","","","","","","","","","","","","feedback_test","","","","","","","","",""
"1010","","j","psychophysics","110","312637","0.0-8.0-1.0-1.1-0.1-0.49","3","4","4","3","4","4","4","3","4","5","5","1","-2","-1","1","0","1","1","1","4","5","5","4","4","3","3","3","4","4","7","8","6","8","7","7","8","7","8","2","5","4","5","3","4","3","5","5","5","1","4","4","5","3","6","4","3","6","2","5","5","4","5","5","5","5","5","6","6","1","6","4","4","5","5","4","7","3","4","5","631517716984889344","杨","257","Male","[""好他"",""坏他"",""坏我"",""好我""]","[""强他"",""弱他"",""弱我"",""强我""]","","","","","","","","match","","","","","","","","","","key","j","6.057575757575758","768","428","j","true","match","img/diamond.png","强他","强他","prac_ALT2_ability","practice_ability","","","","","","","","",""
"null","<span style='color:GreenYellow; font-size: 70px;'>正确! </span>","null","html-keyboard-response","111","313137","0.0-8.0-1.0-1.1-0.1-1.49","3","4","4","3","4","4","4","3","4","5","5","1","-2","-1","1","0","1","1","1","4","5","5","4","4","3","3","3","4","4","7","8","6","8","7","7","8","7","8","2","5","4","5","3","4","3","5","5","5","1","4","4","5","3","6","4","3","6","2","5","5","4","5","5","5","5","5","6","6","1","6","4","4","5","5","4","7","3","4","5","631517716984889344","杨","257","Male","[""好他"",""坏他"",""坏我"",""好我""]","[""强他"",""弱他"",""弱我"",""强我""]","","","","","","","","","","","","","","","","","","","","","","","","","","","","","","feedback_test","","","","","","","","",""
"918","","f","psychophysics","112","315058","0.0-8.0-1.0-1.1-0.1-0.50","3","4","4","3","4","4","4","3","4","5","5","1","-2","-1","1","0","1","1","1","4","5","5","4","4","3","3","3","4","4","7","8","6","8","7","7","8","7","8","2","5","4","5","3","4","3","5","5","5","1","4","4","5","3","6","4","3","6","2","5","5","4","5","5","5","5","5","6","6","1","6","4","4","5","5","4","7","3","4","5","631517716984889344","杨","257","Male","[""好他"",""坏他"",""坏我"",""好我""]","[""强他"",""弱他"",""弱我"",""强我""]","","","","","","","","nonmatch","","","","","","","","","","key","f","6.0604430379746095","768","428","f","true","nonmatch","img/ellipse.png","弱我","弱他","prac_ALT2_ability","practice_ability","","","","","","","","",""
"null","<span style='color:GreenYellow; font-size: 70px;'>正确! </span>","null","html-keyboard-response","113","315560","0.0-8.0-1.0-1.1-0.1-1.50","3","4","4","3","4","4","4","3","4","5","5","1","-2","-1","1","0","1","1","1","4","5","5","4","4","3","3","3","4","4","7","8","6","8","7","7","8","7","8","2","5","4","5","3","4","3","5","5","5","1","4","4","5","3","6","4","3","6","2","5","5","4","5","5","5","5","5","6","6","1","6","4","4","5","5","4","7","3","4","5","631517716984889344","杨","257","Male","[""好他"",""坏他"",""坏我"",""好我""]","[""强他"",""弱他"",""弱我"",""强我""]","","","","","","","","","","","","","","","","","","","","","","","","","","","","","","feedback_test","","","","","","","","",""
"728","","j","psychophysics","114","317288","0.0-8.0-1.0-1.1-0.1-0.51","3","4","4","3","4","4","4","3","4","5","5","1","-2","-1","1","0","1","1","1","4","5","5","4","4","3","3","3","4","4","7","8","6","8","7","7","8","7","8","2","5","4","5","3","4","3","5","5","5","1","4","4","5","3","6","4","3","6","2","5","5","4","5","5","5","5","5","6","6","1","6","4","4","5","5","4","7","3","4","5","631517716984889344","杨","257","Male","[""好他"",""坏他"",""坏我"",""好我""]","[""强他"",""弱他"",""弱我"",""强我""]","","","","","","","","match","","","","","","","","","","key","j","6.060563380281731","768","428","j","true","match","img/pentagon.png","强我","强我","prac_ALT2_ability","practice_ability","","","","","","","","",""
"null","<span style='color:GreenYellow; font-size: 70px;'>正确! </span>","null","html-keyboard-response","115","317789","0.0-8.0-1.0-1.1-0.1-1.51","3","4","4","3","4","4","4","3","4","5","5","1","-2","-1","1","0","1","1","1","4","5","5","4","4","3","3","3","4","4","7","8","6","8","7","7","8","7","8","2","5","4","5","3","4","3","5","5","5","1","4","4","5","3","6","4","3","6","2","5","5","4","5","5","5","5","5","6","6","1","6","4","4","5","5","4","7","3","4","5","631517716984889344","杨","257","Male","[""好他"",""坏他"",""坏我"",""好我""]","[""强他"",""弱他"",""弱我"",""强我""]","","","","","","","","","","","","","","","","","","","","","","","","","","","","","","feedback_test","","","","","","","","",""
"780","","j","psychophysics","116","319570","0.0-8.0-1.0-1.1-0.1-0.52","3","4","4","3","4","4","4","3","4","5","5","1","-2","-1","1","0","1","1","1","4","5","5","4","4","3","3","3","4","4","7","8","6","8","7","7","8","7","8","2","5","4","5","3","4","3","5","5","5","1","4","4","5","3","6","4","3","6","2","5","5","4","5","5","5","5","5","6","6","1","6","4","4","5","5","4","7","3","4","5","631517716984889344","杨","257","Male","[""好他"",""坏他"",""坏我"",""好我""]","[""强他"",""弱他"",""弱我"",""强我""]","","","","","","","","match","","","","","","","","","","key","j","6.060750853242281","768","428","j","true","match","img/ellipse.png","弱他","弱他","prac_ALT2_ability","practice_ability","","","","","","","","",""
"null","<span style='color:GreenYellow; font-size: 70px;'>正确! </span>","null","html-keyboard-response","117","320071","0.0-8.0-1.0-1.1-0.1-1.52","3","4","4","3","4","4","4","3","4","5","5","1","-2","-1","1","0","1","1","1","4","5","5","4","4","3","3","3","4","4","7","8","6","8","7","7","8","7","8","2","5","4","5","3","4","3","5","5","5","1","4","4","5","3","6","4","3","6","2","5","5","4","5","5","5","5","5","6","6","1","6","4","4","5","5","4","7","3","4","5","631517716984889344","杨","257","Male","[""好他"",""坏他"",""坏我"",""好我""]","[""强他"",""弱他"",""弱我"",""强我""]","","","","","","","","","","","","","","","","","","","","","","","","","","","","","","feedback_test","","","","","","","","",""
"891","","j","psychophysics","118","321964","0.0-8.0-1.0-1.1-0.1-0.53","3","4","4","3","4","4","4","3","4","5","5","1","-2","-1","1","0","1","1","1","4","5","5","4","4","3","3","3","4","4","7","8","6","8","7","7","8","7","8","2","5","4","5","3","4","3","5","5","5","1","4","4","5","3","6","4","3","6","2","5","5","4","5","5","5","5","5","6","6","1","6","4","4","5","5","4","7","3","4","5","631517716984889344","杨","257","Male","[""好他"",""坏他"",""坏我"",""好我""]","[""强他"",""弱他"",""弱我"",""强我""]","","","","","","","","match","","","","","","","","","","key","j","6.0604501607716665","768","428","f","false","nonmatch","img/diamond.png","弱他","强他","prac_ALT2_ability","practice_ability","","","","","","","","",""
"null","<span style='color:red; font-size: 70px;'>错误! </span>","null","html-keyboard-response","119","322466","0.0-8.0-1.0-1.1-0.1-1.53","3","4","4","3","4","4","4","3","4","5","5","1","-2","-1","1","0","1","1","1","4","5","5","4","4","3","3","3","4","4","7","8","6","8","7","7","8","7","8","2","5","4","5","3","4","3","5","5","5","1","4","4","5","3","6","4","3","6","2","5","5","4","5","5","5","5","5","6","6","1","6","4","4","5","5","4","7","3","4","5","631517716984889344","杨","257","Male","[""好他"",""坏他"",""坏我"",""好我""]","[""强他"",""弱他"",""弱我"",""强我""]","","","","","","","","","","","","","","","","","","","","","","","","","","","","","","feedback_test","","","","","","","","",""
"772","","f","psychophysics","120","324239","0.0-8.0-1.0-1.1-0.1-0.54","3","4","4","3","4","4","4","3","4","5","5","1","-2","-1","1","0","1","1","1","4","5","5","4","4","3","3","3","4","4","7","8","6","8","7","7","8","7","8","2","5","4","5","3","4","3","5","5","5","1","4","4","5","3","6","4","3","6","2","5","5","4","5","5","5","5","5","6","6","1","6","4","4","5","5","4","7","3","4","5","631517716984889344","杨","257","Male","[""好他"",""坏他"",""坏我"",""好我""]","[""强他"",""弱他"",""弱我"",""强我""]","","","","","","","","nonmatch","","","","","","","","","","key","f","6.060958904109748","768","428","f","true","nonmatch","img/ellipse.png","强我","弱他","prac_ALT2_ability","practice_ability","","","","","","","","",""
"null","<span style='color:GreenYellow; font-size: 70px;'>正确! </span>","null","html-keyboard-response","121","324740","0.0-8.0-1.0-1.1-0.1-1.54","3","4","4","3","4","4","4","3","4","5","5","1","-2","-1","1","0","1","1","1","4","5","5","4","4","3","3","3","4","4","7","8","6","8","7","7","8","7","8","2","5","4","5","3","4","3","5","5","5","1","4","4","5","3","6","4","3","6","2","5","5","4","5","5","5","5","5","6","6","1","6","4","4","5","5","4","7","3","4","5","631517716984889344","杨","257","Male","[""好他"",""坏他"",""坏我"",""好我""]","[""强他"",""弱他"",""弱我"",""强我""]","","","","","","","","","","","","","","","","","","","","","","","","","","","","","","feedback_test","","","","","","","","",""
"651","","j","psychophysics","122","326392","0.0-8.0-1.0-1.1-0.1-0.55","3","4","4","3","4","4","4","3","4","5","5","1","-2","-1","1","0","1","1","1","4","5","5","4","4","3","3","3","4","4","7","8","6","8","7","7","8","7","8","2","5","4","5","3","4","3","5","5","5","1","4","4","5","3","6","4","3","6","2","5","5","4","5","5","5","5","5","6","6","1","6","4","4","5","5","4","7","3","4","5","631517716984889344","杨","257","Male","[""好他"",""坏他"",""坏我"",""好我""]","[""强他"",""弱他"",""弱我"",""强我""]","","","","","","","","match","","","","","","","","","","key","j","6.060661764705882","768","428","f","false","nonmatch","img/diamond.png","弱我","强他","prac_ALT2_ability","practice_ability","","","","","","","","",""
"null","<span style='color:red; font-size: 70px;'>错误! </span>","null","html-keyboard-response","123","326893","0.0-8.0-1.0-1.1-0.1-1.55","3","4","4","3","4","4","4","3","4","5","5","1","-2","-1","1","0","1","1","1","4","5","5","4","4","3","3","3","4","4","7","8","6","8","7","7","8","7","8","2","5","4","5","3","4","3","5","5","5","1","4","4","5","3","6","4","3","6","2","5","5","4","5","5","5","5","5","6","6","1","6","4","4","5","5","4","7","3","4","5","631517716984889344","杨","257","Male","[""好他"",""坏他"",""坏我"",""好我""]","[""强他"",""弱他"",""弱我"",""强我""]","","","","","","","","","","","","","","","","","","","","","","","","","","","","","","feedback_test","","","","","","","","",""
"743","","j","psychophysics","124","328636","0.0-8.0-1.0-1.1-0.1-0.56","3","4","4","3","4","4","4","3","4","5","5","1","-2","-1","1","0","1","1","1","4","5","5","4","4","3","3","3","4","4","7","8","6","8","7","7","8","7","8","2","5","4","5","3","4","3","5","5","5","1","4","4","5","3","6","4","3","6","2","5","5","4","5","5","5","5","5","6","6","1","6","4","4","5","5","4","7","3","4","5","631517716984889344","杨","257","Male","[""好他"",""坏他"",""坏我"",""好我""]","[""强他"",""弱他"",""弱我"",""强我""]","","","","","","","","match","","","","","","","","","","key","j","6.054195804195804","768","428","j","true","match","img/pentagon.png","强我","强我","prac_ALT2_ability","practice_ability","","","","","","","","",""
"null","<span style='color:GreenYellow; font-size: 70px;'>正确! </span>","null","html-keyboard-response","125","329137","0.0-8.0-1.0-1.1-0.1-1.56","3","4","4","3","4","4","4","3","4","5","5","1","-2","-1","1","0","1","1","1","4","5","5","4","4","3","3","3","4","4","7","8","6","8","7","7","8","7","8","2","5","4","5","3","4","3","5","5","5","1","4","4","5","3","6","4","3","6","2","5","5","4","5","5","5","5","5","6","6","1","6","4","4","5","5","4","7","3","4","5","631517716984889344","杨","257","Male","[""好他"",""坏他"",""坏我"",""好我""]","[""强他"",""弱他"",""弱我"",""强我""]","","","","","","","","","","","","","","","","","","","","","","","","","","","","","","feedback_test","","","","","","","","",""
"962","","j","psychophysics","126","331100","0.0-8.0-1.0-1.1-0.1-0.57","3","4","4","3","4","4","4","3","4","5","5","1","-2","-1","1","0","1","1","1","4","5","5","4","4","3","3","3","4","4","7","8","6","8","7","7","8","7","8","2","5","4","5","3","4","3","5","5","5","1","4","4","5","3","6","4","3","6","2","5","5","4","5","5","5","5","5","6","6","1","6","4","4","5","5","4","7","3","4","5","631517716984889344","杨","257","Male","[""好他"",""坏他"",""坏我"",""好我""]","[""强他"",""弱他"",""弱我"",""强我""]","","","","","","","","match","","","","","","","","","","key","j","6.060681114551011","768","428","j","true","match","img/square.png","弱我","弱我","prac_ALT2_ability","practice_ability","","","","","","","","",""
"null","<span style='color:GreenYellow; font-size: 70px;'>正确! </span>","null","html-keyboard-response","127","331601","0.0-8.0-1.0-1.1-0.1-1.57","3","4","4","3","4","4","4","3","4","5","5","1","-2","-1","1","0","1","1","1","4","5","5","4","4","3","3","3","4","4","7","8","6","8","7","7","8","7","8","2","5","4","5","3","4","3","5","5","5","1","4","4","5","3","6","4","3","6","2","5","5","4","5","5","5","5","5","6","6","1","6","4","4","5","5","4","7","3","4","5","631517716984889344","杨","257","Male","[""好他"",""坏他"",""坏我"",""好我""]","[""强他"",""弱他"",""弱我"",""强我""]","","","","","","","","","","","","","","","","","","","","","","","","","","","","","","feedback_test","","","","","","","","",""
"885","","f","psychophysics","128","333487","0.0-8.0-1.0-1.1-0.1-0.58","3","4","4","3","4","4","4","3","4","5","5","1","-2","-1","1","0","1","1","1","4","5","5","4","4","3","3","3","4","4","7","8","6","8","7","7","8","7","8","2","5","4","5","3","4","3","5","5","5","1","4","4","5","3","6","4","3","6","2","5","5","4","5","5","5","5","5","6","6","1","6","4","4","5","5","4","7","3","4","5","631517716984889344","杨","257","Male","[""好他"",""坏他"",""坏我"",""好我""]","[""强他"",""弱他"",""弱我"",""强我""]","","","","","","","","nonmatch","","","","","","","","","","key","f","6.060645161290285","768","428","f","true","nonmatch","img/pentagon.png","弱他","强我","prac_ALT2_ability","practice_ability","","","","","","","","",""
"null","<span style='color:GreenYellow; font-size: 70px;'>正确! </span>","null","html-keyboard-response","129","333988","0.0-8.0-1.0-1.1-0.1-1.58","3","4","4","3","4","4","4","3","4","5","5","1","-2","-1","1","0","1","1","1","4","5","5","4","4","3","3","3","4","4","7","8","6","8","7","7","8","7","8","2","5","4","5","3","4","3","5","5","5","1","4","4","5","3","6","4","3","6","2","5","5","4","5","5","5","5","5","6","6","1","6","4","4","5","5","4","7","3","4","5","631517716984889344","杨","257","Male","[""好他"",""坏他"",""坏我"",""好我""]","[""强他"",""弱他"",""弱我"",""强我""]","","","","","","","","","","","","","","","","","","","","","","","","","","","","","","feedback_test","","","","","","","","",""
"766","","f","psychophysics","130","335756","0.0-8.0-1.0-1.1-0.1-0.59","3","4","4","3","4","4","4","3","4","5","5","1","-2","-1","1","0","1","1","1","4","5","5","4","4","3","3","3","4","4","7","8","6","8","7","7","8","7","8","2","5","4","5","3","4","3","5","5","5","1","4","4","5","3","6","4","3","6","2","5","5","4","5","5","5","5","5","6","6","1","6","4","4","5","5","4","7","3","4","5","631517716984889344","杨","257","Male","[""好他"",""坏他"",""坏我"",""好我""]","[""强他"",""弱他"",""弱我"",""强我""]","","","","","","","","nonmatch","","","","","","","","","","key","f","6.060481099656277","768","428","j","false","match","img/square.png","弱我","弱我","prac_ALT2_ability","practice_ability","","","","","","","","",""
"null","<span style='color:red; font-size: 70px;'>错误! </span>","null","html-keyboard-response","131","336257","0.0-8.0-1.0-1.1-0.1-1.59","3","4","4","3","4","4","4","3","4","5","5","1","-2","-1","1","0","1","1","1","4","5","5","4","4","3","3","3","4","4","7","8","6","8","7","7","8","7","8","2","5","4","5","3","4","3","5","5","5","1","4","4","5","3","6","4","3","6","2","5","5","4","5","5","5","5","5","6","6","1","6","4","4","5","5","4","7","3","4","5","631517716984889344","杨","257","Male","[""好他"",""坏他"",""坏我"",""好我""]","[""强他"",""弱他"",""弱我"",""强我""]","","","","","","","","","","","","","","","","","","","","","","","","","","","","","","feedback_test","","","","","","","","",""
"1023","","j","psychophysics","132","338281","0.0-8.0-1.0-1.1-0.1-0.60","3","4","4","3","4","4","4","3","4","5","5","1","-2","-1","1","0","1","1","1","4","5","5","4","4","3","3","3","4","4","7","8","6","8","7","7","8","7","8","2","5","4","5","3","4","3","5","5","5","1","4","4","5","3","6","4","3","6","2","5","5","4","5","5","5","5","5","6","6","1","6","4","4","5","5","4","7","3","4","5","631517716984889344","杨","257","Male","[""好他"",""坏他"",""坏我"",""好我""]","[""强他"",""弱他"",""弱我"",""强我""]","","","","","","","","match","","","","","","","","","","key","j","6.060843373494011","768","428","j","true","match","img/diamond.png","强他","强他","prac_ALT2_ability","practice_ability","","","","","","","","",""
"null","<span style='color:GreenYellow; font-size: 70px;'>正确! </span>","null","html-keyboard-response","133","338783","0.0-8.0-1.0-1.1-0.1-1.60","3","4","4","3","4","4","4","3","4","5","5","1","-2","-1","1","0","1","1","1","4","5","5","4","4","3","3","3","4","4","7","8","6","8","7","7","8","7","8","2","5","4","5","3","4","3","5","5","5","1","4","4","5","3","6","4","3","6","2","5","5","4","5","5","5","5","5","6","6","1","6","4","4","5","5","4","7","3","4","5","631517716984889344","杨","257","Male","[""好他"",""坏他"",""坏我"",""好我""]","[""强他"",""弱他"",""弱我"",""强我""]","","","","","","","","","","","","","","","","","","","","","","","","","","","","","","feedback_test","","","","","","","","",""
"1080","","f","psychophysics","134","340864","0.0-8.0-1.0-1.1-0.1-0.61","3","4","4","3","4","4","4","3","4","5","5","1","-2","-1","1","0","1","1","1","4","5","5","4","4","3","3","3","4","4","7","8","6","8","7","7","8","7","8","2","5","4","5","3","4","3","5","5","5","1","4","4","5","3","6","4","3","6","2","5","5","4","5","5","5","5","5","6","6","1","6","4","4","5","5","4","7","3","4","5","631517716984889344","杨","257","Male","[""好他"",""坏他"",""坏我"",""好我""]","[""强他"",""弱他"",""弱我"",""强我""]","","","","","","","","nonmatch","","","","","","","","","","key","f","6.060641399416876","768","428","f","true","nonmatch","img/square.png","弱他","弱我","prac_ALT2_ability","practice_ability","","","","","","","","",""
"null","<span style='color:GreenYellow; font-size: 70px;'>正确! </span>","null","html-keyboard-response","135","341365","0.0-8.0-1.0-1.1-0.1-1.61","3","4","4","3","4","4","4","3","4","5","5","1","-2","-1","1","0","1","1","1","4","5","5","4","4","3","3","3","4","4","7","8","6","8","7","7","8","7","8","2","5","4","5","3","4","3","5","5","5","1","4","4","5","3","6","4","3","6","2","5","5","4","5","5","5","5","5","6","6","1","6","4","4","5","5","4","7","3","4","5","631517716984889344","杨","257","Male","[""好他"",""坏他"",""坏我"",""好我""]","[""强他"",""弱他"",""弱我"",""强我""]","","","","","","","","","","","","","","","","","","","","","","","","","","","","","","feedback_test","","","","","","","","",""
"974","","f","psychophysics","136","343340","0.0-8.0-1.0-1.1-0.1-0.62","3","4","4","3","4","4","4","3","4","5","5","1","-2","-1","1","0","1","1","1","4","5","5","4","4","3","3","3","4","4","7","8","6","8","7","7","8","7","8","2","5","4","5","3","4","3","5","5","5","1","4","4","5","3","6","4","3","6","2","5","5","4","5","5","5","5","5","6","6","1","6","4","4","5","5","4","7","3","4","5","631517716984889344","杨","257","Male","[""好他"",""坏他"",""坏我"",""好我""]","[""强他"",""弱他"",""弱我"",""强我""]","","","","","","","","nonmatch","","","","","","","","","","key","f","6.060615384615421","768","428","f","true","nonmatch","img/diamond.png","强我","强他","prac_ALT2_ability","practice_ability","","","","","","","","",""
"null","<span style='color:GreenYellow; font-size: 70px;'>正确! </span>","null","html-keyboard-response","137","343841","0.0-8.0-1.0-1.1-0.1-1.62","3","4","4","3","4","4","4","3","4","5","5","1","-2","-1","1","0","1","1","1","4","5","5","4","4","3","3","3","4","4","7","8","6","8","7","7","8","7","8","2","5","4","5","3","4","3","5","5","5","1","4","4","5","3","6","4","3","6","2","5","5","4","5","5","5","5","5","6","6","1","6","4","4","5","5","4","7","3","4","5","631517716984889344","杨","257","Male","[""好他"",""坏他"",""坏我"",""好我""]","[""强他"",""弱他"",""弱我"",""强我""]","","","","","","","","","","","","","","","","","","","","","","","","","","","","","","feedback_test","","","","","","","","",""
