"rt","stimulus","response","trial_type","trial_index","time_elapsed","internal_node_id","swb_1","swb_2","swb_3","swb_4","swb_5","LOT_1","LOT_2","LOT_3","LOT_4","LOT_5","LOT_6","IPC_1","IPC_2","IPC_3","IPC_4","IPC_5","IPC_6","IPC_7","IPC_8","MorIden_1","MorIden_2","MorIden_3","MorIden_4","MorIden_5","MorIden_6","MorIden_7","MorIden_8","MorIden_9","MorIden_10","moralSeImag_1","moralSeImag_2","moralSeImag_3","moralSeImag_4","moralSeImag_5","moralSeImag_6","moralSeImag_7","moralSeImag_8","moralSeImag_9","sde_1","sde_2","sde_3","sde_4","sde_5","sde_6","sde_7","sde_8","sde_9","sde_10","trap2","sde_11","sde_12","sde_13","sde_14","sde_15","sde_16","sde_17","sde_18","sde_19","sde_20","IM_1","IM_2","IM_3","IM_4","IM_5","IM_6","IM_7","IM_8","IM_9","IM_10","IM_11","IM_12","IM_13","IM_14","IM_15","IM_16","IM_17","IM_18","IM_19","IM_20","subj_idx","friend_name","ParticipantID","Sex","Word","Word2","value","success","timeout","failed_images","failed_audio","failed_video","user_agent","responses","item_order","radio_event_ids","radio_event_times","key_event_times","mouse_event_times","straightlining","zigzagging","honeypot","task_id","screen_id","time_stamp","response_type","key_press","avg_frame_time","center_x","center_y","person","word","valence","domain","math","correct_response","correct","status","view_history","identity","duration","Image","condition","question_order","trap2_item"
"1431","
   <p><div style='color:white; font-size: 25px'>您好，欢迎参加本次实验。</div></p>
   <p><div style='color:white; font-size: 25px'>为充分保障您的权利，请确保您已经知晓并同意《参与实验同意书》以及《数据公开知情同意书》。</div></p>
   <p><div style='color:white; font-size: 25px'>如果您未见过上述内容，请咨询实验员。</div></p>
   <p style='color:white; font-size: 25px'>如果您选择继续实验，则表示您已经清楚两份知情同意书的内容并同意。</p>
   <p><div style = ""color: pink;font-size:30px;"">请确保您记得day0的实验编号，您将在本次实验输入该编号，若您忘记，请咨询实验员后作答。</div></p>
   <p><div style = ""color:lightblue;font-size:25px;"">请您尽可能认真地作答，我们将依据您在各问卷和按键任务中的作答质量发放报酬。</div></p>
   <p> <div style = ""color: green""><按空格键至下页></div> </p>
   "," ","html-keyboard-response","0","1433","0.0-0.0","6","5","6","4","2","5","3","4","4","5","5","1","0","-1","0","1","0","1","0","5","4","5","5","5","4","4","5","4","4","4","6","3","6","3","2","4","2","3","6","3","4","3","6","3","3","2","5","4","1","3","2","5","3","1","5","2","4","6","3","2","3","2","1","2","3","3","7","3","7","3","2","5","1","1","1","3","3","2","3","717817858293235712","王","27","Female","[""好我"",""好她"",""坏她"",""坏我""]","[""强我"",""强她"",""弱她"",""弱我""]","","","","","","","","","","","","","","","","","","","","","","","","","","","","","","","","","","","","","","",""
"","","","call-function","1","1434","0.0-1.0-0.0","6","5","6","4","2","5","3","4","4","5","5","1","0","-1","0","1","0","1","0","5","4","5","5","5","4","4","5","4","4","4","6","3","6","3","2","4","2","3","6","3","4","3","6","3","3","2","5","4","1","3","2","5","3","1","5","2","4","6","3","2","3","2","1","2","3","3","7","3","7","3","2","5","1","1","1","3","3","2","3","717817858293235712","王","27","Female","[""好我"",""好她"",""坏她"",""坏我""]","[""强我"",""强她"",""弱她"",""弱我""]","","","","","","","","","","","","","","","","","","","","","","","","","","","","","","","","","","","","","","",""
"39328","","[{""name"":""Sex"",""value"":""1""},{""name"":""friend_name"",""value"":""王""},{""name"":""ParticipantID"",""value"":""27""}]","survey-html-form","2","40763","0.0-1.0-1.0","6","5","6","4","2","5","3","4","4","5","5","1","0","-1","0","1","0","1","0","5","4","5","5","5","4","4","5","4","4","4","6","3","6","3","2","4","2","3","6","3","4","3","6","3","3","2","5","4","1","3","2","5","3","1","5","2","4","6","3","2","3","2","1","2","3","3","7","3","7","3","2","5","1","1","1","3","3","2","3","717817858293235712","王","27","Female","[""好我"",""好她"",""坏她"",""坏我""]","[""强我"",""强她"",""弱她"",""弱我""]","","","","","","","","","","","","","","","","","","","","","","","","","","","","","","","","","","","","","","",""
"","","","preload","3","40993","0.0-2.0","6","5","6","4","2","5","3","4","4","5","5","1","0","-1","0","1","0","1","0","5","4","5","5","5","4","4","5","4","4","4","6","3","6","3","2","4","2","3","6","3","4","3","6","3","3","2","5","4","1","3","2","5","3","1","5","2","4","6","3","2","3","2","1","2","3","3","7","3","7","3","2","5","1","1","1","3","3","2","3","717817858293235712","王","27","Female","[""好我"",""好她"",""坏她"",""坏我""]","[""强我"",""强她"",""弱她"",""弱我""]","","true","false","[]","[]","[]","","","","","","","","","","","","","","","","","","","","","","","","","","","","","","","","",""
"","","","fullscreen","4","41955","0.0-3.0","6","5","6","4","2","5","3","4","4","5","5","1","0","-1","0","1","0","1","0","5","4","5","5","5","4","4","5","4","4","4","6","3","6","3","2","4","2","3","6","3","4","3","6","3","3","2","5","4","1","3","2","5","3","1","5","2","4","6","3","2","3","2","1","2","3","3","7","3","7","3","2","5","1","1","1","3","3","2","3","717817858293235712","王","27","Female","[""好我"",""好她"",""坏她"",""坏我""]","[""强我"",""强她"",""弱她"",""弱我""]","","true","","","","","{}","","","","","","","","","","","","","","","","","","","","","","","","","","","","","","","",""
"14859.699999988079","","{""Q01"":""6"",""Q02"":""5"",""Q03"":""6"",""Q04"":""4"",""Q05"":""2""}","survey-template","5","56816","0.0-4.0","6","5","6","4","2","5","3","4","4","5","5","1","0","-1","0","1","0","1","0","5","4","5","5","5","4","4","5","4","4","4","6","3","6","3","2","4","2","3","6","3","4","3","6","3","3","2","5","4","1","3","2","5","3","1","5","2","4","6","3","2","3","2","1","2","3","3","7","3","7","3","2","5","1","1","1","3","3","2","3","717817858293235712","王","27","Female","[""好我"",""好她"",""坏她"",""坏我""]","[""强我"",""强她"",""弱她"",""弱我""]","","","","","","","","{""Q01"":""6"",""Q02"":""5"",""Q03"":""6"",""Q04"":""4"",""Q05"":""2""}","[0,1,2,3,4]","[""Q01"",""Q02"",""Q03"",""Q04"",""Q05"",""Q05""]","[3788.199999988079,4696.399999976158,8504.5,10906.5,12895.099999964237,13562.599999964237]","[]","[2594.699999988079,3788.199999988079,4696.399999976158,6448.599999964237,8504.5,9776.399999976158,10906.5,12294,12895.099999964237,13562.599999964237,14858.699999988079]","0.4","0.5","0","","","","","","","","","","","","","","","","","","","","","","",""
"15263.100000023842","","{""Q01"":""5"",""Q02"":""3"",""Q03"":""4"",""Q04"":""4"",""Q05"":""5"",""Q06"":""5""}","survey-template","6","72083","0.0-5.0","6","5","6","4","2","5","3","4","4","5","5","1","0","-1","0","1","0","1","0","5","4","5","5","5","4","4","5","4","4","4","6","3","6","3","2","4","2","3","6","3","4","3","6","3","3","2","5","4","1","3","2","5","3","1","5","2","4","6","3","2","3","2","1","2","3","3","7","3","7","3","2","5","1","1","1","3","3","2","3","717817858293235712","王","27","Female","[""好我"",""好她"",""坏她"",""坏我""]","[""强我"",""强她"",""弱她"",""弱我""]","","","","","","","","{""Q01"":""5"",""Q02"":""3"",""Q03"":""4"",""Q04"":""4"",""Q05"":""5"",""Q06"":""5""}","[0,1,2,3,4,5]","[""Q01"",""Q02"",""Q02"",""Q03"",""Q04"",""Q05"",""Q06""]","[2210.699999988079,3960.800000011921,5072.5,6212.600000023842,9252.699999988079,11954.100000023842,14214.600000023842]","[]","[2210.699999988079,3960.800000011921,5072.5,6212.600000023842,9252.699999988079,10942.5,11954.100000023842,14214.600000023842,15262.300000011921]","0.3333333333333333","0.6","0","","","","","","","","","","","","","","","","","","","","","","",""
"22472.5","","{""Q01"":""1"",""Q02"":""0"",""Q03"":""-1"",""Q04"":""0"",""Q05"":""1"",""Q06"":""0"",""Q07"":""1"",""Q08"":""0""}","survey-template","7","94558","0.0-6.0","6","5","6","4","2","5","3","4","4","5","5","1","0","-1","0","1","0","1","0","5","4","5","5","5","4","4","5","4","4","4","6","3","6","3","2","4","2","3","6","3","4","3","6","3","3","2","5","4","1","3","2","5","3","1","5","2","4","6","3","2","3","2","1","2","3","3","7","3","7","3","2","5","1","1","1","3","3","2","3","717817858293235712","王","27","Female","[""好我"",""好她"",""坏她"",""坏我""]","[""强我"",""强她"",""弱她"",""弱我""]","","","","","","","","{""Q01"":""1"",""Q02"":""0"",""Q03"":""-1"",""Q04"":""0"",""Q05"":""1"",""Q06"":""0"",""Q07"":""1"",""Q08"":""0""}","[0,1,2,3,4,5,6,7]","[""Q01"",""Q02"",""Q03"",""Q04"",""Q05"",""Q05"",""Q05"",""Q06"",""Q07"",""Q08""]","[4434.899999976158,6239,9153.300000011921,11001.199999988079,13337,14125.099999964237,15569,17939.5,20066.80000001192,21682.80000001192]","[]","[3055,4434.899999976158,6239,9153.300000011921,11001.199999988079,13337,14125.099999964237,14989,15569,17939.5,20066.80000001192,21682.80000001192,22471.30000001192]","0.5","1","0","","","","","","","","","","","","","","","","","","","","","","",""
"81858","
    <p><div style='color:white;font-size:35px; line-height:20px;'>词汇评估任务</div></p><br>
    <p><div style='color:white;font-size:25px; line-height:20px;'>请再次回忆该亲密的朋友，你们至少2年前就认识了，并且最近2年经常见面。</div></p>
    <p><div style='color:white;font-size:25px; line-height:20px;'>在本实验中，您将会看到一些形容词。</div></p>
    <p><div style='color:yellow;font-size:25px; line-height:20px;'>您的任务是判断这些形容词是否符合对您自己或您的朋友的描述。</div></p><p style='font-size:35px'>符合按<span style=""color:lightgreen""> j 键</span>，不符合按<span style=""color:red""> f 键</span></p>","0","html-button-response","8","176419","0.0-7.0-0.0","6","5","6","4","2","5","3","4","4","5","5","1","0","-1","0","1","0","1","0","5","4","5","5","5","4","4","5","4","4","4","6","3","6","3","2","4","2","3","6","3","4","3","6","3","3","2","5","4","1","3","2","5","3","1","5","2","4","6","3","2","3","2","1","2","3","3","7","3","7","3","2","5","1","1","1","3","3","2","3","717817858293235712","王","27","Female","[""好我"",""好她"",""坏她"",""坏我""]","[""强我"",""强她"",""弱她"",""弱我""]","","","","","","","","","","","","","","","","","SRET_EW","EW_instructions","Sun Jan 07 2024 13:01:40 GMT+0800 (中国标准时间)","","","","","","","","","","","","","","","","","","","",""
"null","","null","psychophysics","9","179423","0.0-7.0-1.0-0.0","6","5","6","4","2","5","3","4","4","5","5","1","0","-1","0","1","0","1","0","5","4","5","5","5","4","4","5","4","4","4","6","3","6","3","2","4","2","3","6","3","4","3","6","3","3","2","5","4","1","3","2","5","3","1","5","2","4","6","3","2","3","2","1","2","3","3","7","3","7","3","2","5","1","1","1","3","3","2","3","717817858293235712","王","27","Female","[""好我"",""好她"",""坏她"",""坏我""]","[""强我"",""强她"",""弱她"",""弱我""]","","","","","","","","","","","","","","","","","SRET_EW","EW_practice","","key","null","16.666666666666668","853.3333333333334","476","自己","严谨","Positive","ability","","","","","","","","","","",""
"1487","","j","psychophysics","10","181912","0.0-7.0-1.0-0.1","6","5","6","4","2","5","3","4","4","5","5","1","0","-1","0","1","0","1","0","5","4","5","5","5","4","4","5","4","4","4","6","3","6","3","2","4","2","3","6","3","4","3","6","3","3","2","5","4","1","3","2","5","3","1","5","2","4","6","3","2","3","2","1","2","3","3","7","3","7","3","2","5","1","1","1","3","3","2","3","717817858293235712","王","27","Female","[""好我"",""好她"",""坏她"",""坏我""]","[""强我"",""强她"",""弱她"",""弱我""]","","","","","","","","yes","","","","","","","","","SRET_EW","EW_practice","","key","j","16.664189189189308","853.3333333333334","476","朋友","徇私","Negative","morality","","","","","","","","","","",""
"926","","f","psychophysics","11","183840","0.0-7.0-1.0-0.2","6","5","6","4","2","5","3","4","4","5","5","1","0","-1","0","1","0","1","0","5","4","5","5","5","4","4","5","4","4","4","6","3","6","3","2","4","2","3","6","3","4","3","6","3","3","2","5","4","1","3","2","5","3","1","5","2","4","6","3","2","3","2","1","2","3","3","7","3","7","3","2","5","1","1","1","3","3","2","3","717817858293235712","王","27","Female","[""好我"",""好她"",""坏她"",""坏我""]","[""强我"",""强她"",""弱她"",""弱我""]","","","","","","","","no","","","","","","","","","SRET_EW","EW_practice","","key","f","16.66608695652179","853.3333333333334","476","自己","刻板","Negative","ability","","","","","","","","","","",""
"1463","","f","psychophysics","12","186304","0.0-7.0-1.0-0.3","6","5","6","4","2","5","3","4","4","5","5","1","0","-1","0","1","0","1","0","5","4","5","5","5","4","4","5","4","4","4","6","3","6","3","2","4","2","3","6","3","4","3","6","3","3","2","5","4","1","3","2","5","3","1","5","2","4","6","3","2","3","2","1","2","3","3","7","3","7","3","2","5","1","1","1","3","3","2","3","717817858293235712","王","27","Female","[""好我"",""好她"",""坏她"",""坏我""]","[""强我"",""强她"",""弱她"",""弱我""]","","","","","","","","no","","","","","","","","","SRET_EW","EW_practice","","key","f","16.666666666666668","853.3333333333334","476","朋友","忠实","Positive","morality","","","","","","","","","","",""
"4366","
    <p><div style='color:white;font-size:35px; line-height:20px;'>请您再次阅读实验要求</div></p><br>
    <p><div style='color:white;font-size:25px; line-height:20px;'>请回忆某一个亲密的朋友，你们至少2年前就认识了，并且最近2年经常见面。</div></p>
    <p><div style='color:white;font-size:25px; line-height:20px;'>在本实验中，您将会看到一些形容词。</div></p>
    <p><div style='color:yellow;font-size:25px; line-height:20px;'>您的任务是判断这些形容词是否符合对您自己或您的朋友的描述。</div></p>
    <p><div class='footer' style='font-size:25px; line-height:20px;'>如果对本实验还有不清楚之处，请立即向实验员咨询。</p><p style='font-size:25px; line-height:20px;'>如果您明白了规则：</p><p style='font-size:22px; line-height:20px;'>请按 继续 进入正式实验</p>
    </div>
    <p style='font-size:35px'>符合按<span style=""color:lightgreen""> j 键</span>，不符合按<span style=""color:red""> f 键</span></p>","0","html-button-response","13","190671","0.0-7.0-2.0","6","5","6","4","2","5","3","4","4","5","5","1","0","-1","0","1","0","1","0","5","4","5","5","5","4","4","5","4","4","4","6","3","6","3","2","4","2","3","6","3","4","3","6","3","3","2","5","4","1","3","2","5","3","1","5","2","4","6","3","2","3","2","1","2","3","3","7","3","7","3","2","5","1","1","1","3","3","2","3","717817858293235712","王","27","Female","[""好我"",""好她"",""坏她"",""坏我""]","[""强我"",""强她"",""弱她"",""弱我""]","","","","","","","","","","","","","","","","","SRET_EW","prac_instructions","Sun Jan 07 2024 13:01:40 GMT+0800 (中国标准时间)","","","","","","","","","","","","","","","","","","","",""
"1959","","j","psychophysics","14","193632","0.0-7.0-3.0-0.0","6","5","6","4","2","5","3","4","4","5","5","1","0","-1","0","1","0","1","0","5","4","5","5","5","4","4","5","4","4","4","6","3","6","3","2","4","2","3","6","3","4","3","6","3","3","2","5","4","1","3","2","5","3","1","5","2","4","6","3","2","3","2","1","2","3","3","7","3","7","3","2","5","1","1","1","3","3","2","3","717817858293235712","王","27","Female","[""好我"",""好她"",""坏她"",""坏我""]","[""强我"",""强她"",""弱她"",""弱我""]","","","","","","","","yes","","","","","","","","","SRET","EW_formal","","key","j","16.665536723163775","853.3333333333334","476","自己","坚贞","Positive","morality","","","","","","","","","","",""
"1372","","f","psychophysics","15","196005","0.0-7.0-3.0-0.1","6","5","6","4","2","5","3","4","4","5","5","1","0","-1","0","1","0","1","0","5","4","5","5","5","4","4","5","4","4","4","6","3","6","3","2","4","2","3","6","3","4","3","6","3","3","2","5","4","1","3","2","5","3","1","5","2","4","6","3","2","3","2","1","2","3","3","7","3","7","3","2","5","1","1","1","3","3","2","3","717817858293235712","王","27","Female","[""好我"",""好她"",""坏她"",""坏我""]","[""强我"",""强她"",""弱她"",""弱我""]","","","","","","","","no","","","","","","","","","SRET","EW_formal","","key","f","16.66690140845058","853.3333333333334","476","朋友","迷糊","Negative","ability","","","","","","","","","","",""
"1527","","j","psychophysics","16","198532","0.0-7.0-3.0-0.2","6","5","6","4","2","5","3","4","4","5","5","1","0","-1","0","1","0","1","0","5","4","5","5","5","4","4","5","4","4","4","6","3","6","3","2","4","2","3","6","3","4","3","6","3","3","2","5","4","1","3","2","5","3","1","5","2","4","6","3","2","3","2","1","2","3","3","7","3","7","3","2","5","1","1","1","3","3","2","3","717817858293235712","王","27","Female","[""好我"",""好她"",""坏她"",""坏我""]","[""强我"",""强她"",""弱她"",""弱我""]","","","","","","","","yes","","","","","","","","","SRET","EW_formal","","key","j","16.664666666666744","853.3333333333334","476","自己","说谎","Negative","morality","","","","","","","","","","",""
"null","","null","psychophysics","17","201535","0.0-7.0-3.0-0.3","6","5","6","4","2","5","3","4","4","5","5","1","0","-1","0","1","0","1","0","5","4","5","5","5","4","4","5","4","4","4","6","3","6","3","2","4","2","3","6","3","4","3","6","3","3","2","5","4","1","3","2","5","3","1","5","2","4","6","3","2","3","2","1","2","3","3","7","3","7","3","2","5","1","1","1","3","3","2","3","717817858293235712","王","27","Female","[""好我"",""好她"",""坏她"",""坏我""]","[""强我"",""强她"",""弱她"",""弱我""]","","","","","","","","","","","","","","","","","SRET","EW_formal","","key","null","16.666111111111242","853.3333333333334","476","朋友","务实","Positive","ability","","","","","","","","","","",""
"744","","j","psychophysics","18","203280","0.0-7.0-3.0-0.4","6","5","6","4","2","5","3","4","4","5","5","1","0","-1","0","1","0","1","0","5","4","5","5","5","4","4","5","4","4","4","6","3","6","3","2","4","2","3","6","3","4","3","6","3","3","2","5","4","1","3","2","5","3","1","5","2","4","6","3","2","3","2","1","2","3","3","7","3","7","3","2","5","1","1","1","3","3","2","3","717817858293235712","王","27","Female","[""好我"",""好她"",""坏她"",""坏我""]","[""强我"",""强她"",""弱她"",""弱我""]","","","","","","","","yes","","","","","","","","","SRET","EW_formal","","key","j","16.66504854368932","853.3333333333334","476","朋友","坦荡","Positive","morality","","","","","","","","","","",""
"647","","j","psychophysics","19","204928","0.0-7.0-3.0-0.5","6","5","6","4","2","5","3","4","4","5","5","1","0","-1","0","1","0","1","0","5","4","5","5","5","4","4","5","4","4","4","6","3","6","3","2","4","2","3","6","3","4","3","6","3","3","2","5","4","1","3","2","5","3","1","5","2","4","6","3","2","3","2","1","2","3","3","7","3","7","3","2","5","1","1","1","3","3","2","3","717817858293235712","王","27","Female","[""好我"",""好她"",""坏她"",""坏我""]","[""强我"",""强她"",""弱她"",""弱我""]","","","","","","","","yes","","","","","","","","","SRET","EW_formal","","key","j","16.667346938775452","853.3333333333334","476","朋友","高洁","Positive","morality","","","","","","","","","","",""
"395","","j","psychophysics","20","206324","0.0-7.0-3.0-0.6","6","5","6","4","2","5","3","4","4","5","5","1","0","-1","0","1","0","1","0","5","4","5","5","5","4","4","5","4","4","4","6","3","6","3","2","4","2","3","6","3","4","3","6","3","3","2","5","4","1","3","2","5","3","1","5","2","4","6","3","2","3","2","1","2","3","3","7","3","7","3","2","5","1","1","1","3","3","2","3","717817858293235712","王","27","Female","[""好我"",""好她"",""坏她"",""坏我""]","[""强我"",""强她"",""弱她"",""弱我""]","","","","","","","","yes","","","","","","","","","SRET","EW_formal","","key","j","16.667469879518002","853.3333333333334","476","自己","忠勇","Positive","morality","","","","","","","","","","",""
"544","","f","psychophysics","21","207869","0.0-7.0-3.0-0.7","6","5","6","4","2","5","3","4","4","5","5","1","0","-1","0","1","0","1","0","5","4","5","5","5","4","4","5","4","4","4","6","3","6","3","2","4","2","3","6","3","4","3","6","3","3","2","5","4","1","3","2","5","3","1","5","2","4","6","3","2","3","2","1","2","3","3","7","3","7","3","2","5","1","1","1","3","3","2","3","717817858293235712","王","27","Female","[""好我"",""好她"",""坏她"",""坏我""]","[""强我"",""强她"",""弱她"",""弱我""]","","","","","","","","no","","","","","","","","","SRET","EW_formal","","key","f","16.667391304347763","853.3333333333334","476","朋友","迂拙","Negative","ability","","","","","","","","","","",""
"615","","j","psychophysics","22","209485","0.0-7.0-3.0-0.8","6","5","6","4","2","5","3","4","4","5","5","1","0","-1","0","1","0","1","0","5","4","5","5","5","4","4","5","4","4","4","6","3","6","3","2","4","2","3","6","3","4","3","6","3","3","2","5","4","1","3","2","5","3","1","5","2","4","6","3","2","3","2","1","2","3","3","7","3","7","3","2","5","1","1","1","3","3","2","3","717817858293235712","王","27","Female","[""好我"",""好她"",""坏她"",""坏我""]","[""强我"",""强她"",""弱她"",""弱我""]","","","","","","","","yes","","","","","","","","","SRET","EW_formal","","key","j","16.664583333333212","853.3333333333334","476","自己","仗义","Positive","morality","","","","","","","","","","",""
"734","","f","psychophysics","23","211220","0.0-7.0-3.0-0.9","6","5","6","4","2","5","3","4","4","5","5","1","0","-1","0","1","0","1","0","5","4","5","5","5","4","4","5","4","4","4","6","3","6","3","2","4","2","3","6","3","4","3","6","3","3","2","5","4","1","3","2","5","3","1","5","2","4","6","3","2","3","2","1","2","3","3","7","3","7","3","2","5","1","1","1","3","3","2","3","717817858293235712","王","27","Female","[""好我"",""好她"",""坏她"",""坏我""]","[""强我"",""强她"",""弱她"",""弱我""]","","","","","","","","no","","","","","","","","","SRET","EW_formal","","key","f","16.666019417475784","853.3333333333334","476","朋友","才尽","Negative","ability","","","","","","","","","","",""
"598","","j","psychophysics","24","212820","0.0-7.0-3.0-0.10","6","5","6","4","2","5","3","4","4","5","5","1","0","-1","0","1","0","1","0","5","4","5","5","5","4","4","5","4","4","4","6","3","6","3","2","4","2","3","6","3","4","3","6","3","3","2","5","4","1","3","2","5","3","1","5","2","4","6","3","2","3","2","1","2","3","3","7","3","7","3","2","5","1","1","1","3","3","2","3","717817858293235712","王","27","Female","[""好我"",""好她"",""坏她"",""坏我""]","[""强我"",""强她"",""弱她"",""弱我""]","","","","","","","","yes","","","","","","","","","SRET","EW_formal","","key","j","16.664210526315852","853.3333333333334","476","朋友","勤奋","Positive","ability","","","","","","","","","","",""
"923","","j","psychophysics","25","214744","0.0-7.0-3.0-0.11","6","5","6","4","2","5","3","4","4","5","5","1","0","-1","0","1","0","1","0","5","4","5","5","5","4","4","5","4","4","4","6","3","6","3","2","4","2","3","6","3","4","3","6","3","3","2","5","4","1","3","2","5","3","1","5","2","4","6","3","2","3","2","1","2","3","3","7","3","7","3","2","5","1","1","1","3","3","2","3","717817858293235712","王","27","Female","[""好我"",""好她"",""坏她"",""坏我""]","[""强我"",""强她"",""弱她"",""弱我""]","","","","","","","","yes","","","","","","","","","SRET","EW_formal","","key","j","16.665789473684416","853.3333333333334","476","朋友","谦逊","Positive","morality","","","","","","","","","","",""
"851","","f","psychophysics","26","216596","0.0-7.0-3.0-0.12","6","5","6","4","2","5","3","4","4","5","5","1","0","-1","0","1","0","1","0","5","4","5","5","5","4","4","5","4","4","4","6","3","6","3","2","4","2","3","6","3","4","3","6","3","3","2","5","4","1","3","2","5","3","1","5","2","4","6","3","2","3","2","1","2","3","3","7","3","7","3","2","5","1","1","1","3","3","2","3","717817858293235712","王","27","Female","[""好我"",""好她"",""坏她"",""坏我""]","[""强我"",""强她"",""弱她"",""弱我""]","","","","","","","","no","","","","","","","","","SRET","EW_formal","","key","f","16.666363636363794","853.3333333333334","476","朋友","怠惰","Negative","ability","","","","","","","","","","",""
"719","","f","psychophysics","27","218316","0.0-7.0-3.0-0.13","6","5","6","4","2","5","3","4","4","5","5","1","0","-1","0","1","0","1","0","5","4","5","5","5","4","4","5","4","4","4","6","3","6","3","2","4","2","3","6","3","4","3","6","3","3","2","5","4","1","3","2","5","3","1","5","2","4","6","3","2","3","2","1","2","3","3","7","3","7","3","2","5","1","1","1","3","3","2","3","717817858293235712","王","27","Female","[""好我"",""好她"",""坏她"",""坏我""]","[""强我"",""强她"",""弱她"",""弱我""]","","","","","","","","no","","","","","","","","","SRET","EW_formal","","key","f","16.66960784313714","853.3333333333334","476","自己","贪腐","Negative","morality","","","","","","","","","","",""
"604","","f","psychophysics","28","219932","0.0-7.0-3.0-0.14","6","5","6","4","2","5","3","4","4","5","5","1","0","-1","0","1","0","1","0","5","4","5","5","5","4","4","5","4","4","4","6","3","6","3","2","4","2","3","6","3","4","3","6","3","3","2","5","4","1","3","2","5","3","1","5","2","4","6","3","2","3","2","1","2","3","3","7","3","7","3","2","5","1","1","1","3","3","2","3","717817858293235712","王","27","Female","[""好我"",""好她"",""坏她"",""坏我""]","[""强我"",""强她"",""弱她"",""弱我""]","","","","","","","","no","","","","","","","","","SRET","EW_formal","","key","f","16.667708333333092","853.3333333333334","476","自己","卑鄙","Negative","morality","","","","","","","","","","",""
"555","","f","psychophysics","29","221487","0.0-7.0-3.0-0.15","6","5","6","4","2","5","3","4","4","5","5","1","0","-1","0","1","0","1","0","5","4","5","5","5","4","4","5","4","4","4","6","3","6","3","2","4","2","3","6","3","4","3","6","3","3","2","5","4","1","3","2","5","3","1","5","2","4","6","3","2","3","2","1","2","3","3","7","3","7","3","2","5","1","1","1","3","3","2","3","717817858293235712","王","27","Female","[""好我"",""好她"",""坏她"",""坏我""]","[""强我"",""强她"",""弱她"",""弱我""]","","","","","","","","no","","","","","","","","","SRET","EW_formal","","key","f","16.666666666666668","853.3333333333334","476","自己","奸诈","Negative","morality","","","","","","","","","","",""
"663","","f","psychophysics","30","223152","0.0-7.0-3.0-0.16","6","5","6","4","2","5","3","4","4","5","5","1","0","-1","0","1","0","1","0","5","4","5","5","5","4","4","5","4","4","4","6","3","6","3","2","4","2","3","6","3","4","3","6","3","3","2","5","4","1","3","2","5","3","1","5","2","4","6","3","2","3","2","1","2","3","3","7","3","7","3","2","5","1","1","1","3","3","2","3","717817858293235712","王","27","Female","[""好我"",""好她"",""坏她"",""坏我""]","[""强我"",""强她"",""弱她"",""弱我""]","","","","","","","","no","","","","","","","","","SRET","EW_formal","","key","f","16.66565656565651","853.3333333333334","476","自己","驽钝","Negative","ability","","","","","","","","","","",""
"580","","j","psychophysics","31","224732","0.0-7.0-3.0-0.17","6","5","6","4","2","5","3","4","4","5","5","1","0","-1","0","1","0","1","0","5","4","5","5","5","4","4","5","4","4","4","6","3","6","3","2","4","2","3","6","3","4","3","6","3","3","2","5","4","1","3","2","5","3","1","5","2","4","6","3","2","3","2","1","2","3","3","7","3","7","3","2","5","1","1","1","3","3","2","3","717817858293235712","王","27","Female","[""好我"",""好她"",""坏她"",""坏我""]","[""强我"",""强她"",""弱她"",""弱我""]","","","","","","","","yes","","","","","","","","","SRET","EW_formal","","key","j","16.666666666666668","853.3333333333334","476","自己","专注","Positive","ability","","","","","","","","","","",""
"707","","f","psychophysics","32","226440","0.0-7.0-3.0-0.18","6","5","6","4","2","5","3","4","4","5","5","1","0","-1","0","1","0","1","0","5","4","5","5","5","4","4","5","4","4","4","6","3","6","3","2","4","2","3","6","3","4","3","6","3","3","2","5","4","1","3","2","5","3","1","5","2","4","6","3","2","3","2","1","2","3","3","7","3","7","3","2","5","1","1","1","3","3","2","3","717817858293235712","王","27","Female","[""好我"",""好她"",""坏她"",""坏我""]","[""强我"",""强她"",""弱她"",""弱我""]","","","","","","","","no","","","","","","","","","SRET","EW_formal","","key","f","16.667647058823302","853.3333333333334","476","朋友","无赖","Negative","morality","","","","","","","","","","",""
"803","","j","psychophysics","33","228244","0.0-7.0-3.0-0.19","6","5","6","4","2","5","3","4","4","5","5","1","0","-1","0","1","0","1","0","5","4","5","5","5","4","4","5","4","4","4","6","3","6","3","2","4","2","3","6","3","4","3","6","3","3","2","5","4","1","3","2","5","3","1","5","2","4","6","3","2","3","2","1","2","3","3","7","3","7","3","2","5","1","1","1","3","3","2","3","717817858293235712","王","27","Female","[""好我"",""好她"",""坏她"",""坏我""]","[""强我"",""强她"",""弱她"",""弱我""]","","","","","","","","yes","","","","","","","","","SRET","EW_formal","","key","j","16.66635514018708","853.3333333333334","476","自己","刻苦","Positive","ability","","","","","","","","","","",""
"639","","j","psychophysics","34","229884","0.0-7.0-3.0-0.20","6","5","6","4","2","5","3","4","4","5","5","1","0","-1","0","1","0","1","0","5","4","5","5","5","4","4","5","4","4","4","6","3","6","3","2","4","2","3","6","3","4","3","6","3","3","2","5","4","1","3","2","5","3","1","5","2","4","6","3","2","3","2","1","2","3","3","7","3","7","3","2","5","1","1","1","3","3","2","3","717817858293235712","王","27","Female","[""好我"",""好她"",""坏她"",""坏我""]","[""强我"",""强她"",""弱她"",""弱我""]","","","","","","","","yes","","","","","","","","","SRET","EW_formal","","key","j","16.6653061224488","853.3333333333334","476","自己","厚道","Positive","morality","","","","","","","","","","",""
"926","","f","psychophysics","35","231812","0.0-7.0-3.0-0.21","6","5","6","4","2","5","3","4","4","5","5","1","0","-1","0","1","0","1","0","5","4","5","5","5","4","4","5","4","4","4","6","3","6","3","2","4","2","3","6","3","4","3","6","3","3","2","5","4","1","3","2","5","3","1","5","2","4","6","3","2","3","2","1","2","3","3","7","3","7","3","2","5","1","1","1","3","3","2","3","717817858293235712","王","27","Female","[""好我"",""好她"",""坏她"",""坏我""]","[""强我"",""强她"",""弱她"",""弱我""]","","","","","","","","no","","","","","","","","","SRET","EW_formal","","key","f","16.66578947368416","853.3333333333334","476","自己","邪恶","Negative","morality","","","","","","","","","","",""
"1206","","j","psychophysics","36","234020","0.0-7.0-3.0-0.22","6","5","6","4","2","5","3","4","4","5","5","1","0","-1","0","1","0","1","0","5","4","5","5","5","4","4","5","4","4","4","6","3","6","3","2","4","2","3","6","3","4","3","6","3","3","2","5","4","1","3","2","5","3","1","5","2","4","6","3","2","3","2","1","2","3","3","7","3","7","3","2","5","1","1","1","3","3","2","3","717817858293235712","王","27","Female","[""好我"",""好她"",""坏她"",""坏我""]","[""强我"",""强她"",""弱她"",""弱我""]","","","","","","","","yes","","","","","","","","","SRET","EW_formal","","key","j","16.66515151515165","853.3333333333334","476","朋友","文明","Positive","morality","","","","","","","","","","",""
"983","","f","psychophysics","37","236004","0.0-7.0-3.0-0.23","6","5","6","4","2","5","3","4","4","5","5","1","0","-1","0","1","0","1","0","5","4","5","5","5","4","4","5","4","4","4","6","3","6","3","2","4","2","3","6","3","4","3","6","3","3","2","5","4","1","3","2","5","3","1","5","2","4","6","3","2","3","2","1","2","3","3","7","3","7","3","2","5","1","1","1","3","3","2","3","717817858293235712","王","27","Female","[""好我"",""好她"",""坏她"",""坏我""]","[""强我"",""强她"",""弱她"",""弱我""]","","","","","","","","no","","","","","","","","","SRET","EW_formal","","key","f","16.66440677966097","853.3333333333334","476","朋友","废物","Negative","ability","","","","","","","","","","",""
"579","","j","psychophysics","38","237584","0.0-7.0-3.0-0.24","6","5","6","4","2","5","3","4","4","5","5","1","0","-1","0","1","0","1","0","5","4","5","5","5","4","4","5","4","4","4","6","3","6","3","2","4","2","3","6","3","4","3","6","3","3","2","5","4","1","3","2","5","3","1","5","2","4","6","3","2","3","2","1","2","3","3","7","3","7","3","2","5","1","1","1","3","3","2","3","717817858293235712","王","27","Female","[""好我"",""好她"",""坏她"",""坏我""]","[""强我"",""强她"",""弱她"",""弱我""]","","","","","","","","yes","","","","","","","","","SRET","EW_formal","","key","j","16.664893617021278","853.3333333333334","476","朋友","忠义","Positive","morality","","","","","","","","","","",""
"632","","j","psychophysics","39","239217","0.0-7.0-3.0-0.25","6","5","6","4","2","5","3","4","4","5","5","1","0","-1","0","1","0","1","0","5","4","5","5","5","4","4","5","4","4","4","6","3","6","3","2","4","2","3","6","3","4","3","6","3","3","2","5","4","1","3","2","5","3","1","5","2","4","6","3","2","3","2","1","2","3","3","7","3","7","3","2","5","1","1","1","3","3","2","3","717817858293235712","王","27","Female","[""好我"",""好她"",""坏她"",""坏我""]","[""强我"",""强她"",""弱她"",""弱我""]","","","","","","","","yes","","","","","","","","","SRET","EW_formal","","key","j","16.669072164948393","853.3333333333334","476","朋友","果决","Positive","ability","","","","","","","","","","",""
"483","","j","psychophysics","40","240700","0.0-7.0-3.0-0.26","6","5","6","4","2","5","3","4","4","5","5","1","0","-1","0","1","0","1","0","5","4","5","5","5","4","4","5","4","4","4","6","3","6","3","2","4","2","3","6","3","4","3","6","3","3","2","5","4","1","3","2","5","3","1","5","2","4","6","3","2","3","2","1","2","3","3","7","3","7","3","2","5","1","1","1","3","3","2","3","717817858293235712","王","27","Female","[""好我"",""好她"",""坏她"",""坏我""]","[""强我"",""强她"",""弱她"",""弱我""]","","","","","","","","yes","","","","","","","","","SRET","EW_formal","","key","j","16.664772727272727","853.3333333333334","476","朋友","高明","Positive","ability","","","","","","","","","","",""
"509","","j","psychophysics","41","242212","0.0-7.0-3.0-0.27","6","5","6","4","2","5","3","4","4","5","5","1","0","-1","0","1","0","1","0","5","4","5","5","5","4","4","5","4","4","4","6","3","6","3","2","4","2","3","6","3","4","3","6","3","3","2","5","4","1","3","2","5","3","1","5","2","4","6","3","2","3","2","1","2","3","3","7","3","7","3","2","5","1","1","1","3","3","2","3","717817858293235712","王","27","Female","[""好我"",""好她"",""坏她"",""坏我""]","[""强我"",""强她"",""弱她"",""弱我""]","","","","","","","","yes","","","","","","","","","SRET","EW_formal","","key","j","16.665168539325972","853.3333333333334","476","朋友","懂行","Positive","ability","","","","","","","","","","",""
"574","","f","psychophysics","42","243787","0.0-7.0-3.0-0.28","6","5","6","4","2","5","3","4","4","5","5","1","0","-1","0","1","0","1","0","5","4","5","5","5","4","4","5","4","4","4","6","3","6","3","2","4","2","3","6","3","4","3","6","3","3","2","5","4","1","3","2","5","3","1","5","2","4","6","3","2","3","2","1","2","3","3","7","3","7","3","2","5","1","1","1","3","3","2","3","717817858293235712","王","27","Female","[""好我"",""好她"",""坏她"",""坏我""]","[""强我"",""强她"",""弱她"",""弱我""]","","","","","","","","no","","","","","","","","","SRET","EW_formal","","key","f","16.665957446808264","853.3333333333334","476","朋友","小人","Negative","morality","","","","","","","","","","",""
"447","","j","psychophysics","43","245236","0.0-7.0-3.0-0.29","6","5","6","4","2","5","3","4","4","5","5","1","0","-1","0","1","0","1","0","5","4","5","5","5","4","4","5","4","4","4","6","3","6","3","2","4","2","3","6","3","4","3","6","3","3","2","5","4","1","3","2","5","3","1","5","2","4","6","3","2","3","2","1","2","3","3","7","3","7","3","2","5","1","1","1","3","3","2","3","717817858293235712","王","27","Female","[""好我"",""好她"",""坏她"",""坏我""]","[""强我"",""强她"",""弱她"",""弱我""]","","","","","","","","yes","","","","","","","","","SRET","EW_formal","","key","j","16.665116279069903","853.3333333333334","476","朋友","坚持","Positive","ability","","","","","","","","","","",""
"395","","j","psychophysics","44","246632","0.0-7.0-3.0-0.30","6","5","6","4","2","5","3","4","4","5","5","1","0","-1","0","1","0","1","0","5","4","5","5","5","4","4","5","4","4","4","6","3","6","3","2","4","2","3","6","3","4","3","6","3","3","2","5","4","1","3","2","5","3","1","5","2","4","6","3","2","3","2","1","2","3","3","7","3","7","3","2","5","1","1","1","3","3","2","3","717817858293235712","王","27","Female","[""好我"",""好她"",""坏她"",""坏我""]","[""强我"",""强她"",""弱她"",""弱我""]","","","","","","","","yes","","","","","","","","","SRET","EW_formal","","key","j","16.664634146341463","853.3333333333334","476","朋友","好心","Positive","morality","","","","","","","","","","",""
"419","","j","psychophysics","45","248052","0.0-7.0-3.0-0.31","6","5","6","4","2","5","3","4","4","5","5","1","0","-1","0","1","0","1","0","5","4","5","5","5","4","4","5","4","4","4","6","3","6","3","2","4","2","3","6","3","4","3","6","3","3","2","5","4","1","3","2","5","3","1","5","2","4","6","3","2","3","2","1","2","3","3","7","3","7","3","2","5","1","1","1","3","3","2","3","717817858293235712","王","27","Female","[""好我"",""好她"",""坏她"",""坏我""]","[""强我"",""强她"",""弱她"",""弱我""]","","","","","","","","yes","","","","","","","","","SRET","EW_formal","","key","j","16.667058823529207","853.3333333333334","476","自己","廉明","Positive","morality","","","","","","","","","","",""
"414","","j","psychophysics","46","249480","0.0-7.0-3.0-0.32","6","5","6","4","2","5","3","4","4","5","5","1","0","-1","0","1","0","1","0","5","4","5","5","5","4","4","5","4","4","4","6","3","6","3","2","4","2","3","6","3","4","3","6","3","3","2","5","4","1","3","2","5","3","1","5","2","4","6","3","2","3","2","1","2","3","3","7","3","7","3","2","5","1","1","1","3","3","2","3","717817858293235712","王","27","Female","[""好我"",""好她"",""坏她"",""坏我""]","[""强我"",""强她"",""弱她"",""弱我""]","","","","","","","","yes","","","","","","","","","SRET","EW_formal","","key","j","16.667857142857212","853.3333333333334","476","朋友","逞强","Negative","ability","","","","","","","","","","",""
"442","","j","psychophysics","47","250924","0.0-7.0-3.0-0.33","6","5","6","4","2","5","3","4","4","5","5","1","0","-1","0","1","0","1","0","5","4","5","5","5","4","4","5","4","4","4","6","3","6","3","2","4","2","3","6","3","4","3","6","3","3","2","5","4","1","3","2","5","3","1","5","2","4","6","3","2","3","2","1","2","3","3","7","3","7","3","2","5","1","1","1","3","3","2","3","717817858293235712","王","27","Female","[""好我"",""好她"",""坏她"",""坏我""]","[""强我"",""强她"",""弱她"",""弱我""]","","","","","","","","yes","","","","","","","","","SRET","EW_formal","","key","j","16.666279069767306","853.3333333333334","476","朋友","奉献","Positive","morality","","","","","","","","","","",""
"408","","j","psychophysics","48","252333","0.0-7.0-3.0-0.34","6","5","6","4","2","5","3","4","4","5","5","1","0","-1","0","1","0","1","0","5","4","5","5","5","4","4","5","4","4","4","6","3","6","3","2","4","2","3","6","3","4","3","6","3","3","2","5","4","1","3","2","5","3","1","5","2","4","6","3","2","3","2","1","2","3","3","7","3","7","3","2","5","1","1","1","3","3","2","3","717817858293235712","王","27","Female","[""好我"",""好她"",""坏她"",""坏我""]","[""强我"",""强她"",""弱她"",""弱我""]","","","","","","","","yes","","","","","","","","","SRET","EW_formal","","key","j","16.666666666666668","853.3333333333334","476","朋友","博学","Positive","ability","","","","","","","","","","",""
"411","","j","psychophysics","49","253744","0.0-7.0-3.0-0.35","6","5","6","4","2","5","3","4","4","5","5","1","0","-1","0","1","0","1","0","5","4","5","5","5","4","4","5","4","4","4","6","3","6","3","2","4","2","3","6","3","4","3","6","3","3","2","5","4","1","3","2","5","3","1","5","2","4","6","3","2","3","2","1","2","3","3","7","3","7","3","2","5","1","1","1","3","3","2","3","717817858293235712","王","27","Female","[""好我"",""好她"",""坏她"",""坏我""]","[""强我"",""强她"",""弱她"",""弱我""]","","","","","","","","yes","","","","","","","","","SRET","EW_formal","","key","j","16.667469879518002","853.3333333333334","476","自己","礼貌","Positive","morality","","","","","","","","","","",""
"1067","","j","psychophysics","50","255812","0.0-7.0-3.0-0.36","6","5","6","4","2","5","3","4","4","5","5","1","0","-1","0","1","0","1","0","5","4","5","5","5","4","4","5","4","4","4","6","3","6","3","2","4","2","3","6","3","4","3","6","3","3","2","5","4","1","3","2","5","3","1","5","2","4","6","3","2","3","2","1","2","3","3","7","3","7","3","2","5","1","1","1","3","3","2","3","717817858293235712","王","27","Female","[""好我"",""好她"",""坏她"",""坏我""]","[""强我"",""强她"",""弱她"",""弱我""]","","","","","","","","yes","","","","","","","","","SRET","EW_formal","","key","j","16.665853658536538","853.3333333333334","476","朋友","混账","Negative","morality","","","","","","","","","","",""
"603","","f","psychophysics","51","257416","0.0-7.0-3.0-0.37","6","5","6","4","2","5","3","4","4","5","5","1","0","-1","0","1","0","1","0","5","4","5","5","5","4","4","5","4","4","4","6","3","6","3","2","4","2","3","6","3","4","3","6","3","3","2","5","4","1","3","2","5","3","1","5","2","4","6","3","2","3","2","1","2","3","3","7","3","7","3","2","5","1","1","1","3","3","2","3","717817858293235712","王","27","Female","[""好我"",""好她"",""坏她"",""坏我""]","[""强我"",""强她"",""弱她"",""弱我""]","","","","","","","","no","","","","","","","","","SRET","EW_formal","","key","f","16.665624999999938","853.3333333333334","476","自己","罪恶","Negative","morality","","","","","","","","","","",""
"849","","j","psychophysics","52","259268","0.0-7.0-3.0-0.38","6","5","6","4","2","5","3","4","4","5","5","1","0","-1","0","1","0","1","0","5","4","5","5","5","4","4","5","4","4","4","6","3","6","3","2","4","2","3","6","3","4","3","6","3","3","2","5","4","1","3","2","5","3","1","5","2","4","6","3","2","3","2","1","2","3","3","7","3","7","3","2","5","1","1","1","3","3","2","3","717817858293235712","王","27","Female","[""好我"",""好她"",""坏她"",""坏我""]","[""强我"",""强她"",""弱她"",""弱我""]","","","","","","","","yes","","","","","","","","","SRET","EW_formal","","key","j","16.66636363636353","853.3333333333334","476","自己","君子","Positive","morality","","","","","","","","","","",""
"571","","j","psychophysics","53","260840","0.0-7.0-3.0-0.39","6","5","6","4","2","5","3","4","4","5","5","1","0","-1","0","1","0","1","0","5","4","5","5","5","4","4","5","4","4","4","6","3","6","3","2","4","2","3","6","3","4","3","6","3","3","2","5","4","1","3","2","5","3","1","5","2","4","6","3","2","3","2","1","2","3","3","7","3","7","3","2","5","1","1","1","3","3","2","3","717817858293235712","王","27","Female","[""好我"",""好她"",""坏她"",""坏我""]","[""强我"",""强她"",""弱她"",""弱我""]","","","","","","","","yes","","","","","","","","","SRET","EW_formal","","key","j","16.666666666666668","853.3333333333334","476","朋友","肯干","Positive","ability","","","","","","","","","","",""
"692","","f","psychophysics","54","262533","0.0-7.0-3.0-0.40","6","5","6","4","2","5","3","4","4","5","5","1","0","-1","0","1","0","1","0","5","4","5","5","5","4","4","5","4","4","4","6","3","6","3","2","4","2","3","6","3","4","3","6","3","3","2","5","4","1","3","2","5","3","1","5","2","4","6","3","2","3","2","1","2","3","3","7","3","7","3","2","5","1","1","1","3","3","2","3","717817858293235712","王","27","Female","[""好我"",""好她"",""坏她"",""坏我""]","[""强我"",""强她"",""弱她"",""弱我""]","","","","","","","","no","","","","","","","","","SRET","EW_formal","","key","f","16.666336633663253","853.3333333333334","476","自己","不孝","Negative","morality","","","","","","","","","","",""
"634","","f","psychophysics","55","264168","0.0-7.0-3.0-0.41","6","5","6","4","2","5","3","4","4","5","5","1","0","-1","0","1","0","1","0","5","4","5","5","5","4","4","5","4","4","4","6","3","6","3","2","4","2","3","6","3","4","3","6","3","3","2","5","4","1","3","2","5","3","1","5","2","4","6","3","2","3","2","1","2","3","3","7","3","7","3","2","5","1","1","1","3","3","2","3","717817858293235712","王","27","Female","[""好我"",""好她"",""坏她"",""坏我""]","[""强我"",""强她"",""弱她"",""弱我""]","","","","","","","","no","","","","","","","","","SRET","EW_formal","","key","f","16.663917525772835","853.3333333333334","476","朋友","腐败","Negative","morality","","","","","","","","","","",""
"444","","j","psychophysics","56","265612","0.0-7.0-3.0-0.42","6","5","6","4","2","5","3","4","4","5","5","1","0","-1","0","1","0","1","0","5","4","5","5","5","4","4","5","4","4","4","6","3","6","3","2","4","2","3","6","3","4","3","6","3","3","2","5","4","1","3","2","5","3","1","5","2","4","6","3","2","3","2","1","2","3","3","7","3","7","3","2","5","1","1","1","3","3","2","3","717817858293235712","王","27","Female","[""好我"",""好她"",""坏她"",""坏我""]","[""强我"",""强她"",""弱她"",""弱我""]","","","","","","","","yes","","","","","","","","","SRET","EW_formal","","key","j","16.6658823529409","853.3333333333334","476","自己","忠诚","Positive","morality","","","","","","","","","","",""
"506","","j","psychophysics","57","267120","0.0-7.0-3.0-0.43","6","5","6","4","2","5","3","4","4","5","5","1","0","-1","0","1","0","1","0","5","4","5","5","5","4","4","5","4","4","4","6","3","6","3","2","4","2","3","6","3","4","3","6","3","3","2","5","4","1","3","2","5","3","1","5","2","4","6","3","2","3","2","1","2","3","3","7","3","7","3","2","5","1","1","1","3","3","2","3","717817858293235712","王","27","Female","[""好我"",""好她"",""坏她"",""坏我""]","[""强我"",""强她"",""弱她"",""弱我""]","","","","","","","","yes","","","","","","","","","SRET","EW_formal","","key","j","16.666666666666668","853.3333333333334","476","自己","浅薄","Negative","ability","","","","","","","","","","",""
"682","","f","psychophysics","58","268804","0.0-7.0-3.0-0.44","6","5","6","4","2","5","3","4","4","5","5","1","0","-1","0","1","0","1","0","5","4","5","5","5","4","4","5","4","4","4","6","3","6","3","2","4","2","3","6","3","4","3","6","3","3","2","5","4","1","3","2","5","3","1","5","2","4","6","3","2","3","2","1","2","3","3","7","3","7","3","2","5","1","1","1","3","3","2","3","717817858293235712","王","27","Female","[""好我"",""好她"",""坏她"",""坏我""]","[""强我"",""强她"",""弱她"",""弱我""]","","","","","","","","no","","","","","","","","","SRET","EW_formal","","key","f","16.665","853.3333333333334","476","朋友","全才","Positive","ability","","","","","","","","","","",""
"871","","f","psychophysics","59","270676","0.0-7.0-3.0-0.45","6","5","6","4","2","5","3","4","4","5","5","1","0","-1","0","1","0","1","0","5","4","5","5","5","4","4","5","4","4","4","6","3","6","3","2","4","2","3","6","3","4","3","6","3","3","2","5","4","1","3","2","5","3","1","5","2","4","6","3","2","3","2","1","2","3","3","7","3","7","3","2","5","1","1","1","3","3","2","3","717817858293235712","王","27","Female","[""好我"",""好她"",""坏她"",""坏我""]","[""强我"",""强她"",""弱她"",""弱我""]","","","","","","","","no","","","","","","","","","SRET","EW_formal","","key","f","16.665765765765975","853.3333333333334","476","自己","独断","Negative","ability","","","","","","","","","","",""
"634","","f","psychophysics","60","272312","0.0-7.0-3.0-0.46","6","5","6","4","2","5","3","4","4","5","5","1","0","-1","0","1","0","1","0","5","4","5","5","5","4","4","5","4","4","4","6","3","6","3","2","4","2","3","6","3","4","3","6","3","3","2","5","4","1","3","2","5","3","1","5","2","4","6","3","2","3","2","1","2","3","3","7","3","7","3","2","5","1","1","1","3","3","2","3","717817858293235712","王","27","Female","[""好我"",""好她"",""坏她"",""坏我""]","[""强我"",""强她"",""弱她"",""弱我""]","","","","","","","","no","","","","","","","","","SRET","EW_formal","","key","f","16.66597938144306","853.3333333333334","476","朋友","无私","Positive","morality","","","","","","","","","","",""
"539","","j","psychophysics","61","273852","0.0-7.0-3.0-0.47","6","5","6","4","2","5","3","4","4","5","5","1","0","-1","0","1","0","1","0","5","4","5","5","5","4","4","5","4","4","4","6","3","6","3","2","4","2","3","6","3","4","3","6","3","3","2","5","4","1","3","2","5","3","1","5","2","4","6","3","2","3","2","1","2","3","3","7","3","7","3","2","5","1","1","1","3","3","2","3","717817858293235712","王","27","Female","[""好我"",""好她"",""坏她"",""坏我""]","[""强我"",""强她"",""弱她"",""弱我""]","","","","","","","","yes","","","","","","","","","SRET","EW_formal","","key","j","16.667391304347447","853.3333333333334","476","自己","能干","Positive","ability","","","","","","","","","","",""
"595","","j","psychophysics","62","275449","0.0-7.0-3.0-0.48","6","5","6","4","2","5","3","4","4","5","5","1","0","-1","0","1","0","1","0","5","4","5","5","5","4","4","5","4","4","4","6","3","6","3","2","4","2","3","6","3","4","3","6","3","3","2","5","4","1","3","2","5","3","1","5","2","4","6","3","2","3","2","1","2","3","3","7","3","7","3","2","5","1","1","1","3","3","2","3","717817858293235712","王","27","Female","[""好我"",""好她"",""坏她"",""坏我""]","[""强我"",""强她"",""弱她"",""弱我""]","","","","","","","","yes","","","","","","","","","SRET","EW_formal","","key","j","16.66526315789425","853.3333333333334","476","自己","粗心","Negative","ability","","","","","","","","","","",""
"801","","f","psychophysics","63","277251","0.0-7.0-3.0-0.49","6","5","6","4","2","5","3","4","4","5","5","1","0","-1","0","1","0","1","0","5","4","5","5","5","4","4","5","4","4","4","6","3","6","3","2","4","2","3","6","3","4","3","6","3","3","2","5","4","1","3","2","5","3","1","5","2","4","6","3","2","3","2","1","2","3","3","7","3","7","3","2","5","1","1","1","3","3","2","3","717817858293235712","王","27","Female","[""好我"",""好她"",""坏她"",""坏我""]","[""强我"",""强她"",""弱她"",""弱我""]","","","","","","","","no","","","","","","","","","SRET","EW_formal","","key","f","16.66542056074723","853.3333333333334","476","自己","失信","Negative","morality","","","","","","","","","","",""
"758","","f","psychophysics","64","279011","0.0-7.0-3.0-0.50","6","5","6","4","2","5","3","4","4","5","5","1","0","-1","0","1","0","1","0","5","4","5","5","5","4","4","5","4","4","4","6","3","6","3","2","4","2","3","6","3","4","3","6","3","3","2","5","4","1","3","2","5","3","1","5","2","4","6","3","2","3","2","1","2","3","3","7","3","7","3","2","5","1","1","1","3","3","2","3","717817858293235712","王","27","Female","[""好我"",""好她"",""坏她"",""坏我""]","[""强我"",""强她"",""弱她"",""弱我""]","","","","","","","","no","","","","","","","","","SRET","EW_formal","","key","f","16.667307692307915","853.3333333333334","476","朋友","短视","Negative","ability","","","","","","","","","","",""
"706","","j","psychophysics","65","280719","0.0-7.0-3.0-0.51","6","5","6","4","2","5","3","4","4","5","5","1","0","-1","0","1","0","1","0","5","4","5","5","5","4","4","5","4","4","4","6","3","6","3","2","4","2","3","6","3","4","3","6","3","3","2","5","4","1","3","2","5","3","1","5","2","4","6","3","2","3","2","1","2","3","3","7","3","7","3","2","5","1","1","1","3","3","2","3","717817858293235712","王","27","Female","[""好我"",""好她"",""坏她"",""坏我""]","[""强我"",""强她"",""弱她"",""弱我""]","","","","","","","","yes","","","","","","","","","SRET","EW_formal","","key","j","16.666666666666668","853.3333333333334","476","朋友","拖延","Negative","ability","","","","","","","","","","",""
"375","","j","psychophysics","66","282096","0.0-7.0-3.0-0.52","6","5","6","4","2","5","3","4","4","5","5","1","0","-1","0","1","0","1","0","5","4","5","5","5","4","4","5","4","4","4","6","3","6","3","2","4","2","3","6","3","4","3","6","3","3","2","5","4","1","3","2","5","3","1","5","2","4","6","3","2","3","2","1","2","3","3","7","3","7","3","2","5","1","1","1","3","3","2","3","717817858293235712","王","27","Female","[""好我"",""好她"",""坏她"",""坏我""]","[""强我"",""强她"",""弱她"",""弱我""]","","","","","","","","yes","","","","","","","","","SRET","EW_formal","","key","j","16.665432098765002","853.3333333333334","476","朋友","精干","Positive","ability","","","","","","","","","","",""
"444","","j","psychophysics","67","283540","0.0-7.0-3.0-0.53","6","5","6","4","2","5","3","4","4","5","5","1","0","-1","0","1","0","1","0","5","4","5","5","5","4","4","5","4","4","4","6","3","6","3","2","4","2","3","6","3","4","3","6","3","3","2","5","4","1","3","2","5","3","1","5","2","4","6","3","2","3","2","1","2","3","3","7","3","7","3","2","5","1","1","1","3","3","2","3","717817858293235712","王","27","Female","[""好我"",""好她"",""坏她"",""坏我""]","[""强我"",""强她"",""弱她"",""弱我""]","","","","","","","","yes","","","","","","","","","SRET","EW_formal","","key","j","16.666279069767306","853.3333333333334","476","朋友","低劣","Negative","morality","","","","","","","","","","",""
"726","","j","psychophysics","68","285268","0.0-7.0-3.0-0.54","6","5","6","4","2","5","3","4","4","5","5","1","0","-1","0","1","0","1","0","5","4","5","5","5","4","4","5","4","4","4","6","3","6","3","2","4","2","3","6","3","4","3","6","3","3","2","5","4","1","3","2","5","3","1","5","2","4","6","3","2","3","2","1","2","3","3","7","3","7","3","2","5","1","1","1","3","3","2","3","717817858293235712","王","27","Female","[""好我"",""好她"",""坏她"",""坏我""]","[""强我"",""强她"",""弱她"",""弱我""]","","","","","","","","yes","","","","","","","","","SRET","EW_formal","","key","j","16.66601941747607","853.3333333333334","476","朋友","依靠","Negative","ability","","","","","","","","","","",""
"582","","f","psychophysics","69","286851","0.0-7.0-3.0-0.55","6","5","6","4","2","5","3","4","4","5","5","1","0","-1","0","1","0","1","0","5","4","5","5","5","4","4","5","4","4","4","6","3","6","3","2","4","2","3","6","3","4","3","6","3","3","2","5","4","1","3","2","5","3","1","5","2","4","6","3","2","3","2","1","2","3","3","7","3","7","3","2","5","1","1","1","3","3","2","3","717817858293235712","王","27","Female","[""好我"",""好她"",""坏她"",""坏我""]","[""强我"",""强她"",""弱她"",""弱我""]","","","","","","","","no","","","","","","","","","SRET","EW_formal","","key","f","16.667021276595868","853.3333333333334","476","朋友","蛇蝎","Negative","morality","","","","","","","","","","",""
"419","","j","psychophysics","70","288272","0.0-7.0-3.0-0.56","6","5","6","4","2","5","3","4","4","5","5","1","0","-1","0","1","0","1","0","5","4","5","5","5","4","4","5","4","4","4","6","3","6","3","2","4","2","3","6","3","4","3","6","3","3","2","5","4","1","3","2","5","3","1","5","2","4","6","3","2","3","2","1","2","3","3","7","3","7","3","2","5","1","1","1","3","3","2","3","717817858293235712","王","27","Female","[""好我"",""好她"",""坏她"",""坏我""]","[""强我"",""强她"",""弱她"",""弱我""]","","","","","","","","yes","","","","","","","","","SRET","EW_formal","","key","j","16.666666666666668","853.3333333333334","476","朋友","笨蛋","Negative","ability","","","","","","","","","","",""
"670","","f","psychophysics","71","289944","0.0-7.0-3.0-0.57","6","5","6","4","2","5","3","4","4","5","5","1","0","-1","0","1","0","1","0","5","4","5","5","5","4","4","5","4","4","4","6","3","6","3","2","4","2","3","6","3","4","3","6","3","3","2","5","4","1","3","2","5","3","1","5","2","4","6","3","2","3","2","1","2","3","3","7","3","7","3","2","5","1","1","1","3","3","2","3","717817858293235712","王","27","Female","[""好我"",""好她"",""坏她"",""坏我""]","[""强我"",""强她"",""弱她"",""弱我""]","","","","","","","","no","","","","","","","","","SRET","EW_formal","","key","f","16.666666666666668","853.3333333333334","476","朋友","虚伪","Negative","morality","","","","","","","","","","",""
"536","","j","psychophysics","72","291481","0.0-7.0-3.0-0.58","6","5","6","4","2","5","3","4","4","5","5","1","0","-1","0","1","0","1","0","5","4","5","5","5","4","4","5","4","4","4","6","3","6","3","2","4","2","3","6","3","4","3","6","3","3","2","5","4","1","3","2","5","3","1","5","2","4","6","3","2","3","2","1","2","3","3","7","3","7","3","2","5","1","1","1","3","3","2","3","717817858293235712","王","27","Female","[""好我"",""好她"",""坏她"",""坏我""]","[""强我"",""强她"",""弱她"",""弱我""]","","","","","","","","yes","","","","","","","","","SRET","EW_formal","","key","j","16.66630434782596","853.3333333333334","476","自己","干练","Positive","ability","","","","","","","","","","",""
"458","","j","psychophysics","73","292940","0.0-7.0-3.0-0.59","6","5","6","4","2","5","3","4","4","5","5","1","0","-1","0","1","0","1","0","5","4","5","5","5","4","4","5","4","4","4","6","3","6","3","2","4","2","3","6","3","4","3","6","3","3","2","5","4","1","3","2","5","3","1","5","2","4","6","3","2","3","2","1","2","3","3","7","3","7","3","2","5","1","1","1","3","3","2","3","717817858293235712","王","27","Female","[""好我"",""好她"",""坏她"",""坏我""]","[""强我"",""强她"",""弱她"",""弱我""]","","","","","","","","yes","","","","","","","","","SRET","EW_formal","","key","j","16.666279069767306","853.3333333333334","476","自己","毛糙","Negative","ability","","","","","","","","","","",""
"686","","j","psychophysics","74","294628","0.0-7.0-3.0-0.60","6","5","6","4","2","5","3","4","4","5","5","1","0","-1","0","1","0","1","0","5","4","5","5","5","4","4","5","4","4","4","6","3","6","3","2","4","2","3","6","3","4","3","6","3","3","2","5","4","1","3","2","5","3","1","5","2","4","6","3","2","3","2","1","2","3","3","7","3","7","3","2","5","1","1","1","3","3","2","3","717817858293235712","王","27","Female","[""好我"",""好她"",""坏她"",""坏我""]","[""强我"",""强她"",""弱她"",""弱我""]","","","","","","","","yes","","","","","","","","","SRET","EW_formal","","key","j","16.665999999999766","853.3333333333334","476","自己","犹豫","Negative","ability","","","","","","","","","","",""
"607","","f","psychophysics","75","296236","0.0-7.0-3.0-0.61","6","5","6","4","2","5","3","4","4","5","5","1","0","-1","0","1","0","1","0","5","4","5","5","5","4","4","5","4","4","4","6","3","6","3","2","4","2","3","6","3","4","3","6","3","3","2","5","4","1","3","2","5","3","1","5","2","4","6","3","2","3","2","1","2","3","3","7","3","7","3","2","5","1","1","1","3","3","2","3","717817858293235712","王","27","Female","[""好我"",""好她"",""坏她"",""坏我""]","[""强我"",""强她"",""弱她"",""弱我""]","","","","","","","","no","","","","","","","","","SRET","EW_formal","","key","f","16.666666666666668","853.3333333333334","476","自己","淫乱","Negative","morality","","","","","","","","","","",""
"519","","j","psychophysics","76","297756","0.0-7.0-3.0-0.62","6","5","6","4","2","5","3","4","4","5","5","1","0","-1","0","1","0","1","0","5","4","5","5","5","4","4","5","4","4","4","6","3","6","3","2","4","2","3","6","3","4","3","6","3","3","2","5","4","1","3","2","5","3","1","5","2","4","6","3","2","3","2","1","2","3","3","7","3","7","3","2","5","1","1","1","3","3","2","3","717817858293235712","王","27","Female","[""好我"",""好她"",""坏她"",""坏我""]","[""强我"",""强她"",""弱她"",""弱我""]","","","","","","","","yes","","","","","","","","","SRET","EW_formal","","key","j","16.666666666666668","853.3333333333334","476","自己","无知","Negative","ability","","","","","","","","","","",""
"583","","j","psychophysics","77","299340","0.0-7.0-3.0-0.63","6","5","6","4","2","5","3","4","4","5","5","1","0","-1","0","1","0","1","0","5","4","5","5","5","4","4","5","4","4","4","6","3","6","3","2","4","2","3","6","3","4","3","6","3","3","2","5","4","1","3","2","5","3","1","5","2","4","6","3","2","3","2","1","2","3","3","7","3","7","3","2","5","1","1","1","3","3","2","3","717817858293235712","王","27","Female","[""好我"",""好她"",""坏她"",""坏我""]","[""强我"",""强她"",""弱她"",""弱我""]","","","","","","","","yes","","","","","","","","","SRET","EW_formal","","key","j","16.667021276595868","853.3333333333334","476","自己","周到","Positive","ability","","","","","","","","","","",""
"539","","f","psychophysics","78","300883","0.0-7.0-3.0-0.64","6","5","6","4","2","5","3","4","4","5","5","1","0","-1","0","1","0","1","0","5","4","5","5","5","4","4","5","4","4","4","6","3","6","3","2","4","2","3","6","3","4","3","6","3","3","2","5","4","1","3","2","5","3","1","5","2","4","6","3","2","3","2","1","2","3","3","7","3","7","3","2","5","1","1","1","3","3","2","3","717817858293235712","王","27","Female","[""好我"",""好她"",""坏她"",""坏我""]","[""强我"",""强她"",""弱她"",""弱我""]","","","","","","","","no","","","","","","","","","SRET","EW_formal","","key","f","16.665217391304473","853.3333333333334","476","朋友","无敌","Positive","ability","","","","","","","","","","",""
"572","","j","psychophysics","79","302456","0.0-7.0-3.0-0.65","6","5","6","4","2","5","3","4","4","5","5","1","0","-1","0","1","0","1","0","5","4","5","5","5","4","4","5","4","4","4","6","3","6","3","2","4","2","3","6","3","4","3","6","3","3","2","5","4","1","3","2","5","3","1","5","2","4","6","3","2","3","2","1","2","3","3","7","3","7","3","2","5","1","1","1","3","3","2","3","717817858293235712","王","27","Female","[""好我"",""好她"",""坏她"",""坏我""]","[""强我"",""强她"",""弱她"",""弱我""]","","","","","","","","yes","","","","","","","","","SRET","EW_formal","","key","j","16.666666666666668","853.3333333333334","476","朋友","窝囊","Negative","ability","","","","","","","","","","",""
"508","","j","psychophysics","80","303965","0.0-7.0-3.0-0.66","6","5","6","4","2","5","3","4","4","5","5","1","0","-1","0","1","0","1","0","5","4","5","5","5","4","4","5","4","4","4","6","3","6","3","2","4","2","3","6","3","4","3","6","3","3","2","5","4","1","3","2","5","3","1","5","2","4","6","3","2","3","2","1","2","3","3","7","3","7","3","2","5","1","1","1","3","3","2","3","717817858293235712","王","27","Female","[""好我"",""好她"",""坏她"",""坏我""]","[""强我"",""强她"",""弱她"",""弱我""]","","","","","","","","yes","","","","","","","","","SRET","EW_formal","","key","j","16.66888888888902","853.3333333333334","476","自己","毅力","Positive","ability","","","","","","","","","","",""
"474","","j","psychophysics","81","305440","0.0-7.0-3.0-0.67","6","5","6","4","2","5","3","4","4","5","5","1","0","-1","0","1","0","1","0","5","4","5","5","5","4","4","5","4","4","4","6","3","6","3","2","4","2","3","6","3","4","3","6","3","3","2","5","4","1","3","2","5","3","1","5","2","4","6","3","2","3","2","1","2","3","3","7","3","7","3","2","5","1","1","1","3","3","2","3","717817858293235712","王","27","Female","[""好我"",""好她"",""坏她"",""坏我""]","[""强我"",""强她"",""弱她"",""弱我""]","","","","","","","","yes","","","","","","","","","SRET","EW_formal","","key","j","16.668965517241514","853.3333333333334","476","自己","清廉","Positive","morality","","","","","","","","","","",""
"642","","f","psychophysics","82","307084","0.0-7.0-3.0-0.68","6","5","6","4","2","5","3","4","4","5","5","1","0","-1","0","1","0","1","0","5","4","5","5","5","4","4","5","4","4","4","6","3","6","3","2","4","2","3","6","3","4","3","6","3","3","2","5","4","1","3","2","5","3","1","5","2","4","6","3","2","3","2","1","2","3","3","7","3","7","3","2","5","1","1","1","3","3","2","3","717817858293235712","王","27","Female","[""好我"",""好她"",""坏她"",""坏我""]","[""强我"",""强她"",""弱她"",""弱我""]","","","","","","","","no","","","","","","","","","SRET","EW_formal","","key","f","16.666326530612125","853.3333333333334","476","自己","中用","Positive","ability","","","","","","","","","","",""
"423","","j","psychophysics","83","308508","0.0-7.0-3.0-0.69","6","5","6","4","2","5","3","4","4","5","5","1","0","-1","0","1","0","1","0","5","4","5","5","5","4","4","5","4","4","4","6","3","6","3","2","4","2","3","6","3","4","3","6","3","3","2","5","4","1","3","2","5","3","1","5","2","4","6","3","2","3","2","1","2","3","3","7","3","7","3","2","5","1","1","1","3","3","2","3","717817858293235712","王","27","Female","[""好我"",""好她"",""坏她"",""坏我""]","[""强我"",""强她"",""弱她"",""弱我""]","","","","","","","","yes","","","","","","","","","SRET","EW_formal","","key","j","16.66547619047647","853.3333333333334","476","自己","善良","Positive","morality","","","","","","","","","","",""
"616","","f","psychophysics","84","310124","0.0-7.0-3.0-0.70","6","5","6","4","2","5","3","4","4","5","5","1","0","-1","0","1","0","1","0","5","4","5","5","5","4","4","5","4","4","4","6","3","6","3","2","4","2","3","6","3","4","3","6","3","3","2","5","4","1","3","2","5","3","1","5","2","4","6","3","2","3","2","1","2","3","3","7","3","7","3","2","5","1","1","1","3","3","2","3","717817858293235712","王","27","Female","[""好我"",""好她"",""坏她"",""坏我""]","[""强我"",""强她"",""弱她"",""弱我""]","","","","","","","","no","","","","","","","","","SRET","EW_formal","","key","f","16.665624999999636","853.3333333333334","476","朋友","下流","Negative","morality","","","","","","","","","","",""
"606","","f","psychophysics","85","311732","0.0-7.0-3.0-0.71","6","5","6","4","2","5","3","4","4","5","5","1","0","-1","0","1","0","1","0","5","4","5","5","5","4","4","5","4","4","4","6","3","6","3","2","4","2","3","6","3","4","3","6","3","3","2","5","4","1","3","2","5","3","1","5","2","4","6","3","2","3","2","1","2","3","3","7","3","7","3","2","5","1","1","1","3","3","2","3","717817858293235712","王","27","Female","[""好我"",""好她"",""坏她"",""坏我""]","[""强我"",""强她"",""弱她"",""弱我""]","","","","","","","","no","","","","","","","","","SRET","EW_formal","","key","f","16.665624999999636","853.3333333333334","476","自己","无耻","Negative","morality","","","","","","","","","","",""
"598","","j","psychophysics","86","313332","0.0-7.0-3.0-0.72","6","5","6","4","2","5","3","4","4","5","5","1","0","-1","0","1","0","1","0","5","4","5","5","5","4","4","5","4","4","4","6","3","6","3","2","4","2","3","6","3","4","3","6","3","3","2","5","4","1","3","2","5","3","1","5","2","4","6","3","2","3","2","1","2","3","3","7","3","7","3","2","5","1","1","1","3","3","2","3","717817858293235712","王","27","Female","[""好我"",""好她"",""坏她"",""坏我""]","[""强我"",""强她"",""弱她"",""弱我""]","","","","","","","","yes","","","","","","","","","SRET","EW_formal","","key","j","16.66631578947356","853.3333333333334","476","自己","爱国","Positive","morality","","","","","","","","","","",""
"591","","f","psychophysics","87","314924","0.0-7.0-3.0-0.73","6","5","6","4","2","5","3","4","4","5","5","1","0","-1","0","1","0","1","0","5","4","5","5","5","4","4","5","4","4","4","6","3","6","3","2","4","2","3","6","3","4","3","6","3","3","2","5","4","1","3","2","5","3","1","5","2","4","6","3","2","3","2","1","2","3","3","7","3","7","3","2","5","1","1","1","3","3","2","3","717817858293235712","王","27","Female","[""好我"",""好她"",""坏她"",""坏我""]","[""强我"",""强她"",""弱她"",""弱我""]","","","","","","","","no","","","","","","","","","SRET","EW_formal","","key","f","16.664893617021278","853.3333333333334","476","朋友","势利","Negative","morality","","","","","","","","","","",""
"559","","j","psychophysics","88","316484","0.0-7.0-3.0-0.74","6","5","6","4","2","5","3","4","4","5","5","1","0","-1","0","1","0","1","0","5","4","5","5","5","4","4","5","4","4","4","6","3","6","3","2","4","2","3","6","3","4","3","6","3","3","2","5","4","1","3","2","5","3","1","5","2","4","6","3","2","3","2","1","2","3","3","7","3","7","3","2","5","1","1","1","3","3","2","3","717817858293235712","王","27","Female","[""好我"",""好她"",""坏她"",""坏我""]","[""强我"",""强她"",""弱她"",""弱我""]","","","","","","","","yes","","","","","","","","","SRET","EW_formal","","key","j","16.667741935484248","853.3333333333334","476","朋友","侠义","Positive","morality","","","","","","","","","","",""
"539","","f","psychophysics","89","318024","0.0-7.0-3.0-0.75","6","5","6","4","2","5","3","4","4","5","5","1","0","-1","0","1","0","1","0","5","4","5","5","5","4","4","5","4","4","4","6","3","6","3","2","4","2","3","6","3","4","3","6","3","3","2","5","4","1","3","2","5","3","1","5","2","4","6","3","2","3","2","1","2","3","3","7","3","7","3","2","5","1","1","1","3","3","2","3","717817858293235712","王","27","Female","[""好我"",""好她"",""坏她"",""坏我""]","[""强我"",""强她"",""弱她"",""弱我""]","","","","","","","","no","","","","","","","","","SRET","EW_formal","","key","f","16.664835164835164","853.3333333333334","476","自己","拙笨","Negative","ability","","","","","","","","","","",""
"474","","j","psychophysics","90","319500","0.0-7.0-3.0-0.76","6","5","6","4","2","5","3","4","4","5","5","1","0","-1","0","1","0","1","0","5","4","5","5","5","4","4","5","4","4","4","6","3","6","3","2","4","2","3","6","3","4","3","6","3","3","2","5","4","1","3","2","5","3","1","5","2","4","6","3","2","3","2","1","2","3","3","7","3","7","3","2","5","1","1","1","3","3","2","3","717817858293235712","王","27","Female","[""好我"",""好她"",""坏她"",""坏我""]","[""强我"",""强她"",""弱她"",""弱我""]","","","","","","","","yes","","","","","","","","","SRET","EW_formal","","key","j","16.667045454545587","853.3333333333334","476","自己","扎实","Positive","ability","","","","","","","","","","",""
"496","","j","psychophysics","91","320996","0.0-7.0-3.0-0.77","6","5","6","4","2","5","3","4","4","5","5","1","0","-1","0","1","0","1","0","5","4","5","5","5","4","4","5","4","4","4","6","3","6","3","2","4","2","3","6","3","4","3","6","3","3","2","5","4","1","3","2","5","3","1","5","2","4","6","3","2","3","2","1","2","3","3","7","3","7","3","2","5","1","1","1","3","3","2","3","717817858293235712","王","27","Female","[""好我"",""好她"",""坏她"",""坏我""]","[""强我"",""强她"",""弱她"",""弱我""]","","","","","","","","yes","","","","","","","","","SRET","EW_formal","","key","j","16.66629213483133","853.3333333333334","476","朋友","诚信","Positive","morality","","","","","","","","","","",""
"680","","j","psychophysics","92","322677","0.0-7.0-3.0-0.78","6","5","6","4","2","5","3","4","4","5","5","1","0","-1","0","1","0","1","0","5","4","5","5","5","4","4","5","4","4","4","6","3","6","3","2","4","2","3","6","3","4","3","6","3","3","2","5","4","1","3","2","5","3","1","5","2","4","6","3","2","3","2","1","2","3","3","7","3","7","3","2","5","1","1","1","3","3","2","3","717817858293235712","王","27","Female","[""好我"",""好她"",""坏她"",""坏我""]","[""强我"",""强她"",""弱她"",""弱我""]","","","","","","","","yes","","","","","","","","","SRET","EW_formal","","key","j","16.6656565656568","853.3333333333334","476","自己","上进","Positive","ability","","","","","","","","","","",""
"614","","j","psychophysics","93","324293","0.0-7.0-3.0-0.79","6","5","6","4","2","5","3","4","4","5","5","1","0","-1","0","1","0","1","0","5","4","5","5","5","4","4","5","4","4","4","6","3","6","3","2","4","2","3","6","3","4","3","6","3","3","2","5","4","1","3","2","5","3","1","5","2","4","6","3","2","3","2","1","2","3","3","7","3","7","3","2","5","1","1","1","3","3","2","3","717817858293235712","王","27","Female","[""好我"",""好她"",""坏她"",""坏我""]","[""强我"",""强她"",""弱她"",""弱我""]","","","","","","","","yes","","","","","","","","","SRET","EW_formal","","key","j","16.668749999999516","853.3333333333334","476","自己","无助","Negative","ability","","","","","","","","","","",""
"795","","j","psychophysics","94","326089","0.0-7.0-3.0-0.80","6","5","6","4","2","5","3","4","4","5","5","1","0","-1","0","1","0","1","0","5","4","5","5","5","4","4","5","4","4","4","6","3","6","3","2","4","2","3","6","3","4","3","6","3","3","2","5","4","1","3","2","5","3","1","5","2","4","6","3","2","3","2","1","2","3","3","7","3","7","3","2","5","1","1","1","3","3","2","3","717817858293235712","王","27","Female","[""好我"",""好她"",""坏她"",""坏我""]","[""强我"",""强她"",""弱她"",""弱我""]","","","","","","","","yes","","","","","","","","","SRET","EW_formal","","key","j","16.666355140186806","853.3333333333334","476","自己","狡诈","Negative","morality","","","","","","","","","","",""
"466","","j","psychophysics","95","327556","0.0-7.0-3.0-0.81","6","5","6","4","2","5","3","4","4","5","5","1","0","-1","0","1","0","1","0","5","4","5","5","5","4","4","5","4","4","4","6","3","6","3","2","4","2","3","6","3","4","3","6","3","3","2","5","4","1","3","2","5","3","1","5","2","4","6","3","2","3","2","1","2","3","3","7","3","7","3","2","5","1","1","1","3","3","2","3","717817858293235712","王","27","Female","[""好我"",""好她"",""坏她"",""坏我""]","[""强我"",""强她"",""弱她"",""弱我""]","","","","","","","","yes","","","","","","","","","SRET","EW_formal","","key","j","16.667816091953757","853.3333333333334","476","自己","草率","Negative","ability","","","","","","","","","","",""
"674","","f","psychophysics","96","329230","0.0-7.0-3.0-0.82","6","5","6","4","2","5","3","4","4","5","5","1","0","-1","0","1","0","1","0","5","4","5","5","5","4","4","5","4","4","4","6","3","6","3","2","4","2","3","6","3","4","3","6","3","3","2","5","4","1","3","2","5","3","1","5","2","4","6","3","2","3","2","1","2","3","3","7","3","7","3","2","5","1","1","1","3","3","2","3","717817858293235712","王","27","Female","[""好我"",""好她"",""坏她"",""坏我""]","[""强我"",""强她"",""弱她"",""弱我""]","","","","","","","","no","","","","","","","","","SRET","EW_formal","","key","f","16.667000000000115","853.3333333333334","476","朋友","恶劣","Negative","morality","","","","","","","","","","",""
"983","","j","psychophysics","97","331214","0.0-7.0-3.0-0.83","6","5","6","4","2","5","3","4","4","5","5","1","0","-1","0","1","0","1","0","5","4","5","5","5","4","4","5","4","4","4","6","3","6","3","2","4","2","3","6","3","4","3","6","3","3","2","5","4","1","3","2","5","3","1","5","2","4","6","3","2","3","2","1","2","3","3","7","3","7","3","2","5","1","1","1","3","3","2","3","717817858293235712","王","27","Female","[""好我"",""好她"",""坏她"",""坏我""]","[""强我"",""强她"",""弱她"",""弱我""]","","","","","","","","yes","","","","","","","","","SRET","EW_formal","","key","j","16.665254237288135","853.3333333333334","476","自己","远见","Positive","ability","","","","","","","","","","",""
"794","","j","psychophysics","98","333008","0.0-7.0-3.0-0.84","6","5","6","4","2","5","3","4","4","5","5","1","0","-1","0","1","0","1","0","5","4","5","5","5","4","4","5","4","4","4","6","3","6","3","2","4","2","3","6","3","4","3","6","3","3","2","5","4","1","3","2","5","3","1","5","2","4","6","3","2","3","2","1","2","3","3","7","3","7","3","2","5","1","1","1","3","3","2","3","717817858293235712","王","27","Female","[""好我"",""好她"",""坏她"",""坏我""]","[""强我"",""强她"",""弱她"",""弱我""]","","","","","","","","yes","","","","","","","","","SRET","EW_formal","","key","j","16.667924528302326","853.3333333333334","476","自己","缓慢","Negative","ability","","","","","","","","","","",""
"795","","j","psychophysics","99","334804","0.0-7.0-3.0-0.85","6","5","6","4","2","5","3","4","4","5","5","1","0","-1","0","1","0","1","0","5","4","5","5","5","4","4","5","4","4","4","6","3","6","3","2","4","2","3","6","3","4","3","6","3","3","2","5","4","1","3","2","5","3","1","5","2","4","6","3","2","3","2","1","2","3","3","7","3","7","3","2","5","1","1","1","3","3","2","3","717817858293235712","王","27","Female","[""好我"",""好她"",""坏她"",""坏我""]","[""强我"",""强她"",""弱她"",""弱我""]","","","","","","","","yes","","","","","","","","","SRET","EW_formal","","key","j","16.66822429906542","853.3333333333334","476","自己","主见","Positive","ability","","","","","","","","","","",""
"1135","","j","psychophysics","100","336940","0.0-7.0-3.0-0.86","6","5","6","4","2","5","3","4","4","5","5","1","0","-1","0","1","0","1","0","5","4","5","5","5","4","4","5","4","4","4","6","3","6","3","2","4","2","3","6","3","4","3","6","3","3","2","5","4","1","3","2","5","3","1","5","2","4","6","3","2","3","2","1","2","3","3","7","3","7","3","2","5","1","1","1","3","3","2","3","717817858293235712","王","27","Female","[""好我"",""好她"",""坏她"",""坏我""]","[""强我"",""强她"",""弱她"",""弱我""]","","","","","","","","yes","","","","","","","","","SRET","EW_formal","","key","j","16.6685039370076","853.3333333333334","476","朋友","素养","Positive","morality","","","","","","","","","","",""
"627","","f","psychophysics","101","338568","0.0-7.0-3.0-0.87","6","5","6","4","2","5","3","4","4","5","5","1","0","-1","0","1","0","1","0","5","4","5","5","5","4","4","5","4","4","4","6","3","6","3","2","4","2","3","6","3","4","3","6","3","3","2","5","4","1","3","2","5","3","1","5","2","4","6","3","2","3","2","1","2","3","3","7","3","7","3","2","5","1","1","1","3","3","2","3","717817858293235712","王","27","Female","[""好我"",""好她"",""坏她"",""坏我""]","[""强我"",""强她"",""弱她"",""弱我""]","","","","","","","","no","","","","","","","","","SRET","EW_formal","","key","f","16.668041237113282","853.3333333333334","476","朋友","低俗","Negative","morality","","","","","","","","","","",""
"50890","
    <p><div style='color:white;font-size:35px; line-height:20px;'>计算任务</div></p><br>
    <p><div style='color:red;font-size:25px; line-height:20px;'>接下来，您将看到一些四则运算题，<b>请从键盘选择 0-9 进行反应。</b></div></p>
    <p><div style='color:red;font-size:25px; line-height:20px;'>请尽可能快地进行计算，计算的速度和正确率将影响报酬的发放。</div></p>
    <p><div class='footer' style='color:white;font-size:25px; line-height:20px;'>如果对本实验还有不清楚之处，请立即向实验员咨询。</p><p style='color:white;font-size:25px; line-height:20px;'>如果您明白了规则：</p><p style='color:white;font-size:22px; line-height:20px;'>请按 继续 进入练习</p>
    </div>
    ","0","html-button-response","102","389458","0.0-7.0-4.0","6","5","6","4","2","5","3","4","4","5","5","1","0","-1","0","1","0","1","0","5","4","5","5","5","4","4","5","4","4","4","6","3","6","3","2","4","2","3","6","3","4","3","6","3","3","2","5","4","1","3","2","5","3","1","5","2","4","6","3","2","3","2","1","2","3","3","7","3","7","3","2","5","1","1","1","3","3","2","3","717817858293235712","王","27","Female","[""好我"",""好她"",""坏她"",""坏我""]","[""强我"",""强她"",""弱她"",""弱我""]","","","","","","","","","","","","","","","","","SRET_math","math_instructions","Sun Jan 07 2024 13:01:40 GMT+0800 (中国标准时间)","","","","","","","","","","","","","","","","","","","",""
"2475","","5","psychophysics","103","391936","0.0-7.0-5.0-0.0","6","5","6","4","2","5","3","4","4","5","5","1","0","-1","0","1","0","1","0","5","4","5","5","5","4","4","5","4","4","4","6","3","6","3","2","4","2","3","6","3","4","3","6","3","3","2","5","4","1","3","2","5","3","1","5","2","4","6","3","2","3","2","1","2","3","3","7","3","7","3","2","5","1","1","1","3","3","2","3","717817858293235712","王","27","Female","[""好我"",""好她"",""坏她"",""坏我""]","[""强我"",""强她"",""弱她"",""弱我""]","","","","","","","","5","","","","","","","","","SRET","SRET_math_calculate","","key","5","16.66621621621606","853.3333333333334","476","","","","","9-4= ?","5","1","","","","","","","",""
"92","","5","psychophysics","104","392029","0.0-7.0-5.0-0.1","6","5","6","4","2","5","3","4","4","5","5","1","0","-1","0","1","0","1","0","5","4","5","5","5","4","4","5","4","4","4","6","3","6","3","2","4","2","3","6","3","4","3","6","3","3","2","5","4","1","3","2","5","3","1","5","2","4","6","3","2","3","2","1","2","3","3","7","3","7","3","2","5","1","1","1","3","3","2","3","717817858293235712","王","27","Female","[""好我"",""好她"",""坏她"",""坏我""]","[""强我"",""强她"",""弱她"",""弱我""]","","","","","","","","5","","","","","","","","","SRET","SRET_math_calculate","","key","5","16.660000000009312","853.3333333333334","476","","","","","4+2= ?","6","0","","","","","","","",""
"2722","","9","psychophysics","105","394752","0.0-7.0-5.0-0.2","6","5","6","4","2","5","3","4","4","5","5","1","0","-1","0","1","0","1","0","5","4","5","5","5","4","4","5","4","4","4","6","3","6","3","2","4","2","3","6","3","4","3","6","3","3","2","5","4","1","3","2","5","3","1","5","2","4","6","3","2","3","2","1","2","3","3","7","3","7","3","2","5","1","1","1","3","3","2","3","717817858293235712","王","27","Female","[""好我"",""好她"",""坏她"",""坏我""]","[""强我"",""强她"",""弱她"",""弱我""]","","","","","","","","9","","","","","","","","","SRET","SRET_math_calculate","","key","9","16.666666666666668","853.3333333333334","476","","","","","81/9= ?","9","1","","","","","","","",""
"2057","","1","psychophysics","106","396810","0.0-7.0-5.0-0.3","6","5","6","4","2","5","3","4","4","5","5","1","0","-1","0","1","0","1","0","5","4","5","5","5","4","4","5","4","4","4","6","3","6","3","2","4","2","3","6","3","4","3","6","3","3","2","5","4","1","3","2","5","3","1","5","2","4","6","3","2","3","2","1","2","3","3","7","3","7","3","2","5","1","1","1","3","3","2","3","717817858293235712","王","27","Female","[""好我"",""好她"",""坏她"",""坏我""]","[""强我"",""强她"",""弱她"",""弱我""]","","","","","","","","1","","","","","","","","","SRET","SRET_math_calculate","","key","1","16.6655737704919","853.3333333333334","476","","","","","10-9= ?","1","1","","","","","","","",""
"2141","","0","psychophysics","107","398953","0.0-7.0-5.0-0.4","6","5","6","4","2","5","3","4","4","5","5","1","0","-1","0","1","0","1","0","5","4","5","5","5","4","4","5","4","4","4","6","3","6","3","2","4","2","3","6","3","4","3","6","3","3","2","5","4","1","3","2","5","3","1","5","2","4","6","3","2","3","2","1","2","3","3","7","3","7","3","2","5","1","1","1","3","3","2","3","717817858293235712","王","27","Female","[""好我"",""好她"",""坏她"",""坏我""]","[""强我"",""强她"",""弱她"",""弱我""]","","","","","","","","0","","","","","","","","","SRET","SRET_math_calculate","","key","0","16.66562500000009","853.3333333333334","476","","","","","7*0= ?","0","1","","","","","","","",""
"2009","","8","psychophysics","108","400961","0.0-7.0-5.0-0.5","6","5","6","4","2","5","3","4","4","5","5","1","0","-1","0","1","0","1","0","5","4","5","5","5","4","4","5","4","4","4","6","3","6","3","2","4","2","3","6","3","4","3","6","3","3","2","5","4","1","3","2","5","3","1","5","2","4","6","3","2","3","2","1","2","3","3","7","3","7","3","2","5","1","1","1","3","3","2","3","717817858293235712","王","27","Female","[""好我"",""好她"",""坏她"",""坏我""]","[""强我"",""强她"",""弱她"",""弱我""]","","","","","","","","8","","","","","","","","","SRET","SRET_math_calculate","","key","8","16.668333333332946","853.3333333333334","476","","","","","4+4= ?","8","1","","","","","","","",""
"2115","","3","psychophysics","109","403077","0.0-7.0-5.0-0.6","6","5","6","4","2","5","3","4","4","5","5","1","0","-1","0","1","0","1","0","5","4","5","5","5","4","4","5","4","4","4","6","3","6","3","2","4","2","3","6","3","4","3","6","3","3","2","5","4","1","3","2","5","3","1","5","2","4","6","3","2","3","2","1","2","3","3","7","3","7","3","2","5","1","1","1","3","3","2","3","717817858293235712","王","27","Female","[""好我"",""好她"",""坏她"",""坏我""]","[""强我"",""强她"",""弱她"",""弱我""]","","","","","","","","3","","","","","","","","","SRET","SRET_math_calculate","","key","3","16.666666666666668","853.3333333333334","476","","","","","8-5= ?","3","1","","","","","","","",""
"2438","","8","psychophysics","110","405520","0.0-7.0-5.0-0.7","6","5","6","4","2","5","3","4","4","5","5","1","0","-1","0","1","0","1","0","5","4","5","5","5","4","4","5","4","4","4","6","3","6","3","2","4","2","3","6","3","4","3","6","3","3","2","5","4","1","3","2","5","3","1","5","2","4","6","3","2","3","2","1","2","3","3","7","3","7","3","2","5","1","1","1","3","3","2","3","717817858293235712","王","27","Female","[""好我"",""好她"",""坏她"",""坏我""]","[""强我"",""强她"",""弱她"",""弱我""]","","","","","","","","8","","","","","","","","","SRET","SRET_math_calculate","","key","8","16.66758620689647","853.3333333333334","476","","","","","4*2= ?","8","1","","","","","","","",""
"2081","","0","psychophysics","111","407601","0.0-7.0-5.0-0.8","6","5","6","4","2","5","3","4","4","5","5","1","0","-1","0","1","0","1","0","5","4","5","5","5","4","4","5","4","4","4","6","3","6","3","2","4","2","3","6","3","4","3","6","3","3","2","5","4","1","3","2","5","3","1","5","2","4","6","3","2","3","2","1","2","3","3","7","3","7","3","2","5","1","1","1","3","3","2","3","717817858293235712","王","27","Female","[""好我"",""好她"",""坏她"",""坏我""]","[""强我"",""强她"",""弱她"",""弱我""]","","","","","","","","0","","","","","","","","","SRET","SRET_math_calculate","","key","0","16.666129032258347","853.3333333333334","476","","","","","12-12= ?","0","1","","","","","","","",""
"2010","","4","psychophysics","112","409612","0.0-7.0-5.0-0.9","6","5","6","4","2","5","3","4","4","5","5","1","0","-1","0","1","0","1","0","5","4","5","5","5","4","4","5","4","4","4","6","3","6","3","2","4","2","3","6","3","4","3","6","3","3","2","5","4","1","3","2","5","3","1","5","2","4","6","3","2","3","2","1","2","3","3","7","3","7","3","2","5","1","1","1","3","3","2","3","717817858293235712","王","27","Female","[""好我"",""好她"",""坏她"",""坏我""]","[""强我"",""强她"",""弱她"",""弱我""]","","","","","","","","4","","","","","","","","","SRET","SRET_math_calculate","","key","4","16.66750000000029","853.3333333333334","476","","","","","8-4= ?","4","1","","","","","","","",""
"2171","","4","psychophysics","113","411783","0.0-7.0-5.0-0.10","6","5","6","4","2","5","3","4","4","5","5","1","0","-1","0","1","0","1","0","5","4","5","5","5","4","4","5","4","4","4","6","3","6","3","2","4","2","3","6","3","4","3","6","3","3","2","5","4","1","3","2","5","3","1","5","2","4","6","3","2","3","2","1","2","3","3","7","3","7","3","2","5","1","1","1","3","3","2","3","717817858293235712","王","27","Female","[""好我"",""好她"",""坏她"",""坏我""]","[""强我"",""强她"",""弱她"",""弱我""]","","","","","","","","4","","","","","","","","","SRET","SRET_math_calculate","","key","4","16.665891472867948","853.3333333333334","476","","","","","4*1= ?","4","1","","","","","","","",""
"2259","","2","psychophysics","114","414044","0.0-7.0-5.0-0.11","6","5","6","4","2","5","3","4","4","5","5","1","0","-1","0","1","0","1","0","5","4","5","5","5","4","4","5","4","4","4","6","3","6","3","2","4","2","3","6","3","4","3","6","3","3","2","5","4","1","3","2","5","3","1","5","2","4","6","3","2","3","2","1","2","3","3","7","3","7","3","2","5","1","1","1","3","3","2","3","717817858293235712","王","27","Female","[""好我"",""好她"",""坏她"",""坏我""]","[""强我"",""强她"",""弱她"",""弱我""]","","","","","","","","2","","","","","","","","","SRET","SRET_math_calculate","","key","2","16.6659259259261","853.3333333333334","476","","","","","29-27= ?","2","1","","","","","","","",""
"2042","","2","psychophysics","115","416087","0.0-7.0-5.0-0.12","6","5","6","4","2","5","3","4","4","5","5","1","0","-1","0","1","0","1","0","5","4","5","5","5","4","4","5","4","4","4","6","3","6","3","2","4","2","3","6","3","4","3","6","3","3","2","5","4","1","3","2","5","3","1","5","2","4","6","3","2","3","2","1","2","3","3","7","3","7","3","2","5","1","1","1","3","3","2","3","717817858293235712","王","27","Female","[""好我"",""好她"",""坏她"",""坏我""]","[""强我"",""强她"",""弱她"",""弱我""]","","","","","","","","2","","","","","","","","","SRET","SRET_math_calculate","","key","2","16.667768595041228","853.3333333333334","476","","","","","5-3= ?","2","1","","","","","","","",""
"2133","","7","psychophysics","116","418220","0.0-7.0-5.0-0.13","6","5","6","4","2","5","3","4","4","5","5","1","0","-1","0","1","0","1","0","5","4","5","5","5","4","4","5","4","4","4","6","3","6","3","2","4","2","3","6","3","4","3","6","3","3","2","5","4","1","3","2","5","3","1","5","2","4","6","3","2","3","2","1","2","3","3","7","3","7","3","2","5","1","1","1","3","3","2","3","717817858293235712","王","27","Female","[""好我"",""好她"",""坏她"",""坏我""]","[""强我"",""强她"",""弱她"",""弱我""]","","","","","","","","7","","","","","","","","","SRET","SRET_math_calculate","","key","7","16.66692913385836","853.3333333333334","476","","","","","2+5= ?","7","1","","","","","","","",""
"2157","","4","psychophysics","117","420379","0.0-7.0-5.0-0.14","6","5","6","4","2","5","3","4","4","5","5","1","0","-1","0","1","0","1","0","5","4","5","5","5","4","4","5","4","4","4","6","3","6","3","2","4","2","3","6","3","4","3","6","3","3","2","5","4","1","3","2","5","3","1","5","2","4","6","3","2","3","2","1","2","3","3","7","3","7","3","2","5","1","1","1","3","3","2","3","717817858293235712","王","27","Female","[""好我"",""好她"",""坏她"",""坏我""]","[""强我"",""强她"",""弱她"",""弱我""]","","","","","","","","4","","","","","","","","","SRET","SRET_math_calculate","","key","4","16.666666666666668","853.3333333333334","476","","","","","9-5= ?","4","1","","","","","","","",""
"2038","","0","psychophysics","118","422417","0.0-7.0-5.0-0.15","6","5","6","4","2","5","3","4","4","5","5","1","0","-1","0","1","0","1","0","5","4","5","5","5","4","4","5","4","4","4","6","3","6","3","2","4","2","3","6","3","4","3","6","3","3","2","5","4","1","3","2","5","3","1","5","2","4","6","3","2","3","2","1","2","3","3","7","3","7","3","2","5","1","1","1","3","3","2","3","717817858293235712","王","27","Female","[""好我"",""好她"",""坏她"",""坏我""]","[""强我"",""强她"",""弱她"",""弱我""]","","","","","","","","0","","","","","","","","","SRET","SRET_math_calculate","","key","0","16.666942148759947","853.3333333333334","476","","","","","5*0= ?","0","1","","","","","","","",""
"2164","","2","psychophysics","119","424583","0.0-7.0-5.0-0.16","6","5","6","4","2","5","3","4","4","5","5","1","0","-1","0","1","0","1","0","5","4","5","5","5","4","4","5","4","4","4","6","3","6","3","2","4","2","3","6","3","4","3","6","3","3","2","5","4","1","3","2","5","3","1","5","2","4","6","3","2","3","2","1","2","3","3","7","3","7","3","2","5","1","1","1","3","3","2","3","717817858293235712","王","27","Female","[""好我"",""好她"",""坏她"",""坏我""]","[""强我"",""强她"",""弱她"",""弱我""]","","","","","","","","2","","","","","","","","","SRET","SRET_math_calculate","","key","2","16.666666666666668","853.3333333333334","476","","","","","18/9= ?","2","1","","","","","","","",""
"2036","","3","psychophysics","120","426619","0.0-7.0-5.0-0.17","6","5","6","4","2","5","3","4","4","5","5","1","0","-1","0","1","0","1","0","5","4","5","5","5","4","4","5","4","4","4","6","3","6","3","2","4","2","3","6","3","4","3","6","3","3","2","5","4","1","3","2","5","3","1","5","2","4","6","3","2","3","2","1","2","3","3","7","3","7","3","2","5","1","1","1","3","3","2","3","717817858293235712","王","27","Female","[""好我"",""好她"",""坏她"",""坏我""]","[""强我"",""强她"",""弱她"",""弱我""]","","","","","","","","3","","","","","","","","","SRET","SRET_math_calculate","","key","3","16.668595041322508","853.3333333333334","476","","","","","9/3= ?","3","1","","","","","","","",""
"1873","","4","psychophysics","121","428493","0.0-7.0-5.0-0.18","6","5","6","4","2","5","3","4","4","5","5","1","0","-1","0","1","0","1","0","5","4","5","5","5","4","4","5","4","4","4","6","3","6","3","2","4","2","3","6","3","4","3","6","3","3","2","5","4","1","3","2","5","3","1","5","2","4","6","3","2","3","2","1","2","3","3","7","3","7","3","2","5","1","1","1","3","3","2","3","717817858293235712","王","27","Female","[""好我"",""好她"",""坏她"",""坏我""]","[""强我"",""强她"",""弱她"",""弱我""]","","","","","","","","4","","","","","","","","","SRET","SRET_math_calculate","","key","4","16.66607142857122","853.3333333333334","476","","","","","2+2= ?","4","1","","","","","","","",""
"2001","","2","psychophysics","122","430495","0.0-7.0-5.0-0.19","6","5","6","4","2","5","3","4","4","5","5","1","0","-1","0","1","0","1","0","5","4","5","5","5","4","4","5","4","4","4","6","3","6","3","2","4","2","3","6","3","4","3","6","3","3","2","5","4","1","3","2","5","3","1","5","2","4","6","3","2","3","2","1","2","3","3","7","3","7","3","2","5","1","1","1","3","3","2","3","717817858293235712","王","27","Female","[""好我"",""好她"",""坏她"",""坏我""]","[""强我"",""强她"",""弱她"",""弱我""]","","","","","","","","2","","","","","","","","","SRET","SRET_math_calculate","","key","2","16.668067226890756","853.3333333333334","476","","","","","22/11= ?","2","1","","","","","","","",""
"2001","","9","psychophysics","123","432496","0.0-7.0-5.0-0.20","6","5","6","4","2","5","3","4","4","5","5","1","0","-1","0","1","0","1","0","5","4","5","5","5","4","4","5","4","4","4","6","3","6","3","2","4","2","3","6","3","4","3","6","3","3","2","5","4","1","3","2","5","3","1","5","2","4","6","3","2","3","2","1","2","3","3","7","3","7","3","2","5","1","1","1","3","3","2","3","717817858293235712","王","27","Female","[""好我"",""好她"",""坏她"",""坏我""]","[""强我"",""强她"",""弱她"",""弱我""]","","","","","","","","9","","","","","","","","","SRET","SRET_math_calculate","","key","9","16.66638655462224","853.3333333333334","476","","","","","1+8= ?","9","1","","","","","","","",""
"1851","","0","psychophysics","124","434348","0.0-7.0-5.0-0.21","6","5","6","4","2","5","3","4","4","5","5","1","0","-1","0","1","0","1","0","5","4","5","5","5","4","4","5","4","4","4","6","3","6","3","2","4","2","3","6","3","4","3","6","3","3","2","5","4","1","3","2","5","3","1","5","2","4","6","3","2","3","2","1","2","3","3","7","3","7","3","2","5","1","1","1","3","3","2","3","717817858293235712","王","27","Female","[""好我"",""好她"",""坏她"",""坏我""]","[""强我"",""强她"",""弱她"",""弱我""]","","","","","","","","0","","","","","","","","","SRET","SRET_math_calculate","","key","0","16.66636363636406","853.3333333333334","476","","","","","6*0= ?","0","1","","","","","","","",""
"2215","","6","psychophysics","125","436564","0.0-7.0-5.0-0.22","6","5","6","4","2","5","3","4","4","5","5","1","0","-1","0","1","0","1","0","5","4","5","5","5","4","4","5","4","4","4","6","3","6","3","2","4","2","3","6","3","4","3","6","3","3","2","5","4","1","3","2","5","3","1","5","2","4","6","3","2","3","2","1","2","3","3","7","3","7","3","2","5","1","1","1","3","3","2","3","717817858293235712","王","27","Female","[""好我"",""好她"",""坏她"",""坏我""]","[""强我"",""强她"",""弱她"",""弱我""]","","","","","","","","6","","","","","","","","","SRET","SRET_math_calculate","","key","6","16.664393939394028","853.3333333333334","476","","","","","2*3= ?","6","1","","","","","","","",""
"3861","","7","psychophysics","126","440426","0.0-7.0-5.0-0.23","6","5","6","4","2","5","3","4","4","5","5","1","0","-1","0","1","0","1","0","5","4","5","5","5","4","4","5","4","4","4","6","3","6","3","2","4","2","3","6","3","4","3","6","3","3","2","5","4","1","3","2","5","3","1","5","2","4","6","3","2","3","2","1","2","3","3","7","3","7","3","2","5","1","1","1","3","3","2","3","717817858293235712","王","27","Female","[""好我"",""好她"",""坏她"",""坏我""]","[""强我"",""强她"",""弱她"",""弱我""]","","","","","","","","7","","","","","","","","","SRET","SRET_math_calculate","","key","7","16.666666666666668","853.3333333333334","476","","","","","49/7 = ?","7","1","","","","","","","",""
"2314","","4","psychophysics","127","442741","0.0-7.0-5.0-0.24","6","5","6","4","2","5","3","4","4","5","5","1","0","-1","0","1","0","1","0","5","4","5","5","5","4","4","5","4","4","4","6","3","6","3","2","4","2","3","6","3","4","3","6","3","3","2","5","4","1","3","2","5","3","1","5","2","4","6","3","2","3","2","1","2","3","3","7","3","7","3","2","5","1","1","1","3","3","2","3","717817858293235712","王","27","Female","[""好我"",""好她"",""坏她"",""坏我""]","[""强我"",""强她"",""弱她"",""弱我""]","","","","","","","","4","","","","","","","","","SRET","SRET_math_calculate","","key","4","16.665942028985675","853.3333333333334","476","","","","","13-9= ?","4","1","","","","","","","",""
"2367","","6","psychophysics","128","445109","0.0-7.0-5.0-0.25","6","5","6","4","2","5","3","4","4","5","5","1","0","-1","0","1","0","1","0","5","4","5","5","5","4","4","5","4","4","4","6","3","6","3","2","4","2","3","6","3","4","3","6","3","3","2","5","4","1","3","2","5","3","1","5","2","4","6","3","2","3","2","1","2","3","3","7","3","7","3","2","5","1","1","1","3","3","2","3","717817858293235712","王","27","Female","[""好我"",""好她"",""坏她"",""坏我""]","[""强我"",""强她"",""弱她"",""弱我""]","","","","","","","","6","","","","","","","","","SRET","SRET_math_calculate","","key","6","16.667375886525072","853.3333333333334","476","","","","","9-3= ?","6","1","","","","","","","",""
"2050","","4","psychophysics","129","447160","0.0-7.0-5.0-0.26","6","5","6","4","2","5","3","4","4","5","5","1","0","-1","0","1","0","1","0","5","4","5","5","5","4","4","5","4","4","4","6","3","6","3","2","4","2","3","6","3","4","3","6","3","3","2","5","4","1","3","2","5","3","1","5","2","4","6","3","2","3","2","1","2","3","3","7","3","7","3","2","5","1","1","1","3","3","2","3","717817858293235712","王","27","Female","[""好我"",""好她"",""坏她"",""坏我""]","[""强我"",""强她"",""弱她"",""弱我""]","","","","","","","","4","","","","","","","","","SRET","SRET_math_calculate","","key","4","16.666393442622855","853.3333333333334","476","","","","","20/5= ?","4","1","","","","","","","",""
"2148","","6","psychophysics","130","449309","0.0-7.0-5.0-0.27","6","5","6","4","2","5","3","4","4","5","5","1","0","-1","0","1","0","1","0","5","4","5","5","5","4","4","5","4","4","4","6","3","6","3","2","4","2","3","6","3","4","3","6","3","3","2","5","4","1","3","2","5","3","1","5","2","4","6","3","2","3","2","1","2","3","3","7","3","7","3","2","5","1","1","1","3","3","2","3","717817858293235712","王","27","Female","[""好我"",""好她"",""坏她"",""坏我""]","[""强我"",""强她"",""弱她"",""弱我""]","","","","","","","","6","","","","","","","","","SRET","SRET_math_calculate","","key","6","16.66640624999991","853.3333333333334","476","","","","","2+4= ?","6","1","","","","","","","",""
"2049","","2","psychophysics","131","451359","0.0-7.0-5.0-0.28","6","5","6","4","2","5","3","4","4","5","5","1","0","-1","0","1","0","1","0","5","4","5","5","5","4","4","5","4","4","4","6","3","6","3","2","4","2","3","6","3","4","3","6","3","3","2","5","4","1","3","2","5","3","1","5","2","4","6","3","2","3","2","1","2","3","3","7","3","7","3","2","5","1","1","1","3","3","2","3","717817858293235712","王","27","Female","[""好我"",""好她"",""坏她"",""坏我""]","[""强我"",""强她"",""弱她"",""弱我""]","","","","","","","","2","","","","","","","","","SRET","SRET_math_calculate","","key","2","16.666393442622855","853.3333333333334","476","","","","","8-6= ?","2","1","","","","","","","",""
"3317","","8","psychophysics","132","454676","0.0-7.0-5.0-0.29","6","5","6","4","2","5","3","4","4","5","5","1","0","-1","0","1","0","1","0","5","4","5","5","5","4","4","5","4","4","4","6","3","6","3","2","4","2","3","6","3","4","3","6","3","3","2","5","4","1","3","2","5","3","1","5","2","4","6","3","2","3","2","1","2","3","3","7","3","7","3","2","5","1","1","1","3","3","2","3","717817858293235712","王","27","Female","[""好我"",""好她"",""坏她"",""坏我""]","[""强我"",""强她"",""弱她"",""弱我""]","","","","","","","","8","","","","","","","","","SRET","SRET_math_calculate","","key","8","16.667171717171893","853.3333333333334","476","","","","","50-42= ?","8","1","","","","","","","",""
"1955","","9","psychophysics","133","456632","0.0-7.0-5.0-0.30","6","5","6","4","2","5","3","4","4","5","5","1","0","-1","0","1","0","1","0","5","4","5","5","5","4","4","5","4","4","4","6","3","6","3","2","4","2","3","6","3","4","3","6","3","3","2","5","4","1","3","2","5","3","1","5","2","4","6","3","2","3","2","1","2","3","3","7","3","7","3","2","5","1","1","1","3","3","2","3","717817858293235712","王","27","Female","[""好我"",""好她"",""坏她"",""坏我""]","[""强我"",""强她"",""弱她"",""弱我""]","","","","","","","","9","","","","","","","","","SRET","SRET_math_calculate","","key","9","16.667241379310045","853.3333333333334","476","","","","","7+2= ?","9","1","","","","","","","",""
"2146","","3","psychophysics","134","458779","0.0-7.0-5.0-0.31","6","5","6","4","2","5","3","4","4","5","5","1","0","-1","0","1","0","1","0","5","4","5","5","5","4","4","5","4","4","4","6","3","6","3","2","4","2","3","6","3","4","3","6","3","3","2","5","4","1","3","2","5","3","1","5","2","4","6","3","2","3","2","1","2","3","3","7","3","7","3","2","5","1","1","1","3","3","2","3","717817858293235712","王","27","Female","[""好我"",""好她"",""坏她"",""坏我""]","[""强我"",""强她"",""弱她"",""弱我""]","","","","","","","","3","","","","","","","","","SRET","SRET_math_calculate","","key","3","16.667187500000182","853.3333333333334","476","","","","","21/7=  ?","3","1","","","","","","","",""
"2152","","9","psychophysics","135","460932","0.0-7.0-5.0-0.32","6","5","6","4","2","5","3","4","4","5","5","1","0","-1","0","1","0","1","0","5","4","5","5","5","4","4","5","4","4","4","6","3","6","3","2","4","2","3","6","3","4","3","6","3","3","2","5","4","1","3","2","5","3","1","5","2","4","6","3","2","3","2","1","2","3","3","7","3","7","3","2","5","1","1","1","3","3","2","3","717817858293235712","王","27","Female","[""好我"",""好她"",""坏她"",""坏我""]","[""强我"",""强她"",""弱她"",""弱我""]","","","","","","","","9","","","","","","","","","SRET","SRET_math_calculate","","key","9","16.667187500000182","853.3333333333334","476","","","","","1*9= ?","9","1","","","","","","","",""
"2105","","3","psychophysics","136","463038","0.0-7.0-5.0-0.33","6","5","6","4","2","5","3","4","4","5","5","1","0","-1","0","1","0","1","0","5","4","5","5","5","4","4","5","4","4","4","6","3","6","3","2","4","2","3","6","3","4","3","6","3","3","2","5","4","1","3","2","5","3","1","5","2","4","6","3","2","3","2","1","2","3","3","7","3","7","3","2","5","1","1","1","3","3","2","3","717817858293235712","王","27","Female","[""好我"",""好她"",""坏她"",""坏我""]","[""强我"",""强她"",""弱她"",""弱我""]","","","","","","","","3","","","","","","","","","SRET","SRET_math_calculate","","key","3","16.66719999999972","853.3333333333334","476","","","","","6/2= ?","3","1","","","","","","","",""
"1935","","7","psychophysics","137","464974","0.0-7.0-5.0-0.34","6","5","6","4","2","5","3","4","4","5","5","1","0","-1","0","1","0","1","0","5","4","5","5","5","4","4","5","4","4","4","6","3","6","3","2","4","2","3","6","3","4","3","6","3","3","2","5","4","1","3","2","5","3","1","5","2","4","6","3","2","3","2","1","2","3","3","7","3","7","3","2","5","1","1","1","3","3","2","3","717817858293235712","王","27","Female","[""好我"",""好她"",""坏她"",""坏我""]","[""强我"",""强她"",""弱她"",""弱我""]","","","","","","","","7","","","","","","","","","SRET","SRET_math_calculate","","key","7","16.666379310344727","853.3333333333334","476","","","","","3+4= ?","7","1","","","","","","","",""
"1821","","9","psychophysics","138","466796","0.0-7.0-5.0-0.35","6","5","6","4","2","5","3","4","4","5","5","1","0","-1","0","1","0","1","0","5","4","5","5","5","4","4","5","4","4","4","6","3","6","3","2","4","2","3","6","3","4","3","6","3","3","2","5","4","1","3","2","5","3","1","5","2","4","6","3","2","3","2","1","2","3","3","7","3","7","3","2","5","1","1","1","3","3","2","3","717817858293235712","王","27","Female","[""好我"",""好她"",""坏她"",""坏我""]","[""强我"",""强她"",""弱她"",""弱我""]","","","","","","","","9","","","","","","","","","SRET","SRET_math_calculate","","key","9","16.666666666666668","853.3333333333334","476","","","","","4+5= ?","9","1","","","","","","","",""
"1868","","3","psychophysics","139","468665","0.0-7.0-5.0-0.36","6","5","6","4","2","5","3","4","4","5","5","1","0","-1","0","1","0","1","0","5","4","5","5","5","4","4","5","4","4","4","6","3","6","3","2","4","2","3","6","3","4","3","6","3","3","2","5","4","1","3","2","5","3","1","5","2","4","6","3","2","3","2","1","2","3","3","7","3","7","3","2","5","1","1","1","3","3","2","3","717817858293235712","王","27","Female","[""好我"",""好她"",""坏她"",""坏我""]","[""强我"",""强她"",""弱她"",""弱我""]","","","","","","","","3","","","","","","","","","SRET","SRET_math_calculate","","key","3","16.667567567567357","853.3333333333334","476","","","","","2+1= ?","3","1","","","","","","","",""
