"rt","stimulus","response","trial_type","trial_index","time_elapsed","internal_node_id","swb_1","swb_2","swb_3","swb_4","swb_5","LOT_1","LOT_2","LOT_3","LOT_4","LOT_5","LOT_6","IPC_1","IPC_2","IPC_3","IPC_4","IPC_5","IPC_6","IPC_7","IPC_8","MorIden_1","MorIden_2","MorIden_3","MorIden_4","MorIden_5","MorIden_6","MorIden_7","MorIden_8","MorIden_9","MorIden_10","moralSeImag_1","moralSeImag_2","moralSeImag_3","moralSeImag_4","moralSeImag_5","moralSeImag_6","moralSeImag_7","moralSeImag_8","moralSeImag_9","sde_1","sde_2","sde_3","sde_4","sde_5","sde_6","sde_7","sde_8","sde_9","sde_10","trap2","sde_11","sde_12","sde_13","sde_14","sde_15","sde_16","sde_17","sde_18","sde_19","sde_20","IM_1","IM_2","IM_3","IM_4","IM_5","IM_6","IM_7","IM_8","IM_9","IM_10","IM_11","IM_12","IM_13","IM_14","IM_15","IM_16","IM_17","IM_18","IM_19","IM_20","subj_idx","friend_name","ParticipantID","Sex","Word","Word2","value","success","timeout","failed_images","failed_audio","failed_video","user_agent","responses","item_order","radio_event_ids","radio_event_times","key_event_times","mouse_event_times","straightlining","zigzagging","honeypot","task_id","screen_id","time_stamp","response_type","key_press","avg_frame_time","center_x","center_y","person","word","valence","domain","math","correct_response","correct","status","view_history","identity","duration","Image","condition","question_order","trap2_item"
"2281","
   <p><div style='color:white; font-size: 25px'>您好，欢迎参加本次实验。</div></p>
   <p><div style='color:white; font-size: 25px'>为充分保障您的权利，请确保您已经知晓并同意《参与实验同意书》以及《数据公开知情同意书》。</div></p>
   <p><div style='color:white; font-size: 25px'>如果您未见过上述内容，请咨询实验员。</div></p>
   <p style='color:white; font-size: 25px'>如果您选择继续实验，则表示您已经清楚两份知情同意书的内容并同意。</p>
   <p><div style = ""color: pink;font-size:30px;"">请确保您记得day0的实验编号，您将在本次实验输入该编号，若您忘记，请咨询实验员后作答。</div></p>
   <p><div style = ""color:lightblue;font-size:25px;"">请您尽可能认真地作答，我们将依据您在各问卷和按键任务中的作答质量发放报酬。</div></p>
   <p> <div style = ""color: green""><按空格键至下页></div> </p>
   "," ","html-keyboard-response","0","2282","0.0-0.0","3","3","3","3","3","4","4","4","4","4","4","1","-1","0","1","0","1","1","0","4","4","4","4","4","4","4","4","4","4","5","5","5","5","5","4","5","4","5","5","3","5","5","5","3","5","3","5","5","1","4","3","5","3","5","5","5","5","5","5","3","3","3","5","3","5","5","5","5","5","5","5","5","5","3","4","5","6","2","6","689181573102174208","黄","610","Male","[""坏我"",""坏他"",""好我"",""好他""]","[""弱我"",""弱他"",""强我"",""强他""]","","","","","","","","","","","","","","","","","","","","","","","","","","","","","","","","","","","","","","",""
"","","","call-function","1","2283","0.0-1.0-0.0","3","3","3","3","3","4","4","4","4","4","4","1","-1","0","1","0","1","1","0","4","4","4","4","4","4","4","4","4","4","5","5","5","5","5","4","5","4","5","5","3","5","5","5","3","5","3","5","5","1","4","3","5","3","5","5","5","5","5","5","3","3","3","5","3","5","5","5","5","5","5","5","5","5","3","4","5","6","2","6","689181573102174208","黄","610","Male","[""坏我"",""坏他"",""好我"",""好他""]","[""弱我"",""弱他"",""强我"",""强他""]","","","","","","","","","","","","","","","","","","","","","","","","","","","","","","","","","","","","","","",""
"91463","","[{""name"":""Sex"",""value"":""0""},{""name"":""friend_name"",""value"":""黄""},{""name"":""ParticipantID"",""value"":""610""}]","survey-html-form","2","93747","0.0-1.0-1.0","3","3","3","3","3","4","4","4","4","4","4","1","-1","0","1","0","1","1","0","4","4","4","4","4","4","4","4","4","4","5","5","5","5","5","4","5","4","5","5","3","5","5","5","3","5","3","5","5","1","4","3","5","3","5","5","5","5","5","5","3","3","3","5","3","5","5","5","5","5","5","5","5","5","3","4","5","6","2","6","689181573102174208","黄","610","Male","[""坏我"",""坏他"",""好我"",""好他""]","[""弱我"",""弱他"",""强我"",""强他""]","","","","","","","","","","","","","","","","","","","","","","","","","","","","","","","","","","","","","","",""
"","","","preload","3","94338","0.0-2.0","3","3","3","3","3","4","4","4","4","4","4","1","-1","0","1","0","1","1","0","4","4","4","4","4","4","4","4","4","4","5","5","5","5","5","4","5","4","5","5","3","5","5","5","3","5","3","5","5","1","4","3","5","3","5","5","5","5","5","5","3","3","3","5","3","5","5","5","5","5","5","5","5","5","3","4","5","6","2","6","689181573102174208","黄","610","Male","[""坏我"",""坏他"",""好我"",""好他""]","[""弱我"",""弱他"",""强我"",""强他""]","","true","false","[]","[]","[]","","","","","","","","","","","","","","","","","","","","","","","","","","","","","","","","",""
"","","","fullscreen","4","95968","0.0-3.0","3","3","3","3","3","4","4","4","4","4","4","1","-1","0","1","0","1","1","0","4","4","4","4","4","4","4","4","4","4","5","5","5","5","5","4","5","4","5","5","3","5","5","5","3","5","3","5","5","1","4","3","5","3","5","5","5","5","5","5","3","3","3","5","3","5","5","5","5","5","5","5","5","5","3","4","5","6","2","6","689181573102174208","黄","610","Male","[""坏我"",""坏他"",""好我"",""好他""]","[""弱我"",""弱他"",""强我"",""强他""]","","true","","","","","{}","","","","","","","","","","","","","","","","","","","","","","","","","","","","","","","",""
"7018.100000008941","","{""Q01"":""3"",""Q02"":""3"",""Q03"":""3"",""Q04"":""3"",""Q05"":""3""}","survey-template","5","102987","0.0-4.0","3","3","3","3","3","4","4","4","4","4","4","1","-1","0","1","0","1","1","0","4","4","4","4","4","4","4","4","4","4","5","5","5","5","5","4","5","4","5","5","3","5","5","5","3","5","3","5","5","1","4","3","5","3","5","5","5","5","5","5","3","3","3","5","3","5","5","5","5","5","5","5","5","5","3","4","5","6","2","6","689181573102174208","黄","610","Male","[""坏我"",""坏他"",""好我"",""好他""]","[""弱我"",""弱他"",""强我"",""强他""]","","","","","","","","{""Q01"":""3"",""Q02"":""3"",""Q03"":""3"",""Q04"":""3"",""Q05"":""3""}","[0,1,2,3,4]","[""Q01"",""Q02"",""Q03"",""Q04"",""Q05""]","[2361.7999999970198,3793.5,4809.600000008941,5577.9000000059605,6337.79999999702]","[]","[2361.7999999970198,3793.5,4809.600000008941,5577.9000000059605,6337.79999999702,7017.5]","1","0","0","","","","","","","","","","","","","","","","","","","","","","",""
"12013.5","","{""Q01"":""4"",""Q02"":""4"",""Q03"":""4"",""Q04"":""4"",""Q05"":""4"",""Q06"":""4""}","survey-template","6","115003","0.0-5.0","3","3","3","3","3","4","4","4","4","4","4","1","-1","0","1","0","1","1","0","4","4","4","4","4","4","4","4","4","4","5","5","5","5","5","4","5","4","5","5","3","5","5","5","3","5","3","5","5","1","4","3","5","3","5","5","5","5","5","5","3","3","3","5","3","5","5","5","5","5","5","5","5","5","3","4","5","6","2","6","689181573102174208","黄","610","Male","[""坏我"",""坏他"",""好我"",""好他""]","[""弱我"",""弱他"",""强我"",""强他""]","","","","","","","","{""Q01"":""4"",""Q02"":""4"",""Q03"":""4"",""Q04"":""4"",""Q05"":""4"",""Q06"":""4""}","[0,1,2,3,4,5]","[""Q01"",""Q02"",""Q03"",""Q04"",""Q05"",""Q06""]","[2885.1000000089407,5165.100000008941,6429.100000008941,7613.4000000059605,8813.10000000894,11325.20000000298]","[]","[2885.1000000089407,5165.100000008941,6429.100000008941,7613.4000000059605,8813.10000000894,11325.20000000298,12013.10000000894]","0.5","0","0","","","","","","","","","","","","","","","","","","","","","","",""
"26190.20000000298","","{""Q01"":""1"",""Q02"":""-1"",""Q03"":""0"",""Q04"":""1"",""Q05"":""0"",""Q06"":""1"",""Q07"":""1"",""Q08"":""0""}","survey-template","7","141195","0.0-6.0","3","3","3","3","3","4","4","4","4","4","4","1","-1","0","1","0","1","1","0","4","4","4","4","4","4","4","4","4","4","5","5","5","5","5","4","5","4","5","5","3","5","5","5","3","5","3","5","5","1","4","3","5","3","5","5","5","5","5","5","3","3","3","5","3","5","5","5","5","5","5","5","5","5","3","4","5","6","2","6","689181573102174208","黄","610","Male","[""坏我"",""坏他"",""好我"",""好他""]","[""弱我"",""弱他"",""强我"",""强他""]","","","","","","","","{""Q01"":""1"",""Q02"":""-1"",""Q03"":""0"",""Q04"":""1"",""Q05"":""0"",""Q06"":""1"",""Q07"":""1"",""Q08"":""0""}","[0,1,2,3,4,5,6,7]","[""Q01"",""Q02"",""Q03"",""Q04"",""Q05"",""Q06"",""Q07"",""Q05"",""Q03"",""Q08""]","[2358,5157.70000000298,7981.600000008941,10053.60000000894,11549.90000000596,12501.70000000298,16429.79999999702,19349.79999999702,22717.60000000894,25445.60000000894]","[]","[2358,5157.70000000298,7981.600000008941,10053.60000000894,11549.90000000596,12501.70000000298,16429.79999999702,19349.79999999702,21582.10000000894,22717.60000000894,25445.60000000894,26189.60000000894]","0.5","0.7142857142857143","0","","","","","","","","","","","","","","","","","","","","","","",""
"8237","
    <p><div style='color:white;font-size:35px; line-height:20px;'>词汇评估任务</div></p><br>
    <p><div style='color:white;font-size:25px; line-height:20px;'>请再次回忆该亲密的朋友，你们至少2年前就认识了，并且最近2年经常见面。</div></p>
    <p><div style='color:white;font-size:25px; line-height:20px;'>在本实验中，您将会看到一些形容词。</div></p>
    <p><div style='color:yellow;font-size:25px; line-height:20px;'>您的任务是判断这些形容词是否符合对您自己或您的朋友的描述。</div></p><p style='font-size:35px'>符合按<span style=""color:lightgreen""> f 键</span>，不符合按<span style=""color:red""> j 键</span></p>","0","html-button-response","8","149434","0.0-7.0-0.0","3","3","3","3","3","4","4","4","4","4","4","1","-1","0","1","0","1","1","0","4","4","4","4","4","4","4","4","4","4","5","5","5","5","5","4","5","4","5","5","3","5","5","5","3","5","3","5","5","1","4","3","5","3","5","5","5","5","5","5","3","3","3","5","3","5","5","5","5","5","5","5","5","5","3","4","5","6","2","6","689181573102174208","黄","610","Male","[""坏我"",""坏他"",""好我"",""好他""]","[""弱我"",""弱他"",""强我"",""强他""]","","","","","","","","","","","","","","","","","SRET_EW","EW_instructions","Sun Jan 07 2024 16:46:10 GMT+0800 (中国标准时间)","","","","","","","","","","","","","","","","","","","",""
"null","","null","psychophysics","9","152440","0.0-7.0-1.0-0.0","3","3","3","3","3","4","4","4","4","4","4","1","-1","0","1","0","1","1","0","4","4","4","4","4","4","4","4","4","4","5","5","5","5","5","4","5","4","5","5","3","5","5","5","3","5","3","5","5","1","4","3","5","3","5","5","5","5","5","5","3","3","3","5","3","5","5","5","5","5","5","5","5","5","3","4","5","6","2","6","689181573102174208","黄","610","Male","[""坏我"",""坏他"",""好我"",""好他""]","[""弱我"",""弱他"",""强我"",""强他""]","","","","","","","","","","","","","","","","","SRET_EW","EW_practice","","key","null","16.682222222222318","1280","716","自己","刻板","Negative","ability","","","","","","","","","","",""
"1327","","j","psychophysics","10","154769","0.0-7.0-1.0-0.1","3","3","3","3","3","4","4","4","4","4","4","1","-1","0","1","0","1","1","0","4","4","4","4","4","4","4","4","4","4","5","5","5","5","5","4","5","4","5","5","3","5","5","5","3","5","3","5","5","1","4","3","5","3","5","5","5","5","5","5","3","3","3","5","3","5","5","5","5","5","5","5","5","5","3","4","5","6","2","6","689181573102174208","黄","610","Male","[""坏我"",""坏他"",""好我"",""好他""]","[""弱我"",""弱他"",""强我"",""强他""]","","","","","","","","no","","","","","","","","","SRET_EW","EW_practice","","key","j","16.682014388489126","1280","716","朋友","徇私","Negative","morality","","","","","","","","","","",""
"1508","","j","psychophysics","11","157278","0.0-7.0-1.0-0.2","3","3","3","3","3","4","4","4","4","4","4","1","-1","0","1","0","1","1","0","4","4","4","4","4","4","4","4","4","4","5","5","5","5","5","4","5","4","5","5","3","5","5","5","3","5","3","5","5","1","4","3","5","3","5","5","5","5","5","5","3","3","3","5","3","5","5","5","5","5","5","5","5","5","3","4","5","6","2","6","689181573102174208","黄","610","Male","[""坏我"",""坏他"",""好我"",""好他""]","[""弱我"",""弱他"",""强我"",""强他""]","","","","","","","","no","","","","","","","","","SRET_EW","EW_practice","","key","j","16.6798657718122","1280","716","自己","严谨","Positive","ability","","","","","","","","","","",""
"1365","","f","psychophysics","12","159644","0.0-7.0-1.0-0.3","3","3","3","3","3","4","4","4","4","4","4","1","-1","0","1","0","1","1","0","4","4","4","4","4","4","4","4","4","4","5","5","5","5","5","4","5","4","5","5","3","5","5","5","3","5","3","5","5","1","4","3","5","3","5","5","5","5","5","5","3","3","3","5","3","5","5","5","5","5","5","5","5","5","3","4","5","6","2","6","689181573102174208","黄","610","Male","[""坏我"",""坏他"",""好我"",""好他""]","[""弱我"",""弱他"",""强我"",""强他""]","","","","","","","","yes","","","","","","","","","SRET_EW","EW_practice","","key","f","16.68014184397159","1280","716","朋友","忠实","Positive","morality","","","","","","","","","","",""
"2766","
    <p><div style='color:white;font-size:35px; line-height:20px;'>请您再次阅读实验要求</div></p><br>
    <p><div style='color:white;font-size:25px; line-height:20px;'>请回忆某一个亲密的朋友，你们至少2年前就认识了，并且最近2年经常见面。</div></p>
    <p><div style='color:white;font-size:25px; line-height:20px;'>在本实验中，您将会看到一些形容词。</div></p>
    <p><div style='color:yellow;font-size:25px; line-height:20px;'>您的任务是判断这些形容词是否符合对您自己或您的朋友的描述。</div></p>
    <p><div class='footer' style='font-size:25px; line-height:20px;'>如果对本实验还有不清楚之处，请立即向实验员咨询。</p><p style='font-size:25px; line-height:20px;'>如果您明白了规则：</p><p style='font-size:22px; line-height:20px;'>请按 继续 进入正式实验</p>
    </div>
    <p style='font-size:35px'>符合按<span style=""color:lightgreen""> f 键</span>，不符合按<span style=""color:red""> j 键</span></p>","0","html-button-response","13","162411","0.0-7.0-2.0","3","3","3","3","3","4","4","4","4","4","4","1","-1","0","1","0","1","1","0","4","4","4","4","4","4","4","4","4","4","5","5","5","5","5","4","5","4","5","5","3","5","5","5","3","5","3","5","5","1","4","3","5","3","5","5","5","5","5","5","3","3","3","5","3","5","5","5","5","5","5","5","5","5","3","4","5","6","2","6","689181573102174208","黄","610","Male","[""坏我"",""坏他"",""好我"",""好他""]","[""弱我"",""弱他"",""强我"",""强他""]","","","","","","","","","","","","","","","","","SRET_EW","prac_instructions","Sun Jan 07 2024 16:46:10 GMT+0800 (中国标准时间)","","","","","","","","","","","","","","","","","","","",""
"997","","f","psychophysics","14","164409","0.0-7.0-3.0-0.0","3","3","3","3","3","4","4","4","4","4","4","1","-1","0","1","0","1","1","0","4","4","4","4","4","4","4","4","4","4","5","5","5","5","5","4","5","4","5","5","3","5","5","5","3","5","3","5","5","1","4","3","5","3","5","5","5","5","5","5","3","3","3","5","3","5","5","5","5","5","5","5","5","5","3","4","5","6","2","6","689181573102174208","黄","610","Male","[""坏我"",""坏他"",""好我"",""好他""]","[""弱我"",""弱他"",""强我"",""强他""]","","","","","","","","yes","","","","","","","","","SRET","EW_formal","","key","f","16.679999999999804","1280","716","朋友","务实","Positive","ability","","","","","","","","","","",""
"1783","","f","psychophysics","15","167192","0.0-7.0-3.0-0.1","3","3","3","3","3","4","4","4","4","4","4","1","-1","0","1","0","1","1","0","4","4","4","4","4","4","4","4","4","4","5","5","5","5","5","4","5","4","5","5","3","5","5","5","3","5","3","5","5","1","4","3","5","3","5","5","5","5","5","5","3","3","3","5","3","5","5","5","5","5","5","5","5","5","3","4","5","6","2","6","689181573102174208","黄","610","Male","[""坏我"",""坏他"",""好我"",""好他""]","[""弱我"",""弱他"",""强我"",""强他""]","","","","","","","","yes","","","","","","","","","SRET","EW_formal","","key","f","16.679518072289085","1280","716","自己","坚贞","Positive","morality","","","","","","","","","","",""
"1407","","j","psychophysics","16","169601","0.0-7.0-3.0-0.2","3","3","3","3","3","4","4","4","4","4","4","1","-1","0","1","0","1","1","0","4","4","4","4","4","4","4","4","4","4","5","5","5","5","5","4","5","4","5","5","3","5","5","5","3","5","3","5","5","1","4","3","5","3","5","5","5","5","5","5","3","3","3","5","3","5","5","5","5","5","5","5","5","5","3","4","5","6","2","6","689181573102174208","黄","610","Male","[""坏我"",""坏他"",""好我"",""好他""]","[""弱我"",""弱他"",""强我"",""强他""]","","","","","","","","no","","","","","","","","","SRET","EW_formal","","key","j","16.68111888111884","1280","716","自己","说谎","Negative","morality","","","","","","","","","","",""
"1220","","j","psychophysics","17","171822","0.0-7.0-3.0-0.3","3","3","3","3","3","4","4","4","4","4","4","1","-1","0","1","0","1","1","0","4","4","4","4","4","4","4","4","4","4","5","5","5","5","5","4","5","4","5","5","3","5","5","5","3","5","3","5","5","1","4","3","5","3","5","5","5","5","5","5","3","3","3","5","3","5","5","5","5","5","5","5","5","5","3","4","5","6","2","6","689181573102174208","黄","610","Male","[""坏我"",""坏他"",""好我"",""好他""]","[""弱我"",""弱他"",""强我"",""强他""]","","","","","","","","no","","","","","","","","","SRET","EW_formal","","key","j","16.683333333333422","1280","716","朋友","迷糊","Negative","ability","","","","","","","","","","",""
"1152","","j","psychophysics","18","173975","0.0-7.0-3.0-0.4","3","3","3","3","3","4","4","4","4","4","4","1","-1","0","1","0","1","1","0","4","4","4","4","4","4","4","4","4","4","5","5","5","5","5","4","5","4","5","5","3","5","5","5","3","5","3","5","5","1","4","3","5","3","5","5","5","5","5","5","3","3","3","5","3","5","5","5","5","5","5","5","5","5","3","4","5","6","2","6","689181573102174208","黄","610","Male","[""坏我"",""坏他"",""好我"",""好他""]","[""弱我"",""弱他"",""强我"",""强他""]","","","","","","","","no","","","","","","","","","SRET","EW_formal","","key","j","16.6796875","1280","716","朋友","虚伪","Negative","morality","","","","","","","","","","",""
"1029","","j","psychophysics","19","176006","0.0-7.0-3.0-0.5","3","3","3","3","3","4","4","4","4","4","4","1","-1","0","1","0","1","1","0","4","4","4","4","4","4","4","4","4","4","5","5","5","5","5","4","5","4","5","5","3","5","5","5","3","5","3","5","5","1","4","3","5","3","5","5","5","5","5","5","3","3","3","5","3","5","5","5","5","5","5","5","5","5","3","4","5","6","2","6","689181573102174208","黄","610","Male","[""坏我"",""坏他"",""好我"",""好他""]","[""弱我"",""弱他"",""强我"",""强他""]","","","","","","","","no","","","","","","","","","SRET","EW_formal","","key","j","16.68264462809898","1280","716","朋友","恶劣","Negative","morality","","","","","","","","","","",""
"1160","","f","psychophysics","20","178167","0.0-7.0-3.0-0.6","3","3","3","3","3","4","4","4","4","4","4","1","-1","0","1","0","1","1","0","4","4","4","4","4","4","4","4","4","4","5","5","5","5","5","4","5","4","5","5","3","5","5","5","3","5","3","5","5","1","4","3","5","3","5","5","5","5","5","5","3","3","3","5","3","5","5","5","5","5","5","5","5","5","3","4","5","6","2","6","689181573102174208","黄","610","Male","[""坏我"",""坏他"",""好我"",""好他""]","[""弱我"",""弱他"",""强我"",""强他""]","","","","","","","","yes","","","","","","","","","SRET","EW_formal","","key","f","16.68062015503867","1280","716","自己","思辨","Positive","ability","","","","","","","","","","",""
"1227","","f","psychophysics","21","180394","0.0-7.0-3.0-0.7","3","3","3","3","3","4","4","4","4","4","4","1","-1","0","1","0","1","1","0","4","4","4","4","4","4","4","4","4","4","5","5","5","5","5","4","5","4","5","5","3","5","5","5","3","5","3","5","5","1","4","3","5","3","5","5","5","5","5","5","3","3","3","5","3","5","5","5","5","5","5","5","5","5","3","4","5","6","2","6","689181573102174208","黄","610","Male","[""坏我"",""坏他"",""好我"",""好他""]","[""弱我"",""弱他"",""强我"",""强他""]","","","","","","","","yes","","","","","","","","","SRET","EW_formal","","key","f","16.681818181818183","1280","716","朋友","高效","Positive","ability","","","","","","","","","","",""
"917","","j","psychophysics","22","182312","0.0-7.0-3.0-0.8","3","3","3","3","3","4","4","4","4","4","4","1","-1","0","1","0","1","1","0","4","4","4","4","4","4","4","4","4","4","5","5","5","5","5","4","5","4","5","5","3","5","5","5","3","5","3","5","5","1","4","3","5","3","5","5","5","5","5","5","3","3","3","5","3","5","5","5","5","5","5","5","5","5","3","4","5","6","2","6","689181573102174208","黄","610","Male","[""坏我"",""坏他"",""好我"",""好他""]","[""弱我"",""弱他"",""强我"",""强他""]","","","","","","","","no","","","","","","","","","SRET","EW_formal","","key","j","16.680701754386018","1280","716","朋友","盲目","Negative","ability","","","","","","","","","","",""
"949","","j","psychophysics","23","184263","0.0-7.0-3.0-0.9","3","3","3","3","3","4","4","4","4","4","4","1","-1","0","1","0","1","1","0","4","4","4","4","4","4","4","4","4","4","5","5","5","5","5","4","5","4","5","5","3","5","5","5","3","5","3","5","5","1","4","3","5","3","5","5","5","5","5","5","3","3","3","5","3","5","5","5","5","5","5","5","5","5","3","4","5","6","2","6","689181573102174208","黄","610","Male","[""坏我"",""坏他"",""好我"",""好他""]","[""弱我"",""弱他"",""强我"",""强他""]","","","","","","","","no","","","","","","","","","SRET","EW_formal","","key","j","16.68103448275862","1280","716","朋友","愚蠢","Negative","ability","","","","","","","","","","",""
"1526","","f","psychophysics","24","186791","0.0-7.0-3.0-0.10","3","3","3","3","3","4","4","4","4","4","4","1","-1","0","1","0","1","1","0","4","4","4","4","4","4","4","4","4","4","5","5","5","5","5","4","5","4","5","5","3","5","5","5","3","5","3","5","5","1","4","3","5","3","5","5","5","5","5","5","3","3","3","5","3","5","5","5","5","5","5","5","5","5","3","4","5","6","2","6","689181573102174208","黄","610","Male","[""坏我"",""坏他"",""好我"",""好他""]","[""弱我"",""弱他"",""强我"",""强他""]","","","","","","","","yes","","","","","","","","","SRET","EW_formal","","key","f","16.680132450331204","1280","716","朋友","宽容","Positive","morality","","","","","","","","","","",""
"1156","","f","psychophysics","25","188947","0.0-7.0-3.0-0.11","3","3","3","3","3","4","4","4","4","4","4","1","-1","0","1","0","1","1","0","4","4","4","4","4","4","4","4","4","4","5","5","5","5","5","4","5","4","5","5","3","5","5","5","3","5","3","5","5","1","4","3","5","3","5","5","5","5","5","5","3","3","3","5","3","5","5","5","5","5","5","5","5","5","3","4","5","6","2","6","689181573102174208","黄","610","Male","[""坏我"",""坏他"",""好我"",""好他""]","[""弱我"",""弱他"",""强我"",""强他""]","","","","","","","","yes","","","","","","","","","SRET","EW_formal","","key","f","16.680468750000045","1280","716","自己","忠勇","Positive","morality","","","","","","","","","","",""
"1553","","f","psychophysics","26","191501","0.0-7.0-3.0-0.12","3","3","3","3","3","4","4","4","4","4","4","1","-1","0","1","0","1","1","0","4","4","4","4","4","4","4","4","4","4","5","5","5","5","5","4","5","4","5","5","3","5","5","5","3","5","3","5","5","1","4","3","5","3","5","5","5","5","5","5","3","3","3","5","3","5","5","5","5","5","5","5","5","5","3","4","5","6","2","6","689181573102174208","黄","610","Male","[""坏我"",""坏他"",""好我"",""好他""]","[""弱我"",""弱他"",""强我"",""强他""]","","","","","","","","yes","","","","","","","","","SRET","EW_formal","","key","f","16.6802631578947","1280","716","自己","智慧","Positive","ability","","","","","","","","","","",""
"1392","","j","psychophysics","27","193894","0.0-7.0-3.0-0.13","3","3","3","3","3","4","4","4","4","4","4","1","-1","0","1","0","1","1","0","4","4","4","4","4","4","4","4","4","4","5","5","5","5","5","4","5","4","5","5","3","5","5","5","3","5","3","5","5","1","4","3","5","3","5","5","5","5","5","5","3","3","3","5","3","5","5","5","5","5","5","5","5","5","3","4","5","6","2","6","689181573102174208","黄","610","Male","[""坏我"",""坏他"",""好我"",""好他""]","[""弱我"",""弱他"",""强我"",""强他""]","","","","","","","","no","","","","","","","","","SRET","EW_formal","","key","j","16.68028169014068","1280","716","自己","高尚","Positive","morality","","","","","","","","","","",""
"1236","","j","psychophysics","28","196130","0.0-7.0-3.0-0.14","3","3","3","3","3","4","4","4","4","4","4","1","-1","0","1","0","1","1","0","4","4","4","4","4","4","4","4","4","4","5","5","5","5","5","4","5","4","5","5","3","5","5","5","3","5","3","5","5","1","4","3","5","3","5","5","5","5","5","5","3","3","3","5","3","5","5","5","5","5","5","5","5","5","3","4","5","6","2","6","689181573102174208","黄","610","Male","[""坏我"",""坏他"",""好我"",""好他""]","[""弱我"",""弱他"",""强我"",""强他""]","","","","","","","","no","","","","","","","","","SRET","EW_formal","","key","j","16.681203007518842","1280","716","自己","愚痴","Negative","ability","","","","","","","","","","",""
"972","","f","psychophysics","29","198103","0.0-7.0-3.0-0.15","3","3","3","3","3","4","4","4","4","4","4","1","-1","0","1","0","1","1","0","4","4","4","4","4","4","4","4","4","4","5","5","5","5","5","4","5","4","5","5","3","5","5","5","3","5","3","5","5","1","4","3","5","3","5","5","5","5","5","5","3","3","3","5","3","5","5","5","5","5","5","5","5","5","3","4","5","6","2","6","689181573102174208","黄","610","Male","[""坏我"",""坏他"",""好我"",""好他""]","[""弱我"",""弱他"",""强我"",""强他""]","","","","","","","","yes","","","","","","","","","SRET","EW_formal","","key","f","16.679661016949005","1280","716","朋友","文明","Positive","morality","","","","","","","","","","",""
"1024","","f","psychophysics","30","200128","0.0-7.0-3.0-0.16","3","3","3","3","3","4","4","4","4","4","4","1","-1","0","1","0","1","1","0","4","4","4","4","4","4","4","4","4","4","5","5","5","5","5","4","5","4","5","5","3","5","5","5","3","5","3","5","5","1","4","3","5","3","5","5","5","5","5","5","3","3","3","5","3","5","5","5","5","5","5","5","5","5","3","4","5","6","2","6","689181573102174208","黄","610","Male","[""坏我"",""坏他"",""好我"",""好他""]","[""弱我"",""弱他"",""强我"",""强他""]","","","","","","","","yes","","","","","","","","","SRET","EW_formal","","key","f","16.68000000000005","1280","716","自己","刻苦","Positive","ability","","","","","","","","","","",""
"1134","","f","psychophysics","31","202263","0.0-7.0-3.0-0.17","3","3","3","3","3","4","4","4","4","4","4","1","-1","0","1","0","1","1","0","4","4","4","4","4","4","4","4","4","4","5","5","5","5","5","4","5","4","5","5","3","5","5","5","3","5","3","5","5","1","4","3","5","3","5","5","5","5","5","5","3","3","3","5","3","5","5","5","5","5","5","5","5","5","3","4","5","6","2","6","689181573102174208","黄","610","Male","[""坏我"",""坏他"",""好我"",""好他""]","[""弱我"",""弱他"",""强我"",""强他""]","","","","","","","","yes","","","","","","","","","SRET","EW_formal","","key","f","16.681889763779573","1280","716","自己","能干","Positive","ability","","","","","","","","","","",""
"890","","j","psychophysics","32","204155","0.0-7.0-3.0-0.18","3","3","3","3","3","4","4","4","4","4","4","1","-1","0","1","0","1","1","0","4","4","4","4","4","4","4","4","4","4","5","5","5","5","5","4","5","4","5","5","3","5","5","5","3","5","3","5","5","1","4","3","5","3","5","5","5","5","5","5","3","3","3","5","3","5","5","5","5","5","5","5","5","5","3","4","5","6","2","6","689181573102174208","黄","610","Male","[""坏我"",""坏他"",""好我"",""好他""]","[""弱我"",""弱他"",""强我"",""强他""]","","","","","","","","no","","","","","","","","","SRET","EW_formal","","key","j","16.684070796460333","1280","716","朋友","无能","Negative","ability","","","","","","","","","","",""
"1098","","j","psychophysics","33","206254","0.0-7.0-3.0-0.19","3","3","3","3","3","4","4","4","4","4","4","1","-1","0","1","0","1","1","0","4","4","4","4","4","4","4","4","4","4","5","5","5","5","5","4","5","4","5","5","3","5","5","5","3","5","3","5","5","1","4","3","5","3","5","5","5","5","5","5","3","3","3","5","3","5","5","5","5","5","5","5","5","5","3","4","5","6","2","6","689181573102174208","黄","610","Male","[""坏我"",""坏他"",""好我"",""好他""]","[""弱我"",""弱他"",""强我"",""强他""]","","","","","","","","no","","","","","","","","","SRET","EW_formal","","key","j","16.680645161290276","1280","716","自己","笨蛋","Negative","ability","","","","","","","","","","",""
"1512","","f","psychophysics","34","208766","0.0-7.0-3.0-0.20","3","3","3","3","3","4","4","4","4","4","4","1","-1","0","1","0","1","1","0","4","4","4","4","4","4","4","4","4","4","5","5","5","5","5","4","5","4","5","5","3","5","5","5","3","5","3","5","5","1","4","3","5","3","5","5","5","5","5","5","3","3","3","5","3","5","5","5","5","5","5","5","5","5","3","4","5","6","2","6","689181573102174208","黄","610","Male","[""坏我"",""坏他"",""好我"",""好他""]","[""弱我"",""弱他"",""强我"",""强他""]","","","","","","","","yes","","","","","","","","","SRET","EW_formal","","key","f","16.68","1280","716","自己","谦逊","Positive","morality","","","","","","","","","","",""
"932","","f","psychophysics","35","210699","0.0-7.0-3.0-0.21","3","3","3","3","3","4","4","4","4","4","4","1","-1","0","1","0","1","1","0","4","4","4","4","4","4","4","4","4","4","5","5","5","5","5","4","5","4","5","5","3","5","5","5","3","5","3","5","5","1","4","3","5","3","5","5","5","5","5","5","3","3","3","5","3","5","5","5","5","5","5","5","5","5","3","4","5","6","2","6","689181573102174208","黄","610","Male","[""坏我"",""坏他"",""好我"",""好他""]","[""弱我"",""弱他"",""强我"",""强他""]","","","","","","","","yes","","","","","","","","","SRET","EW_formal","","key","f","16.681739130434984","1280","716","朋友","廉明","Positive","morality","","","","","","","","","","",""
"1295","","f","psychophysics","36","212994","0.0-7.0-3.0-0.22","3","3","3","3","3","4","4","4","4","4","4","1","-1","0","1","0","1","1","0","4","4","4","4","4","4","4","4","4","4","5","5","5","5","5","4","5","4","5","5","3","5","5","5","3","5","3","5","5","1","4","3","5","3","5","5","5","5","5","5","3","3","3","5","3","5","5","5","5","5","5","5","5","5","3","4","5","6","2","6","689181573102174208","黄","610","Male","[""坏我"",""坏他"",""好我"",""好他""]","[""弱我"",""弱他"",""强我"",""强他""]","","","","","","","","yes","","","","","","","","","SRET","EW_formal","","key","f","16.682352941176386","1280","716","朋友","廉正","Positive","morality","","","","","","","","","","",""
"957","","f","psychophysics","37","214953","0.0-7.0-3.0-0.23","3","3","3","3","3","4","4","4","4","4","4","1","-1","0","1","0","1","1","0","4","4","4","4","4","4","4","4","4","4","5","5","5","5","5","4","5","4","5","5","3","5","5","5","3","5","3","5","5","1","4","3","5","3","5","5","5","5","5","5","3","3","3","5","3","5","5","5","5","5","5","5","5","5","3","4","5","6","2","6","689181573102174208","黄","610","Male","[""坏我"",""坏他"",""好我"",""好他""]","[""弱我"",""弱他"",""强我"",""强他""]","","","","","","","","yes","","","","","","","","","SRET","EW_formal","","key","f","16.68119658119668","1280","716","朋友","利落","Positive","ability","","","","","","","","","","",""
"957","","f","psychophysics","38","216910","0.0-7.0-3.0-0.24","3","3","3","3","3","4","4","4","4","4","4","1","-1","0","1","0","1","1","0","4","4","4","4","4","4","4","4","4","4","5","5","5","5","5","4","5","4","5","5","3","5","5","5","3","5","3","5","5","1","4","3","5","3","5","5","5","5","5","5","3","3","3","5","3","5","5","5","5","5","5","5","5","5","3","4","5","6","2","6","689181573102174208","黄","610","Male","[""坏我"",""坏他"",""好我"",""好他""]","[""弱我"",""弱他"",""强我"",""强他""]","","","","","","","","yes","","","","","","","","","SRET","EW_formal","","key","f","16.681896551723938","1280","716","朋友","博识","Positive","ability","","","","","","","","","","",""
"1021","","f","psychophysics","39","218932","0.0-7.0-3.0-0.25","3","3","3","3","3","4","4","4","4","4","4","1","-1","0","1","0","1","1","0","4","4","4","4","4","4","4","4","4","4","5","5","5","5","5","4","5","4","5","5","3","5","5","5","3","5","3","5","5","1","4","3","5","3","5","5","5","5","5","5","3","3","3","5","3","5","5","5","5","5","5","5","5","5","3","4","5","6","2","6","689181573102174208","黄","610","Male","[""坏我"",""坏他"",""好我"",""好他""]","[""弱我"",""弱他"",""强我"",""强他""]","","","","","","","","yes","","","","","","","","","SRET","EW_formal","","key","f","16.68083333333343","1280","716","自己","礼貌","Positive","morality","","","","","","","","","","",""
"925","","f","psychophysics","40","220858","0.0-7.0-3.0-0.26","3","3","3","3","3","4","4","4","4","4","4","1","-1","0","1","0","1","1","0","4","4","4","4","4","4","4","4","4","4","5","5","5","5","5","4","5","4","5","5","3","5","5","5","3","5","3","5","5","1","4","3","5","3","5","5","5","5","5","5","3","3","3","5","3","5","5","5","5","5","5","5","5","5","3","4","5","6","2","6","689181573102174208","黄","610","Male","[""坏我"",""坏他"",""好我"",""好他""]","[""弱我"",""弱他"",""强我"",""强他""]","","","","","","","","yes","","","","","","","","","SRET","EW_formal","","key","f","16.679999999999847","1280","716","自己","守时","Positive","morality","","","","","","","","","","",""
"914","","j","psychophysics","41","222773","0.0-7.0-3.0-0.27","3","3","3","3","3","4","4","4","4","4","4","1","-1","0","1","0","1","1","0","4","4","4","4","4","4","4","4","4","4","5","5","5","5","5","4","5","4","5","5","3","5","5","5","3","5","3","5","5","1","4","3","5","3","5","5","5","5","5","5","3","3","3","5","3","5","5","5","5","5","5","5","5","5","3","4","5","6","2","6","689181573102174208","黄","610","Male","[""坏我"",""坏他"",""好我"",""好他""]","[""弱我"",""弱他"",""强我"",""强他""]","","","","","","","","no","","","","","","","","","SRET","EW_formal","","key","j","16.67982456140351","1280","716","朋友","邪恶","Negative","morality","","","","","","","","","","",""
"1032","","j","psychophysics","42","224806","0.0-7.0-3.0-0.28","3","3","3","3","3","4","4","4","4","4","4","1","-1","0","1","0","1","1","0","4","4","4","4","4","4","4","4","4","4","5","5","5","5","5","4","5","4","5","5","3","5","5","5","3","5","3","5","5","1","4","3","5","3","5","5","5","5","5","5","3","3","3","5","3","5","5","5","5","5","5","5","5","5","3","4","5","6","2","6","689181573102174208","黄","610","Male","[""坏我"",""坏他"",""好我"",""好他""]","[""弱我"",""弱他"",""强我"",""强他""]","","","","","","","","no","","","","","","","","","SRET","EW_formal","","key","j","16.680165289256102","1280","716","朋友","蛇蝎","Negative","morality","","","","","","","","","","",""
"977","","f","psychophysics","43","226784","0.0-7.0-3.0-0.29","3","3","3","3","3","4","4","4","4","4","4","1","-1","0","1","0","1","1","0","4","4","4","4","4","4","4","4","4","4","5","5","5","5","5","4","5","4","5","5","3","5","5","5","3","5","3","5","5","1","4","3","5","3","5","5","5","5","5","5","3","3","3","5","3","5","5","5","5","5","5","5","5","5","3","4","5","6","2","6","689181573102174208","黄","610","Male","[""坏我"",""坏他"",""好我"",""好他""]","[""弱我"",""弱他"",""强我"",""强他""]","","","","","","","","yes","","","","","","","","","SRET","EW_formal","","key","f","16.682051282051184","1280","716","自己","精干","Positive","ability","","","","","","","","","","",""
"1028","","j","psychophysics","44","228813","0.0-7.0-3.0-0.30","3","3","3","3","3","4","4","4","4","4","4","1","-1","0","1","0","1","1","0","4","4","4","4","4","4","4","4","4","4","5","5","5","5","5","4","5","4","5","5","3","5","5","5","3","5","3","5","5","1","4","3","5","3","5","5","5","5","5","5","3","3","3","5","3","5","5","5","5","5","5","5","5","5","3","4","5","6","2","6","689181573102174208","黄","610","Male","[""坏我"",""坏他"",""好我"",""好他""]","[""弱我"",""弱他"",""强我"",""强他""]","","","","","","","","no","","","","","","","","","SRET","EW_formal","","key","j","16.681818181818183","1280","716","自己","无知","Negative","ability","","","","","","","","","","",""
"921","","j","psychophysics","45","230735","0.0-7.0-3.0-0.31","3","3","3","3","3","4","4","4","4","4","4","1","-1","0","1","0","1","1","0","4","4","4","4","4","4","4","4","4","4","5","5","5","5","5","4","5","4","5","5","3","5","5","5","3","5","3","5","5","1","4","3","5","3","5","5","5","5","5","5","3","3","3","5","3","5","5","5","5","5","5","5","5","5","3","4","5","6","2","6","689181573102174208","黄","610","Male","[""坏我"",""坏他"",""好我"",""好他""]","[""弱我"",""弱他"",""强我"",""强他""]","","","","","","","","no","","","","","","","","","SRET","EW_formal","","key","j","16.680701754386018","1280","716","自己","无耻","Negative","morality","","","","","","","","","","",""
"1153","","j","psychophysics","46","232889","0.0-7.0-3.0-0.32","3","3","3","3","3","4","4","4","4","4","4","1","-1","0","1","0","1","1","0","4","4","4","4","4","4","4","4","4","4","5","5","5","5","5","4","5","4","5","5","3","5","5","5","3","5","3","5","5","1","4","3","5","3","5","5","5","5","5","5","3","3","3","5","3","5","5","5","5","5","5","5","5","5","3","4","5","6","2","6","689181573102174208","黄","610","Male","[""坏我"",""坏他"",""好我"",""好他""]","[""弱我"",""弱他"",""强我"",""强他""]","","","","","","","","no","","","","","","","","","SRET","EW_formal","","key","j","16.6796875","1280","716","自己","迂拙","Negative","ability","","","","","","","","","","",""
"869","","f","psychophysics","47","234759","0.0-7.0-3.0-0.33","3","3","3","3","3","4","4","4","4","4","4","1","-1","0","1","0","1","1","0","4","4","4","4","4","4","4","4","4","4","5","5","5","5","5","4","5","4","5","5","3","5","5","5","3","5","3","5","5","1","4","3","5","3","5","5","5","5","5","5","3","3","3","5","3","5","5","5","5","5","5","5","5","5","3","4","5","6","2","6","689181573102174208","黄","610","Male","[""坏我"",""坏他"",""好我"",""好他""]","[""弱我"",""弱他"",""强我"",""强他""]","","","","","","","","yes","","","","","","","","","SRET","EW_formal","","key","f","16.68288288288304","1280","716","朋友","守信","Positive","morality","","","","","","","","","","",""
"1157","","j","psychophysics","48","236918","0.0-7.0-3.0-0.34","3","3","3","3","3","4","4","4","4","4","4","1","-1","0","1","0","1","1","0","4","4","4","4","4","4","4","4","4","4","5","5","5","5","5","4","5","4","5","5","3","5","5","5","3","5","3","5","5","1","4","3","5","3","5","5","5","5","5","5","3","3","3","5","3","5","5","5","5","5","5","5","5","5","3","4","5","6","2","6","689181573102174208","黄","610","Male","[""坏我"",""坏他"",""好我"",""好他""]","[""弱我"",""弱他"",""强我"",""强他""]","","","","","","","","no","","","","","","","","","SRET","EW_formal","","key","j","16.679844961240175","1280","716","自己","狡诈","Negative","morality","","","","","","","","","","",""
"882","","j","psychophysics","49","238801","0.0-7.0-3.0-0.35","3","3","3","3","3","4","4","4","4","4","4","1","-1","0","1","0","1","1","0","4","4","4","4","4","4","4","4","4","4","5","5","5","5","5","4","5","4","5","5","3","5","5","5","3","5","3","5","5","1","4","3","5","3","5","5","5","5","5","5","3","3","3","5","3","5","5","5","5","5","5","5","5","5","3","4","5","6","2","6","689181573102174208","黄","610","Male","[""坏我"",""坏他"",""好我"",""好他""]","[""弱我"",""弱他"",""强我"",""强他""]","","","","","","","","no","","","","","","","","","SRET","EW_formal","","key","j","16.67946428571434","1280","716","朋友","缺德","Negative","morality","","","","","","","","","","",""
"1039","","f","psychophysics","50","240841","0.0-7.0-3.0-0.36","3","3","3","3","3","4","4","4","4","4","4","1","-1","0","1","0","1","1","0","4","4","4","4","4","4","4","4","4","4","5","5","5","5","5","4","5","4","5","5","3","5","5","5","3","5","3","5","5","1","4","3","5","3","5","5","5","5","5","5","3","3","3","5","3","5","5","5","5","5","5","5","5","5","3","4","5","6","2","6","689181573102174208","黄","610","Male","[""坏我"",""坏他"",""好我"",""好他""]","[""弱我"",""弱他"",""强我"",""强他""]","","","","","","","","yes","","","","","","","","","SRET","EW_formal","","key","f","16.681818181818183","1280","716","朋友","君子","Positive","morality","","","","","","","","","","",""
"1526","","f","psychophysics","51","243367","0.0-7.0-3.0-0.37","3","3","3","3","3","4","4","4","4","4","4","1","-1","0","1","0","1","1","0","4","4","4","4","4","4","4","4","4","4","5","5","5","5","5","4","5","4","5","5","3","5","5","5","3","5","3","5","5","1","4","3","5","3","5","5","5","5","5","5","3","3","3","5","3","5","5","5","5","5","5","5","5","5","3","4","5","6","2","6","689181573102174208","黄","610","Male","[""坏我"",""坏他"",""好我"",""好他""]","[""弱我"",""弱他"",""强我"",""强他""]","","","","","","","","yes","","","","","","","","","SRET","EW_formal","","key","f","16.68","1280","716","朋友","中用","Positive","ability","","","","","","","","","","",""
"1037","","f","psychophysics","52","245406","0.0-7.0-3.0-0.38","3","3","3","3","3","4","4","4","4","4","4","1","-1","0","1","0","1","1","0","4","4","4","4","4","4","4","4","4","4","5","5","5","5","5","4","5","4","5","5","3","5","5","5","3","5","3","5","5","1","4","3","5","3","5","5","5","5","5","5","3","3","3","5","3","5","5","5","5","5","5","5","5","5","3","4","5","6","2","6","689181573102174208","黄","610","Male","[""坏我"",""坏他"",""好我"",""好他""]","[""弱我"",""弱他"",""强我"",""强他""]","","","","","","","","yes","","","","","","","","","SRET","EW_formal","","key","f","16.68032786885246","1280","716","自己","义气","Positive","morality","","","","","","","","","","",""
"963","","f","psychophysics","53","247371","0.0-7.0-3.0-0.39","3","3","3","3","3","4","4","4","4","4","4","1","-1","0","1","0","1","1","0","4","4","4","4","4","4","4","4","4","4","5","5","5","5","5","4","5","4","5","5","3","5","5","5","3","5","3","5","5","1","4","3","5","3","5","5","5","5","5","5","3","3","3","5","3","5","5","5","5","5","5","5","5","5","3","4","5","6","2","6","689181573102174208","黄","610","Male","[""坏我"",""坏他"",""好我"",""好他""]","[""弱我"",""弱他"",""强我"",""强他""]","","","","","","","","yes","","","","","","","","","SRET","EW_formal","","key","f","16.679310344827737","1280","716","朋友","勤恳","Positive","morality","","","","","","","","","","",""
"1094","","f","psychophysics","54","249466","0.0-7.0-3.0-0.40","3","3","3","3","3","4","4","4","4","4","4","1","-1","0","1","0","1","1","0","4","4","4","4","4","4","4","4","4","4","5","5","5","5","5","4","5","4","5","5","3","5","5","5","3","5","3","5","5","1","4","3","5","3","5","5","5","5","5","5","3","3","3","5","3","5","5","5","5","5","5","5","5","5","3","4","5","6","2","6","689181573102174208","黄","610","Male","[""坏我"",""坏他"",""好我"",""好他""]","[""弱我"",""弱他"",""强我"",""强他""]","","","","","","","","yes","","","","","","","","","SRET","EW_formal","","key","f","16.68","1280","716","朋友","上进","Positive","ability","","","","","","","","","","",""
"1044","","j","psychophysics","55","251510","0.0-7.0-3.0-0.41","3","3","3","3","3","4","4","4","4","4","4","1","-1","0","1","0","1","1","0","4","4","4","4","4","4","4","4","4","4","5","5","5","5","5","4","5","4","5","5","3","5","5","5","3","5","3","5","5","1","4","3","5","3","5","5","5","5","5","5","3","3","3","5","3","5","5","5","5","5","5","5","5","5","3","4","5","6","2","6","689181573102174208","黄","610","Male","[""坏我"",""坏他"",""好我"",""好他""]","[""弱我"",""弱他"",""强我"",""强他""]","","","","","","","","no","","","","","","","","","SRET","EW_formal","","key","j","16.68032786885246","1280","716","朋友","毛糙","Negative","ability","","","","","","","","","","",""
"890","","j","psychophysics","56","253401","0.0-7.0-3.0-0.42","3","3","3","3","3","4","4","4","4","4","4","1","-1","0","1","0","1","1","0","4","4","4","4","4","4","4","4","4","4","5","5","5","5","5","4","5","4","5","5","3","5","5","5","3","5","3","5","5","1","4","3","5","3","5","5","5","5","5","5","3","3","3","5","3","5","5","5","5","5","5","5","5","5","3","4","5","6","2","6","689181573102174208","黄","610","Male","[""坏我"",""坏他"",""好我"",""好他""]","[""弱我"",""弱他"",""强我"",""强他""]","","","","","","","","no","","","","","","","","","SRET","EW_formal","","key","j","16.67946428571434","1280","716","朋友","草率","Negative","ability","","","","","","","","","","",""
"1268","","f","psychophysics","57","255670","0.0-7.0-3.0-0.43","3","3","3","3","3","4","4","4","4","4","4","1","-1","0","1","0","1","1","0","4","4","4","4","4","4","4","4","4","4","5","5","5","5","5","4","5","4","5","5","3","5","5","5","3","5","3","5","5","1","4","3","5","3","5","5","5","5","5","5","3","3","3","5","3","5","5","5","5","5","5","5","5","5","3","4","5","6","2","6","689181573102174208","黄","610","Male","[""坏我"",""坏他"",""好我"",""好他""]","[""弱我"",""弱他"",""强我"",""强他""]","","","","","","","","yes","","","","","","","","","SRET","EW_formal","","key","f","16.679999999999914","1280","716","自己","淡泊","Positive","morality","","","","","","","","","","",""
"887","","j","psychophysics","58","257559","0.0-7.0-3.0-0.44","3","3","3","3","3","4","4","4","4","4","4","1","-1","0","1","0","1","1","0","4","4","4","4","4","4","4","4","4","4","5","5","5","5","5","4","5","4","5","5","3","5","5","5","3","5","3","5","5","1","4","3","5","3","5","5","5","5","5","5","3","3","3","5","3","5","5","5","5","5","5","5","5","5","3","4","5","6","2","6","689181573102174208","黄","610","Male","[""坏我"",""坏他"",""好我"",""好他""]","[""弱我"",""弱他"",""强我"",""强他""]","","","","","","","","no","","","","","","","","","SRET","EW_formal","","key","j","16.67946428571408","1280","716","自己","短视","Negative","ability","","","","","","","","","","",""
"1225","","f","psychophysics","59","259785","0.0-7.0-3.0-0.45","3","3","3","3","3","4","4","4","4","4","4","1","-1","0","1","0","1","1","0","4","4","4","4","4","4","4","4","4","4","5","5","5","5","5","4","5","4","5","5","3","5","5","5","3","5","3","5","5","1","4","3","5","3","5","5","5","5","5","5","3","3","3","5","3","5","5","5","5","5","5","5","5","5","3","4","5","6","2","6","689181573102174208","黄","610","Male","[""坏我"",""坏他"",""好我"",""好他""]","[""弱我"",""弱他"",""强我"",""强他""]","","","","","","","","yes","","","","","","","","","SRET","EW_formal","","key","f","16.681203007518842","1280","716","朋友","博学","Positive","ability","","","","","","","","","","",""
"911","","f","psychophysics","60","261697","0.0-7.0-3.0-0.46","3","3","3","3","3","4","4","4","4","4","4","1","-1","0","1","0","1","1","0","4","4","4","4","4","4","4","4","4","4","5","5","5","5","5","4","5","4","5","5","3","5","5","5","3","5","3","5","5","1","4","3","5","3","5","5","5","5","5","5","3","3","3","5","3","5","5","5","5","5","5","5","5","5","3","4","5","6","2","6","689181573102174208","黄","610","Male","[""坏我"",""坏他"",""好我"",""好他""]","[""弱我"",""弱他"",""强我"",""强他""]","","","","","","","","yes","","","","","","","","","SRET","EW_formal","","key","f","16.679646017699014","1280","716","朋友","善良","Positive","morality","","","","","","","","","","",""
"1437","","j","psychophysics","61","264134","0.0-7.0-3.0-0.47","3","3","3","3","3","4","4","4","4","4","4","1","-1","0","1","0","1","1","0","4","4","4","4","4","4","4","4","4","4","5","5","5","5","5","4","5","4","5","5","3","5","5","5","3","5","3","5","5","1","4","3","5","3","5","5","5","5","5","5","3","3","3","5","3","5","5","5","5","5","5","5","5","5","3","4","5","6","2","6","689181573102174208","黄","610","Male","[""坏我"",""坏他"",""好我"",""好他""]","[""弱我"",""弱他"",""强我"",""强他""]","","","","","","","","no","","","","","","","","","SRET","EW_formal","","key","j","16.680689655172493","1280","716","自己","慈悲","Positive","morality","","","","","","","","","","",""
"938","","j","psychophysics","62","266074","0.0-7.0-3.0-0.48","3","3","3","3","3","4","4","4","4","4","4","1","-1","0","1","0","1","1","0","4","4","4","4","4","4","4","4","4","4","5","5","5","5","5","4","5","4","5","5","3","5","5","5","3","5","3","5","5","1","4","3","5","3","5","5","5","5","5","5","3","3","3","5","3","5","5","5","5","5","5","5","5","5","3","4","5","6","2","6","689181573102174208","黄","610","Male","[""坏我"",""坏他"",""好我"",""好他""]","[""弱我"",""弱他"",""强我"",""强他""]","","","","","","","","no","","","","","","","","","SRET","EW_formal","","key","j","16.68189655172444","1280","716","朋友","诡诈","Negative","morality","","","","","","","","","","",""
"938","","f","psychophysics","63","268013","0.0-7.0-3.0-0.49","3","3","3","3","3","4","4","4","4","4","4","1","-1","0","1","0","1","1","0","4","4","4","4","4","4","4","4","4","4","5","5","5","5","5","4","5","4","5","5","3","5","5","5","3","5","3","5","5","1","4","3","5","3","5","5","5","5","5","5","3","3","3","5","3","5","5","5","5","5","5","5","5","5","3","4","5","6","2","6","689181573102174208","黄","610","Male","[""坏我"",""坏他"",""好我"",""好他""]","[""弱我"",""弱他"",""强我"",""强他""]","","","","","","","","yes","","","","","","","","","SRET","EW_formal","","key","f","16.68173913043448","1280","716","自己","爱国","Positive","morality","","","","","","","","","","",""
"826","","j","psychophysics","64","269840","0.0-7.0-3.0-0.50","3","3","3","3","3","4","4","4","4","4","4","1","-1","0","1","0","1","1","0","4","4","4","4","4","4","4","4","4","4","5","5","5","5","5","4","5","4","5","5","3","5","5","5","3","5","3","5","5","1","4","3","5","3","5","5","5","5","5","5","3","3","3","5","3","5","5","5","5","5","5","5","5","5","3","4","5","6","2","6","689181573102174208","黄","610","Male","[""坏我"",""坏他"",""好我"",""好他""]","[""弱我"",""弱他"",""强我"",""强他""]","","","","","","","","no","","","","","","","","","SRET","EW_formal","","key","j","16.683333333333763","1280","716","自己","失信","Negative","morality","","","","","","","","","","",""
"1097","","j","psychophysics","65","271938","0.0-7.0-3.0-0.51","3","3","3","3","3","4","4","4","4","4","4","1","-1","0","1","0","1","1","0","4","4","4","4","4","4","4","4","4","4","5","5","5","5","5","4","5","4","5","5","3","5","5","5","3","5","3","5","5","1","4","3","5","3","5","5","5","5","5","5","3","3","3","5","3","5","5","5","5","5","5","5","5","5","3","4","5","6","2","6","689181573102174208","黄","610","Male","[""坏我"",""坏他"",""好我"",""好他""]","[""弱我"",""弱他"",""强我"",""强他""]","","","","","","","","no","","","","","","","","","SRET","EW_formal","","key","j","16.681600000000092","1280","716","自己","不端","Negative","morality","","","","","","","","","","",""
"973","","f","psychophysics","66","273912","0.0-7.0-3.0-0.52","3","3","3","3","3","4","4","4","4","4","4","1","-1","0","1","0","1","1","0","4","4","4","4","4","4","4","4","4","4","5","5","5","5","5","4","5","4","5","5","3","5","5","5","3","5","3","5","5","1","4","3","5","3","5","5","5","5","5","5","3","3","3","5","3","5","5","5","5","5","5","5","5","5","3","4","5","6","2","6","689181573102174208","黄","610","Male","[""坏我"",""坏他"",""好我"",""好他""]","[""弱我"",""弱他"",""强我"",""强他""]","","","","","","","","yes","","","","","","","","","SRET","EW_formal","","key","f","16.68220338983051","1280","716","朋友","努力","Positive","ability","","","","","","","","","","",""
"1079","","f","psychophysics","67","275992","0.0-7.0-3.0-0.53","3","3","3","3","3","4","4","4","4","4","4","1","-1","0","1","0","1","1","0","4","4","4","4","4","4","4","4","4","4","5","5","5","5","5","4","5","4","5","5","3","5","5","5","3","5","3","5","5","1","4","3","5","3","5","5","5","5","5","5","3","3","3","5","3","5","5","5","5","5","5","5","5","5","3","4","5","6","2","6","689181573102174208","黄","610","Male","[""坏我"",""坏他"",""好我"",""好他""]","[""弱我"",""弱他"",""强我"",""强他""]","","","","","","","","yes","","","","","","","","","SRET","EW_formal","","key","f","16.67723577235763","1280","716","朋友","娴熟","Positive","ability","","","","","","","","","","",""
"1261","","f","psychophysics","68","278253","0.0-7.0-3.0-0.54","3","3","3","3","3","4","4","4","4","4","4","1","-1","0","1","0","1","1","0","4","4","4","4","4","4","4","4","4","4","5","5","5","5","5","4","5","4","5","5","3","5","5","5","3","5","3","5","5","1","4","3","5","3","5","5","5","5","5","5","3","3","3","5","3","5","5","5","5","5","5","5","5","5","3","4","5","6","2","6","689181573102174208","黄","610","Male","[""坏我"",""坏他"",""好我"",""好他""]","[""弱我"",""弱他"",""强我"",""强他""]","","","","","","","","yes","","","","","","","","","SRET","EW_formal","","key","f","16.680740740740482","1280","716","自己","坚持","Positive","ability","","","","","","","","","","",""
"1257","","j","psychophysics","69","280510","0.0-7.0-3.0-0.55","3","3","3","3","3","4","4","4","4","4","4","1","-1","0","1","0","1","1","0","4","4","4","4","4","4","4","4","4","4","5","5","5","5","5","4","5","4","5","5","3","5","5","5","3","5","3","5","5","1","4","3","5","3","5","5","5","5","5","5","3","3","3","5","3","5","5","5","5","5","5","5","5","5","3","4","5","6","2","6","689181573102174208","黄","610","Male","[""坏我"",""坏他"",""好我"",""好他""]","[""弱我"",""弱他"",""强我"",""强他""]","","","","","","","","no","","","","","","","","","SRET","EW_formal","","key","j","16.67985074626892","1280","716","自己","无为","Negative","ability","","","","","","","","","","",""
"929","","j","psychophysics","70","282440","0.0-7.0-3.0-0.56","3","3","3","3","3","4","4","4","4","4","4","1","-1","0","1","0","1","1","0","4","4","4","4","4","4","4","4","4","4","5","5","5","5","5","4","5","4","5","5","3","5","5","5","3","5","3","5","5","1","4","3","5","3","5","5","5","5","5","5","3","3","3","5","3","5","5","5","5","5","5","5","5","5","3","4","5","6","2","6","689181573102174208","黄","610","Male","[""坏我"",""坏他"",""好我"",""好他""]","[""弱我"",""弱他"",""强我"",""强他""]","","","","","","","","no","","","","","","","","","SRET","EW_formal","","key","j","16.680000000000103","1280","716","朋友","奸诈","Negative","morality","","","","","","","","","","",""
"1146","","j","psychophysics","71","284586","0.0-7.0-3.0-0.57","3","3","3","3","3","4","4","4","4","4","4","1","-1","0","1","0","1","1","0","4","4","4","4","4","4","4","4","4","4","5","5","5","5","5","4","5","4","5","5","3","5","5","5","3","5","3","5","5","1","4","3","5","3","5","5","5","5","5","5","3","3","3","5","3","5","5","5","5","5","5","5","5","5","3","4","5","6","2","6","689181573102174208","黄","610","Male","[""坏我"",""坏他"",""好我"",""好他""]","[""弱我"",""弱他"",""强我"",""强他""]","","","","","","","","no","","","","","","","","","SRET","EW_formal","","key","j","16.680468749999818","1280","716","自己","自私","Negative","morality","","","","","","","","","","",""
"977","","j","psychophysics","72","286564","0.0-7.0-3.0-0.58","3","3","3","3","3","4","4","4","4","4","4","1","-1","0","1","0","1","1","0","4","4","4","4","4","4","4","4","4","4","5","5","5","5","5","4","5","4","5","5","3","5","5","5","3","5","3","5","5","1","4","3","5","3","5","5","5","5","5","5","3","3","3","5","3","5","5","5","5","5","5","5","5","5","3","4","5","6","2","6","689181573102174208","黄","610","Male","[""坏我"",""坏他"",""好我"",""好他""]","[""弱我"",""弱他"",""强我"",""强他""]","","","","","","","","no","","","","","","","","","SRET","EW_formal","","key","j","16.680341880341683","1280","716","自己","短浅","Negative","ability","","","","","","","","","","",""
"1130","","f","psychophysics","73","288695","0.0-7.0-3.0-0.59","3","3","3","3","3","4","4","4","4","4","4","1","-1","0","1","0","1","1","0","4","4","4","4","4","4","4","4","4","4","5","5","5","5","5","4","5","4","5","5","3","5","5","5","3","5","3","5","5","1","4","3","5","3","5","5","5","5","5","5","3","3","3","5","3","5","5","5","5","5","5","5","5","5","3","4","5","6","2","6","689181573102174208","黄","610","Male","[""坏我"",""坏他"",""好我"",""好他""]","[""弱我"",""弱他"",""强我"",""强他""]","","","","","","","","yes","","","","","","","","","SRET","EW_formal","","key","f","16.679527559055025","1280","716","自己","拖拉","Negative","ability","","","","","","","","","","",""
"835","","j","psychophysics","74","290531","0.0-7.0-3.0-0.60","3","3","3","3","3","4","4","4","4","4","4","1","-1","0","1","0","1","1","0","4","4","4","4","4","4","4","4","4","4","5","5","5","5","5","4","5","4","5","5","3","5","5","5","3","5","3","5","5","1","4","3","5","3","5","5","5","5","5","5","3","3","3","5","3","5","5","5","5","5","5","5","5","5","3","4","5","6","2","6","689181573102174208","黄","610","Male","[""坏我"",""坏他"",""好我"",""好他""]","[""弱我"",""弱他"",""强我"",""强他""]","","","","","","","","no","","","","","","","","","SRET","EW_formal","","key","j","16.680733944954234","1280","716","自己","废物","Negative","ability","","","","","","","","","","",""
"957","","j","psychophysics","75","292488","0.0-7.0-3.0-0.61","3","3","3","3","3","4","4","4","4","4","4","1","-1","0","1","0","1","1","0","4","4","4","4","4","4","4","4","4","4","5","5","5","5","5","4","5","4","5","5","3","5","5","5","3","5","3","5","5","1","4","3","5","3","5","5","5","5","5","5","3","3","3","5","3","5","5","5","5","5","5","5","5","5","3","4","5","6","2","6","689181573102174208","黄","610","Male","[""坏我"",""坏他"",""好我"",""好他""]","[""弱我"",""弱他"",""强我"",""强他""]","","","","","","","","no","","","","","","","","","SRET","EW_formal","","key","j","16.681896551723938","1280","716","朋友","无赖","Negative","morality","","","","","","","","","","",""
"970","","f","psychophysics","76","294460","0.0-7.0-3.0-0.62","3","3","3","3","3","4","4","4","4","4","4","1","-1","0","1","0","1","1","0","4","4","4","4","4","4","4","4","4","4","5","5","5","5","5","4","5","4","5","5","3","5","5","5","3","5","3","5","5","1","4","3","5","3","5","5","5","5","5","5","3","3","3","5","3","5","5","5","5","5","5","5","5","5","3","4","5","6","2","6","689181573102174208","黄","610","Male","[""坏我"",""坏他"",""好我"",""好他""]","[""弱我"",""弱他"",""强我"",""强他""]","","","","","","","","yes","","","","","","","","","SRET","EW_formal","","key","f","16.67863247863218","1280","716","朋友","高洁","Positive","morality","","","","","","","","","","",""
"1005","","f","psychophysics","77","296467","0.0-7.0-3.0-0.63","3","3","3","3","3","4","4","4","4","4","4","1","-1","0","1","0","1","1","0","4","4","4","4","4","4","4","4","4","4","5","5","5","5","5","4","5","4","5","5","3","5","5","5","3","5","3","5","5","1","4","3","5","3","5","5","5","5","5","5","3","3","3","5","3","5","5","5","5","5","5","5","5","5","3","4","5","6","2","6","689181573102174208","黄","610","Male","[""坏我"",""坏他"",""好我"",""好他""]","[""弱我"",""弱他"",""强我"",""强他""]","","","","","","","","yes","","","","","","","","","SRET","EW_formal","","key","f","16.68166666666657","1280","716","自己","有力","Positive","ability","","","","","","","","","","",""
"1089","","j","psychophysics","78","298557","0.0-7.0-3.0-0.64","3","3","3","3","3","4","4","4","4","4","4","1","-1","0","1","0","1","1","0","4","4","4","4","4","4","4","4","4","4","5","5","5","5","5","4","5","4","5","5","3","5","5","5","3","5","3","5","5","1","4","3","5","3","5","5","5","5","5","5","3","3","3","5","3","5","5","5","5","5","5","5","5","5","3","4","5","6","2","6","689181573102174208","黄","610","Male","[""坏我"",""坏他"",""好我"",""好他""]","[""弱我"",""弱他"",""强我"",""强他""]","","","","","","","","no","","","","","","","","","SRET","EW_formal","","key","j","16.68064516129051","1280","716","朋友","庸碌","Negative","ability","","","","","","","","","","",""
"959","","j","psychophysics","79","300517","0.0-7.0-3.0-0.65","3","3","3","3","3","4","4","4","4","4","4","1","-1","0","1","0","1","1","0","4","4","4","4","4","4","4","4","4","4","5","5","5","5","5","4","5","4","5","5","3","5","5","5","3","5","3","5","5","1","4","3","5","3","5","5","5","5","5","5","3","3","3","5","3","5","5","5","5","5","5","5","5","5","3","4","5","6","2","6","689181573102174208","黄","610","Male","[""坏我"",""坏他"",""好我"",""好他""]","[""弱我"",""弱他"",""强我"",""强他""]","","","","","","","","no","","","","","","","","","SRET","EW_formal","","key","j","16.68119658119668","1280","716","朋友","昏庸","Negative","ability","","","","","","","","","","",""
"1054","","j","psychophysics","80","302573","0.0-7.0-3.0-0.66","3","3","3","3","3","4","4","4","4","4","4","1","-1","0","1","0","1","1","0","4","4","4","4","4","4","4","4","4","4","5","5","5","5","5","4","5","4","5","5","3","5","5","5","3","5","3","5","5","1","4","3","5","3","5","5","5","5","5","5","3","3","3","5","3","5","5","5","5","5","5","5","5","5","3","4","5","6","2","6","689181573102174208","黄","610","Male","[""坏我"",""坏他"",""好我"",""好他""]","[""弱我"",""弱他"",""强我"",""强他""]","","","","","","","","no","","","","","","","","","SRET","EW_formal","","key","j","16.68196721311485","1280","716","自己","龌龊","Negative","morality","","","","","","","","","","",""
"1030","","f","psychophysics","81","304604","0.0-7.0-3.0-0.67","3","3","3","3","3","4","4","4","4","4","4","1","-1","0","1","0","1","1","0","4","4","4","4","4","4","4","4","4","4","5","5","5","5","5","4","5","4","5","5","3","5","5","5","3","5","3","5","5","1","4","3","5","3","5","5","5","5","5","5","3","3","3","5","3","5","5","5","5","5","5","5","5","5","3","4","5","6","2","6","689181573102174208","黄","610","Male","[""坏我"",""坏他"",""好我"",""好他""]","[""弱我"",""弱他"",""强我"",""强他""]","","","","","","","","yes","","","","","","","","","SRET","EW_formal","","key","f","16.681818181818183","1280","716","朋友","周到","Positive","ability","","","","","","","","","","",""
"1058","","f","psychophysics","82","306664","0.0-7.0-3.0-0.68","3","3","3","3","3","4","4","4","4","4","4","1","-1","0","1","0","1","1","0","4","4","4","4","4","4","4","4","4","4","5","5","5","5","5","4","5","4","5","5","3","5","5","5","3","5","3","5","5","1","4","3","5","3","5","5","5","5","5","5","3","3","3","5","3","5","5","5","5","5","5","5","5","5","3","4","5","6","2","6","689181573102174208","黄","610","Male","[""坏我"",""坏他"",""好我"",""好他""]","[""弱我"",""弱他"",""强我"",""强他""]","","","","","","","","yes","","","","","","","","","SRET","EW_formal","","key","f","16.68032786885246","1280","716","自己","仗义","Positive","morality","","","","","","","","","","",""
"1188","","j","psychophysics","83","308853","0.0-7.0-3.0-0.69","3","3","3","3","3","4","4","4","4","4","4","1","-1","0","1","0","1","1","0","4","4","4","4","4","4","4","4","4","4","5","5","5","5","5","4","5","4","5","5","3","5","5","5","3","5","3","5","5","1","4","3","5","3","5","5","5","5","5","5","3","3","3","5","3","5","5","5","5","5","5","5","5","5","3","4","5","6","2","6","689181573102174208","黄","610","Male","[""坏我"",""坏他"",""好我"",""好他""]","[""弱我"",""弱他"",""强我"",""强他""]","","","","","","","","no","","","","","","","","","SRET","EW_formal","","key","j","16.680000000000177","1280","716","自己","无敌","Positive","ability","","","","","","","","","","",""
"1079","","j","psychophysics","84","310933","0.0-7.0-3.0-0.70","3","3","3","3","3","4","4","4","4","4","4","1","-1","0","1","0","1","1","0","4","4","4","4","4","4","4","4","4","4","5","5","5","5","5","4","5","4","5","5","3","5","5","5","3","5","3","5","5","1","4","3","5","3","5","5","5","5","5","5","3","3","3","5","3","5","5","5","5","5","5","5","5","5","3","4","5","6","2","6","689181573102174208","黄","610","Male","[""坏我"",""坏他"",""好我"",""好他""]","[""弱我"",""弱他"",""强我"",""强他""]","","","","","","","","no","","","","","","","","","SRET","EW_formal","","key","j","16.68064516129051","1280","716","自己","势利","Negative","morality","","","","","","","","","","",""
"841","","f","psychophysics","85","312774","0.0-7.0-3.0-0.71","3","3","3","3","3","4","4","4","4","4","4","1","-1","0","1","0","1","1","0","4","4","4","4","4","4","4","4","4","4","5","5","5","5","5","4","5","4","5","5","3","5","5","5","3","5","3","5","5","1","4","3","5","3","5","5","5","5","5","5","3","3","3","5","3","5","5","5","5","5","5","5","5","5","3","4","5","6","2","6","689181573102174208","黄","610","Male","[""坏我"",""坏他"",""好我"",""好他""]","[""弱我"",""弱他"",""强我"",""强他""]","","","","","","","","yes","","","","","","","","","SRET","EW_formal","","key","f","16.680733944954234","1280","716","自己","专注","Positive","ability","","","","","","","","","","",""
"778","","j","psychophysics","86","314554","0.0-7.0-3.0-0.72","3","3","3","3","3","4","4","4","4","4","4","1","-1","0","1","0","1","1","0","4","4","4","4","4","4","4","4","4","4","5","5","5","5","5","4","5","4","5","5","3","5","5","5","3","5","3","5","5","1","4","3","5","3","5","5","5","5","5","5","3","3","3","5","3","5","5","5","5","5","5","5","5","5","3","4","5","6","2","6","689181573102174208","黄","610","Male","[""坏我"",""坏他"",""好我"",""好他""]","[""弱我"",""弱他"",""强我"",""强他""]","","","","","","","","no","","","","","","","","","SRET","EW_formal","","key","j","16.680188679245063","1280","716","自己","歹毒","Negative","morality","","","","","","","","","","",""
"1058","","j","psychophysics","87","316614","0.0-7.0-3.0-0.73","3","3","3","3","3","4","4","4","4","4","4","1","-1","0","1","0","1","1","0","4","4","4","4","4","4","4","4","4","4","5","5","5","5","5","4","5","4","5","5","3","5","5","5","3","5","3","5","5","1","4","3","5","3","5","5","5","5","5","5","3","3","3","5","3","5","5","5","5","5","5","5","5","5","3","4","5","6","2","6","689181573102174208","黄","610","Male","[""坏我"",""坏他"",""好我"",""好他""]","[""弱我"",""弱他"",""强我"",""强他""]","","","","","","","","no","","","","","","","","","SRET","EW_formal","","key","j","16.680487804878144","1280","716","朋友","卑鄙","Negative","morality","","","","","","","","","","",""
"1235","","f","psychophysics","88","318851","0.0-7.0-3.0-0.74","3","3","3","3","3","4","4","4","4","4","4","1","-1","0","1","0","1","1","0","4","4","4","4","4","4","4","4","4","4","5","5","5","5","5","4","5","4","5","5","3","5","5","5","3","5","3","5","5","1","4","3","5","3","5","5","5","5","5","5","3","3","3","5","3","5","5","5","5","5","5","5","5","5","3","4","5","6","2","6","689181573102174208","黄","610","Male","[""坏我"",""坏他"",""好我"",""好他""]","[""弱我"",""弱他"",""强我"",""强他""]","","","","","","","","yes","","","","","","","","","SRET","EW_formal","","key","f","16.679699248120475","1280","716","自己","变通","Positive","ability","","","","","","","","","","",""
"997","","f","psychophysics","89","320849","0.0-7.0-3.0-0.75","3","3","3","3","3","4","4","4","4","4","4","1","-1","0","1","0","1","1","0","4","4","4","4","4","4","4","4","4","4","5","5","5","5","5","4","5","4","5","5","3","5","5","5","3","5","3","5","5","1","4","3","5","3","5","5","5","5","5","5","3","3","3","5","3","5","5","5","5","5","5","5","5","5","3","4","5","6","2","6","689181573102174208","黄","610","Male","[""坏我"",""坏他"",""好我"",""好他""]","[""弱我"",""弱他"",""强我"",""强他""]","","","","","","","","yes","","","","","","","","","SRET","EW_formal","","key","f","16.680672268907564","1280","716","自己","依靠","Negative","ability","","","","","","","","","","",""
"685","","j","psychophysics","90","322535","0.0-7.0-3.0-0.76","3","3","3","3","3","4","4","4","4","4","4","1","-1","0","1","0","1","1","0","4","4","4","4","4","4","4","4","4","4","5","5","5","5","5","4","5","4","5","5","3","5","5","5","3","5","3","5","5","1","4","3","5","3","5","5","5","5","5","5","3","3","3","5","3","5","5","5","5","5","5","5","5","5","3","4","5","6","2","6","689181573102174208","黄","610","Male","[""坏我"",""坏他"",""好我"",""好他""]","[""弱我"",""弱他"",""强我"",""强他""]","","","","","","","","no","","","","","","","","","SRET","EW_formal","","key","j","16.677000000000117","1280","716","自己","小人","Negative","morality","","","","","","","","","","",""
"1222","","j","psychophysics","91","324758","0.0-7.0-3.0-0.77","3","3","3","3","3","4","4","4","4","4","4","1","-1","0","1","0","1","1","0","4","4","4","4","4","4","4","4","4","4","5","5","5","5","5","4","5","4","5","5","3","5","5","5","3","5","3","5","5","1","4","3","5","3","5","5","5","5","5","5","3","3","3","5","3","5","5","5","5","5","5","5","5","5","3","4","5","6","2","6","689181573102174208","黄","610","Male","[""坏我"",""坏他"",""好我"",""好他""]","[""弱我"",""弱他"",""强我"",""强他""]","","","","","","","","no","","","","","","","","","SRET","EW_formal","","key","j","16.681818181818183","1280","716","朋友","业余","Negative","ability","","","","","","","","","","",""
"981","","j","psychophysics","92","326740","0.0-7.0-3.0-0.78","3","3","3","3","3","4","4","4","4","4","4","1","-1","0","1","0","1","1","0","4","4","4","4","4","4","4","4","4","4","5","5","5","5","5","4","5","4","5","5","3","5","5","5","3","5","3","5","5","1","4","3","5","3","5","5","5","5","5","5","3","3","3","5","3","5","5","5","5","5","5","5","5","5","3","4","5","6","2","6","689181573102174208","黄","610","Male","[""坏我"",""坏他"",""好我"",""好他""]","[""弱我"",""弱他"",""强我"",""强他""]","","","","","","","","no","","","","","","","","","SRET","EW_formal","","key","j","16.68220338983051","1280","716","朋友","拜金","Negative","morality","","","","","","","","","","",""
"1066","","j","psychophysics","93","328807","0.0-7.0-3.0-0.79","3","3","3","3","3","4","4","4","4","4","4","1","-1","0","1","0","1","1","0","4","4","4","4","4","4","4","4","4","4","5","5","5","5","5","4","5","4","5","5","3","5","5","5","3","5","3","5","5","1","4","3","5","3","5","5","5","5","5","5","3","3","3","5","3","5","5","5","5","5","5","5","5","5","3","4","5","6","2","6","689181573102174208","黄","610","Male","[""坏我"",""坏他"",""好我"",""好他""]","[""弱我"",""弱他"",""强我"",""强他""]","","","","","","","","no","","","","","","","","","SRET","EW_formal","","key","j","16.680487804878144","1280","716","朋友","迟钝","Negative","ability","","","","","","","","","","",""
"1406","","j","psychophysics","94","331213","0.0-7.0-3.0-0.80","3","3","3","3","3","4","4","4","4","4","4","1","-1","0","1","0","1","1","0","4","4","4","4","4","4","4","4","4","4","5","5","5","5","5","4","5","4","5","5","3","5","5","5","3","5","3","5","5","1","4","3","5","3","5","5","5","5","5","5","3","3","3","5","3","5","5","5","5","5","5","5","5","5","3","4","5","6","2","6","689181573102174208","黄","610","Male","[""坏我"",""坏他"",""好我"",""好他""]","[""弱我"",""弱他"",""强我"",""强他""]","","","","","","","","no","","","","","","","","","SRET","EW_formal","","key","j","16.680419580419905","1280","716","自己","不孝","Negative","morality","","","","","","","","","","",""
"1223","","j","psychophysics","95","333438","0.0-7.0-3.0-0.81","3","3","3","3","3","4","4","4","4","4","4","1","-1","0","1","0","1","1","0","4","4","4","4","4","4","4","4","4","4","5","5","5","5","5","4","5","4","5","5","3","5","5","5","3","5","3","5","5","1","4","3","5","3","5","5","5","5","5","5","3","3","3","5","3","5","5","5","5","5","5","5","5","5","3","4","5","6","2","6","689181573102174208","黄","610","Male","[""坏我"",""坏他"",""好我"",""好他""]","[""弱我"",""弱他"",""强我"",""强他""]","","","","","","","","no","","","","","","","","","SRET","EW_formal","","key","j","16.681818181818183","1280","716","朋友","马虎","Negative","ability","","","","","","","","","","",""
"1676","","f","psychophysics","96","336119","0.0-7.0-3.0-0.82","3","3","3","3","3","4","4","4","4","4","4","1","-1","0","1","0","1","1","0","4","4","4","4","4","4","4","4","4","4","5","5","5","5","5","4","5","4","5","5","3","5","5","5","3","5","3","5","5","1","4","3","5","3","5","5","5","5","5","5","3","3","3","5","3","5","5","5","5","5","5","5","5","5","3","4","5","6","2","6","689181573102174208","黄","610","Male","[""坏我"",""坏他"",""好我"",""好他""]","[""弱我"",""弱他"",""强我"",""强他""]","","","","","","","","yes","","","","","","","","","SRET","EW_formal","","key","f","16.68000000000029","1280","716","朋友","忠良","Positive","morality","","","","","","","","","","",""
"1326","","f","psychophysics","97","338447","0.0-7.0-3.0-0.83","3","3","3","3","3","4","4","4","4","4","4","1","-1","0","1","0","1","1","0","4","4","4","4","4","4","4","4","4","4","5","5","5","5","5","4","5","4","5","5","3","5","5","5","3","5","3","5","5","1","4","3","5","3","5","5","5","5","5","5","3","3","3","5","3","5","5","5","5","5","5","5","5","5","3","4","5","6","2","6","689181573102174208","黄","610","Male","[""坏我"",""坏他"",""好我"",""好他""]","[""弱我"",""弱他"",""强我"",""强他""]","","","","","","","","yes","","","","","","","","","SRET","EW_formal","","key","f","16.67971014492745","1280","716","朋友","敏捷","Positive","ability","","","","","","","","","","",""
"1235","","f","psychophysics","98","340683","0.0-7.0-3.0-0.84","3","3","3","3","3","4","4","4","4","4","4","1","-1","0","1","0","1","1","0","4","4","4","4","4","4","4","4","4","4","5","5","5","5","5","4","5","4","5","5","3","5","5","5","3","5","3","5","5","1","4","3","5","3","5","5","5","5","5","5","3","3","3","5","3","5","5","5","5","5","5","5","5","5","3","4","5","6","2","6","689181573102174208","黄","610","Male","[""坏我"",""坏他"",""好我"",""好他""]","[""弱我"",""弱他"",""强我"",""强他""]","","","","","","","","yes","","","","","","","","","SRET","EW_formal","","key","f","16.68059701492546","1280","716","朋友","素养","Positive","morality","","","","","","","","","","",""
"988","","j","psychophysics","99","342672","0.0-7.0-3.0-0.85","3","3","3","3","3","4","4","4","4","4","4","1","-1","0","1","0","1","1","0","4","4","4","4","4","4","4","4","4","4","5","5","5","5","5","4","5","4","5","5","3","5","5","5","3","5","3","5","5","1","4","3","5","3","5","5","5","5","5","5","3","3","3","5","3","5","5","5","5","5","5","5","5","5","3","4","5","6","2","6","689181573102174208","黄","610","Male","[""坏我"",""坏他"",""好我"",""好他""]","[""弱我"",""弱他"",""强我"",""强他""]","","","","","","","","no","","","","","","","","","SRET","EW_formal","","key","j","16.677966101694917","1280","716","自己","缓慢","Negative","ability","","","","","","","","","","",""
"871","","f","psychophysics","100","344544","0.0-7.0-3.0-0.86","3","3","3","3","3","4","4","4","4","4","4","1","-1","0","1","0","1","1","0","4","4","4","4","4","4","4","4","4","4","5","5","5","5","5","4","5","4","5","5","3","5","5","5","3","5","3","5","5","1","4","3","5","3","5","5","5","5","5","5","3","3","3","5","3","5","5","5","5","5","5","5","5","5","3","4","5","6","2","6","689181573102174208","黄","610","Male","[""坏我"",""坏他"",""好我"",""好他""]","[""弱我"",""弱他"",""强我"",""强他""]","","","","","","","","yes","","","","","","","","","SRET","EW_formal","","key","f","16.681081081080873","1280","716","自己","主见","Positive","ability","","","","","","","","","","",""
"863","","j","psychophysics","101","346408","0.0-7.0-3.0-0.87","3","3","3","3","3","4","4","4","4","4","4","1","-1","0","1","0","1","1","0","4","4","4","4","4","4","4","4","4","4","5","5","5","5","5","4","5","4","5","5","3","5","5","5","3","5","3","5","5","1","4","3","5","3","5","5","5","5","5","5","3","3","3","5","3","5","5","5","5","5","5","5","5","5","3","4","5","6","2","6","689181573102174208","黄","610","Male","[""坏我"",""坏他"",""好我"",""好他""]","[""弱我"",""弱他"",""强我"",""强他""]","","","","","","","","no","","","","","","","","","SRET","EW_formal","","key","j","16.679279279278965","1280","716","朋友","低俗","Negative","morality","","","","","","","","","","",""
"4603","
    <p><div style='color:white;font-size:35px; line-height:20px;'>计算任务</div></p><br>
    <p><div style='color:red;font-size:25px; line-height:20px;'>接下来，您将看到一些四则运算题，<b>请从键盘选择 0-9 进行反应。</b></div></p>
    <p><div style='color:red;font-size:25px; line-height:20px;'>请尽可能快地进行计算，计算的速度和正确率将影响报酬的发放。</div></p>
    <p><div class='footer' style='color:white;font-size:25px; line-height:20px;'>如果对本实验还有不清楚之处，请立即向实验员咨询。</p><p style='color:white;font-size:25px; line-height:20px;'>如果您明白了规则：</p><p style='color:white;font-size:22px; line-height:20px;'>请按 继续 进入练习</p>
    </div>
    ","0","html-button-response","102","351011","0.0-7.0-4.0","3","3","3","3","3","4","4","4","4","4","4","1","-1","0","1","0","1","1","0","4","4","4","4","4","4","4","4","4","4","5","5","5","5","5","4","5","4","5","5","3","5","5","5","3","5","3","5","5","1","4","3","5","3","5","5","5","5","5","5","3","3","3","5","3","5","5","5","5","5","5","5","5","5","3","4","5","6","2","6","689181573102174208","黄","610","Male","[""坏我"",""坏他"",""好我"",""好他""]","[""弱我"",""弱他"",""强我"",""强他""]","","","","","","","","","","","","","","","","","SRET_math","math_instructions","Sun Jan 07 2024 16:46:10 GMT+0800 (中国标准时间)","","","","","","","","","","","","","","","","","","","",""
"2259","","7","psychophysics","103","353275","0.0-7.0-5.0-0.0","3","3","3","3","3","4","4","4","4","4","4","1","-1","0","1","0","1","1","0","4","4","4","4","4","4","4","4","4","4","5","5","5","5","5","4","5","4","5","5","3","5","5","5","3","5","3","5","5","1","4","3","5","3","5","5","5","5","5","5","3","3","3","5","3","5","5","5","5","5","5","5","5","5","3","4","5","6","2","6","689181573102174208","黄","610","Male","[""坏我"",""坏他"",""好我"",""好他""]","[""弱我"",""弱他"",""强我"",""强他""]","","","","","","","","7","","","","","","","","","SRET","SRET_math_calculate","","key","7","16.680740740740482","1280","716","","","","","3+4= ?","7","1","","","","","","","",""
"1539","","7","psychophysics","104","354819","0.0-7.0-5.0-0.1","3","3","3","3","3","4","4","4","4","4","4","1","-1","0","1","0","1","1","0","4","4","4","4","4","4","4","4","4","4","5","5","5","5","5","4","5","4","5","5","3","5","5","5","3","5","3","5","5","1","4","3","5","3","5","5","5","5","5","5","3","3","3","5","3","5","5","5","5","5","5","5","5","5","3","4","5","6","2","6","689181573102174208","黄","610","Male","[""坏我"",""坏他"",""好我"",""好他""]","[""弱我"",""弱他"",""强我"",""强他""]","","","","","","","","7","","","","","","","","","SRET","SRET_math_calculate","","key","7","16.680434782608444","1280","716","","","","","4+3= ?","7","1","","","","","","","",""
"2211","","4","psychophysics","105","357034","0.0-7.0-5.0-0.2","3","3","3","3","3","4","4","4","4","4","4","1","-1","0","1","0","1","1","0","4","4","4","4","4","4","4","4","4","4","5","5","5","5","5","4","5","4","5","5","3","5","5","5","3","5","3","5","5","1","4","3","5","3","5","5","5","5","5","5","3","3","3","5","3","5","5","5","5","5","5","5","5","5","3","4","5","6","2","6","689181573102174208","黄","610","Male","[""坏我"",""坏他"",""好我"",""好他""]","[""弱我"",""弱他"",""强我"",""强他""]","","","","","","","","4","","","","","","","","","SRET","SRET_math_calculate","","key","4","16.68030303030294","1280","716","","","","","9-5= ?","4","1","","","","","","","",""
"2308","","9","psychophysics","106","359342","0.0-7.0-5.0-0.3","3","3","3","3","3","4","4","4","4","4","4","1","-1","0","1","0","1","1","0","4","4","4","4","4","4","4","4","4","4","5","5","5","5","5","4","5","4","5","5","3","5","5","5","3","5","3","5","5","1","4","3","5","3","5","5","5","5","5","5","3","3","3","5","3","5","5","5","5","5","5","5","5","5","3","4","5","6","2","6","689181573102174208","黄","610","Male","[""坏我"",""坏他"",""好我"",""好他""]","[""弱我"",""弱他"",""强我"",""强他""]","","","","","","","","9","","","","","","","","","SRET","SRET_math_calculate","","key","9","16.67956204379545","1280","716","","","","","1+8= ?","9","1","","","","","","","",""
"2402","","1","psychophysics","107","361745","0.0-7.0-5.0-0.4","3","3","3","3","3","4","4","4","4","4","4","1","-1","0","1","0","1","1","0","4","4","4","4","4","4","4","4","4","4","5","5","5","5","5","4","5","4","5","5","3","5","5","5","3","5","3","5","5","1","4","3","5","3","5","5","5","5","5","5","3","3","3","5","3","5","5","5","5","5","5","5","5","5","3","4","5","6","2","6","689181573102174208","黄","610","Male","[""坏我"",""坏他"",""好我"",""好他""]","[""弱我"",""弱他"",""强我"",""强他""]","","","","","","","","1","","","","","","","","","SRET","SRET_math_calculate","","key","1","16.67972027972036","1280","716","","","","","30-29= ?","1","1","","","","","","","",""
"1931","","1","psychophysics","108","363677","0.0-7.0-5.0-0.5","3","3","3","3","3","4","4","4","4","4","4","1","-1","0","1","0","1","1","0","4","4","4","4","4","4","4","4","4","4","5","5","5","5","5","4","5","4","5","5","3","5","5","5","3","5","3","5","5","1","4","3","5","3","5","5","5","5","5","5","3","3","3","5","3","5","5","5","5","5","5","5","5","5","3","4","5","6","2","6","689181573102174208","黄","610","Male","[""坏我"",""坏他"",""好我"",""好他""]","[""弱我"",""弱他"",""强我"",""强他""]","","","","","","","","1","","","","","","","","","SRET","SRET_math_calculate","","key","1","16.680000000000103","1280","716","","","","","12/12= ?","1","1","","","","","","","",""
"2380","","8","psychophysics","109","366061","0.0-7.0-5.0-0.6","3","3","3","3","3","4","4","4","4","4","4","1","-1","0","1","0","1","1","0","4","4","4","4","4","4","4","4","4","4","5","5","5","5","5","4","5","4","5","5","3","5","5","5","3","5","3","5","5","1","4","3","5","3","5","5","5","5","5","5","3","3","3","5","3","5","5","5","5","5","5","5","5","5","3","4","5","6","2","6","689181573102174208","黄","610","Male","[""坏我"",""坏他"",""好我"",""好他""]","[""弱我"",""弱他"",""强我"",""强他""]","","","","","","","","8","","","","","","","","","SRET","SRET_math_calculate","","key","8","16.68028169014068","1280","716","","","","","11-5= ?","6","0","","","","","","","",""
"2198","","8","psychophysics","110","368263","0.0-7.0-5.0-0.7","3","3","3","3","3","4","4","4","4","4","4","1","-1","0","1","0","1","1","0","4","4","4","4","4","4","4","4","4","4","5","5","5","5","5","4","5","4","5","5","3","5","5","5","3","5","3","5","5","1","4","3","5","3","5","5","5","5","5","5","3","3","3","5","3","5","5","5","5","5","5","5","5","5","3","4","5","6","2","6","689181573102174208","黄","610","Male","[""坏我"",""坏他"",""好我"",""好他""]","[""弱我"",""弱他"",""强我"",""强他""]","","","","","","","","8","","","","","","","","","SRET","SRET_math_calculate","","key","8","16.68320610687023","1280","716","","","","","4+4= ?","8","1","","","","","","","",""
"2442","","2","psychophysics","111","370708","0.0-7.0-5.0-0.8","3","3","3","3","3","4","4","4","4","4","4","1","-1","0","1","0","1","1","0","4","4","4","4","4","4","4","4","4","4","5","5","5","5","5","4","5","4","5","5","3","5","5","5","3","5","3","5","5","1","4","3","5","3","5","5","5","5","5","5","3","3","3","5","3","5","5","5","5","5","5","5","5","5","3","4","5","6","2","6","689181573102174208","黄","610","Male","[""坏我"",""坏他"",""好我"",""好他""]","[""弱我"",""弱他"",""强我"",""强他""]","","","","","","","","2","","","","","","","","","SRET","SRET_math_calculate","","key","2","16.68082191780838","1280","716","","","","","22/11= ?","2","1","","","","","","","",""
"2226","","7","psychophysics","112","372934","0.0-7.0-5.0-0.9","3","3","3","3","3","4","4","4","4","4","4","1","-1","0","1","0","1","1","0","4","4","4","4","4","4","4","4","4","4","5","5","5","5","5","4","5","4","5","5","3","5","5","5","3","5","3","5","5","1","4","3","5","3","5","5","5","5","5","5","3","3","3","5","3","5","5","5","5","5","5","5","5","5","3","4","5","6","2","6","689181573102174208","黄","610","Male","[""坏我"",""坏他"",""好我"",""好他""]","[""弱我"",""弱他"",""强我"",""强他""]","","","","","","","","7","","","","","","","","","SRET","SRET_math_calculate","","key","7","16.68030303030294","1280","716","","","","","12-5= ?","7","1","","","","","","","",""
"2459","","6","psychophysics","113","375394","0.0-7.0-5.0-0.10","3","3","3","3","3","4","4","4","4","4","4","1","-1","0","1","0","1","1","0","4","4","4","4","4","4","4","4","4","4","5","5","5","5","5","4","5","4","5","5","3","5","5","5","3","5","3","5","5","1","4","3","5","3","5","5","5","5","5","5","3","3","3","5","3","5","5","5","5","5","5","5","5","5","3","4","5","6","2","6","689181573102174208","黄","610","Male","[""坏我"",""坏他"",""好我"",""好他""]","[""弱我"",""弱他"",""强我"",""强他""]","","","","","","","","6","","","","","","","","","SRET","SRET_math_calculate","","key","6","16.68027210884354","1280","716","","","","","2*3= ?","6","1","","","","","","","",""
"2404","","7","psychophysics","114","377802","0.0-7.0-5.0-0.11","3","3","3","3","3","4","4","4","4","4","4","1","-1","0","1","0","1","1","0","4","4","4","4","4","4","4","4","4","4","5","5","5","5","5","4","5","4","5","5","3","5","5","5","3","5","3","5","5","1","4","3","5","3","5","5","5","5","5","5","3","3","3","5","3","5","5","5","5","5","5","5","5","5","3","4","5","6","2","6","689181573102174208","黄","610","Male","[""坏我"",""坏他"",""好我"",""好他""]","[""弱我"",""弱他"",""强我"",""强他""]","","","","","","","","7","","","","","","","","","SRET","SRET_math_calculate","","key","7","16.679020979020816","1280","716","","","","","21/3= ? ","7","1","","","","","","","",""
"2185","","9","psychophysics","115","379990","0.0-7.0-5.0-0.12","3","3","3","3","3","4","4","4","4","4","4","1","-1","0","1","0","1","1","0","4","4","4","4","4","4","4","4","4","4","5","5","5","5","5","4","5","4","5","5","3","5","5","5","3","5","3","5","5","1","4","3","5","3","5","5","5","5","5","5","3","3","3","5","3","5","5","5","5","5","5","5","5","5","3","4","5","6","2","6","689181573102174208","黄","610","Male","[""坏我"",""坏他"",""好我"",""好他""]","[""弱我"",""弱他"",""强我"",""强他""]","","","","","","","","9","","","","","","","","","SRET","SRET_math_calculate","","key","9","16.680000000000177","1280","716","","","","","3+6= ?","9","1","","","","","","","",""
"2430","","5","psychophysics","116","382421","0.0-7.0-5.0-0.13","3","3","3","3","3","4","4","4","4","4","4","1","-1","0","1","0","1","1","0","4","4","4","4","4","4","4","4","4","4","5","5","5","5","5","4","5","4","5","5","3","5","5","5","3","5","3","5","5","1","4","3","5","3","5","5","5","5","5","5","3","3","3","5","3","5","5","5","5","5","5","5","5","5","3","4","5","6","2","6","689181573102174208","黄","610","Male","[""坏我"",""坏他"",""好我"",""好他""]","[""弱我"",""弱他"",""强我"",""强他""]","","","","","","","","5","","","","","","","","","SRET","SRET_math_calculate","","key","5","16.67999999999984","1280","716","","","","","10-5= ?","5","1","","","","","","","",""
"2140","","8","psychophysics","117","384562","0.0-7.0-5.0-0.14","3","3","3","3","3","4","4","4","4","4","4","1","-1","0","1","0","1","1","0","4","4","4","4","4","4","4","4","4","4","5","5","5","5","5","4","5","4","5","5","3","5","5","5","3","5","3","5","5","1","4","3","5","3","5","5","5","5","5","5","3","3","3","5","3","5","5","5","5","5","5","5","5","5","3","4","5","6","2","6","689181573102174208","黄","610","Male","[""坏我"",""坏他"",""好我"",""好他""]","[""弱我"",""弱他"",""强我"",""强他""]","","","","","","","","8","","","","","","","","","SRET","SRET_math_calculate","","key","8","16.680314960630106","1280","716","","","","","13-5= ?","8","1","","","","","","","",""
"1891","","9","psychophysics","118","386454","0.0-7.0-5.0-0.15","3","3","3","3","3","4","4","4","4","4","4","1","-1","0","1","0","1","1","0","4","4","4","4","4","4","4","4","4","4","5","5","5","5","5","4","5","4","5","5","3","5","5","5","3","5","3","5","5","1","4","3","5","3","5","5","5","5","5","5","3","3","3","5","3","5","5","5","5","5","5","5","5","5","3","4","5","6","2","6","689181573102174208","黄","610","Male","[""坏我"",""坏他"",""好我"",""好他""]","[""弱我"",""弱他"",""强我"",""强他""]","","","","","","","","9","","","","","","","","","SRET","SRET_math_calculate","","key","9","16.679646017699525","1280","716","","","","","8+1= ?","9","1","","","","","","","",""
"2104","","5","psychophysics","119","388559","0.0-7.0-5.0-0.16","3","3","3","3","3","4","4","4","4","4","4","1","-1","0","1","0","1","1","0","4","4","4","4","4","4","4","4","4","4","5","5","5","5","5","4","5","4","5","5","3","5","5","5","3","5","3","5","5","1","4","3","5","3","5","5","5","5","5","5","3","3","3","5","3","5","5","5","5","5","5","5","5","5","3","4","5","6","2","6","689181573102174208","黄","610","Male","[""坏我"",""坏他"",""好我"",""好他""]","[""弱我"",""弱他"",""强我"",""强他""]","","","","","","","","5","","","","","","","","","SRET","SRET_math_calculate","","key","5","16.68","1280","716","","","","","9-4= ?","5","1","","","","","","","",""
"1978","","8","psychophysics","120","390537","0.0-7.0-5.0-0.17","3","3","3","3","3","4","4","4","4","4","4","1","-1","0","1","0","1","1","0","4","4","4","4","4","4","4","4","4","4","5","5","5","5","5","4","5","4","5","5","3","5","5","5","3","5","3","5","5","1","4","3","5","3","5","5","5","5","5","5","3","3","3","5","3","5","5","5","5","5","5","5","5","5","3","4","5","6","2","6","689181573102174208","黄","610","Male","[""坏我"",""坏他"",""好我"",""好他""]","[""弱我"",""弱他"",""强我"",""强他""]","","","","","","","","8","","","","","","","","","SRET","SRET_math_calculate","","key","8","16.68034188034218","1280","716","","","","","5+3= ?","8","1","","","","","","","",""
"2238","","4","psychophysics","121","392776","0.0-7.0-5.0-0.18","3","3","3","3","3","4","4","4","4","4","4","1","-1","0","1","0","1","1","0","4","4","4","4","4","4","4","4","4","4","5","5","5","5","5","4","5","4","5","5","3","5","5","5","3","5","3","5","5","1","4","3","5","3","5","5","5","5","5","5","3","3","3","5","3","5","5","5","5","5","5","5","5","5","3","4","5","6","2","6","689181573102174208","黄","610","Male","[""坏我"",""坏他"",""好我"",""好他""]","[""弱我"",""弱他"",""强我"",""强他""]","","","","","","","","4","","","","","","","","","SRET","SRET_math_calculate","","key","4","16.67985074626848","1280","716","","","","","8-4= ?","4","1","","","","","","","",""
"2101","","6","psychophysics","122","394878","0.0-7.0-5.0-0.19","3","3","3","3","3","4","4","4","4","4","4","1","-1","0","1","0","1","1","0","4","4","4","4","4","4","4","4","4","4","5","5","5","5","5","4","5","4","5","5","3","5","5","5","3","5","3","5","5","1","4","3","5","3","5","5","5","5","5","5","3","3","3","5","3","5","5","5","5","5","5","5","5","5","3","4","5","6","2","6","689181573102174208","黄","610","Male","[""坏我"",""坏他"",""好我"",""好他""]","[""弱我"",""弱他"",""强我"",""强他""]","","","","","","","","6","","","","","","","","","SRET","SRET_math_calculate","","key","6","16.681600000000092","1280","716","","","","","8-2= ?","6","1","","","","","","","",""
"2632","","0","psychophysics","123","397510","0.0-7.0-5.0-0.20","3","3","3","3","3","4","4","4","4","4","4","1","-1","0","1","0","1","1","0","4","4","4","4","4","4","4","4","4","4","5","5","5","5","5","4","5","4","5","5","3","5","5","5","3","5","3","5","5","1","4","3","5","3","5","5","5","5","5","5","3","3","3","5","3","5","5","5","5","5","5","5","5","5","3","4","5","6","2","6","689181573102174208","黄","610","Male","[""坏我"",""坏他"",""好我"",""好他""]","[""弱我"",""弱他"",""强我"",""强他""]","","","","","","","","0","","","","","","","","","SRET","SRET_math_calculate","","key","0","16.680128205128057","1280","716","","","","","22-22= ?","0","1","","","","","","","",""
"2909","","3","psychophysics","124","400419","0.0-7.0-5.0-0.21","3","3","3","3","3","4","4","4","4","4","4","1","-1","0","1","0","1","1","0","4","4","4","4","4","4","4","4","4","4","5","5","5","5","5","4","5","4","5","5","3","5","5","5","3","5","3","5","5","1","4","3","5","3","5","5","5","5","5","5","3","3","3","5","3","5","5","5","5","5","5","5","5","5","3","4","5","6","2","6","689181573102174208","黄","610","Male","[""坏我"",""坏他"",""好我"",""好他""]","[""弱我"",""弱他"",""强我"",""强他""]","","","","","","","","3","","","","","","","","","SRET","SRET_math_calculate","","key","3","16.679885057471196","1280","716","","","","","9/3= ?","3","1","","","","","","","",""
"2327","","6","psychophysics","125","402750","0.0-7.0-5.0-0.22","3","3","3","3","3","4","4","4","4","4","4","1","-1","0","1","0","1","1","0","4","4","4","4","4","4","4","4","4","4","5","5","5","5","5","4","5","4","5","5","3","5","5","5","3","5","3","5","5","1","4","3","5","3","5","5","5","5","5","5","3","3","3","5","3","5","5","5","5","5","5","5","5","5","3","4","5","6","2","6","689181573102174208","黄","610","Male","[""坏我"",""坏他"",""好我"",""好他""]","[""弱我"",""弱他"",""强我"",""强他""]","","","","","","","","6","","","","","","","","","SRET","SRET_math_calculate","","key","6","16.680575539568178","1280","716","","","","","5+1= ?","6","1","","","","","","","",""
"2348","","7","psychophysics","126","405099","0.0-7.0-5.0-0.23","3","3","3","3","3","4","4","4","4","4","4","1","-1","0","1","0","1","1","0","4","4","4","4","4","4","4","4","4","4","5","5","5","5","5","4","5","4","5","5","3","5","5","5","3","5","3","5","5","1","4","3","5","3","5","5","5","5","5","5","3","3","3","5","3","5","5","5","5","5","5","5","5","5","3","4","5","6","2","6","689181573102174208","黄","610","Male","[""坏我"",""坏他"",""好我"",""好他""]","[""弱我"",""弱他"",""强我"",""强他""]","","","","","","","","7","","","","","","","","","SRET","SRET_math_calculate","","key","7","16.679856115107913","1280","716","","","","","7*1=  ?","7","1","","","","","","","",""
"2379","","9","psychophysics","127","407479","0.0-7.0-5.0-0.24","3","3","3","3","3","4","4","4","4","4","4","1","-1","0","1","0","1","1","0","4","4","4","4","4","4","4","4","4","4","5","5","5","5","5","4","5","4","5","5","3","5","5","5","3","5","3","5","5","1","4","3","5","3","5","5","5","5","5","5","3","3","3","5","3","5","5","5","5","5","5","5","5","5","3","4","5","6","2","6","689181573102174208","黄","610","Male","[""坏我"",""坏他"",""好我"",""好他""]","[""弱我"",""弱他"",""强我"",""强他""]","","","","","","","","9","","","","","","","","","SRET","SRET_math_calculate","","key","9","16.68098591549304","1280","716","","","","","7+2= ?","9","1","","","","","","","",""
"2045","","2","psychophysics","128","409525","0.0-7.0-5.0-0.25","3","3","3","3","3","4","4","4","4","4","4","1","-1","0","1","0","1","1","0","4","4","4","4","4","4","4","4","4","4","5","5","5","5","5","4","5","4","5","5","3","5","5","5","3","5","3","5","5","1","4","3","5","3","5","5","5","5","5","5","3","3","3","5","3","5","5","5","5","5","5","5","5","5","3","4","5","6","2","6","689181573102174208","黄","610","Male","[""坏我"",""坏他"",""好我"",""好他""]","[""弱我"",""弱他"",""强我"",""强他""]","","","","","","","","2","","","","","","","","","SRET","SRET_math_calculate","","key","2","16.679508196721503","1280","716","","","","","9-7= ?","2","1","","","","","","","",""
"2043","","8","psychophysics","129","411569","0.0-7.0-5.0-0.26","3","3","3","3","3","4","4","4","4","4","4","1","-1","0","1","0","1","1","0","4","4","4","4","4","4","4","4","4","4","5","5","5","5","5","4","5","4","5","5","3","5","5","5","3","5","3","5","5","1","4","3","5","3","5","5","5","5","5","5","3","3","3","5","3","5","5","5","5","5","5","5","5","5","3","4","5","6","2","6","689181573102174208","黄","610","Male","[""坏我"",""坏他"",""好我"",""好他""]","[""弱我"",""弱他"",""强我"",""强他""]","","","","","","","","8","","","","","","","","","SRET","SRET_math_calculate","","key","8","16.680165289256102","1280","716","","","","","6+2= ?","8","1","","","","","","","",""
"1883","","7","psychophysics","130","413452","0.0-7.0-5.0-0.27","3","3","3","3","3","4","4","4","4","4","4","1","-1","0","1","0","1","1","0","4","4","4","4","4","4","4","4","4","4","5","5","5","5","5","4","5","4","5","5","3","5","5","5","3","5","3","5","5","1","4","3","5","3","5","5","5","5","5","5","3","3","3","5","3","5","5","5","5","5","5","5","5","5","3","4","5","6","2","6","689181573102174208","黄","610","Male","[""坏我"",""坏他"",""好我"",""好他""]","[""弱我"",""弱他"",""强我"",""强他""]","","","","","","","","7","","","","","","","","","SRET","SRET_math_calculate","","key","7","16.683035714285715","1280","716","","","","","2+5= ?","7","1","","","","","","","",""
"6356","","7","psychophysics","131","419812","0.0-7.0-5.0-0.28","3","3","3","3","3","4","4","4","4","4","4","1","-1","0","1","0","1","1","0","4","4","4","4","4","4","4","4","4","4","5","5","5","5","5","4","5","4","5","5","3","5","5","5","3","5","3","5","5","1","4","3","5","3","5","5","5","5","5","5","3","3","3","5","3","5","5","5","5","5","5","5","5","5","3","4","5","6","2","6","689181573102174208","黄","610","Male","[""坏我"",""坏他"",""好我"",""好他""]","[""弱我"",""弱他"",""强我"",""强他""]","","","","","","","","7","","","","","","","","","SRET","SRET_math_calculate","","key","7","16.680263157894736","1280","716","","","","","11-4= ?","7","1","","","","","","","",""
"1752","","7","psychophysics","132","421568","0.0-7.0-5.0-0.29","3","3","3","3","3","4","4","4","4","4","4","1","-1","0","1","0","1","1","0","4","4","4","4","4","4","4","4","4","4","5","5","5","5","5","4","5","4","5","5","3","5","5","5","3","5","3","5","5","1","4","3","5","3","5","5","5","5","5","5","3","3","3","5","3","5","5","5","5","5","5","5","5","5","3","4","5","6","2","6","689181573102174208","黄","610","Male","[""坏我"",""坏他"",""好我"",""好他""]","[""弱我"",""弱他"",""强我"",""强他""]","","","","","","","","7","","","","","","","","","SRET","SRET_math_calculate","","key","7","16.68095238095238","1280","716","","","","","5+2= ?","7","1","","","","","","","",""
"2530","","0","psychophysics","133","424102","0.0-7.0-5.0-0.30","3","3","3","3","3","4","4","4","4","4","4","1","-1","0","1","0","1","1","0","4","4","4","4","4","4","4","4","4","4","5","5","5","5","5","4","5","4","5","5","3","5","5","5","3","5","3","5","5","1","4","3","5","3","5","5","5","5","5","5","3","3","3","5","3","5","5","5","5","5","5","5","5","5","3","4","5","6","2","6","689181573102174208","黄","610","Male","[""坏我"",""坏他"",""好我"",""好他""]","[""弱我"",""弱他"",""强我"",""强他""]","","","","","","","","0","","","","","","","","","SRET","SRET_math_calculate","","key","0","16.680132450331204","1280","716","","","","","5*0= ?","0","1","","","","","","","",""
"2116","","9","psychophysics","134","426222","0.0-7.0-5.0-0.31","3","3","3","3","3","4","4","4","4","4","4","1","-1","0","1","0","1","1","0","4","4","4","4","4","4","4","4","4","4","5","5","5","5","5","4","5","4","5","5","3","5","5","5","3","5","3","5","5","1","4","3","5","3","5","5","5","5","5","5","3","3","3","5","3","5","5","5","5","5","5","5","5","5","3","4","5","6","2","6","689181573102174208","黄","610","Male","[""坏我"",""坏他"",""好我"",""好他""]","[""弱我"",""弱他"",""强我"",""强他""]","","","","","","","","9","","","","","","","","","SRET","SRET_math_calculate","","key","9","16.680952380952288","1280","716","","","","","1*9= ?","9","1","","","","","","","",""
"2742","","9","psychophysics","135","428965","0.0-7.0-5.0-0.32","3","3","3","3","3","4","4","4","4","4","4","1","-1","0","1","0","1","1","0","4","4","4","4","4","4","4","4","4","4","5","5","5","5","5","4","5","4","5","5","3","5","5","5","3","5","3","5","5","1","4","3","5","3","5","5","5","5","5","5","3","3","3","5","3","5","5","5","5","5","5","5","5","5","3","4","5","6","2","6","689181573102174208","黄","610","Male","[""坏我"",""坏他"",""好我"",""好他""]","[""弱我"",""弱他"",""强我"",""强他""]","","","","","","","","9","","","","","","","","","SRET","SRET_math_calculate","","key","9","16.6815950920244","1280","716","","","","","32-23= ?","9","1","","","","","","","",""
"2343","","6","psychophysics","136","431309","0.0-7.0-5.0-0.33","3","3","3","3","3","4","4","4","4","4","4","1","-1","0","1","0","1","1","0","4","4","4","4","4","4","4","4","4","4","5","5","5","5","5","4","5","4","5","5","3","5","5","5","3","5","3","5","5","1","4","3","5","3","5","5","5","5","5","5","3","3","3","5","3","5","5","5","5","5","5","5","5","5","3","4","5","6","2","6","689181573102174208","黄","610","Male","[""坏我"",""坏他"",""好我"",""好他""]","[""弱我"",""弱他"",""强我"",""强他""]","","","","","","","","6","","","","","","","","","SRET","SRET_math_calculate","","key","6","16.680714285714203","1280","716","","","","","2+4= ?","6","1","","","","","","","",""
"2281","","0","psychophysics","137","433590","0.0-7.0-5.0-0.34","3","3","3","3","3","4","4","4","4","4","4","1","-1","0","1","0","1","1","0","4","4","4","4","4","4","4","4","4","4","5","5","5","5","5","4","5","4","5","5","3","5","5","5","3","5","3","5","5","1","4","3","5","3","5","5","5","5","5","5","3","3","3","5","3","5","5","5","5","5","5","5","5","5","3","4","5","6","2","6","689181573102174208","黄","610","Male","[""坏我"",""坏他"",""好我"",""好他""]","[""弱我"",""弱他"",""强我"",""强他""]","","","","","","","","0","","","","","","","","","SRET","SRET_math_calculate","","key","0","16.680740740740482","1280","716","","","","","6*0= ?","0","1","","","","","","","",""
"1862","","2","psychophysics","138","435454","0.0-7.0-5.0-0.35","3","3","3","3","3","4","4","4","4","4","4","1","-1","0","1","0","1","1","0","4","4","4","4","4","4","4","4","4","4","5","5","5","5","5","4","5","4","5","5","3","5","5","5","3","5","3","5","5","1","4","3","5","3","5","5","5","5","5","5","3","3","3","5","3","5","5","5","5","5","5","5","5","5","3","4","5","6","2","6","689181573102174208","黄","610","Male","[""坏我"",""坏他"",""好我"",""好他""]","[""弱我"",""弱他"",""强我"",""强他""]","","","","","","","","2","","","","","","","","","SRET","SRET_math_calculate","","key","2","16.68018018018018","1280","716","","","","","1+1= ?","2","1","","","","","","","",""
"2202","","8","psychophysics","139","437659","0.0-7.0-5.0-0.36","3","3","3","3","3","4","4","4","4","4","4","1","-1","0","1","0","1","1","0","4","4","4","4","4","4","4","4","4","4","5","5","5","5","5","4","5","4","5","5","3","5","5","5","3","5","3","5","5","1","4","3","5","3","5","5","5","5","5","5","3","3","3","5","3","5","5","5","5","5","5","5","5","5","3","4","5","6","2","6","689181573102174208","黄","610","Male","[""坏我"",""坏他"",""好我"",""好他""]","[""弱我"",""弱他"",""强我"",""强他""]","","","","","","","","8","","","","","","","","","SRET","SRET_math_calculate","","key","8","16.68091603053444","1280","716","","","","","11-3= ?","8","1","","","","","","","",""
"1837","","0","psychophysics","140","439497","0.0-7.0-5.0-0.37","3","3","3","3","3","4","4","4","4","4","4","1","-1","0","1","0","1","1","0","4","4","4","4","4","4","4","4","4","4","5","5","5","5","5","4","5","4","5","5","3","5","5","5","3","5","3","5","5","1","4","3","5","3","5","5","5","5","5","5","3","3","3","5","3","5","5","5","5","5","5","5","5","5","3","4","5","6","2","6","689181573102174208","黄","610","Male","[""坏我"",""坏他"",""好我"",""好他""]","[""弱我"",""弱他"",""强我"",""强他""]","","","","","","","","0","","","","","","","","","SRET","SRET_math_calculate","","key","0","16.679999999999893","1280","716","","","","","1-1= ?","0","1","","","","","","","",""
"1801","","1","psychophysics","141","441298","0.0-7.0-5.0-0.38","3","3","3","3","3","4","4","4","4","4","4","1","-1","0","1","0","1","1","0","4","4","4","4","4","4","4","4","4","4","5","5","5","5","5","4","5","4","5","5","3","5","5","5","3","5","3","5","5","1","4","3","5","3","5","5","5","5","5","5","3","3","3","5","3","5","5","5","5","5","5","5","5","5","3","4","5","6","2","6","689181573102174208","黄","610","Male","[""坏我"",""坏他"",""好我"",""好他""]","[""弱我"",""弱他"",""强我"",""强他""]","","","","","","","","1","","","","","","","","","SRET","SRET_math_calculate","","key","1","16.684112149532275","1280","716","","","","","4/4= ?","1","1","","","","","","","",""
"2299","","3","psychophysics","142","443598","0.0-7.0-5.0-0.39","3","3","3","3","3","4","4","4","4","4","4","1","-1","0","1","0","1","1","0","4","4","4","4","4","4","4","4","4","4","5","5","5","5","5","4","5","4","5","5","3","5","5","5","3","5","3","5","5","1","4","3","5","3","5","5","5","5","5","5","3","3","3","5","3","5","5","5","5","5","5","5","5","5","3","4","5","6","2","6","689181573102174208","黄","610","Male","[""坏我"",""坏他"",""好我"",""好他""]","[""弱我"",""弱他"",""强我"",""强他""]","","","","","","","","3","","","","","","","","","SRET","SRET_math_calculate","","key","3","16.680882352941435","1280","716","","","","","9-6= ?","3","1","","","","","","","",""
