"rt","stimulus","response","trial_type","trial_index","time_elapsed","internal_node_id","swb_1","swb_2","swb_3","swb_4","swb_5","LOT_1","LOT_2","LOT_3","LOT_4","LOT_5","LOT_6","IPC_1","IPC_2","IPC_3","IPC_4","IPC_5","IPC_6","IPC_7","IPC_8","MorIden_1","MorIden_2","MorIden_3","MorIden_4","MorIden_5","MorIden_6","MorIden_7","MorIden_8","MorIden_9","MorIden_10","moralSeImag_1","moralSeImag_2","moralSeImag_3","moralSeImag_4","moralSeImag_5","moralSeImag_6","moralSeImag_7","moralSeImag_8","moralSeImag_9","sde_1","sde_2","sde_3","sde_4","sde_5","sde_6","sde_7","sde_8","sde_9","sde_10","sde_11","sde_12","sde_13","sde_14","sde_15","sde_16","sde_17","sde_18","sde_19","sde_20","IM_1","IM_2","IM_3","IM_4","IM_5","IM_6","IM_7","IM_8","IM_9","IM_10","IM_11","IM_12","IM_13","IM_14","IM_15","IM_16","IM_17","IM_18","IM_19","IM_20","subj_idx","friend_name","ParticipantID","Sex","Word","Word2","value","success","timeout","failed_images","failed_audio","failed_video","user_agent","responses","item_order","radio_event_ids","radio_event_times","key_event_times","mouse_event_times","straightlining","zigzagging","honeypot","task_id","screen_id","time_stamp","response_type","key_press","avg_frame_time","center_x","center_y","person","word","valence","domain","math","correct_response","correct","status","view_history","identity","duration","Image","condition","question_order"
"2817","
   <p><div style='color:white; font-size: 25px'>您好，欢迎参加本次实验。</div></p>
   <p><div style='color:white; font-size: 25px'>为充分保障您的权利，请确保您已经知晓并同意《参与实验同意书》以及《数据公开知情同意书》。</div></p>
   <p><div style='color:white; font-size: 25px'>如果您未见过上述内容，请咨询实验员。</div></p>
   <p style='color:white; font-size: 25px'>如果您选择继续实验，则表示您已经清楚两份知情同意书的内容并同意。</p>
   <p><div style = ""color: red;font-size:30px;"">请确保您记得day0的实验编号，您将在本次实验输入该编号，若您忘记，请咨询实验员后作答。</div></p>
   <p> <div style = ""color: green""><按空格键至下页></div> </p>
   "," ","html-keyboard-response","0","2821","0.0-0.0","6","7","7","5","6","5","5","4","4","5","4","-2","-3","1","0","1","2","0","1","4","5","4","5","4","2","5","4","5","4","6","7","6","8","3","7","9","7","8","4","6","3","6","6","2","7","7","5","6","6","1","2","6","6","7","5","2","4","6","6","6","7","7","6","5","7","6","7","5","6","6","7","2","7","6","5","7","3","6","633790726911557632","王","60","Male","[""好他"",""好我"",""坏我"",""坏他""]","[""强他"",""强我"",""弱我"",""弱他""]","","","","","","","","","","","","","","","","","","","","","","","","","","","","","","","","","","","","","",""
"","","","call-function","1","2822","0.0-1.0-0.0","6","7","7","5","6","5","5","4","4","5","4","-2","-3","1","0","1","2","0","1","4","5","4","5","4","2","5","4","5","4","6","7","6","8","3","7","9","7","8","4","6","3","6","6","2","7","7","5","6","6","1","2","6","6","7","5","2","4","6","6","6","7","7","6","5","7","6","7","5","6","6","7","2","7","6","5","7","3","6","633790726911557632","王","60","Male","[""好他"",""好我"",""坏我"",""坏他""]","[""强他"",""强我"",""弱我"",""弱他""]","","","","","","","","","","","","","","","","","","","","","","","","","","","","","","","","","","","","","",""
"42358","","[{""name"":""Sex"",""value"":""0""},{""name"":""friend_name"",""value"":""王""},{""name"":""ParticipantID"",""value"":""60""}]","survey-html-form","2","45184","0.0-1.0-1.0","6","7","7","5","6","5","5","4","4","5","4","-2","-3","1","0","1","2","0","1","4","5","4","5","4","2","5","4","5","4","6","7","6","8","3","7","9","7","8","4","6","3","6","6","2","7","7","5","6","6","1","2","6","6","7","5","2","4","6","6","6","7","7","6","5","7","6","7","5","6","6","7","2","7","6","5","7","3","6","633790726911557632","王","60","Male","[""好他"",""好我"",""坏我"",""坏他""]","[""强他"",""强我"",""弱我"",""弱他""]","","","","","","","","","","","","","","","","","","","","","","","","","","","","","","","","","","","","","",""
"","","","preload","3","45410","0.0-2.0","6","7","7","5","6","5","5","4","4","5","4","-2","-3","1","0","1","2","0","1","4","5","4","5","4","2","5","4","5","4","6","7","6","8","3","7","9","7","8","4","6","3","6","6","2","7","7","5","6","6","1","2","6","6","7","5","2","4","6","6","6","7","7","6","5","7","6","7","5","6","6","7","2","7","6","5","7","3","6","633790726911557632","王","60","Male","[""好他"",""好我"",""坏我"",""坏他""]","[""强他"",""强我"",""弱我"",""弱他""]","","true","false","[]","[]","[]","","","","","","","","","","","","","","","","","","","","","","","","","","","","","","","",""
"","","","fullscreen","4","46757","0.0-3.0","6","7","7","5","6","5","5","4","4","5","4","-2","-3","1","0","1","2","0","1","4","5","4","5","4","2","5","4","5","4","6","7","6","8","3","7","9","7","8","4","6","3","6","6","2","7","7","5","6","6","1","2","6","6","7","5","2","4","6","6","6","7","7","6","5","7","6","7","5","6","6","7","2","7","6","5","7","3","6","633790726911557632","王","60","Male","[""好他"",""好我"",""坏我"",""坏他""]","[""强他"",""强我"",""弱我"",""弱他""]","","true","","","","","{}","","","","","","","","","","","","","","","","","","","","","","","","","","","","","","",""
"12141.199999809265","","{""Q01"":""6"",""Q02"":""7"",""Q03"":""7"",""Q04"":""5"",""Q05"":""6""}","survey-template","5","58907","0.0-4.0","6","7","7","5","6","5","5","4","4","5","4","-2","-3","1","0","1","2","0","1","4","5","4","5","4","2","5","4","5","4","6","7","6","8","3","7","9","7","8","4","6","3","6","6","2","7","7","5","6","6","1","2","6","6","7","5","2","4","6","6","6","7","7","6","5","7","6","7","5","6","6","7","2","7","6","5","7","3","6","633790726911557632","王","60","Male","[""好他"",""好我"",""坏我"",""坏他""]","[""强他"",""强我"",""弱我"",""弱他""]","","","","","","","","{""Q01"":""6"",""Q02"":""7"",""Q03"":""7"",""Q04"":""5"",""Q05"":""6""}","[0,1,2,3,4]","[""Q01"",""Q02"",""Q03"",""Q04"",""Q05""]","[2479.899999856949,4104.399999856949,4813.799999952316,6326.699999809265,8491.699999809265]","[]","[2479.899999856949,3594,4104.399999856949,4813.799999952316,5825.799999952316,6326.699999809265,6934,8208.5,8491.699999809265,12139.799999952316]","0.4","0.5","0","","","","","","","","","","","","","","","","","","","","","",""
"15677.5","","{""Q01"":""5"",""Q02"":""5"",""Q03"":""4"",""Q04"":""4"",""Q05"":""5"",""Q06"":""4""}","survey-template","6","74592","0.0-5.0","6","7","7","5","6","5","5","4","4","5","4","-2","-3","1","0","1","2","0","1","4","5","4","5","4","2","5","4","5","4","6","7","6","8","3","7","9","7","8","4","6","3","6","6","2","7","7","5","6","6","1","2","6","6","7","5","2","4","6","6","6","7","7","6","5","7","6","7","5","6","6","7","2","7","6","5","7","3","6","633790726911557632","王","60","Male","[""好他"",""好我"",""坏我"",""坏他""]","[""强他"",""强我"",""弱我"",""弱他""]","","","","","","","","{""Q01"":""5"",""Q02"":""5"",""Q03"":""4"",""Q04"":""4"",""Q05"":""5"",""Q06"":""4""}","[0,1,2,3,4,5]","[""Q01"",""Q01"",""Q02"",""Q03"",""Q04"",""Q05"",""Q05"",""Q06""]","[6371.600000143051,6955.400000095367,8449.800000190735,10589.800000190735,11489.5,13081.600000143051,13737.5,14929.5]","[]","[6371.600000143051,6955.400000095367,8449.800000190735,9851.700000047684,10589.800000190735,11489.5,12539.400000095367,13081.600000143051,13737.5,14929.5,15675.700000047684]","0.3333333333333333","0.4","0","","","","","","","","","","","","","","","","","","","","","",""
"19548.5","","{""Q01"":""-2"",""Q02"":""-3"",""Q03"":""1"",""Q04"":""0"",""Q05"":""1"",""Q06"":""2"",""Q07"":""0"",""Q08"":""1""}","survey-template","7","94147","0.0-6.0","6","7","7","5","6","5","5","4","4","5","4","-2","-3","1","0","1","2","0","1","4","5","4","5","4","2","5","4","5","4","6","7","6","8","3","7","9","7","8","4","6","3","6","6","2","7","7","5","6","6","1","2","6","6","7","5","2","4","6","6","6","7","7","6","5","7","6","7","5","6","6","7","2","7","6","5","7","3","6","633790726911557632","王","60","Male","[""好他"",""好我"",""坏我"",""坏他""]","[""强他"",""强我"",""弱我"",""弱他""]","","","","","","","","{""Q01"":""-2"",""Q02"":""-3"",""Q03"":""1"",""Q04"":""0"",""Q05"":""1"",""Q06"":""2"",""Q07"":""0"",""Q08"":""1""}","[0,1,2,3,4,5,6,7]","[""Q01"",""Q02"",""Q03"",""Q04"",""Q05"",""Q06"",""Q07"",""Q08""]","[2191.4000000953674,5057.600000143051,6073.600000143051,8503.700000047684,10799.600000143051,12709.600000143051,15489.5,16863.700000047684]","[]","[2191.4000000953674,3698.2000000476837,5057.600000143051,6073.600000143051,8503.700000047684,10799.600000143051,12709.600000143051,15489.5,16863.700000047684,19546.400000095367]","0.375","0.7142857142857143","0","","","","","","","","","","","","","","","","","","","","","",""
"254629","
    <p><div style='color:white;font-size:35px; line-height:20px;'>词汇评估任务</div></p><br>
    <p><div style='color:white;font-size:25px; line-height:20px;'>请再次回忆该亲密的朋友，你们至少2年前就认识了，并且最近2年经常见面。</div></p>
    <p><div style='color:white;font-size:25px; line-height:20px;'>在本实验中，您将会看到一些形容词。</div></p>
    <p><div style='color:yellow;font-size:25px; line-height:20px;'>您的任务是判断这些形容词是否符合对您自己或您的朋友的描述。</div></p><p style='font-size:35px'>符合按<span style=""color:lightgreen""> f 键</span>，不符合按<span style=""color:red""> j 键</span></p>","0","html-button-response","8","348783","0.0-7.0-0.0","6","7","7","5","6","5","5","4","4","5","4","-2","-3","1","0","1","2","0","1","4","5","4","5","4","2","5","4","5","4","6","7","6","8","3","7","9","7","8","4","6","3","6","6","2","7","7","5","6","6","1","2","6","6","7","5","2","4","6","6","6","7","7","6","5","7","6","7","5","6","6","7","2","7","6","5","7","3","6","633790726911557632","王","60","Male","[""好他"",""好我"",""坏我"",""坏他""]","[""强他"",""强我"",""弱我"",""弱他""]","","","","","","","","","","","","","","","","","SRET_EW","EW_instructions","Fri Nov 03 2023 14:16:32 GMT+0800 (中国标准时间)","","","","","","","","","","","","","","","","","","",""
"1120","","f","psychophysics","9","350934","0.0-7.0-1.0-0.0","6","7","7","5","6","5","5","4","4","5","4","-2","-3","1","0","1","2","0","1","4","5","4","5","4","2","5","4","5","4","6","7","6","8","3","7","9","7","8","4","6","3","6","6","2","7","7","5","6","6","1","2","6","6","7","5","2","4","6","6","6","7","7","6","5","7","6","7","5","6","6","7","2","7","6","5","7","3","6","633790726911557632","王","60","Male","[""好他"",""好我"",""坏我"",""坏他""]","[""强他"",""强我"",""弱我"",""弱他""]","","","","","","","","yes","","","","","","","","","SRET_EW","EW_practice","","key","f","16.784304687500025","799.9999682108573","445.8333156175091","自己","严谨","Positive","ability","","","","","","","","","",""
"1169","","f","psychophysics","10","353109","0.0-7.0-1.0-0.1","6","7","7","5","6","5","5","4","4","5","4","-2","-3","1","0","1","2","0","1","4","5","4","5","4","2","5","4","5","4","6","7","6","8","3","7","9","7","8","4","6","3","6","6","2","7","7","5","6","6","1","2","6","6","7","5","2","4","6","6","6","7","7","6","5","7","6","7","5","6","6","7","2","7","6","5","7","3","6","633790726911557632","王","60","Male","[""好他"",""好我"",""坏我"",""坏他""]","[""强他"",""强我"",""弱我"",""弱他""]","","","","","","","","yes","","","","","","","","","SRET_EW","EW_practice","","key","f","16.654484615384494","799.9999682108573","445.8333156175091","朋友","徇私","Negative","morality","","","","","","","","","",""
"614","","j","psychophysics","11","354724","0.0-7.0-1.0-0.2","6","7","7","5","6","5","5","4","4","5","4","-2","-3","1","0","1","2","0","1","4","5","4","5","4","2","5","4","5","4","6","7","6","8","3","7","9","7","8","4","6","3","6","6","2","7","7","5","6","6","1","2","6","6","7","5","2","4","6","6","6","7","7","6","5","7","6","7","5","6","6","7","2","7","6","5","7","3","6","633790726911557632","王","60","Male","[""好他"",""好我"",""坏我"",""坏他""]","[""强他"",""强我"",""弱我"",""弱他""]","","","","","","","","no","","","","","","","","","SRET_EW","EW_practice","","key","j","16.652666666666846","799.9999682108573","445.8333156175091","朋友","忠实","Positive","morality","","","","","","","","","",""
"1076","","j","psychophysics","12","356806","0.0-7.0-1.0-0.3","6","7","7","5","6","5","5","4","4","5","4","-2","-3","1","0","1","2","0","1","4","5","4","5","4","2","5","4","5","4","6","7","6","8","3","7","9","7","8","4","6","3","6","6","2","7","7","5","6","6","1","2","6","6","7","5","2","4","6","6","6","7","7","6","5","7","6","7","5","6","6","7","2","7","6","5","7","3","6","633790726911557632","王","60","Male","[""好他"",""好我"",""坏我"",""坏他""]","[""强他"",""强我"",""弱我"",""弱他""]","","","","","","","","no","","","","","","","","","SRET_EW","EW_practice","","key","j","16.652919354838705","799.9999682108573","445.8333156175091","自己","刻板","Negative","ability","","","","","","","","","",""
"11577","
    <p><div style='color:white;font-size:35px; line-height:20px;'>请您再次阅读实验要求</div></p><br>
    <p><div style='color:white;font-size:25px; line-height:20px;'>请回忆某一个亲密的朋友，你们至少2年前就认识了，并且最近2年经常见面。</div></p>
    <p><div style='color:white;font-size:25px; line-height:20px;'>在本实验中，您将会看到一些形容词。</div></p>
    <p><div style='color:yellow;font-size:25px; line-height:20px;'>您的任务是判断这些形容词是否符合对您自己或您的朋友的描述。</div></p>
    <p><div class='footer' style='font-size:25px; line-height:20px;'>如果对本实验还有不清楚之处，请立即向实验员咨询。</p><p style='font-size:25px; line-height:20px;'>如果您明白了规则：</p><p style='font-size:22px; line-height:20px;'>请按 继续 进入正式实验</p>
    </div>
    <p style='font-size:35px'>符合按<span style=""color:lightgreen""> f 键</span>，不符合按<span style=""color:red""> j 键</span></p>","0","html-button-response","13","368384","0.0-7.0-2.0","6","7","7","5","6","5","5","4","4","5","4","-2","-3","1","0","1","2","0","1","4","5","4","5","4","2","5","4","5","4","6","7","6","8","3","7","9","7","8","4","6","3","6","6","2","7","7","5","6","6","1","2","6","6","7","5","2","4","6","6","6","7","7","6","5","7","6","7","5","6","6","7","2","7","6","5","7","3","6","633790726911557632","王","60","Male","[""好他"",""好我"",""坏我"",""坏他""]","[""强他"",""强我"",""弱我"",""弱他""]","","","","","","","","","","","","","","","","","SRET_EW","prac_instructions","Fri Nov 03 2023 14:16:32 GMT+0800 (中国标准时间)","","","","","","","","","","","","","","","","","","",""
"958","","j","psychophysics","14","370345","0.0-7.0-3.0-0.0","6","7","7","5","6","5","5","4","4","5","4","-2","-3","1","0","1","2","0","1","4","5","4","5","4","2","5","4","5","4","6","7","6","8","3","7","9","7","8","4","6","3","6","6","2","7","7","5","6","6","1","2","6","6","7","5","2","4","6","6","6","7","7","6","5","7","6","7","5","6","6","7","2","7","6","5","7","3","6","633790726911557632","王","60","Male","[""好他"",""好我"",""坏我"",""坏他""]","[""强他"",""强我"",""弱我"",""弱他""]","","","","","","","","no","","","","","","","","","SRET","EW_formal","","key","j","16.653084745762822","799.9999682108573","445.8333156175091","自己","说谎","Negative","morality","","","","","","","","","",""
"1004","","j","psychophysics","15","372351","0.0-7.0-3.0-0.1","6","7","7","5","6","5","5","4","4","5","4","-2","-3","1","0","1","2","0","1","4","5","4","5","4","2","5","4","5","4","6","7","6","8","3","7","9","7","8","4","6","3","6","6","2","7","7","5","6","6","1","2","6","6","7","5","2","4","6","6","6","7","7","6","5","7","6","7","5","6","6","7","2","7","6","5","7","3","6","633790726911557632","王","60","Male","[""好他"",""好我"",""坏我"",""坏他""]","[""强他"",""强我"",""弱我"",""弱他""]","","","","","","","","no","","","","","","","","","SRET","EW_formal","","key","j","16.65162184873905","799.9999682108573","445.8333156175091","朋友","迷糊","Negative","ability","","","","","","","","","",""
"941","","f","psychophysics","16","374295","0.0-7.0-3.0-0.2","6","7","7","5","6","5","5","4","4","5","4","-2","-3","1","0","1","2","0","1","4","5","4","5","4","2","5","4","5","4","6","7","6","8","3","7","9","7","8","4","6","3","6","6","2","7","7","5","6","6","1","2","6","6","7","5","2","4","6","6","6","7","7","6","5","7","6","7","5","6","6","7","2","7","6","5","7","3","6","633790726911557632","王","60","Male","[""好他"",""好我"",""坏我"",""坏他""]","[""强他"",""强我"",""弱我"",""弱他""]","","","","","","","","yes","","","","","","","","","SRET","EW_formal","","key","f","16.654525862068866","799.9999682108573","445.8333156175091","朋友","务实","Positive","ability","","","","","","","","","",""
"959","","f","psychophysics","17","376256","0.0-7.0-3.0-0.3","6","7","7","5","6","5","5","4","4","5","4","-2","-3","1","0","1","2","0","1","4","5","4","5","4","2","5","4","5","4","6","7","6","8","3","7","9","7","8","4","6","3","6","6","2","7","7","5","6","6","1","2","6","6","7","5","2","4","6","6","6","7","7","6","5","7","6","7","5","6","6","7","2","7","6","5","7","3","6","633790726911557632","王","60","Male","[""好他"",""好我"",""坏我"",""坏他""]","[""强他"",""强我"",""弱我"",""弱他""]","","","","","","","","yes","","","","","","","","","SRET","EW_formal","","key","f","16.651188034188145","799.9999682108573","445.8333156175091","自己","坚贞","Positive","morality","","","","","","","","","",""
"814","","j","psychophysics","18","378072","0.0-7.0-3.0-0.4","6","7","7","5","6","5","5","4","4","5","4","-2","-3","1","0","1","2","0","1","4","5","4","5","4","2","5","4","5","4","6","7","6","8","3","7","9","7","8","4","6","3","6","6","2","7","7","5","6","6","1","2","6","6","7","5","2","4","6","6","6","7","7","6","5","7","6","7","5","6","6","7","2","7","6","5","7","3","6","633790726911557632","王","60","Male","[""好他"",""好我"",""坏我"",""坏他""]","[""强他"",""强我"",""弱我"",""弱他""]","","","","","","","","no","","","","","","","","","SRET","EW_formal","","key","j","16.654861111110897","799.9999682108573","445.8333156175091","朋友","差生","Negative","ability","","","","","","","","","",""
"963","","j","psychophysics","19","380037","0.0-7.0-3.0-0.5","6","7","7","5","6","5","5","4","4","5","4","-2","-3","1","0","1","2","0","1","4","5","4","5","4","2","5","4","5","4","6","7","6","8","3","7","9","7","8","4","6","3","6","6","2","7","7","5","6","6","1","2","6","6","7","5","2","4","6","6","6","7","7","6","5","7","6","7","5","6","6","7","2","7","6","5","7","3","6","633790726911557632","王","60","Male","[""好他"",""好我"",""坏我"",""坏他""]","[""强他"",""强我"",""弱我"",""弱他""]","","","","","","","","no","","","","","","","","","SRET","EW_formal","","key","j","16.65387179487152","799.9999682108573","445.8333156175091","自己","龌龊","Negative","morality","","","","","","","","","",""
"1001","","j","psychophysics","20","382051","0.0-7.0-3.0-0.6","6","7","7","5","6","5","5","4","4","5","4","-2","-3","1","0","1","2","0","1","4","5","4","5","4","2","5","4","5","4","6","7","6","8","3","7","9","7","8","4","6","3","6","6","2","7","7","5","6","6","1","2","6","6","7","5","2","4","6","6","6","7","7","6","5","7","6","7","5","6","6","7","2","7","6","5","7","3","6","633790726911557632","王","60","Male","[""好他"",""好我"",""坏我"",""坏他""]","[""强他"",""强我"",""弱我"",""弱他""]","","","","","","","","no","","","","","","","","","SRET","EW_formal","","key","j","16.65178333333315","799.9999682108573","445.8333156175091","自己","犹豫","Negative","ability","","","","","","","","","",""
"1150","","j","psychophysics","21","384205","0.0-7.0-3.0-0.7","6","7","7","5","6","5","5","4","4","5","4","-2","-3","1","0","1","2","0","1","4","5","4","5","4","2","5","4","5","4","6","7","6","8","3","7","9","7","8","4","6","3","6","6","2","7","7","5","6","6","1","2","6","6","7","5","2","4","6","6","6","7","7","6","5","7","6","7","5","6","6","7","2","7","6","5","7","3","6","633790726911557632","王","60","Male","[""好他"",""好我"",""坏我"",""坏他""]","[""强他"",""强我"",""弱我"",""弱他""]","","","","","","","","no","","","","","","","","","SRET","EW_formal","","key","j","16.649273437500142","799.9999682108573","445.8333156175091","朋友","不孝","Negative","morality","","","","","","","","","",""
"779","","j","psychophysics","22","385987","0.0-7.0-3.0-0.8","6","7","7","5","6","5","5","4","4","5","4","-2","-3","1","0","1","2","0","1","4","5","4","5","4","2","5","4","5","4","6","7","6","8","3","7","9","7","8","4","6","3","6","6","2","7","7","5","6","6","1","2","6","6","7","5","2","4","6","6","6","7","7","6","5","7","6","7","5","6","6","7","2","7","6","5","7","3","6","633790726911557632","王","60","Male","[""好他"",""好我"",""坏我"",""坏他""]","[""强他"",""强我"",""弱我"",""弱他""]","","","","","","","","no","","","","","","","","","SRET","EW_formal","","key","j","16.655037735849135","799.9999682108573","445.8333156175091","朋友","歹毒","Negative","morality","","","","","","","","","",""
"1383","","j","psychophysics","23","388372","0.0-7.0-3.0-0.9","6","7","7","5","6","5","5","4","4","5","4","-2","-3","1","0","1","2","0","1","4","5","4","5","4","2","5","4","5","4","6","7","6","8","3","7","9","7","8","4","6","3","6","6","2","7","7","5","6","6","1","2","6","6","7","5","2","4","6","6","6","7","7","6","5","7","6","7","5","6","6","7","2","7","6","5","7","3","6","633790726911557632","王","60","Male","[""好他"",""好我"",""坏我"",""坏他""]","[""强他"",""强我"",""弱我"",""弱他""]","","","","","","","","no","","","","","","","","","SRET","EW_formal","","key","j","16.65453521126773","799.9999682108573","445.8333156175091","自己","罪恶","Negative","morality","","","","","","","","","",""
"819","","f","psychophysics","24","390195","0.0-7.0-3.0-0.10","6","7","7","5","6","5","5","4","4","5","4","-2","-3","1","0","1","2","0","1","4","5","4","5","4","2","5","4","5","4","6","7","6","8","3","7","9","7","8","4","6","3","6","6","2","7","7","5","6","6","1","2","6","6","7","5","2","4","6","6","6","7","7","6","5","7","6","7","5","6","6","7","2","7","6","5","7","3","6","633790726911557632","王","60","Male","[""好他"",""好我"",""坏我"",""坏他""]","[""强他"",""强我"",""弱我"",""弱他""]","","","","","","","","yes","","","","","","","","","SRET","EW_formal","","key","f","16.652990825688402","799.9999682108573","445.8333156175091","自己","稳健","Positive","ability","","","","","","","","","",""
"696","","f","psychophysics","25","391894","0.0-7.0-3.0-0.11","6","7","7","5","6","5","5","4","4","5","4","-2","-3","1","0","1","2","0","1","4","5","4","5","4","2","5","4","5","4","6","7","6","8","3","7","9","7","8","4","6","3","6","6","2","7","7","5","6","6","1","2","6","6","7","5","2","4","6","6","6","7","7","6","5","7","6","7","5","6","6","7","2","7","6","5","7","3","6","633790726911557632","王","60","Male","[""好他"",""好我"",""坏我"",""坏他""]","[""强他"",""强我"",""弱我"",""弱他""]","","","","","","","","yes","","","","","","","","","SRET","EW_formal","","key","f","16.652584158416058","799.9999682108573","445.8333156175091","自己","专注","Positive","ability","","","","","","","","","",""
"762","","f","psychophysics","26","393657","0.0-7.0-3.0-0.12","6","7","7","5","6","5","5","4","4","5","4","-2","-3","1","0","1","2","0","1","4","5","4","5","4","2","5","4","5","4","6","7","6","8","3","7","9","7","8","4","6","3","6","6","2","7","7","5","6","6","1","2","6","6","7","5","2","4","6","6","6","7","7","6","5","7","6","7","5","6","6","7","2","7","6","5","7","3","6","633790726911557632","王","60","Male","[""好他"",""好我"",""坏我"",""坏他""]","[""强他"",""强我"",""弱我"",""弱他""]","","","","","","","","yes","","","","","","","","","SRET","EW_formal","","key","f","16.654914285714316","799.9999682108573","445.8333156175091","自己","依靠","Negative","ability","","","","","","","","","",""
"915","","f","psychophysics","27","395574","0.0-7.0-3.0-0.13","6","7","7","5","6","5","5","4","4","5","4","-2","-3","1","0","1","2","0","1","4","5","4","5","4","2","5","4","5","4","6","7","6","8","3","7","9","7","8","4","6","3","6","6","2","7","7","5","6","6","1","2","6","6","7","5","2","4","6","6","6","7","7","6","5","7","6","7","5","6","6","7","2","7","6","5","7","3","6","633790726911557632","王","60","Male","[""好他"",""好我"",""坏我"",""坏他""]","[""强他"",""强我"",""弱我"",""弱他""]","","","","","","","","yes","","","","","","","","","SRET","EW_formal","","key","f","16.65287719298207","799.9999682108573","445.8333156175091","朋友","仗义","Positive","morality","","","","","","","","","",""
"762","","f","psychophysics","28","397338","0.0-7.0-3.0-0.14","6","7","7","5","6","5","5","4","4","5","4","-2","-3","1","0","1","2","0","1","4","5","4","5","4","2","5","4","5","4","6","7","6","8","3","7","9","7","8","4","6","3","6","6","2","7","7","5","6","6","1","2","6","6","7","5","2","4","6","6","6","7","7","6","5","7","6","7","5","6","6","7","2","7","6","5","7","3","6","633790726911557632","王","60","Male","[""好他"",""好我"",""坏我"",""坏他""]","[""强他"",""强我"",""弱我"",""弱他""]","","","","","","","","yes","","","","","","","","","SRET","EW_formal","","key","f","16.65171428571422","799.9999682108573","445.8333156175091","自己","慈悲","Positive","morality","","","","","","","","","",""
"849","","j","psychophysics","29","399189","0.0-7.0-3.0-0.15","6","7","7","5","6","5","5","4","4","5","4","-2","-3","1","0","1","2","0","1","4","5","4","5","4","2","5","4","5","4","6","7","6","8","3","7","9","7","8","4","6","3","6","6","2","7","7","5","6","6","1","2","6","6","7","5","2","4","6","6","6","7","7","6","5","7","6","7","5","6","6","7","2","7","6","5","7","3","6","633790726911557632","王","60","Male","[""好他"",""好我"",""坏我"",""坏他""]","[""强他"",""强我"",""弱我"",""弱他""]","","","","","","","","no","","","","","","","","","SRET","EW_formal","","key","j","16.652981818182162","799.9999682108573","445.8333156175091","朋友","缺德","Negative","morality","","","","","","","","","",""
"863","","j","psychophysics","30","401053","0.0-7.0-3.0-0.16","6","7","7","5","6","5","5","4","4","5","4","-2","-3","1","0","1","2","0","1","4","5","4","5","4","2","5","4","5","4","6","7","6","8","3","7","9","7","8","4","6","3","6","6","2","7","7","5","6","6","1","2","6","6","7","5","2","4","6","6","6","7","7","6","5","7","6","7","5","6","6","7","2","7","6","5","7","3","6","633790726911557632","王","60","Male","[""好他"",""好我"",""坏我"",""坏他""]","[""强他"",""强我"",""弱我"",""弱他""]","","","","","","","","no","","","","","","","","","SRET","EW_formal","","key","j","16.65181081081103","799.9999682108573","445.8333156175091","自己","低劣","Negative","morality","","","","","","","","","",""
"812","","f","psychophysics","31","402868","0.0-7.0-3.0-0.17","6","7","7","5","6","5","5","4","4","5","4","-2","-3","1","0","1","2","0","1","4","5","4","5","4","2","5","4","5","4","6","7","6","8","3","7","9","7","8","4","6","3","6","6","2","7","7","5","6","6","1","2","6","6","7","5","2","4","6","6","6","7","7","6","5","7","6","7","5","6","6","7","2","7","6","5","7","3","6","633790726911557632","王","60","Male","[""好他"",""好我"",""坏我"",""坏他""]","[""强他"",""强我"",""弱我"",""弱他""]","","","","","","","","yes","","","","","","","","","SRET","EW_formal","","key","f","16.651222222222174","799.9999682108573","445.8333156175091","朋友","懂行","Positive","ability","","","","","","","","","",""
"822","","j","psychophysics","32","404698","0.0-7.0-3.0-0.18","6","7","7","5","6","5","5","4","4","5","4","-2","-3","1","0","1","2","0","1","4","5","4","5","4","2","5","4","5","4","6","7","6","8","3","7","9","7","8","4","6","3","6","6","2","7","7","5","6","6","1","2","6","6","7","5","2","4","6","6","6","7","7","6","5","7","6","7","5","6","6","7","2","7","6","5","7","3","6","633790726911557632","王","60","Male","[""好他"",""好我"",""坏我"",""坏他""]","[""强他"",""强我"",""弱我"",""弱他""]","","","","","","","","no","","","","","","","","","SRET","EW_formal","","key","j","16.650853211009434","799.9999682108573","445.8333156175091","自己","无赖","Negative","morality","","","","","","","","","",""
"784","","j","psychophysics","33","406486","0.0-7.0-3.0-0.19","6","7","7","5","6","5","5","4","4","5","4","-2","-3","1","0","1","2","0","1","4","5","4","5","4","2","5","4","5","4","6","7","6","8","3","7","9","7","8","4","6","3","6","6","2","7","7","5","6","6","1","2","6","6","7","5","2","4","6","6","6","7","7","6","5","7","6","7","5","6","6","7","2","7","6","5","7","3","6","633790726911557632","王","60","Male","[""好他"",""好我"",""坏我"",""坏他""]","[""强他"",""强我"",""弱我"",""弱他""]","","","","","","","","no","","","","","","","","","SRET","EW_formal","","key","j","16.654754716980946","799.9999682108573","445.8333156175091","自己","不端","Negative","morality","","","","","","","","","",""
"678","","j","psychophysics","34","408166","0.0-7.0-3.0-0.20","6","7","7","5","6","5","5","4","4","5","4","-2","-3","1","0","1","2","0","1","4","5","4","5","4","2","5","4","5","4","6","7","6","8","3","7","9","7","8","4","6","3","6","6","2","7","7","5","6","6","1","2","6","6","7","5","2","4","6","6","6","7","7","6","5","7","6","7","5","6","6","7","2","7","6","5","7","3","6","633790726911557632","王","60","Male","[""好他"",""好我"",""坏我"",""坏他""]","[""强他"",""强我"",""弱我"",""弱他""]","","","","","","","","no","","","","","","","","","SRET","EW_formal","","key","j","16.650619999999762","799.9999682108573","445.8333156175091","自己","迟钝","Negative","ability","","","","","","","","","",""
"725","","f","psychophysics","35","409893","0.0-7.0-3.0-0.21","6","7","7","5","6","5","5","4","4","5","4","-2","-3","1","0","1","2","0","1","4","5","4","5","4","2","5","4","5","4","6","7","6","8","3","7","9","7","8","4","6","3","6","6","2","7","7","5","6","6","1","2","6","6","7","5","2","4","6","6","6","7","7","6","5","7","6","7","5","6","6","7","2","7","6","5","7","3","6","633790726911557632","王","60","Male","[""好他"",""好我"",""坏我"",""坏他""]","[""强他"",""强我"",""弱我"",""弱他""]","","","","","","","","yes","","","","","","","","","SRET","EW_formal","","key","f","16.652362745098298","799.9999682108573","445.8333156175091","自己","周到","Positive","ability","","","","","","","","","",""
"656","","f","psychophysics","36","411559","0.0-7.0-3.0-0.22","6","7","7","5","6","5","5","4","4","5","4","-2","-3","1","0","1","2","0","1","4","5","4","5","4","2","5","4","5","4","6","7","6","8","3","7","9","7","8","4","6","3","6","6","2","7","7","5","6","6","1","2","6","6","7","5","2","4","6","6","6","7","7","6","5","7","6","7","5","6","6","7","2","7","6","5","7","3","6","633790726911557632","王","60","Male","[""好他"",""好我"",""坏我"",""坏他""]","[""强他"",""强我"",""弱我"",""弱他""]","","","","","","","","yes","","","","","","","","","SRET","EW_formal","","key","f","16.65375999999989","799.9999682108573","445.8333156175091","朋友","刚正","Positive","morality","","","","","","","","","",""
"1419","","f","psychophysics","37","413981","0.0-7.0-3.0-0.23","6","7","7","5","6","5","5","4","4","5","4","-2","-3","1","0","1","2","0","1","4","5","4","5","4","2","5","4","5","4","6","7","6","8","3","7","9","7","8","4","6","3","6","6","2","7","7","5","6","6","1","2","6","6","7","5","2","4","6","6","6","7","7","6","5","7","6","7","5","6","6","7","2","7","6","5","7","3","6","633790726911557632","王","60","Male","[""好他"",""好我"",""坏我"",""坏他""]","[""强他"",""强我"",""弱我"",""弱他""]","","","","","","","","yes","","","","","","","","","SRET","EW_formal","","key","f","16.651326388889075","799.9999682108573","445.8333156175091","朋友","果断","Positive","ability","","","","","","","","","",""
"621","","f","psychophysics","38","415610","0.0-7.0-3.0-0.24","6","7","7","5","6","5","5","4","4","5","4","-2","-3","1","0","1","2","0","1","4","5","4","5","4","2","5","4","5","4","6","7","6","8","3","7","9","7","8","4","6","3","6","6","2","7","7","5","6","6","1","2","6","6","7","5","2","4","6","6","6","7","7","6","5","7","6","7","5","6","6","7","2","7","6","5","7","3","6","633790726911557632","王","60","Male","[""好他"",""好我"",""坏我"",""坏他""]","[""强他"",""强我"",""弱我"",""弱他""]","","","","","","","","yes","","","","","","","","","SRET","EW_formal","","key","f","16.652453608247427","799.9999682108573","445.8333156175091","朋友","善良","Positive","morality","","","","","","","","","",""
"565","","f","psychophysics","39","417181","0.0-7.0-3.0-0.25","6","7","7","5","6","5","5","4","4","5","4","-2","-3","1","0","1","2","0","1","4","5","4","5","4","2","5","4","5","4","6","7","6","8","3","7","9","7","8","4","6","3","6","6","2","7","7","5","6","6","1","2","6","6","7","5","2","4","6","6","6","7","7","6","5","7","6","7","5","6","6","7","2","7","6","5","7","3","6","633790726911557632","王","60","Male","[""好他"",""好我"",""坏我"",""坏他""]","[""强他"",""强我"",""弱我"",""弱他""]","","","","","","","","yes","","","","","","","","","SRET","EW_formal","","key","f","16.651032258064852","799.9999682108573","445.8333156175091","朋友","坚持","Positive","ability","","","","","","","","","",""
"867","","f","psychophysics","40","419054","0.0-7.0-3.0-0.26","6","7","7","5","6","5","5","4","4","5","4","-2","-3","1","0","1","2","0","1","4","5","4","5","4","2","5","4","5","4","6","7","6","8","3","7","9","7","8","4","6","3","6","6","2","7","7","5","6","6","1","2","6","6","7","5","2","4","6","6","6","7","7","6","5","7","6","7","5","6","6","7","2","7","6","5","7","3","6","633790726911557632","王","60","Male","[""好他"",""好我"",""坏我"",""坏他""]","[""强他"",""强我"",""弱我"",""弱他""]","","","","","","","","yes","","","","","","","","","SRET","EW_formal","","key","f","16.651171171170898","799.9999682108573","445.8333156175091","自己","自律","Positive","ability","","","","","","","","","",""
"1396","","f","psychophysics","41","421451","0.0-7.0-3.0-0.27","6","7","7","5","6","5","5","4","4","5","4","-2","-3","1","0","1","2","0","1","4","5","4","5","4","2","5","4","5","4","6","7","6","8","3","7","9","7","8","4","6","3","6","6","2","7","7","5","6","6","1","2","6","6","7","5","2","4","6","6","6","7","7","6","5","7","6","7","5","6","6","7","2","7","6","5","7","3","6","633790726911557632","王","60","Male","[""好他"",""好我"",""坏我"",""坏他""]","[""强他"",""强我"",""弱我"",""弱他""]","","","","","","","","yes","","","","","","","","","SRET","EW_formal","","key","f","16.63949305555555","799.9999682108573","445.8333156175091","自己","中用","Positive","ability","","","","","","","","","",""
"622","","f","psychophysics","42","423076","0.0-7.0-3.0-0.28","6","7","7","5","6","5","5","4","4","5","4","-2","-3","1","0","1","2","0","1","4","5","4","5","4","2","5","4","5","4","6","7","6","8","3","7","9","7","8","4","6","3","6","6","2","7","7","5","6","6","1","2","6","6","7","5","2","4","6","6","6","7","7","6","5","7","6","7","5","6","6","7","2","7","6","5","7","3","6","633790726911557632","王","60","Male","[""好他"",""好我"",""坏我"",""坏他""]","[""强他"",""强我"",""弱我"",""弱他""]","","","","","","","","yes","","","","","","","","","SRET","EW_formal","","key","f","16.654854166667064","799.9999682108573","445.8333156175091","朋友","敬业","Positive","morality","","","","","","","","","",""
"735","","f","psychophysics","43","424816","0.0-7.0-3.0-0.29","6","7","7","5","6","5","5","4","4","5","4","-2","-3","1","0","1","2","0","1","4","5","4","5","4","2","5","4","5","4","6","7","6","8","3","7","9","7","8","4","6","3","6","6","2","7","7","5","6","6","1","2","6","6","7","5","2","4","6","6","6","7","7","6","5","7","6","7","5","6","6","7","2","7","6","5","7","3","6","633790726911557632","王","60","Male","[""好他"",""好我"",""坏我"",""坏他""]","[""强他"",""强我"",""弱我"",""弱他""]","","","","","","","","yes","","","","","","","","","SRET","EW_formal","","key","f","16.653144230768913","799.9999682108573","445.8333156175091","朋友","混账","Negative","morality","","","","","","","","","",""
"1350","","f","psychophysics","44","427174","0.0-7.0-3.0-0.30","6","7","7","5","6","5","5","4","4","5","4","-2","-3","1","0","1","2","0","1","4","5","4","5","4","2","5","4","5","4","6","7","6","8","3","7","9","7","8","4","6","3","6","6","2","7","7","5","6","6","1","2","6","6","7","5","2","4","6","6","6","7","7","6","5","7","6","7","5","6","6","7","2","7","6","5","7","3","6","633790726911557632","王","60","Male","[""好他"",""好我"",""坏我"",""坏他""]","[""强他"",""强我"",""弱我"",""弱他""]","","","","","","","","yes","","","","","","","","","SRET","EW_formal","","key","f","16.654114285714293","799.9999682108573","445.8333156175091","自己","淡泊","Positive","morality","","","","","","","","","",""
"1201","","f","psychophysics","45","429380","0.0-7.0-3.0-0.31","6","7","7","5","6","5","5","4","4","5","4","-2","-3","1","0","1","2","0","1","4","5","4","5","4","2","5","4","5","4","6","7","6","8","3","7","9","7","8","4","6","3","6","6","2","7","7","5","6","6","1","2","6","6","7","5","2","4","6","6","6","7","7","6","5","7","6","7","5","6","6","7","2","7","6","5","7","3","6","633790726911557632","王","60","Male","[""好他"",""好我"",""坏我"",""坏他""]","[""强他"",""强我"",""弱我"",""弱他""]","","","","","","","","yes","","","","","","","","","SRET","EW_formal","","key","f","16.653068181818306","799.9999682108573","445.8333156175091","朋友","热心","Positive","morality","","","","","","","","","",""
"1079","","f","psychophysics","46","431460","0.0-7.0-3.0-0.32","6","7","7","5","6","5","5","4","4","5","4","-2","-3","1","0","1","2","0","1","4","5","4","5","4","2","5","4","5","4","6","7","6","8","3","7","9","7","8","4","6","3","6","6","2","7","7","5","6","6","1","2","6","6","7","5","2","4","6","6","6","7","7","6","5","7","6","7","5","6","6","7","2","7","6","5","7","3","6","633790726911557632","王","60","Male","[""好他"",""好我"",""坏我"",""坏他""]","[""强他"",""强我"",""弱我"",""弱他""]","","","","","","","","yes","","","","","","","","","SRET","EW_formal","","key","f","16.653056910569113","799.9999682108573","445.8333156175091","自己","不良","Negative","morality","","","","","","","","","",""
"746","","j","psychophysics","47","433209","0.0-7.0-3.0-0.33","6","7","7","5","6","5","5","4","4","5","4","-2","-3","1","0","1","2","0","1","4","5","4","5","4","2","5","4","5","4","6","7","6","8","3","7","9","7","8","4","6","3","6","6","2","7","7","5","6","6","1","2","6","6","7","5","2","4","6","6","6","7","7","6","5","7","6","7","5","6","6","7","2","7","6","5","7","3","6","633790726911557632","王","60","Male","[""好他"",""好我"",""坏我"",""坏他""]","[""强他"",""强我"",""弱我"",""弱他""]","","","","","","","","no","","","","","","","","","SRET","EW_formal","","key","j","16.652542857142787","799.9999682108573","445.8333156175091","朋友","愚痴","Negative","ability","","","","","","","","","",""
"995","","f","psychophysics","48","435207","0.0-7.0-3.0-0.34","6","7","7","5","6","5","5","4","4","5","4","-2","-3","1","0","1","2","0","1","4","5","4","5","4","2","5","4","5","4","6","7","6","8","3","7","9","7","8","4","6","3","6","6","2","7","7","5","6","6","1","2","6","6","7","5","2","4","6","6","6","7","7","6","5","7","6","7","5","6","6","7","2","7","6","5","7","3","6","633790726911557632","王","60","Male","[""好他"",""好我"",""坏我"",""坏他""]","[""强他"",""强我"",""弱我"",""弱他""]","","","","","","","","yes","","","","","","","","","SRET","EW_formal","","key","f","16.652478991596794","799.9999682108573","445.8333156175091","朋友","仁厚","Positive","morality","","","","","","","","","",""
"1101","","j","psychophysics","49","437310","0.0-7.0-3.0-0.35","6","7","7","5","6","5","5","4","4","5","4","-2","-3","1","0","1","2","0","1","4","5","4","5","4","2","5","4","5","4","6","7","6","8","3","7","9","7","8","4","6","3","6","6","2","7","7","5","6","6","1","2","6","6","7","5","2","4","6","6","6","7","7","6","5","7","6","7","5","6","6","7","2","7","6","5","7","3","6","633790726911557632","王","60","Male","[""好他"",""好我"",""坏我"",""坏他""]","[""强他"",""强我"",""弱我"",""弱他""]","","","","","","","","no","","","","","","","","","SRET","EW_formal","","key","j","16.65427199999988","799.9999682108573","445.8333156175091","朋友","无能","Negative","ability","","","","","","","","","",""
"1036","","j","psychophysics","50","439347","0.0-7.0-3.0-0.36","6","7","7","5","6","5","5","4","4","5","4","-2","-3","1","0","1","2","0","1","4","5","4","5","4","2","5","4","5","4","6","7","6","8","3","7","9","7","8","4","6","3","6","6","2","7","7","5","6","6","1","2","6","6","7","5","2","4","6","6","6","7","7","6","5","7","6","7","5","6","6","7","2","7","6","5","7","3","6","633790726911557632","王","60","Male","[""好他"",""好我"",""坏我"",""坏他""]","[""强他"",""强我"",""弱我"",""弱他""]","","","","","","","","no","","","","","","","","","SRET","EW_formal","","key","j","16.651652892561792","799.9999682108573","445.8333156175091","自己","屈才","Negative","ability","","","","","","","","","",""
"1107","","j","psychophysics","51","441460","0.0-7.0-3.0-0.37","6","7","7","5","6","5","5","4","4","5","4","-2","-3","1","0","1","2","0","1","4","5","4","5","4","2","5","4","5","4","6","7","6","8","3","7","9","7","8","4","6","3","6","6","2","7","7","5","6","6","1","2","6","6","7","5","2","4","6","6","6","7","7","6","5","7","6","7","5","6","6","7","2","7","6","5","7","3","6","633790726911557632","王","60","Male","[""好他"",""好我"",""坏我"",""坏他""]","[""强他"",""强我"",""弱我"",""弱他""]","","","","","","","","no","","","","","","","","","SRET","EW_formal","","key","j","16.652928571428806","799.9999682108573","445.8333156175091","朋友","马虎","Negative","ability","","","","","","","","","",""
"741","","f","psychophysics","52","443208","0.0-7.0-3.0-0.38","6","7","7","5","6","5","5","4","4","5","4","-2","-3","1","0","1","2","0","1","4","5","4","5","4","2","5","4","5","4","6","7","6","8","3","7","9","7","8","4","6","3","6","6","2","7","7","5","6","6","1","2","6","6","7","5","2","4","6","6","6","7","7","6","5","7","6","7","5","6","6","7","2","7","6","5","7","3","6","633790726911557632","王","60","Male","[""好他"",""好我"",""坏我"",""坏他""]","[""强他"",""强我"",""弱我"",""弱他""]","","","","","","","","yes","","","","","","","","","SRET","EW_formal","","key","f","16.65292307692289","799.9999682108573","445.8333156175091","自己","仁爱","Positive","morality","","","","","","","","","",""
"1655","","f","psychophysics","53","445865","0.0-7.0-3.0-0.39","6","7","7","5","6","5","5","4","4","5","4","-2","-3","1","0","1","2","0","1","4","5","4","5","4","2","5","4","5","4","6","7","6","8","3","7","9","7","8","4","6","3","6","6","2","7","7","5","6","6","1","2","6","6","7","5","2","4","6","6","6","7","7","6","5","7","6","7","5","6","6","7","2","7","6","5","7","3","6","633790726911557632","王","60","Male","[""好他"",""好我"",""坏我"",""坏他""]","[""强他"",""强我"",""弱我"",""弱他""]","","","","","","","","yes","","","","","","","","","SRET","EW_formal","","key","f","16.653088607594718","799.9999682108573","445.8333156175091","自己","奸险","Negative","morality","","","","","","","","","",""
"932","","j","psychophysics","54","447799","0.0-7.0-3.0-0.40","6","7","7","5","6","5","5","4","4","5","4","-2","-3","1","0","1","2","0","1","4","5","4","5","4","2","5","4","5","4","6","7","6","8","3","7","9","7","8","4","6","3","6","6","2","7","7","5","6","6","1","2","6","6","7","5","2","4","6","6","6","7","7","6","5","7","6","7","5","6","6","7","2","7","6","5","7","3","6","633790726911557632","王","60","Male","[""好他"",""好我"",""坏我"",""坏他""]","[""强他"",""强我"",""弱我"",""弱他""]","","","","","","","","no","","","","","","","","","SRET","EW_formal","","key","j","16.65309482758588","799.9999682108573","445.8333156175091","自己","清廉","Positive","morality","","","","","","","","","",""
"1352","","j","psychophysics","55","450153","0.0-7.0-3.0-0.41","6","7","7","5","6","5","5","4","4","5","4","-2","-3","1","0","1","2","0","1","4","5","4","5","4","2","5","4","5","4","6","7","6","8","3","7","9","7","8","4","6","3","6","6","2","7","7","5","6","6","1","2","6","6","7","5","2","4","6","6","6","7","7","6","5","7","6","7","5","6","6","7","2","7","6","5","7","3","6","633790726911557632","王","60","Male","[""好他"",""好我"",""坏我"",""坏他""]","[""强他"",""强我"",""弱我"",""弱他""]","","","","","","","","no","","","","","","","","","SRET","EW_formal","","key","j","16.652164285714388","799.9999682108573","445.8333156175091","自己","弱智","Negative","ability","","","","","","","","","",""
"1118","","f","psychophysics","56","452278","0.0-7.0-3.0-0.42","6","7","7","5","6","5","5","4","4","5","4","-2","-3","1","0","1","2","0","1","4","5","4","5","4","2","5","4","5","4","6","7","6","8","3","7","9","7","8","4","6","3","6","6","2","7","7","5","6","6","1","2","6","6","7","5","2","4","6","6","6","7","7","6","5","7","6","7","5","6","6","7","2","7","6","5","7","3","6","633790726911557632","王","60","Male","[""好他"",""好我"",""坏我"",""坏他""]","[""强他"",""强我"",""弱我"",""弱他""]","","","","","","","","yes","","","","","","","","","SRET","EW_formal","","key","f","16.655039370078757","799.9999682108573","445.8333156175091","朋友","蛇蝎","Negative","morality","","","","","","","","","",""
"846","","j","psychophysics","57","454126","0.0-7.0-3.0-0.43","6","7","7","5","6","5","5","4","4","5","4","-2","-3","1","0","1","2","0","1","4","5","4","5","4","2","5","4","5","4","6","7","6","8","3","7","9","7","8","4","6","3","6","6","2","7","7","5","6","6","1","2","6","6","7","5","2","4","6","6","6","7","7","6","5","7","6","7","5","6","6","7","2","7","6","5","7","3","6","633790726911557632","王","60","Male","[""好他"",""好我"",""坏我"",""坏他""]","[""强他"",""强我"",""弱我"",""弱他""]","","","","","","","","no","","","","","","","","","SRET","EW_formal","","key","j","16.654509090908952","799.9999682108573","445.8333156175091","朋友","怠惰","Negative","ability","","","","","","","","","",""
"1106","","j","psychophysics","58","456234","0.0-7.0-3.0-0.44","6","7","7","5","6","5","5","4","4","5","4","-2","-3","1","0","1","2","0","1","4","5","4","5","4","2","5","4","5","4","6","7","6","8","3","7","9","7","8","4","6","3","6","6","2","7","7","5","6","6","1","2","6","6","7","5","2","4","6","6","6","7","7","6","5","7","6","7","5","6","6","7","2","7","6","5","7","3","6","633790726911557632","王","60","Male","[""好他"",""好我"",""坏我"",""坏他""]","[""强他"",""强我"",""弱我"",""弱他""]","","","","","","","","no","","","","","","","","","SRET","EW_formal","","key","j","16.652919999999927","799.9999682108573","445.8333156175091","朋友","刻薄","Negative","morality","","","","","","","","","",""
"906","","j","psychophysics","59","458146","0.0-7.0-3.0-0.45","6","7","7","5","6","5","5","4","4","5","4","-2","-3","1","0","1","2","0","1","4","5","4","5","4","2","5","4","5","4","6","7","6","8","3","7","9","7","8","4","6","3","6","6","2","7","7","5","6","6","1","2","6","6","7","5","2","4","6","6","6","7","7","6","5","7","6","7","5","6","6","7","2","7","6","5","7","3","6","633790726911557632","王","60","Male","[""好他"",""好我"",""坏我"",""坏他""]","[""强他"",""强我"",""弱我"",""弱他""]","","","","","","","","no","","","","","","","","","SRET","EW_formal","","key","j","16.654403508771537","799.9999682108573","445.8333156175091","朋友","拜金","Negative","morality","","","","","","","","","",""
"1007","","f","psychophysics","60","460159","0.0-7.0-3.0-0.46","6","7","7","5","6","5","5","4","4","5","4","-2","-3","1","0","1","2","0","1","4","5","4","5","4","2","5","4","5","4","6","7","6","8","3","7","9","7","8","4","6","3","6","6","2","7","7","5","6","6","1","2","6","6","7","5","2","4","6","6","6","7","7","6","5","7","6","7","5","6","6","7","2","7","6","5","7","3","6","633790726911557632","王","60","Male","[""好他"",""好我"",""坏我"",""坏他""]","[""强他"",""强我"",""弱我"",""弱他""]","","","","","","","","yes","","","","","","","","","SRET","EW_formal","","key","f","16.651600000000325","799.9999682108573","445.8333156175091","自己","好心","Positive","morality","","","","","","","","","",""
"1008","","j","psychophysics","61","462170","0.0-7.0-3.0-0.47","6","7","7","5","6","5","5","4","4","5","4","-2","-3","1","0","1","2","0","1","4","5","4","5","4","2","5","4","5","4","6","7","6","8","3","7","9","7","8","4","6","3","6","6","2","7","7","5","6","6","1","2","6","6","7","5","2","4","6","6","6","7","7","6","5","7","6","7","5","6","6","7","2","7","6","5","7","3","6","633790726911557632","王","60","Male","[""好他"",""好我"",""坏我"",""坏他""]","[""强他"",""强我"",""弱我"",""弱他""]","","","","","","","","no","","","","","","","","","SRET","EW_formal","","key","j","16.65283333333306","799.9999682108573","445.8333156175091","自己","干练","Positive","ability","","","","","","","","","",""
"1085","","f","psychophysics","62","464258","0.0-7.0-3.0-0.48","6","7","7","5","6","5","5","4","4","5","4","-2","-3","1","0","1","2","0","1","4","5","4","5","4","2","5","4","5","4","6","7","6","8","3","7","9","7","8","4","6","3","6","6","2","7","7","5","6","6","1","2","6","6","7","5","2","4","6","6","6","7","7","6","5","7","6","7","5","6","6","7","2","7","6","5","7","3","6","633790726911557632","王","60","Male","[""好他"",""好我"",""坏我"",""坏他""]","[""强他"",""强我"",""弱我"",""弱他""]","","","","","","","","yes","","","","","","","","","SRET","EW_formal","","key","f","16.654330645161192","799.9999682108573","445.8333156175091","自己","忠诚","Positive","morality","","","","","","","","","",""
"993","","j","psychophysics","63","466252","0.0-7.0-3.0-0.49","6","7","7","5","6","5","5","4","4","5","4","-2","-3","1","0","1","2","0","1","4","5","4","5","4","2","5","4","5","4","6","7","6","8","3","7","9","7","8","4","6","3","6","6","2","7","7","5","6","6","1","2","6","6","7","5","2","4","6","6","6","7","7","6","5","7","6","7","5","6","6","7","2","7","6","5","7","3","6","633790726911557632","王","60","Male","[""好他"",""好我"",""坏我"",""坏他""]","[""强他"",""强我"",""弱我"",""弱他""]","","","","","","","","no","","","","","","","","","SRET","EW_formal","","key","j","16.654168067227054","799.9999682108573","445.8333156175091","朋友","迂拙","Negative","ability","","","","","","","","","",""
"858","","f","psychophysics","64","468112","0.0-7.0-3.0-0.50","6","7","7","5","6","5","5","4","4","5","4","-2","-3","1","0","1","2","0","1","4","5","4","5","4","2","5","4","5","4","6","7","6","8","3","7","9","7","8","4","6","3","6","6","2","7","7","5","6","6","1","2","6","6","7","5","2","4","6","6","6","7","7","6","5","7","6","7","5","6","6","7","2","7","6","5","7","3","6","633790726911557632","王","60","Male","[""好他"",""好我"",""坏我"",""坏他""]","[""强他"",""强我"",""弱我"",""弱他""]","","","","","","","","yes","","","","","","","","","SRET","EW_formal","","key","f","16.651590909090803","799.9999682108573","445.8333156175091","自己","守信","Positive","morality","","","","","","","","","",""
"952","","f","psychophysics","65","470067","0.0-7.0-3.0-0.51","6","7","7","5","6","5","5","4","4","5","4","-2","-3","1","0","1","2","0","1","4","5","4","5","4","2","5","4","5","4","6","7","6","8","3","7","9","7","8","4","6","3","6","6","2","7","7","5","6","6","1","2","6","6","7","5","2","4","6","6","6","7","7","6","5","7","6","7","5","6","6","7","2","7","6","5","7","3","6","633790726911557632","王","60","Male","[""好他"",""好我"",""坏我"",""坏他""]","[""强他"",""强我"",""弱我"",""弱他""]","","","","","","","","yes","","","","","","","","","SRET","EW_formal","","key","f","16.650888888888723","799.9999682108573","445.8333156175091","朋友","高洁","Positive","morality","","","","","","","","","",""
"768","","f","psychophysics","66","471837","0.0-7.0-3.0-0.52","6","7","7","5","6","5","5","4","4","5","4","-2","-3","1","0","1","2","0","1","4","5","4","5","4","2","5","4","5","4","6","7","6","8","3","7","9","7","8","4","6","3","6","6","2","7","7","5","6","6","1","2","6","6","7","5","2","4","6","6","6","7","7","6","5","7","6","7","5","6","6","7","2","7","6","5","7","3","6","633790726911557632","王","60","Male","[""好他"",""好我"",""坏我"",""坏他""]","[""强他"",""强我"",""弱我"",""弱他""]","","","","","","","","yes","","","","","","","","","SRET","EW_formal","","key","f","16.652876190475876","799.9999682108573","445.8333156175091","朋友","忠勇","Positive","morality","","","","","","","","","",""
"699","","j","psychophysics","67","473541","0.0-7.0-3.0-0.53","6","7","7","5","6","5","5","4","4","5","4","-2","-3","1","0","1","2","0","1","4","5","4","5","4","2","5","4","5","4","6","7","6","8","3","7","9","7","8","4","6","3","6","6","2","7","7","5","6","6","1","2","6","6","7","5","2","4","6","6","6","7","7","6","5","7","6","7","5","6","6","7","2","7","6","5","7","3","6","633790726911557632","王","60","Male","[""好他"",""好我"",""坏我"",""坏他""]","[""强他"",""强我"",""弱我"",""弱他""]","","","","","","","","no","","","","","","","","","SRET","EW_formal","","key","j","16.650920792078796","799.9999682108573","445.8333156175091","自己","虚伪","Negative","morality","","","","","","","","","",""
"950","","j","psychophysics","68","475492","0.0-7.0-3.0-0.54","6","7","7","5","6","5","5","4","4","5","4","-2","-3","1","0","1","2","0","1","4","5","4","5","4","2","5","4","5","4","6","7","6","8","3","7","9","7","8","4","6","3","6","6","2","7","7","5","6","6","1","2","6","6","7","5","2","4","6","6","6","7","7","6","5","7","6","7","5","6","6","7","2","7","6","5","7","3","6","633790726911557632","王","60","Male","[""好他"",""好我"",""坏我"",""坏他""]","[""强他"",""强我"",""弱我"",""弱他""]","","","","","","","","no","","","","","","","","","SRET","EW_formal","","key","j","16.65187179487155","799.9999682108573","445.8333156175091","自己","利落","Positive","ability","","","","","","","","","",""
"1264","","j","psychophysics","69","477758","0.0-7.0-3.0-0.55","6","7","7","5","6","5","5","4","4","5","4","-2","-3","1","0","1","2","0","1","4","5","4","5","4","2","5","4","5","4","6","7","6","8","3","7","9","7","8","4","6","3","6","6","2","7","7","5","6","6","1","2","6","6","7","5","2","4","6","6","6","7","7","6","5","7","6","7","5","6","6","7","2","7","6","5","7","3","6","633790726911557632","王","60","Male","[""好他"",""好我"",""坏我"",""坏他""]","[""强他"",""强我"",""弱我"",""弱他""]","","","","","","","","no","","","","","","","","","SRET","EW_formal","","key","j","16.65134814814794","799.9999682108573","445.8333156175091","朋友","短浅","Negative","ability","","","","","","","","","",""
"697","","f","psychophysics","70","479458","0.0-7.0-3.0-0.56","6","7","7","5","6","5","5","4","4","5","4","-2","-3","1","0","1","2","0","1","4","5","4","5","4","2","5","4","5","4","6","7","6","8","3","7","9","7","8","4","6","3","6","6","2","7","7","5","6","6","1","2","6","6","7","5","2","4","6","6","6","7","7","6","5","7","6","7","5","6","6","7","2","7","6","5","7","3","6","633790726911557632","王","60","Male","[""好他"",""好我"",""坏我"",""坏他""]","[""强他"",""强我"",""弱我"",""弱他""]","","","","","","","","yes","","","","","","","","","SRET","EW_formal","","key","f","16.653306930693038","799.9999682108573","445.8333156175091","朋友","高明","Positive","ability","","","","","","","","","",""
"770","","f","psychophysics","71","481232","0.0-7.0-3.0-0.57","6","7","7","5","6","5","5","4","4","5","4","-2","-3","1","0","1","2","0","1","4","5","4","5","4","2","5","4","5","4","6","7","6","8","3","7","9","7","8","4","6","3","6","6","2","7","7","5","6","6","1","2","6","6","7","5","2","4","6","6","6","7","7","6","5","7","6","7","5","6","6","7","2","7","6","5","7","3","6","633790726911557632","王","60","Male","[""好他"",""好我"",""坏我"",""坏他""]","[""强他"",""强我"",""弱我"",""弱他""]","","","","","","","","yes","","","","","","","","","SRET","EW_formal","","key","f","16.654847619047256","799.9999682108573","445.8333156175091","朋友","有力","Positive","ability","","","","","","","","","",""
"1019","","j","psychophysics","72","483254","0.0-7.0-3.0-0.58","6","7","7","5","6","5","5","4","4","5","4","-2","-3","1","0","1","2","0","1","4","5","4","5","4","2","5","4","5","4","6","7","6","8","3","7","9","7","8","4","6","3","6","6","2","7","7","5","6","6","1","2","6","6","7","5","2","4","6","6","6","7","7","6","5","7","6","7","5","6","6","7","2","7","6","5","7","3","6","633790726911557632","王","60","Male","[""好他"",""好我"",""坏我"",""坏他""]","[""强他"",""强我"",""弱我"",""弱他""]","","","","","","","","no","","","","","","","","","SRET","EW_formal","","key","j","16.652909090908913","799.9999682108573","445.8333156175091","朋友","下流","Negative","morality","","","","","","","","","",""
"1068","","f","psychophysics","73","485325","0.0-7.0-3.0-0.59","6","7","7","5","6","5","5","4","4","5","4","-2","-3","1","0","1","2","0","1","4","5","4","5","4","2","5","4","5","4","6","7","6","8","3","7","9","7","8","4","6","3","6","6","2","7","7","5","6","6","1","2","6","6","7","5","2","4","6","6","6","7","7","6","5","7","6","7","5","6","6","7","2","7","6","5","7","3","6","633790726911557632","王","60","Male","[""好他"",""好我"",""坏我"",""坏他""]","[""强他"",""强我"",""弱我"",""弱他""]","","","","","","","","yes","","","","","","","","","SRET","EW_formal","","key","f","16.650707317073262","799.9999682108573","445.8333156175091","朋友","善心","Positive","morality","","","","","","","","","",""
"973","","f","psychophysics","74","487302","0.0-7.0-3.0-0.60","6","7","7","5","6","5","5","4","4","5","4","-2","-3","1","0","1","2","0","1","4","5","4","5","4","2","5","4","5","4","6","7","6","8","3","7","9","7","8","4","6","3","6","6","2","7","7","5","6","6","1","2","6","6","7","5","2","4","6","6","6","7","7","6","5","7","6","7","5","6","6","7","2","7","6","5","7","3","6","633790726911557632","王","60","Male","[""好他"",""好我"",""坏我"",""坏他""]","[""强他"",""强我"",""弱我"",""弱他""]","","","","","","","","yes","","","","","","","","","SRET","EW_formal","","key","f","16.651033898305457","799.9999682108573","445.8333156175091","自己","独立","Positive","ability","","","","","","","","","",""
"741","","j","psychophysics","75","489045","0.0-7.0-3.0-0.61","6","7","7","5","6","5","5","4","4","5","4","-2","-3","1","0","1","2","0","1","4","5","4","5","4","2","5","4","5","4","6","7","6","8","3","7","9","7","8","4","6","3","6","6","2","7","7","5","6","6","1","2","6","6","7","5","2","4","6","6","6","7","7","6","5","7","6","7","5","6","6","7","2","7","6","5","7","3","6","633790726911557632","王","60","Male","[""好他"",""好我"",""坏我"",""坏他""]","[""强他"",""强我"",""弱我"",""弱他""]","","","","","","","","no","","","","","","","","","SRET","EW_formal","","key","j","16.65108737864111","799.9999682108573","445.8333156175091","自己","新手","Negative","ability","","","","","","","","","",""
"701","","f","psychophysics","76","490749","0.0-7.0-3.0-0.62","6","7","7","5","6","5","5","4","4","5","4","-2","-3","1","0","1","2","0","1","4","5","4","5","4","2","5","4","5","4","6","7","6","8","3","7","9","7","8","4","6","3","6","6","2","7","7","5","6","6","1","2","6","6","7","5","2","4","6","6","6","7","7","6","5","7","6","7","5","6","6","7","2","7","6","5","7","3","6","633790726911557632","王","60","Male","[""好他"",""好我"",""坏我"",""坏他""]","[""强他"",""强我"",""弱我"",""弱他""]","","","","","","","","yes","","","","","","","","","SRET","EW_formal","","key","f","16.653029411764674","799.9999682108573","445.8333156175091","自己","全才","Positive","ability","","","","","","","","","",""
"651","","f","psychophysics","77","492409","0.0-7.0-3.0-0.63","6","7","7","5","6","5","5","4","4","5","4","-2","-3","1","0","1","2","0","1","4","5","4","5","4","2","5","4","5","4","6","7","6","8","3","7","9","7","8","4","6","3","6","6","2","7","7","5","6","6","1","2","6","6","7","5","2","4","6","6","6","7","7","6","5","7","6","7","5","6","6","7","2","7","6","5","7","3","6","633790726911557632","王","60","Male","[""好他"",""好我"",""坏我"",""坏他""]","[""强他"",""强我"",""弱我"",""弱他""]","","","","","","","","yes","","","","","","","","","SRET","EW_formal","","key","f","16.65110101010133","799.9999682108573","445.8333156175091","朋友","思辨","Positive","ability","","","","","","","","","",""
"663","","j","psychophysics","78","494074","0.0-7.0-3.0-0.64","6","7","7","5","6","5","5","4","4","5","4","-2","-3","1","0","1","2","0","1","4","5","4","5","4","2","5","4","5","4","6","7","6","8","3","7","9","7","8","4","6","3","6","6","2","7","7","5","6","6","1","2","6","6","7","5","2","4","6","6","6","7","7","6","5","7","6","7","5","6","6","7","2","7","6","5","7","3","6","633790726911557632","王","60","Male","[""好他"",""好我"",""坏我"",""坏他""]","[""强他"",""强我"",""弱我"",""弱他""]","","","","","","","","no","","","","","","","","","SRET","EW_formal","","key","j","16.654602040816457","799.9999682108573","445.8333156175091","自己","无助","Negative","ability","","","","","","","","","",""
"517","","f","psychophysics","79","495593","0.0-7.0-3.0-0.65","6","7","7","5","6","5","5","4","4","5","4","-2","-3","1","0","1","2","0","1","4","5","4","5","4","2","5","4","5","4","6","7","6","8","3","7","9","7","8","4","6","3","6","6","2","7","7","5","6","6","1","2","6","6","7","5","2","4","6","6","6","7","7","6","5","7","6","7","5","6","6","7","2","7","6","5","7","3","6","633790726911557632","王","60","Male","[""好他"",""好我"",""坏我"",""坏他""]","[""强他"",""强我"",""弱我"",""弱他""]","","","","","","","","yes","","","","","","","","","SRET","EW_formal","","key","f","16.65239560439579","799.9999682108573","445.8333156175091","自己","宽容","Positive","morality","","","","","","","","","",""
"1027","","f","psychophysics","80","497623","0.0-7.0-3.0-0.66","6","7","7","5","6","5","5","4","4","5","4","-2","-3","1","0","1","2","0","1","4","5","4","5","4","2","5","4","5","4","6","7","6","8","3","7","9","7","8","4","6","3","6","6","2","7","7","5","6","6","1","2","6","6","7","5","2","4","6","6","6","7","7","6","5","7","6","7","5","6","6","7","2","7","6","5","7","3","6","633790726911557632","王","60","Male","[""好他"",""好我"",""坏我"",""坏他""]","[""强他"",""强我"",""弱我"",""弱他""]","","","","","","","","yes","","","","","","","","","SRET","EW_formal","","key","f","16.652924999999716","799.9999682108573","445.8333156175091","朋友","智慧","Positive","ability","","","","","","","","","",""
"1187","","f","psychophysics","81","499813","0.0-7.0-3.0-0.67","6","7","7","5","6","5","5","4","4","5","4","-2","-3","1","0","1","2","0","1","4","5","4","5","4","2","5","4","5","4","6","7","6","8","3","7","9","7","8","4","6","3","6","6","2","7","7","5","6","6","1","2","6","6","7","5","2","4","6","6","6","7","7","6","5","7","6","7","5","6","6","7","2","7","6","5","7","3","6","633790726911557632","王","60","Male","[""好他"",""好我"",""坏我"",""坏他""]","[""强他"",""强我"",""弱我"",""弱他""]","","","","","","","","yes","","","","","","","","","SRET","EW_formal","","key","f","16.653000000000038","799.9999682108573","445.8333156175091","朋友","能干","Positive","ability","","","","","","","","","",""
"690","","j","psychophysics","82","501508","0.0-7.0-3.0-0.68","6","7","7","5","6","5","5","4","4","5","4","-2","-3","1","0","1","2","0","1","4","5","4","5","4","2","5","4","5","4","6","7","6","8","3","7","9","7","8","4","6","3","6","6","2","7","7","5","6","6","1","2","6","6","7","5","2","4","6","6","6","7","7","6","5","7","6","7","5","6","6","7","2","7","6","5","7","3","6","633790726911557632","王","60","Male","[""好他"",""好我"",""坏我"",""坏他""]","[""强他"",""强我"",""弱我"",""弱他""]","","","","","","","","no","","","","","","","","","SRET","EW_formal","","key","j","16.654326732673262","799.9999682108573","445.8333156175091","自己","庸碌","Negative","ability","","","","","","","","","",""
"1376","","f","psychophysics","83","503885","0.0-7.0-3.0-0.69","6","7","7","5","6","5","5","4","4","5","4","-2","-3","1","0","1","2","0","1","4","5","4","5","4","2","5","4","5","4","6","7","6","8","3","7","9","7","8","4","6","3","6","6","2","7","7","5","6","6","1","2","6","6","7","5","2","4","6","6","6","7","7","6","5","7","6","7","5","6","6","7","2","7","6","5","7","3","6","633790726911557632","王","60","Male","[""好他"",""好我"",""坏我"",""坏他""]","[""强他"",""强我"",""弱我"",""弱他""]","","","","","","","","yes","","","","","","","","","SRET","EW_formal","","key","f","16.652943661971786","799.9999682108573","445.8333156175091","朋友","拖拉","Negative","ability","","","","","","","","","",""
"994","","j","psychophysics","84","505882","0.0-7.0-3.0-0.70","6","7","7","5","6","5","5","4","4","5","4","-2","-3","1","0","1","2","0","1","4","5","4","5","4","2","5","4","5","4","6","7","6","8","3","7","9","7","8","4","6","3","6","6","2","7","7","5","6","6","1","2","6","6","7","5","2","4","6","6","6","7","7","6","5","7","6","7","5","6","6","7","2","7","6","5","7","3","6","633790726911557632","王","60","Male","[""好他"",""好我"",""坏我"",""坏他""]","[""强他"",""强我"",""弱我"",""弱他""]","","","","","","","","no","","","","","","","","","SRET","EW_formal","","key","j","16.650941176470585","799.9999682108573","445.8333156175091","朋友","扎实","Positive","ability","","","","","","","","","",""
"917","","f","psychophysics","85","507800","0.0-7.0-3.0-0.71","6","7","7","5","6","5","5","4","4","5","4","-2","-3","1","0","1","2","0","1","4","5","4","5","4","2","5","4","5","4","6","7","6","8","3","7","9","7","8","4","6","3","6","6","2","7","7","5","6","6","1","2","6","6","7","5","2","4","6","6","6","7","7","6","5","7","6","7","5","6","6","7","2","7","6","5","7","3","6","633790726911557632","王","60","Male","[""好他"",""好我"",""坏我"",""坏他""]","[""强他"",""强我"",""弱我"",""弱他""]","","","","","","","","yes","","","","","","","","","SRET","EW_formal","","key","f","16.654596491228165","799.9999682108573","445.8333156175091","自己","孝顺","Positive","morality","","","","","","","","","",""
"772","","f","psychophysics","86","509578","0.0-7.0-3.0-0.72","6","7","7","5","6","5","5","4","4","5","4","-2","-3","1","0","1","2","0","1","4","5","4","5","4","2","5","4","5","4","6","7","6","8","3","7","9","7","8","4","6","3","6","6","2","7","7","5","6","6","1","2","6","6","7","5","2","4","6","6","6","7","7","6","5","7","6","7","5","6","6","7","2","7","6","5","7","3","6","633790726911557632","王","60","Male","[""好他"",""好我"",""坏我"",""坏他""]","[""强他"",""强我"",""弱我"",""弱他""]","","","","","","","","yes","","","","","","","","","SRET","EW_formal","","key","f","16.651152380952233","799.9999682108573","445.8333156175091","朋友","业余","Negative","ability","","","","","","","","","",""
"777","","f","psychophysics","87","511358","0.0-7.0-3.0-0.73","6","7","7","5","6","5","5","4","4","5","4","-2","-3","1","0","1","2","0","1","4","5","4","5","4","2","5","4","5","4","6","7","6","8","3","7","9","7","8","4","6","3","6","6","2","7","7","5","6","6","1","2","6","6","7","5","2","4","6","6","6","7","7","6","5","7","6","7","5","6","6","7","2","7","6","5","7","3","6","633790726911557632","王","60","Male","[""好他"",""好我"",""坏我"",""坏他""]","[""强他"",""强我"",""弱我"",""弱他""]","","","","","","","","yes","","","","","","","","","SRET","EW_formal","","key","f","16.652943396226412","799.9999682108573","445.8333156175091","自己","细心","Positive","ability","","","","","","","","","",""
"750","","f","psychophysics","88","513111","0.0-7.0-3.0-0.74","6","7","7","5","6","5","5","4","4","5","4","-2","-3","1","0","1","2","0","1","4","5","4","5","4","2","5","4","5","4","6","7","6","8","3","7","9","7","8","4","6","3","6","6","2","7","7","5","6","6","1","2","6","6","7","5","2","4","6","6","6","7","7","6","5","7","6","7","5","6","6","7","2","7","6","5","7","3","6","633790726911557632","王","60","Male","[""好他"",""好我"",""坏我"",""坏他""]","[""强他"",""强我"",""弱我"",""弱他""]","","","","","","","","yes","","","","","","","","","SRET","EW_formal","","key","f","16.65285714285703","799.9999682108573","445.8333156175091","自己","拖延","Negative","ability","","","","","","","","","",""
"1048","","f","psychophysics","89","515160","0.0-7.0-3.0-0.75","6","7","7","5","6","5","5","4","4","5","4","-2","-3","1","0","1","2","0","1","4","5","4","5","4","2","5","4","5","4","6","7","6","8","3","7","9","7","8","4","6","3","6","6","2","7","7","5","6","6","1","2","6","6","7","5","2","4","6","6","6","7","7","6","5","7","6","7","5","6","6","7","2","7","6","5","7","3","6","633790726911557632","王","60","Male","[""好他"",""好我"",""坏我"",""坏他""]","[""强他"",""强我"",""弱我"",""弱他""]","","","","","","","","yes","","","","","","","","","SRET","EW_formal","","key","f","16.654295081966918","799.9999682108573","445.8333156175091","朋友","肯干","Positive","ability","","","","","","","","","",""
"661","","f","psychophysics","90","516823","0.0-7.0-3.0-0.76","6","7","7","5","6","5","5","4","4","5","4","-2","-3","1","0","1","2","0","1","4","5","4","5","4","2","5","4","5","4","6","7","6","8","3","7","9","7","8","4","6","3","6","6","2","7","7","5","6","6","1","2","6","6","7","5","2","4","6","6","6","7","7","6","5","7","6","7","5","6","6","7","2","7","6","5","7","3","6","633790726911557632","王","60","Male","[""好他"",""好我"",""坏我"",""坏他""]","[""强他"",""强我"",""弱我"",""弱他""]","","","","","","","","yes","","","","","","","","","SRET","EW_formal","","key","f","16.654595959595888","799.9999682108573","445.8333156175091","朋友","逞能","Negative","ability","","","","","","","","","",""
"669","","f","psychophysics","91","518493","0.0-7.0-3.0-0.77","6","7","7","5","6","5","5","4","4","5","4","-2","-3","1","0","1","2","0","1","4","5","4","5","4","2","5","4","5","4","6","7","6","8","3","7","9","7","8","4","6","3","6","6","2","7","7","5","6","6","1","2","6","6","7","5","2","4","6","6","6","7","7","6","5","7","6","7","5","6","6","7","2","7","6","5","7","3","6","633790726911557632","王","60","Male","[""好他"",""好我"",""坏我"",""坏他""]","[""强他"",""强我"",""弱我"",""弱他""]","","","","","","","","yes","","","","","","","","","SRET","EW_formal","","key","f","16.65506060606085","799.9999682108573","445.8333156175091","自己","高尚","Positive","morality","","","","","","","","","",""
"641","","j","psychophysics","92","520137","0.0-7.0-3.0-0.78","6","7","7","5","6","5","5","4","4","5","4","-2","-3","1","0","1","2","0","1","4","5","4","5","4","2","5","4","5","4","6","7","6","8","3","7","9","7","8","4","6","3","6","6","2","7","7","5","6","6","1","2","6","6","7","5","2","4","6","6","6","7","7","6","5","7","6","7","5","6","6","7","2","7","6","5","7","3","6","633790726911557632","王","60","Male","[""好他"",""好我"",""坏我"",""坏他""]","[""强他"",""强我"",""弱我"",""弱他""]","","","","","","","","no","","","","","","","","","SRET","EW_formal","","key","j","16.65479591836718","799.9999682108573","445.8333156175091","自己","淫乱","Negative","morality","","","","","","","","","",""
"687","","f","psychophysics","93","521824","0.0-7.0-3.0-0.79","6","7","7","5","6","5","5","4","4","5","4","-2","-3","1","0","1","2","0","1","4","5","4","5","4","2","5","4","5","4","6","7","6","8","3","7","9","7","8","4","6","3","6","6","2","7","7","5","6","6","1","2","6","6","7","5","2","4","6","6","6","7","7","6","5","7","6","7","5","6","6","7","2","7","6","5","7","3","6","633790726911557632","王","60","Male","[""好他"",""好我"",""坏我"",""坏他""]","[""强他"",""强我"",""弱我"",""弱他""]","","","","","","","","yes","","","","","","","","","SRET","EW_formal","","key","f","16.652849999999745","799.9999682108573","445.8333156175091","朋友","自私","Negative","morality","","","","","","","","","",""
"590","","f","psychophysics","94","523415","0.0-7.0-3.0-0.80","6","7","7","5","6","5","5","4","4","5","4","-2","-3","1","0","1","2","0","1","4","5","4","5","4","2","5","4","5","4","6","7","6","8","3","7","9","7","8","4","6","3","6","6","2","7","7","5","6","6","1","2","6","6","7","5","2","4","6","6","6","7","7","6","5","7","6","7","5","6","6","7","2","7","6","5","7","3","6","633790726911557632","王","60","Male","[""好他"",""好我"",""坏我"",""坏他""]","[""强他"",""强我"",""弱我"",""弱他""]","","","","","","","","yes","","","","","","","","","SRET","EW_formal","","key","f","16.652659574467837","799.9999682108573","445.8333156175091","自己","伪善","Negative","morality","","","","","","","","","",""
"852","","f","psychophysics","95","525269","0.0-7.0-3.0-0.81","6","7","7","5","6","5","5","4","4","5","4","-2","-3","1","0","1","2","0","1","4","5","4","5","4","2","5","4","5","4","6","7","6","8","3","7","9","7","8","4","6","3","6","6","2","7","7","5","6","6","1","2","6","6","7","5","2","4","6","6","6","7","7","6","5","7","6","7","5","6","6","7","2","7","6","5","7","3","6","633790726911557632","王","60","Male","[""好他"",""好我"",""坏我"",""坏他""]","[""强他"",""强我"",""弱我"",""弱他""]","","","","","","","","yes","","","","","","","","","SRET","EW_formal","","key","f","16.65155855855833","799.9999682108573","445.8333156175091","朋友","君子","Positive","morality","","","","","","","","","",""
"1275","","j","psychophysics","96","527546","0.0-7.0-3.0-0.82","6","7","7","5","6","5","5","4","4","5","4","-2","-3","1","0","1","2","0","1","4","5","4","5","4","2","5","4","5","4","6","7","6","8","3","7","9","7","8","4","6","3","6","6","2","7","7","5","6","6","1","2","6","6","7","5","2","4","6","6","6","7","7","6","5","7","6","7","5","6","6","7","2","7","6","5","7","3","6","633790726911557632","王","60","Male","[""好他"",""好我"",""坏我"",""坏他""]","[""强他"",""强我"",""弱我"",""弱他""]","","","","","","","","no","","","","","","","","","SRET","EW_formal","","key","j","16.653647058824017","799.9999682108573","445.8333156175091","自己","笨蛋","Negative","ability","","","","","","","","","",""
"1019","","j","psychophysics","97","529580","0.0-7.0-3.0-0.83","6","7","7","5","6","5","5","4","4","5","4","-2","-3","1","0","1","2","0","1","4","5","4","5","4","2","5","4","5","4","6","7","6","8","3","7","9","7","8","4","6","3","6","6","2","7","7","5","6","6","1","2","6","6","7","5","2","4","6","6","6","7","7","6","5","7","6","7","5","6","6","7","2","7","6","5","7","3","6","633790726911557632","王","60","Male","[""好他"",""好我"",""坏我"",""坏他""]","[""强他"",""强我"",""弱我"",""弱他""]","","","","","","","","no","","","","","","","","","SRET","EW_formal","","key","j","16.6514793388432","799.9999682108573","445.8333156175091","朋友","利己","Negative","morality","","","","","","","","","",""
"910","","j","psychophysics","98","531492","0.0-7.0-3.0-0.84","6","7","7","5","6","5","5","4","4","5","4","-2","-3","1","0","1","2","0","1","4","5","4","5","4","2","5","4","5","4","6","7","6","8","3","7","9","7","8","4","6","3","6","6","2","7","7","5","6","6","1","2","6","6","7","5","2","4","6","6","6","7","7","6","5","7","6","7","5","6","6","7","2","7","6","5","7","3","6","633790726911557632","王","60","Male","[""好他"",""好我"",""坏我"",""坏他""]","[""强他"",""强我"",""弱我"",""弱他""]","","","","","","","","no","","","","","","","","","SRET","EW_formal","","key","j","16.652840707964156","799.9999682108573","445.8333156175091","自己","缓慢","Negative","ability","","","","","","","","","",""
"637","","f","psychophysics","99","533131","0.0-7.0-3.0-0.85","6","7","7","5","6","5","5","4","4","5","4","-2","-3","1","0","1","2","0","1","4","5","4","5","4","2","5","4","5","4","6","7","6","8","3","7","9","7","8","4","6","3","6","6","2","7","7","5","6","6","1","2","6","6","7","5","2","4","6","6","6","7","7","6","5","7","6","7","5","6","6","7","2","7","6","5","7","3","6","633790726911557632","王","60","Male","[""好他"",""好我"",""坏我"",""坏他""]","[""强他"",""强我"",""弱我"",""弱他""]","","","","","","","","yes","","","","","","","","","SRET","EW_formal","","key","f","16.65420408163229","799.9999682108573","445.8333156175091","朋友","素养","Positive","morality","","","","","","","","","",""
"701","","f","psychophysics","100","534836","0.0-7.0-3.0-0.86","6","7","7","5","6","5","5","4","4","5","4","-2","-3","1","0","1","2","0","1","4","5","4","5","4","2","5","4","5","4","6","7","6","8","3","7","9","7","8","4","6","3","6","6","2","7","7","5","6","6","1","2","6","6","7","5","2","4","6","6","6","7","7","6","5","7","6","7","5","6","6","7","2","7","6","5","7","3","6","633790726911557632","王","60","Male","[""好他"",""好我"",""坏我"",""坏他""]","[""强他"",""强我"",""弱我"",""弱他""]","","","","","","","","yes","","","","","","","","","SRET","EW_formal","","key","f","16.660990099009993","799.9999682108573","445.8333156175091","自己","主见","Positive","ability","","","","","","","","","",""
"942","","j","psychophysics","101","536781","0.0-7.0-3.0-0.87","6","7","7","5","6","5","5","4","4","5","4","-2","-3","1","0","1","2","0","1","4","5","4","5","4","2","5","4","5","4","6","7","6","8","3","7","9","7","8","4","6","3","6","6","2","7","7","5","6","6","1","2","6","6","7","5","2","4","6","6","6","7","7","6","5","7","6","7","5","6","6","7","2","7","6","5","7","3","6","633790726911557632","王","60","Male","[""好他"",""好我"",""坏我"",""坏他""]","[""强他"",""强我"",""弱我"",""弱他""]","","","","","","","","no","","","","","","","","","SRET","EW_formal","","key","j","16.652905172413487","799.9999682108573","445.8333156175091","朋友","低俗","Negative","morality","","","","","","","","","",""
"8775","
    <p><div style='color:white;font-size:35px; line-height:20px;'>计算任务</div></p><br>
    <p><div style='color:red;font-size:25px; line-height:20px;'>接下来，您将看到一些四则运算题，<b>请从键盘选择 0-9 进行反应。</b></div></p>
    <p><div class='footer' style='color:white;font-size:25px; line-height:20px;'>如果对本实验还有不清楚之处，请立即向实验员咨询。</p><p style='color:white;font-size:25px; line-height:20px;'>如果您明白了规则：</p><p style='color:white;font-size:22px; line-height:20px;'>请按 继续 进入练习</p>
    </div>
    ","0","html-button-response","102","545562","0.0-7.0-4.0","6","7","7","5","6","5","5","4","4","5","4","-2","-3","1","0","1","2","0","1","4","5","4","5","4","2","5","4","5","4","6","7","6","8","3","7","9","7","8","4","6","3","6","6","2","7","7","5","6","6","1","2","6","6","7","5","2","4","6","6","6","7","7","6","5","7","6","7","5","6","6","7","2","7","6","5","7","3","6","633790726911557632","王","60","Male","[""好他"",""好我"",""坏我"",""坏他""]","[""强他"",""强我"",""弱我"",""弱他""]","","","","","","","","","","","","","","","","","SRET_math","math_instructions","Fri Nov 03 2023 14:16:32 GMT+0800 (中国标准时间)","","","","","","","","","","","","","","","","","","",""
"3715","","5","psychophysics","103","549283","0.0-7.0-5.0-0.0","6","7","7","5","6","5","5","4","4","5","4","-2","-3","1","0","1","2","0","1","4","5","4","5","4","2","5","4","5","4","6","7","6","8","3","7","9","7","8","4","6","3","6","6","2","7","7","5","6","6","1","2","6","6","7","5","2","4","6","6","6","7","7","6","5","7","6","7","5","6","6","7","2","7","6","5","7","3","6","633790726911557632","王","60","Male","[""好他"",""好我"",""坏我"",""坏他""]","[""强他"",""强我"",""弱我"",""弱他""]","","","","","","","","5","","","","","","","","","SRET","SRET_math_calculate","","key","5","16.653130044843248","799.9999682108573","445.8333156175091","","","","","8-3= ? ","5","1","","","","","","",""
"2611","","6","psychophysics","104","551897","0.0-7.0-5.0-0.1","6","7","7","5","6","5","5","4","4","5","4","-2","-3","1","0","1","2","0","1","4","5","4","5","4","2","5","4","5","4","6","7","6","8","3","7","9","7","8","4","6","3","6","6","2","7","7","5","6","6","1","2","6","6","7","5","2","4","6","6","6","7","7","6","5","7","6","7","5","6","6","7","2","7","6","5","7","3","6","633790726911557632","王","60","Male","[""好他"",""好我"",""坏我"",""坏他""]","[""强他"",""强我"",""弱我"",""弱他""]","","","","","","","","6","","","","","","","","","SRET","SRET_math_calculate","","key","6","16.654224358974414","799.9999682108573","445.8333156175091","","","","","2+4= ?","6","1","","","","","","",""
"2153","","5","psychophysics","105","554052","0.0-7.0-5.0-0.2","6","7","7","5","6","5","5","4","4","5","4","-2","-3","1","0","1","2","0","1","4","5","4","5","4","2","5","4","5","4","6","7","6","8","3","7","9","7","8","4","6","3","6","6","2","7","7","5","6","6","1","2","6","6","7","5","2","4","6","6","6","7","7","6","5","7","6","7","5","6","6","7","2","7","6","5","7","3","6","633790726911557632","王","60","Male","[""好他"",""好我"",""坏我"",""坏他""]","[""强他"",""强我"",""弱我"",""弱他""]","","","","","","","","5","","","","","","","","","SRET","SRET_math_calculate","","key","5","16.653273437499593","799.9999682108573","445.8333156175091","","","","","2+3= ?","5","1","","","","","","",""
"2032","","7","psychophysics","106","556090","0.0-7.0-5.0-0.3","6","7","7","5","6","5","5","4","4","5","4","-2","-3","1","0","1","2","0","1","4","5","4","5","4","2","5","4","5","4","6","7","6","8","3","7","9","7","8","4","6","3","6","6","2","7","7","5","6","6","1","2","6","6","7","5","2","4","6","6","6","7","7","6","5","7","6","7","5","6","6","7","2","7","6","5","7","3","6","633790726911557632","王","60","Male","[""好他"",""好我"",""坏我"",""坏他""]","[""强他"",""强我"",""弱我"",""弱他""]","","","","","","","","7","","","","","","","","","SRET","SRET_math_calculate","","key","7","16.65319672131197","799.9999682108573","445.8333156175091","","","","","4+3= ?","7","1","","","","","","",""
"2468","","9","psychophysics","107","558560","0.0-7.0-5.0-0.4","6","7","7","5","6","5","5","4","4","5","4","-2","-3","1","0","1","2","0","1","4","5","4","5","4","2","5","4","5","4","6","7","6","8","3","7","9","7","8","4","6","3","6","6","2","7","7","5","6","6","1","2","6","6","7","5","2","4","6","6","6","7","7","6","5","7","6","7","5","6","6","7","2","7","6","5","7","3","6","633790726911557632","王","60","Male","[""好他"",""好我"",""坏我"",""坏他""]","[""强他"",""强我"",""弱我"",""弱他""]","","","","","","","","9","","","","","","","","","SRET","SRET_math_calculate","","key","9","16.653156462584807","799.9999682108573","445.8333156175091","","","","","3*3= ?","9","1","","","","","","",""
"2310","","8","psychophysics","108","560872","0.0-7.0-5.0-0.5","6","7","7","5","6","5","5","4","4","5","4","-2","-3","1","0","1","2","0","1","4","5","4","5","4","2","5","4","5","4","6","7","6","8","3","7","9","7","8","4","6","3","6","6","2","7","7","5","6","6","1","2","6","6","7","5","2","4","6","6","6","7","7","6","5","7","6","7","5","6","6","7","2","7","6","5","7","3","6","633790726911557632","王","60","Male","[""好他"",""好我"",""坏我"",""坏他""]","[""强他"",""强我"",""弱我"",""弱他""]","","","","","","","","8","","","","","","","","","SRET","SRET_math_calculate","","key","8","16.653499999999717","799.9999682108573","445.8333156175091","","","","","2+6= ?","8","1","","","","","","",""
"4640","","5","psychophysics","109","565515","0.0-7.0-5.0-0.6","6","7","7","5","6","5","5","4","4","5","4","-2","-3","1","0","1","2","0","1","4","5","4","5","4","2","5","4","5","4","6","7","6","8","3","7","9","7","8","4","6","3","6","6","2","7","7","5","6","6","1","2","6","6","7","5","2","4","6","6","6","7","7","6","5","7","6","7","5","6","6","7","2","7","6","5","7","3","6","633790726911557632","王","60","Male","[""好他"",""好我"",""坏我"",""坏他""]","[""强他"",""强我"",""弱我"",""弱他""]","","","","","","","","5","","","","","","","","","SRET","SRET_math_calculate","","key","5","16.653226618705276","799.9999682108573","445.8333156175091","","","","","16-11= ?","5","1","","","","","","",""
"2232","","9","psychophysics","110","567749","0.0-7.0-5.0-0.7","6","7","7","5","6","5","5","4","4","5","4","-2","-3","1","0","1","2","0","1","4","5","4","5","4","2","5","4","5","4","6","7","6","8","3","7","9","7","8","4","6","3","6","6","2","7","7","5","6","6","1","2","6","6","7","5","2","4","6","6","6","7","7","6","5","7","6","7","5","6","6","7","2","7","6","5","7","3","6","633790726911557632","王","60","Male","[""好他"",""好我"",""坏我"",""坏他""]","[""强他"",""强我"",""弱我"",""弱他""]","","","","","","","","9","","","","","","","","","SRET","SRET_math_calculate","","key","9","16.65296992481182","799.9999682108573","445.8333156175091","","","","","8+1= ?","9","1","","","","","","",""
"3045","","7","psychophysics","111","570796","0.0-7.0-5.0-0.8","6","7","7","5","6","5","5","4","4","5","4","-2","-3","1","0","1","2","0","1","4","5","4","5","4","2","5","4","5","4","6","7","6","8","3","7","9","7","8","4","6","3","6","6","2","7","7","5","6","6","1","2","6","6","7","5","2","4","6","6","6","7","7","6","5","7","6","7","5","6","6","7","2","7","6","5","7","3","6","633790726911557632","王","60","Male","[""好他"",""好我"",""坏我"",""坏他""]","[""强他"",""强我"",""弱我"",""弱他""]","","","","","","","","7","","","","","","","","","SRET","SRET_math_calculate","","key","7","16.653659340659424","799.9999682108573","445.8333156175091","","","","","11-5= ?","6","0","","","","","","",""
"3645","","9","psychophysics","112","574443","0.0-7.0-5.0-0.9","6","7","7","5","6","5","5","4","4","5","4","-2","-3","1","0","1","2","0","1","4","5","4","5","4","2","5","4","5","4","6","7","6","8","3","7","9","7","8","4","6","3","6","6","2","7","7","5","6","6","1","2","6","6","7","5","2","4","6","6","6","7","7","6","5","7","6","7","5","6","6","7","2","7","6","5","7","3","6","633790726911557632","王","60","Male","[""好他"",""好我"",""坏我"",""坏他""]","[""强他"",""强我"",""弱我"",""弱他""]","","","","","","","","9","","","","","","","","","SRET","SRET_math_calculate","","key","9","16.653440366972262","799.9999682108573","445.8333156175091","","","","","32-23= ?","9","1","","","","","","",""
"2665","","3","psychophysics","113","577111","0.0-7.0-5.0-0.10","6","7","7","5","6","5","5","4","4","5","4","-2","-3","1","0","1","2","0","1","4","5","4","5","4","2","5","4","5","4","6","7","6","8","3","7","9","7","8","4","6","3","6","6","2","7","7","5","6","6","1","2","6","6","7","5","2","4","6","6","6","7","7","6","5","7","6","7","5","6","6","7","2","7","6","5","7","3","6","633790726911557632","王","60","Male","[""好他"",""好我"",""坏我"",""坏他""]","[""强他"",""强我"",""弱我"",""弱他""]","","","","","","","","3","","","","","","","","","SRET","SRET_math_calculate","","key","3","16.652981132075613","799.9999682108573","445.8333156175091","","","","","11-8= ?","3","1","","","","","","",""
"2584","","3","psychophysics","114","579696","0.0-7.0-5.0-0.11","6","7","7","5","6","5","5","4","4","5","4","-2","-3","1","0","1","2","0","1","4","5","4","5","4","2","5","4","5","4","6","7","6","8","3","7","9","7","8","4","6","3","6","6","2","7","7","5","6","6","1","2","6","6","7","5","2","4","6","6","6","7","7","6","5","7","6","7","5","6","6","7","2","7","6","5","7","3","6","633790726911557632","王","60","Male","[""好他"",""好我"",""坏我"",""坏他""]","[""强他"",""强我"",""弱我"",""弱他""]","","","","","","","","3","","","","","","","","","SRET","SRET_math_calculate","","key","3","16.652753246753846","799.9999682108573","445.8333156175091","","","","","9-3= ?","6","0","","","","","","",""
"105","","6","psychophysics","115","579809","0.0-7.0-5.0-0.12","6","7","7","5","6","5","5","4","4","5","4","-2","-3","1","0","1","2","0","1","4","5","4","5","4","2","5","4","5","4","6","7","6","8","3","7","9","7","8","4","6","3","6","6","2","7","7","5","6","6","1","2","6","6","7","5","2","4","6","6","6","7","7","6","5","7","6","7","5","6","6","7","2","7","6","5","7","3","6","633790726911557632","王","60","Male","[""好他"",""好我"",""坏我"",""坏他""]","[""强他"",""强我"",""弱我"",""弱他""]","","","","","","","","6","","","","","","","","","SRET","SRET_math_calculate","","key","6","16.674500000003416","799.9999682108573","445.8333156175091","","","","","5+4= ?","9","0","","","","","","",""
"3834","","3","psychophysics","116","583647","0.0-7.0-5.0-0.13","6","7","7","5","6","5","5","4","4","5","4","-2","-3","1","0","1","2","0","1","4","5","4","5","4","2","5","4","5","4","6","7","6","8","3","7","9","7","8","4","6","3","6","6","2","7","7","5","6","6","1","2","6","6","7","5","2","4","6","6","6","7","7","6","5","7","6","7","5","6","6","7","2","7","6","5","7","3","6","633790726911557632","王","60","Male","[""好他"",""好我"",""坏我"",""坏他""]","[""强他"",""强我"",""弱我"",""弱他""]","","","","","","","","3","","","","","","","","","SRET","SRET_math_calculate","","key","3","16.65387336244577","799.9999682108573","445.8333156175091","","","","","8-5= ?","3","1","","","","","","",""
"2497","","7","psychophysics","117","586151","0.0-7.0-5.0-0.14","6","7","7","5","6","5","5","4","4","5","4","-2","-3","1","0","1","2","0","1","4","5","4","5","4","2","5","4","5","4","6","7","6","8","3","7","9","7","8","4","6","3","6","6","2","7","7","5","6","6","1","2","6","6","7","5","2","4","6","6","6","7","7","6","5","7","6","7","5","6","6","7","2","7","6","5","7","3","6","633790726911557632","王","60","Male","[""好他"",""好我"",""坏我"",""坏他""]","[""强他"",""强我"",""弱我"",""弱他""]","","","","","","","","7","","","","","","","","","SRET","SRET_math_calculate","","key","7","16.65213333333299","799.9999682108573","445.8333156175091","","","","","2+5= ?","7","1","","","","","","",""
"2494","","7","psychophysics","118","588648","0.0-7.0-5.0-0.15","6","7","7","5","6","5","5","4","4","5","4","-2","-3","1","0","1","2","0","1","4","5","4","5","4","2","5","4","5","4","6","7","6","8","3","7","9","7","8","4","6","3","6","6","2","7","7","5","6","6","1","2","6","6","7","5","2","4","6","6","6","7","7","6","5","7","6","7","5","6","6","7","2","7","6","5","7","3","6","633790726911557632","王","60","Male","[""好他"",""好我"",""坏我"",""坏他""]","[""强他"",""强我"",""弱我"",""弱他""]","","","","","","","","7","","","","","","","","","SRET","SRET_math_calculate","","key","7","16.65195302013386","799.9999682108573","445.8333156175091","","","","","7*1=  ?","7","1","","","","","","",""
"2137","","8","psychophysics","119","590786","0.0-7.0-5.0-0.16","6","7","7","5","6","5","5","4","4","5","4","-2","-3","1","0","1","2","0","1","4","5","4","5","4","2","5","4","5","4","6","7","6","8","3","7","9","7","8","4","6","3","6","6","2","7","7","5","6","6","1","2","6","6","7","5","2","4","6","6","6","7","7","6","5","7","6","7","5","6","6","7","2","7","6","5","7","3","6","633790726911557632","王","60","Male","[""好他"",""好我"",""坏我"",""坏他""]","[""强他"",""强我"",""弱我"",""弱他""]","","","","","","","","8","","","","","","","","","SRET","SRET_math_calculate","","key","8","16.652944881889756","799.9999682108573","445.8333156175091","","","","","1+7= ?","8","1","","","","","","",""
"2831","","3","psychophysics","120","593619","0.0-7.0-5.0-0.17","6","7","7","5","6","5","5","4","4","5","4","-2","-3","1","0","1","2","0","1","4","5","4","5","4","2","5","4","5","4","6","7","6","8","3","7","9","7","8","4","6","3","6","6","2","7","7","5","6","6","1","2","6","6","7","5","2","4","6","6","6","7","7","6","5","7","6","7","5","6","6","7","2","7","6","5","7","3","6","633790726911557632","王","60","Male","[""好他"",""好我"",""坏我"",""坏他""]","[""强他"",""强我"",""弱我"",""弱他""]","","","","","","","","3","","","","","","","","","SRET","SRET_math_calculate","","key","3","16.65394082840273","799.9999682108573","445.8333156175091","","","","","9-6= ?","3","1","","","","","","",""
"2141","","6","psychophysics","121","595767","0.0-7.0-5.0-0.18","6","7","7","5","6","5","5","4","4","5","4","-2","-3","1","0","1","2","0","1","4","5","4","5","4","2","5","4","5","4","6","7","6","8","3","7","9","7","8","4","6","3","6","6","2","7","7","5","6","6","1","2","6","6","7","5","2","4","6","6","6","7","7","6","5","7","6","7","5","6","6","7","2","7","6","5","7","3","6","633790726911557632","王","60","Male","[""好他"",""好我"",""坏我"",""坏他""]","[""强他"",""强我"",""弱我"",""弱他""]","","","","","","","","6","","","","","","","","","SRET","SRET_math_calculate","","key","6","16.652914062500713","799.9999682108573","445.8333156175091","","","","","3+3= ?","6","1","","","","","","",""
"2370","","4","psychophysics","122","598149","0.0-7.0-5.0-0.19","6","7","7","5","6","5","5","4","4","5","4","-2","-3","1","0","1","2","0","1","4","5","4","5","4","2","5","4","5","4","6","7","6","8","3","7","9","7","8","4","6","3","6","6","2","7","7","5","6","6","1","2","6","6","7","5","2","4","6","6","6","7","7","6","5","7","6","7","5","6","6","7","2","7","6","5","7","3","6","633790726911557632","王","60","Male","[""好他"",""好我"",""坏我"",""坏他""]","[""强他"",""强我"",""弱我"",""弱他""]","","","","","","","","4","","","","","","","","","SRET","SRET_math_calculate","","key","4","16.652253521126728","799.9999682108573","445.8333156175091","","","","","8-4= ?","4","1","","","","","","",""
"2103","","9","psychophysics","123","600259","0.0-7.0-5.0-0.20","6","7","7","5","6","5","5","4","4","5","4","-2","-3","1","0","1","2","0","1","4","5","4","5","4","2","5","4","5","4","6","7","6","8","3","7","9","7","8","4","6","3","6","6","2","7","7","5","6","6","1","2","6","6","7","5","2","4","6","6","6","7","7","6","5","7","6","7","5","6","6","7","2","7","6","5","7","3","6","633790726911557632","王","60","Male","[""好他"",""好我"",""坏我"",""坏他""]","[""强他"",""强我"",""弱我"",""弱他""]","","","","","","","","9","","","","","","","","","SRET","SRET_math_calculate","","key","9","16.65185714285684","799.9999682108573","445.8333156175091","","","","","1+8= ?","9","1","","","","","","",""
"2248","","8","psychophysics","124","602509","0.0-7.0-5.0-0.21","6","7","7","5","6","5","5","4","4","5","4","-2","-3","1","0","1","2","0","1","4","5","4","5","4","2","5","4","5","4","6","7","6","8","3","7","9","7","8","4","6","3","6","6","2","7","7","5","6","6","1","2","6","6","7","5","2","4","6","6","6","7","7","6","5","7","6","7","5","6","6","7","2","7","6","5","7","3","6","633790726911557632","王","60","Male","[""好他"",""好我"",""坏我"",""坏他""]","[""强他"",""强我"",""弱我"",""弱他""]","","","","","","","","8","","","","","","","","","SRET","SRET_math_calculate","","key","8","16.6528656716422","799.9999682108573","445.8333156175091","","","","","5+3= ?","8","1","","","","","","",""
"2278","","5","psychophysics","125","604789","0.0-7.0-5.0-0.22","6","7","7","5","6","5","5","4","4","5","4","-2","-3","1","0","1","2","0","1","4","5","4","5","4","2","5","4","5","4","6","7","6","8","3","7","9","7","8","4","6","3","6","6","2","7","7","5","6","6","1","2","6","6","7","5","2","4","6","6","6","7","7","6","5","7","6","7","5","6","6","7","2","7","6","5","7","3","6","633790726911557632","王","60","Male","[""好他"",""好我"",""坏我"",""坏他""]","[""强他"",""强我"",""弱我"",""弱他""]","","","","","","","","5","","","","","","","","","SRET","SRET_math_calculate","","key","5","16.653845588235793","799.9999682108573","445.8333156175091","","","","","9-4= ?","5","1","","","","","","",""
"3095","","1","psychophysics","126","607887","0.0-7.0-5.0-0.23","6","7","7","5","6","5","5","4","4","5","4","-2","-3","1","0","1","2","0","1","4","5","4","5","4","2","5","4","5","4","6","7","6","8","3","7","9","7","8","4","6","3","6","6","2","7","7","5","6","6","1","2","6","6","7","5","2","4","6","6","6","7","7","6","5","7","6","7","5","6","6","7","2","7","6","5","7","3","6","633790726911557632","王","60","Male","[""好他"",""好我"",""坏我"",""坏他""]","[""强他"",""强我"",""弱我"",""弱他""]","","","","","","","","1","","","","","","","","","SRET","SRET_math_calculate","","key","1","16.653097297297162","799.9999682108573","445.8333156175091","","","","","30-29= ?","1","1","","","","","","",""
"2925","","3","psychophysics","127","610814","0.0-7.0-5.0-0.24","6","7","7","5","6","5","5","4","4","5","4","-2","-3","1","0","1","2","0","1","4","5","4","5","4","2","5","4","5","4","6","7","6","8","3","7","9","7","8","4","6","3","6","6","2","7","7","5","6","6","1","2","6","6","7","5","2","4","6","6","6","7","7","6","5","7","6","7","5","6","6","7","2","7","6","5","7","3","6","633790726911557632","王","60","Male","[""好他"",""好我"",""坏我"",""坏他""]","[""强他"",""强我"",""弱我"",""弱他""]","","","","","","","","3","","","","","","","","","SRET","SRET_math_calculate","","key","3","16.65313142857115","799.9999682108573","445.8333156175091","","","","","2+1= ?","3","1","","","","","","",""
"2693","","6","psychophysics","128","613510","0.0-7.0-5.0-0.25","6","7","7","5","6","5","5","4","4","5","4","-2","-3","1","0","1","2","0","1","4","5","4","5","4","2","5","4","5","4","6","7","6","8","3","7","9","7","8","4","6","3","6","6","2","7","7","5","6","6","1","2","6","6","7","5","2","4","6","6","6","7","7","6","5","7","6","7","5","6","6","7","2","7","6","5","7","3","6","633790726911557632","王","60","Male","[""好他"",""好我"",""坏我"",""坏他""]","[""强他"",""强我"",""弱我"",""弱他""]","","","","","","","","6","","","","","","","","","SRET","SRET_math_calculate","","key","6","16.65314906832302","799.9999682108573","445.8333156175091","","","","","5+1= ?","6","1","","","","","","",""
"2147","","7","psychophysics","129","615660","0.0-7.0-5.0-0.26","6","7","7","5","6","5","5","4","4","5","4","-2","-3","1","0","1","2","0","1","4","5","4","5","4","2","5","4","5","4","6","7","6","8","3","7","9","7","8","4","6","3","6","6","2","7","7","5","6","6","1","2","6","6","7","5","2","4","6","6","6","7","7","6","5","7","6","7","5","6","6","7","2","7","6","5","7","3","6","633790726911557632","王","60","Male","[""好他"",""好我"",""坏我"",""坏他""]","[""强他"",""强我"",""弱我"",""弱他""]","","","","","","","","7","","","","","","","","","SRET","SRET_math_calculate","","key","7","16.652078125000116","799.9999682108573","445.8333156175091","","","","","1+6= ?","7","1","","","","","","",""
"2889","","4","psychophysics","130","618551","0.0-7.0-5.0-0.27","6","7","7","5","6","5","5","4","4","5","4","-2","-3","1","0","1","2","0","1","4","5","4","5","4","2","5","4","5","4","6","7","6","8","3","7","9","7","8","4","6","3","6","6","2","7","7","5","6","6","1","2","6","6","7","5","2","4","6","6","6","7","7","6","5","7","6","7","5","6","6","7","2","7","6","5","7","3","6","633790726911557632","王","60","Male","[""好他"",""好我"",""坏我"",""坏他""]","[""强他"",""强我"",""弱我"",""弱他""]","","","","","","","","4","","","","","","","","","SRET","SRET_math_calculate","","key","4","16.653779069767847","799.9999682108573","445.8333156175091","","","","","20/5= ?","4","1","","","","","","",""
"2407","","9","psychophysics","131","620966","0.0-7.0-5.0-0.28","6","7","7","5","6","5","5","4","4","5","4","-2","-3","1","0","1","2","0","1","4","5","4","5","4","2","5","4","5","4","6","7","6","8","3","7","9","7","8","4","6","3","6","6","2","7","7","5","6","6","1","2","6","6","7","5","2","4","6","6","6","7","7","6","5","7","6","7","5","6","6","7","2","7","6","5","7","3","6","633790726911557632","王","60","Male","[""好他"",""好我"",""坏我"",""坏他""]","[""强他"",""强我"",""弱我"",""弱他""]","","","","","","","","9","","","","","","","","","SRET","SRET_math_calculate","","key","9","16.652486111111003","799.9999682108573","445.8333156175091","","","","","3+6= ?","9","1","","","","","","",""
"2034","","7","psychophysics","132","623007","0.0-7.0-5.0-0.29","6","7","7","5","6","5","5","4","4","5","4","-2","-3","1","0","1","2","0","1","4","5","4","5","4","2","5","4","5","4","6","7","6","8","3","7","9","7","8","4","6","3","6","6","2","7","7","5","6","6","1","2","6","6","7","5","2","4","6","6","6","7","7","6","5","7","6","7","5","6","6","7","2","7","6","5","7","3","6","633790726911557632","王","60","Male","[""好他"",""好我"",""坏我"",""坏他""]","[""强他"",""强我"",""弱我"",""弱他""]","","","","","","","","7","","","","","","","","","SRET","SRET_math_calculate","","key","7","16.651286885245383","799.9999682108573","445.8333156175091","","","","","3+4= ?","7","1","","","","","","",""
"2884","","2","psychophysics","133","625894","0.0-7.0-5.0-0.30","6","7","7","5","6","5","5","4","4","5","4","-2","-3","1","0","1","2","0","1","4","5","4","5","4","2","5","4","5","4","6","7","6","8","3","7","9","7","8","4","6","3","6","6","2","7","7","5","6","6","1","2","6","6","7","5","2","4","6","6","6","7","7","6","5","7","6","7","5","6","6","7","2","7","6","5","7","3","6","633790726911557632","王","60","Male","[""好他"",""好我"",""坏我"",""坏他""]","[""强他"",""强我"",""弱我"",""弱他""]","","","","","","","","2","","","","","","","","","SRET","SRET_math_calculate","","key","2","16.6521860465115","799.9999682108573","445.8333156175091","","","","","8/4= ?","2","1","","","","","","",""
"2276","","1","psychophysics","134","628177","0.0-7.0-5.0-0.31","6","7","7","5","6","5","5","4","4","5","4","-2","-3","1","0","1","2","0","1","4","5","4","5","4","2","5","4","5","4","6","7","6","8","3","7","9","7","8","4","6","3","6","6","2","7","7","5","6","6","1","2","6","6","7","5","2","4","6","6","6","7","7","6","5","7","6","7","5","6","6","7","2","7","6","5","7","3","6","633790726911557632","王","60","Male","[""好他"",""好我"",""坏我"",""坏他""]","[""强他"",""强我"",""弱我"",""弱他""]","","","","","","","","1","","","","","","","","","SRET","SRET_math_calculate","","key","1","16.65191176470612","799.9999682108573","445.8333156175091","","","","","9-8= ?","1","1","","","","","","",""
"2030","","5","psychophysics","135","630214","0.0-7.0-5.0-0.32","6","7","7","5","6","5","5","4","4","5","4","-2","-3","1","0","1","2","0","1","4","5","4","5","4","2","5","4","5","4","6","7","6","8","3","7","9","7","8","4","6","3","6","6","2","7","7","5","6","6","1","2","6","6","7","5","2","4","6","6","6","7","7","6","5","7","6","7","5","6","6","7","2","7","6","5","7","3","6","633790726911557632","王","60","Male","[""好他"",""好我"",""坏我"",""坏他""]","[""强他"",""强我"",""弱我"",""弱他""]","","","","","","","","5","","","","","","","","","SRET","SRET_math_calculate","","key","5","16.65397540983633","799.9999682108573","445.8333156175091","","","","","3+2= ?","5","1","","","","","","",""
"2101","","3","psychophysics","136","632317","0.0-7.0-5.0-0.33","6","7","7","5","6","5","5","4","4","5","4","-2","-3","1","0","1","2","0","1","4","5","4","5","4","2","5","4","5","4","6","7","6","8","3","7","9","7","8","4","6","3","6","6","2","7","7","5","6","6","1","2","6","6","7","5","2","4","6","6","6","7","7","6","5","7","6","7","5","6","6","7","2","7","6","5","7","3","6","633790726911557632","王","60","Male","[""好他"",""好我"",""坏我"",""坏他""]","[""强他"",""强我"",""弱我"",""弱他""]","","","","","","","","3","","","","","","","","","SRET","SRET_math_calculate","","key","3","16.923715447154223","799.9999682108573","445.8333156175091","","","","","6+1= ?","7","0","","","","","","",""
"268","","7","psychophysics","137","632587","0.0-7.0-5.0-0.34","6","7","7","5","6","5","5","4","4","5","4","-2","-3","1","0","1","2","0","1","4","5","4","5","4","2","5","4","5","4","6","7","6","8","3","7","9","7","8","4","6","3","6","6","2","7","7","5","6","6","1","2","6","6","7","5","2","4","6","6","6","7","7","6","5","7","6","7","5","6","6","7","2","7","6","5","7","3","6","633790726911557632","王","60","Male","[""好他"",""好我"",""坏我"",""坏他""]","[""强他"",""强我"",""弱我"",""弱他""]","","","","","","","","7","","","","","","","","","SRET","SRET_math_calculate","","key","7","16.65293333333296","799.9999682108573","445.8333156175091","","","","","9-9= ?","0","0","","","","","","",""
"2023","","8","psychophysics","138","634617","0.0-7.0-5.0-0.35","6","7","7","5","6","5","5","4","4","5","4","-2","-3","1","0","1","2","0","1","4","5","4","5","4","2","5","4","5","4","6","7","6","8","3","7","9","7","8","4","6","3","6","6","2","7","7","5","6","6","1","2","6","6","7","5","2","4","6","6","6","7","7","6","5","7","6","7","5","6","6","7","2","7","6","5","7","3","6","633790726911557632","王","60","Male","[""好他"",""好我"",""坏我"",""坏他""]","[""强他"",""强我"",""弱我"",""弱他""]","","","","","","","","8","","","","","","","","","SRET","SRET_math_calculate","","key","8","16.653214876032973","799.9999682108573","445.8333156175091","","","","","9-1= ?","8","1","","","","","","",""
