"rt","stimulus","response","trial_type","trial_index","time_elapsed","internal_node_id","swb_1","swb_2","swb_3","swb_4","swb_5","LOT_1","LOT_2","LOT_3","LOT_4","LOT_5","LOT_6","IPC_1","IPC_2","IPC_3","IPC_4","IPC_5","IPC_6","IPC_7","IPC_8","MorIden_1","MorIden_2","MorIden_3","MorIden_4","MorIden_5","MorIden_6","MorIden_7","MorIden_8","MorIden_9","MorIden_10","moralSeImag_1","moralSeImag_2","moralSeImag_3","moralSeImag_4","moralSeImag_5","moralSeImag_6","moralSeImag_7","moralSeImag_8","moralSeImag_9","sde_1","sde_2","sde_3","sde_4","sde_5","sde_6","sde_7","sde_8","sde_9","sde_10","sde_11","sde_12","sde_13","sde_14","sde_15","sde_16","sde_17","sde_18","sde_19","sde_20","IM_1","IM_2","IM_3","IM_4","IM_5","IM_6","IM_7","IM_8","IM_9","IM_10","IM_11","IM_12","IM_13","IM_14","IM_15","IM_16","IM_17","IM_18","IM_19","IM_20","subj_idx","friend_name","ParticipantID","Sex","Word","Word2","value","success","timeout","failed_images","failed_audio","failed_video","user_agent","responses","item_order","radio_event_ids","radio_event_times","key_event_times","mouse_event_times","straightlining","zigzagging","honeypot","view_history","response_type","key_press","avg_frame_time","center_x","center_y","correct_response","correct","identity","Image","word","condition","task_id","screen_id","time_stamp","person","valence","domain","math","status","duration","question_order"
"4972","
   <p><div style='color:white; font-size: 25px'>您好，欢迎参加本次实验。</div></p>
   <p><div style='color:white; font-size: 25px'>为充分保障您的权利，请确保您已经知晓并同意《参与实验同意书》以及《数据公开知情同意书》。</div></p>
   <p><div style='color:white; font-size: 25px'>如果您未见过上述内容，请咨询实验员。</div></p>
   <p style='color:white; font-size: 25px'>如果您选择继续实验，则表示您已经清楚两份知情同意书的内容并同意。</p>
   <p><div style = ""color: red;font-size:30px;"">请确保您记得day0的实验编号，您将在本次实验输入该编号，若您忘记，请咨询实验员后作答。</div></p>
   <p> <div style = ""color: green""><按空格键至下页></div> </p>
   "," ","html-keyboard-response","0","4979","0.0-0.0","3","3","4","2","4","4","3","3","4","4","5","-2","0","0","1","-2","0","0","1","5","5","5","4","5","4","4","5","4","4","6","7","6","8","6","7","7","7","8","4","3","5","5","2","3","4","3","4","2","5","2","5","3","4","6","4","3","4","3","3","5","2","6","3","7","5","5","7","6","6","6","5","5","5","7","7","2","4","6","749636547061747713","叶","396","Male","[""好他"",""好我"",""坏我"",""坏他""]","[""强他"",""强我"",""弱我"",""弱他""]","","","","","","","","","","","","","","","","","","","","","","","","","","","","","","","","","","","","","",""
"","","","call-function","1","4984","0.0-1.0-0.0","3","3","4","2","4","4","3","3","4","4","5","-2","0","0","1","-2","0","0","1","5","5","5","4","5","4","4","5","4","4","6","7","6","8","6","7","7","7","8","4","3","5","5","2","3","4","3","4","2","5","2","5","3","4","6","4","3","4","3","3","5","2","6","3","7","5","5","7","6","6","6","5","5","5","7","7","2","4","6","749636547061747713","叶","396","Male","[""好他"",""好我"",""坏我"",""坏他""]","[""强他"",""强我"",""弱我"",""弱他""]","","","","","","","","","","","","","","","","","","","","","","","","","","","","","","","","","","","","","",""
"35262","","[{""name"":""Sex"",""value"":""0""},{""name"":""friend_name"",""value"":""叶""},{""name"":""ParticipantID"",""value"":""396""}]","survey-html-form","2","40250","0.0-1.0-1.0","3","3","4","2","4","4","3","3","4","4","5","-2","0","0","1","-2","0","0","1","5","5","5","4","5","4","4","5","4","4","6","7","6","8","6","7","7","7","8","4","3","5","5","2","3","4","3","4","2","5","2","5","3","4","6","4","3","4","3","3","5","2","6","3","7","5","5","7","6","6","6","5","5","5","7","7","2","4","6","749636547061747713","叶","396","Male","[""好他"",""好我"",""坏我"",""坏他""]","[""强他"",""强我"",""弱我"",""弱他""]","","","","","","","","","","","","","","","","","","","","","","","","","","","","","","","","","","","","","",""
"","","","preload","3","41037","0.0-2.0","3","3","4","2","4","4","3","3","4","4","5","-2","0","0","1","-2","0","0","1","5","5","5","4","5","4","4","5","4","4","6","7","6","8","6","7","7","7","8","4","3","5","5","2","3","4","3","4","2","5","2","5","3","4","6","4","3","4","3","3","5","2","6","3","7","5","5","7","6","6","6","5","5","5","7","7","2","4","6","749636547061747713","叶","396","Male","[""好他"",""好我"",""坏我"",""坏他""]","[""强他"",""强我"",""弱我"",""弱他""]","","true","false","[]","[]","[]","","","","","","","","","","","","","","","","","","","","","","","","","","","","","","","",""
"","","","fullscreen","4","43603","0.0-3.0","3","3","4","2","4","4","3","3","4","4","5","-2","0","0","1","-2","0","0","1","5","5","5","4","5","4","4","5","4","4","6","7","6","8","6","7","7","7","8","4","3","5","5","2","3","4","3","4","2","5","2","5","3","4","6","4","3","4","3","3","5","2","6","3","7","5","5","7","6","6","6","5","5","5","7","7","2","4","6","749636547061747713","叶","396","Male","[""好他"",""好我"",""坏我"",""坏他""]","[""强他"",""强我"",""弱我"",""弱他""]","","true","","","","","{}","","","","","","","","","","","","","","","","","","","","","","","","","","","","","","",""
"29320.39999999851","","{""Q01"":""3"",""Q02"":""3"",""Q03"":""4"",""Q04"":""2"",""Q05"":""4""}","survey-template","5","72943","0.0-4.0","3","3","4","2","4","4","3","3","4","4","5","-2","0","0","1","-2","0","0","1","5","5","5","4","5","4","4","5","4","4","6","7","6","8","6","7","7","7","8","4","3","5","5","2","3","4","3","4","2","5","2","5","3","4","6","4","3","4","3","3","5","2","6","3","7","5","5","7","6","6","6","5","5","5","7","7","2","4","6","749636547061747713","叶","396","Male","[""好他"",""好我"",""坏我"",""坏他""]","[""强他"",""强我"",""弱我"",""弱他""]","","","","","","","","{""Q01"":""3"",""Q02"":""3"",""Q03"":""4"",""Q04"":""2"",""Q05"":""4""}","[0,1,2,3,4]","[""Q01"",""Q02"",""Q03"",""Q04"",""Q05""]","[21013.800000000745,21477.39999999851,23237.39999999851,26197,27924.89999999851]","[]","[21013.800000000745,21477.39999999851,23237.39999999851,26197,27924.89999999851,29317]","0.4","0.25","0","","","","","","","","","","","","","","","","","","","","","",""
"31165.900000002235","","{""Q01"":""4"",""Q02"":""3"",""Q03"":""3"",""Q04"":""4"",""Q05"":""4"",""Q06"":""5""}","survey-template","6","104125","0.0-5.0","3","3","4","2","4","4","3","3","4","4","5","-2","0","0","1","-2","0","0","1","5","5","5","4","5","4","4","5","4","4","6","7","6","8","6","7","7","7","8","4","3","5","5","2","3","4","3","4","2","5","2","5","3","4","6","4","3","4","3","3","5","2","6","3","7","5","5","7","6","6","6","5","5","5","7","7","2","4","6","749636547061747713","叶","396","Male","[""好他"",""好我"",""坏我"",""坏他""]","[""强他"",""强我"",""弱我"",""弱他""]","","","","","","","","{""Q01"":""4"",""Q02"":""3"",""Q03"":""3"",""Q04"":""4"",""Q05"":""4"",""Q06"":""5""}","[0,1,2,3,4,5]","[""Q01"",""Q02"",""Q03"",""Q04"",""Q05"",""Q06""]","[5435.70000000298,10003.60000000149,11947.70000000298,24619.5,27691.300000000745,29978.70000000298]","[]","[5435.70000000298,10003.60000000149,11947.70000000298,24003.60000000149,24619.5,27691.300000000745,29978.70000000298,31163.5]","0.3333333333333333","0.4","0","","","","","","","","","","","","","","","","","","","","","",""
"31482.900000002235","","{""Q01"":""-2"",""Q02"":""0"",""Q03"":""0"",""Q04"":""1"",""Q05"":""-2"",""Q06"":""0"",""Q07"":""0"",""Q08"":""1""}","survey-template","7","135622","0.0-6.0","3","3","4","2","4","4","3","3","4","4","5","-2","0","0","1","-2","0","0","1","5","5","5","4","5","4","4","5","4","4","6","7","6","8","6","7","7","7","8","4","3","5","5","2","3","4","3","4","2","5","2","5","3","4","6","4","3","4","3","3","5","2","6","3","7","5","5","7","6","6","6","5","5","5","7","7","2","4","6","749636547061747713","叶","396","Male","[""好他"",""好我"",""坏我"",""坏他""]","[""强他"",""强我"",""弱我"",""弱他""]","","","","","","","","{""Q01"":""-2"",""Q02"":""0"",""Q03"":""0"",""Q04"":""1"",""Q05"":""-2"",""Q06"":""0"",""Q07"":""0"",""Q08"":""1""}","[0,1,2,3,4,5,6,7]","[""Q01"",""Q02"",""Q03"",""Q04"",""Q05"",""Q06"",""Q07"",""Q08""]","[5479.60000000149,10232,12471.5,15375.5,17103.400000002235,19247.400000002235,23095.199999999255,30279.300000000745]","[]","[3719.400000002235,4231.5,4543.5,5127.400000002235,5479.60000000149,10232,12471.5,15375.5,17103.400000002235,19247.400000002235,23095.199999999255,29471,30279.300000000745,31479.300000000745]","0.5","0.2857142857142857","0","","","","","","","","","","","","","","","","","","","","","",""
"31769","","","instructions","8","167401","0.0-7.0","3","3","4","2","4","4","3","3","4","4","5","-2","0","0","1","-2","0","0","1","5","5","5","4","5","4","4","5","4","4","6","7","6","8","6","7","7","7","8","4","3","5","5","2","3","4","3","4","2","5","2","5","3","4","6","4","3","4","3","3","5","2","6","3","7","5","5","7","6","6","6","5","5","5","7","7","2","4","6","749636547061747713","叶","396","Male","[""好他"",""好我"",""坏我"",""坏他""]","[""强他"",""强我"",""弱我"",""弱他""]","","","","","","","","","","","","","","","","","[{""page_index"":0,""viewing_time"":31768}]","","","","","","","","","","","","","","","","","","","","",""
"175735","","","instructions","9","343145","0.0-8.0-1.0-0.0","3","3","4","2","4","4","3","3","4","4","5","-2","0","0","1","-2","0","0","1","5","5","5","4","5","4","4","5","4","4","6","7","6","8","6","7","7","7","8","4","3","5","5","2","3","4","3","4","2","5","2","5","3","4","6","4","3","4","3","3","5","2","6","3","7","5","5","7","6","6","6","5","5","5","7","7","2","4","6","749636547061747713","叶","396","Male","[""好他"",""好我"",""坏我"",""坏他""]","[""强他"",""强我"",""弱我"",""弱他""]","","","","","","","","","","","","","","","","","[{""page_index"":0,""viewing_time"":26537},{""page_index"":1,""viewing_time"":144798},{""page_index"":2,""viewing_time"":3176},{""page_index"":3,""viewing_time"":1224}]","","","","","","","","","","","","","","","","","","","","",""
"null","","null","psychophysics","10","345370","0.0-8.0-1.0-1.0-0.0-0.0","3","3","4","2","4","4","3","3","4","4","5","-2","0","0","1","-2","0","0","1","5","5","5","4","5","4","4","5","4","4","6","7","6","8","6","7","7","7","8","4","3","5","5","2","3","4","3","4","2","5","2","5","3","4","6","4","3","4","3","3","5","2","6","3","7","5","5","7","6","6","6","5","5","5","7","7","2","4","6","749636547061747713","叶","396","Male","[""好他"",""好我"",""坏我"",""坏他""]","[""强他"",""强我"",""弱我"",""弱他""]","","","","","","","","null","","","","","","","","","","key","null","17.056359375000284","683","380","j","false","nonmatch","img/ellipse.png","强他","弱我","prac_ALT2_ability","practice_ability","","","","","","","",""
"null","<span class='add_' style='color:yellow; font-size: 70px;'> 太慢! </span>","null","html-keyboard-response","11","345879","0.0-8.0-1.0-1.0-0.0-1.0","3","3","4","2","4","4","3","3","4","4","5","-2","0","0","1","-2","0","0","1","5","5","5","4","5","4","4","5","4","4","6","7","6","8","6","7","7","7","8","4","3","5","5","2","3","4","3","4","2","5","2","5","3","4","6","4","3","4","3","3","5","2","6","3","7","5","5","7","6","6","6","5","5","5","7","7","2","4","6","749636547061747713","叶","396","Male","[""好他"",""好我"",""坏我"",""坏他""]","[""强他"",""强我"",""弱我"",""弱他""]","","","","","","","","","","","","","","","","","","","","","","","","","","","","","","feedback_test","","","","","","","",""
"919","","j","psychophysics","12","347809","0.0-8.0-1.0-1.0-0.0-0.1","3","3","4","2","4","4","3","3","4","4","5","-2","0","0","1","-2","0","0","1","5","5","5","4","5","4","4","5","4","4","6","7","6","8","6","7","7","7","8","4","3","5","5","2","3","4","3","4","2","5","2","5","3","4","6","4","3","4","3","3","5","2","6","3","7","5","5","7","6","6","6","5","5","5","7","7","2","4","6","749636547061747713","叶","396","Male","[""好他"",""好我"",""坏我"",""坏他""]","[""强他"",""强我"",""弱我"",""弱他""]","","","","","","","","nonmatch","","","","","","","","","","key","j","16.816752212389424","683","380","j","true","nonmatch","img/square.png","强他","强我","prac_ALT2_ability","practice_ability","","","","","","","",""
"null","<span style='color:GreenYellow; font-size: 70px;'>正确! </span>","null","html-keyboard-response","13","348311","0.0-8.0-1.0-1.0-0.0-1.1","3","3","4","2","4","4","3","3","4","4","5","-2","0","0","1","-2","0","0","1","5","5","5","4","5","4","4","5","4","4","6","7","6","8","6","7","7","7","8","4","3","5","5","2","3","4","3","4","2","5","2","5","3","4","6","4","3","4","3","3","5","2","6","3","7","5","5","7","6","6","6","5","5","5","7","7","2","4","6","749636547061747713","叶","396","Male","[""好他"",""好我"",""坏我"",""坏他""]","[""强他"",""强我"",""弱我"",""弱他""]","","","","","","","","","","","","","","","","","","","","","","","","","","","","","","feedback_test","","","","","","","",""
"832","","f","psychophysics","14","350155","0.0-8.0-1.0-1.0-0.0-0.2","3","3","4","2","4","4","3","3","4","4","5","-2","0","0","1","-2","0","0","1","5","5","5","4","5","4","4","5","4","4","6","7","6","8","6","7","7","7","8","4","3","5","5","2","3","4","3","4","2","5","2","5","3","4","6","4","3","4","3","3","5","2","6","3","7","5","5","7","6","6","6","5","5","5","7","7","2","4","6","749636547061747713","叶","396","Male","[""好他"",""好我"",""坏我"",""坏他""]","[""强他"",""强我"",""弱我"",""弱他""]","","","","","","","","match","","","","","","","","","","key","f","16.66153211009191","683","380","f","true","match","img/ellipse.png","弱我","弱我","prac_ALT2_ability","practice_ability","","","","","","","",""
"null","<span style='color:GreenYellow; font-size: 70px;'>正确! </span>","null","html-keyboard-response","15","350663","0.0-8.0-1.0-1.0-0.0-1.2","3","3","4","2","4","4","3","3","4","4","5","-2","0","0","1","-2","0","0","1","5","5","5","4","5","4","4","5","4","4","6","7","6","8","6","7","7","7","8","4","3","5","5","2","3","4","3","4","2","5","2","5","3","4","6","4","3","4","3","3","5","2","6","3","7","5","5","7","6","6","6","5","5","5","7","7","2","4","6","749636547061747713","叶","396","Male","[""好他"",""好我"",""坏我"",""坏他""]","[""强他"",""强我"",""弱我"",""弱他""]","","","","","","","","","","","","","","","","","","","","","","","","","","","","","","feedback_test","","","","","","","",""
"1103","","f","psychophysics","16","352776","0.0-8.0-1.0-1.0-0.0-0.3","3","3","4","2","4","4","3","3","4","4","5","-2","0","0","1","-2","0","0","1","5","5","5","4","5","4","4","5","4","4","6","7","6","8","6","7","7","7","8","4","3","5","5","2","3","4","3","4","2","5","2","5","3","4","6","4","3","4","3","3","5","2","6","3","7","5","5","7","6","6","6","5","5","5","7","7","2","4","6","749636547061747713","叶","396","Male","[""好他"",""好我"",""坏我"",""坏他""]","[""强他"",""强我"",""弱我"",""弱他""]","","","","","","","","match","","","","","","","","","","key","f","16.79819999999972","683","380","f","true","match","img/square.png","强我","强我","prac_ALT2_ability","practice_ability","","","","","","","",""
"null","<span style='color:GreenYellow; font-size: 70px;'>正确! </span>","null","html-keyboard-response","17","353279","0.0-8.0-1.0-1.0-0.0-1.3","3","3","4","2","4","4","3","3","4","4","5","-2","0","0","1","-2","0","0","1","5","5","5","4","5","4","4","5","4","4","6","7","6","8","6","7","7","7","8","4","3","5","5","2","3","4","3","4","2","5","2","5","3","4","6","4","3","4","3","3","5","2","6","3","7","5","5","7","6","6","6","5","5","5","7","7","2","4","6","749636547061747713","叶","396","Male","[""好他"",""好我"",""坏我"",""坏他""]","[""强他"",""强我"",""弱我"",""弱他""]","","","","","","","","","","","","","","","","","","","","","","","","","","","","","","feedback_test","","","","","","","",""
"927","","j","psychophysics","18","355216","0.0-8.0-1.0-1.0-0.0-0.4","3","3","4","2","4","4","3","3","4","4","5","-2","0","0","1","-2","0","0","1","5","5","5","4","5","4","4","5","4","4","6","7","6","8","6","7","7","7","8","4","3","5","5","2","3","4","3","4","2","5","2","5","3","4","6","4","3","4","3","3","5","2","6","3","7","5","5","7","6","6","6","5","5","5","7","7","2","4","6","749636547061747713","叶","396","Male","[""好他"",""好我"",""坏我"",""坏他""]","[""强他"",""强我"",""弱我"",""弱他""]","","","","","","","","nonmatch","","","","","","","","","","key","j","16.662365217391482","683","380","f","false","match","img/hexagon.png","强他","强他","prac_ALT2_ability","practice_ability","","","","","","","",""
"null","<span style='color:red; font-size: 70px;'>错误! </span>","null","html-keyboard-response","19","355727","0.0-8.0-1.0-1.0-0.0-1.4","3","3","4","2","4","4","3","3","4","4","5","-2","0","0","1","-2","0","0","1","5","5","5","4","5","4","4","5","4","4","6","7","6","8","6","7","7","7","8","4","3","5","5","2","3","4","3","4","2","5","2","5","3","4","6","4","3","4","3","3","5","2","6","3","7","5","5","7","6","6","6","5","5","5","7","7","2","4","6","749636547061747713","叶","396","Male","[""好他"",""好我"",""坏我"",""坏他""]","[""强他"",""强我"",""弱我"",""弱他""]","","","","","","","","","","","","","","","","","","","","","","","","","","","","","","feedback_test","","","","","","","",""
"null","","null","psychophysics","20","357975","0.0-8.0-1.0-1.0-0.0-0.5","3","3","4","2","4","4","3","3","4","4","5","-2","0","0","1","-2","0","0","1","5","5","5","4","5","4","4","5","4","4","6","7","6","8","6","7","7","7","8","4","3","5","5","2","3","4","3","4","2","5","2","5","3","4","6","4","3","4","3","3","5","2","6","3","7","5","5","7","6","6","6","5","5","5","7","7","2","4","6","749636547061747713","叶","396","Male","[""好他"",""好我"",""坏我"",""坏他""]","[""强他"",""强我"",""弱我"",""弱他""]","","","","","","","","null","","","","","","","","","","key","null","16.661992424242214","683","380","f","false","match","img/trapezoid.png","弱他","弱他","prac_ALT2_ability","practice_ability","","","","","","","",""
"null","<span class='add_' style='color:yellow; font-size: 70px;'> 太慢! </span>","null","html-keyboard-response","21","358480","0.0-8.0-1.0-1.0-0.0-1.5","3","3","4","2","4","4","3","3","4","4","5","-2","0","0","1","-2","0","0","1","5","5","5","4","5","4","4","5","4","4","6","7","6","8","6","7","7","7","8","4","3","5","5","2","3","4","3","4","2","5","2","5","3","4","6","4","3","4","3","3","5","2","6","3","7","5","5","7","6","6","6","5","5","5","7","7","2","4","6","749636547061747713","叶","396","Male","[""好他"",""好我"",""坏我"",""坏他""]","[""强他"",""强我"",""弱我"",""弱他""]","","","","","","","","","","","","","","","","","","","","","","","","","","","","","","feedback_test","","","","","","","",""
"null","","null","psychophysics","22","360688","0.0-8.0-1.0-1.0-0.0-0.6","3","3","4","2","4","4","3","3","4","4","5","-2","0","0","1","-2","0","0","1","5","5","5","4","5","4","4","5","4","4","6","7","6","8","6","7","7","7","8","4","3","5","5","2","3","4","3","4","2","5","2","5","3","4","6","4","3","4","3","3","5","2","6","3","7","5","5","7","6","6","6","5","5","5","7","7","2","4","6","749636547061747713","叶","396","Male","[""好他"",""好我"",""坏我"",""坏他""]","[""强他"",""强我"",""弱我"",""弱他""]","","","","","","","","null","","","","","","","","","","key","null","16.659636363636253","683","380","j","false","nonmatch","img/trapezoid.png","强我","弱他","prac_ALT2_ability","practice_ability","","","","","","","",""
"null","<span class='add_' style='color:yellow; font-size: 70px;'> 太慢! </span>","null","html-keyboard-response","23","361192","0.0-8.0-1.0-1.0-0.0-1.6","3","3","4","2","4","4","3","3","4","4","5","-2","0","0","1","-2","0","0","1","5","5","5","4","5","4","4","5","4","4","6","7","6","8","6","7","7","7","8","4","3","5","5","2","3","4","3","4","2","5","2","5","3","4","6","4","3","4","3","3","5","2","6","3","7","5","5","7","6","6","6","5","5","5","7","7","2","4","6","749636547061747713","叶","396","Male","[""好他"",""好我"",""坏我"",""坏他""]","[""强他"",""强我"",""弱我"",""弱他""]","","","","","","","","","","","","","","","","","","","","","","","","","","","","","","feedback_test","","","","","","","",""
"1105","","j","psychophysics","24","363305","0.0-8.0-1.0-1.0-0.0-0.7","3","3","4","2","4","4","3","3","4","4","5","-2","0","0","1","-2","0","0","1","5","5","5","4","5","4","4","5","4","4","6","7","6","8","6","7","7","7","8","4","3","5","5","2","3","4","3","4","2","5","2","5","3","4","6","4","3","4","3","3","5","2","6","3","7","5","5","7","6","6","6","5","5","5","7","7","2","4","6","749636547061747713","叶","396","Male","[""好他"",""好我"",""坏我"",""坏他""]","[""强他"",""强我"",""弱我"",""弱他""]","","","","","","","","nonmatch","","","","","","","","","","key","j","16.66808799999999","683","380","f","false","match","img/hexagon.png","强他","强他","prac_ALT2_ability","practice_ability","","","","","","","",""
"null","<span style='color:red; font-size: 70px;'>错误! </span>","null","html-keyboard-response","25","363808","0.0-8.0-1.0-1.0-0.0-1.7","3","3","4","2","4","4","3","3","4","4","5","-2","0","0","1","-2","0","0","1","5","5","5","4","5","4","4","5","4","4","6","7","6","8","6","7","7","7","8","4","3","5","5","2","3","4","3","4","2","5","2","5","3","4","6","4","3","4","3","3","5","2","6","3","7","5","5","7","6","6","6","5","5","5","7","7","2","4","6","749636547061747713","叶","396","Male","[""好他"",""好我"",""坏我"",""坏他""]","[""强他"",""强我"",""弱我"",""弱他""]","","","","","","","","","","","","","","","","","","","","","","","","","","","","","","feedback_test","","","","","","","",""
"1016","","j","psychophysics","26","365832","0.0-8.0-1.0-1.0-0.0-0.8","3","3","4","2","4","4","3","3","4","4","5","-2","0","0","1","-2","0","0","1","5","5","5","4","5","4","4","5","4","4","6","7","6","8","6","7","7","7","8","4","3","5","5","2","3","4","3","4","2","5","2","5","3","4","6","4","3","4","3","3","5","2","6","3","7","5","5","7","6","6","6","5","5","5","7","7","2","4","6","749636547061747713","叶","396","Male","[""好他"",""好我"",""坏我"",""坏他""]","[""强他"",""强我"",""弱我"",""弱他""]","","","","","","","","nonmatch","","","","","","","","","","key","j","16.66215966386572","683","380","j","true","nonmatch","img/square.png","弱我","强我","prac_ALT2_ability","practice_ability","","","","","","","",""
"null","<span style='color:GreenYellow; font-size: 70px;'>正确! </span>","null","html-keyboard-response","27","366336","0.0-8.0-1.0-1.0-0.0-1.8","3","3","4","2","4","4","3","3","4","4","5","-2","0","0","1","-2","0","0","1","5","5","5","4","5","4","4","5","4","4","6","7","6","8","6","7","7","7","8","4","3","5","5","2","3","4","3","4","2","5","2","5","3","4","6","4","3","4","3","3","5","2","6","3","7","5","5","7","6","6","6","5","5","5","7","7","2","4","6","749636547061747713","叶","396","Male","[""好他"",""好我"",""坏我"",""坏他""]","[""强他"",""强我"",""弱我"",""弱他""]","","","","","","","","","","","","","","","","","","","","","","","","","","","","","","feedback_test","","","","","","","",""
"null","","null","psychophysics","28","368543","0.0-8.0-1.0-1.0-0.0-0.9","3","3","4","2","4","4","3","3","4","4","5","-2","0","0","1","-2","0","0","1","5","5","5","4","5","4","4","5","4","4","6","7","6","8","6","7","7","7","8","4","3","5","5","2","3","4","3","4","2","5","2","5","3","4","6","4","3","4","3","3","5","2","6","3","7","5","5","7","6","6","6","5","5","5","7","7","2","4","6","749636547061747713","叶","396","Male","[""好他"",""好我"",""坏我"",""坏他""]","[""强他"",""强我"",""弱我"",""弱他""]","","","","","","","","null","","","","","","","","","","key","null","16.665106870229124","683","380","j","false","nonmatch","img/trapezoid.png","弱我","弱他","prac_ALT2_ability","practice_ability","","","","","","","",""
"null","<span class='add_' style='color:yellow; font-size: 70px;'> 太慢! </span>","null","html-keyboard-response","29","369047","0.0-8.0-1.0-1.0-0.0-1.9","3","3","4","2","4","4","3","3","4","4","5","-2","0","0","1","-2","0","0","1","5","5","5","4","5","4","4","5","4","4","6","7","6","8","6","7","7","7","8","4","3","5","5","2","3","4","3","4","2","5","2","5","3","4","6","4","3","4","3","3","5","2","6","3","7","5","5","7","6","6","6","5","5","5","7","7","2","4","6","749636547061747713","叶","396","Male","[""好他"",""好我"",""坏我"",""坏他""]","[""强他"",""强我"",""弱我"",""弱他""]","","","","","","","","","","","","","","","","","","","","","","","","","","","","","","feedback_test","","","","","","","",""
"884","","j","psychophysics","30","370939","0.0-8.0-1.0-1.0-0.0-0.10","3","3","4","2","4","4","3","3","4","4","5","-2","0","0","1","-2","0","0","1","5","5","5","4","5","4","4","5","4","4","6","7","6","8","6","7","7","7","8","4","3","5","5","2","3","4","3","4","2","5","2","5","3","4","6","4","3","4","3","3","5","2","6","3","7","5","5","7","6","6","6","5","5","5","7","7","2","4","6","749636547061747713","叶","396","Male","[""好他"",""好我"",""坏我"",""坏他""]","[""强他"",""强我"",""弱我"",""弱他""]","","","","","","","","nonmatch","","","","","","","","","","key","j","16.65949549549574","683","380","f","false","match","img/trapezoid.png","弱他","弱他","prac_ALT2_ability","practice_ability","","","","","","","",""
"null","<span style='color:red; font-size: 70px;'>错误! </span>","null","html-keyboard-response","31","371447","0.0-8.0-1.0-1.0-0.0-1.10","3","3","4","2","4","4","3","3","4","4","5","-2","0","0","1","-2","0","0","1","5","5","5","4","5","4","4","5","4","4","6","7","6","8","6","7","7","7","8","4","3","5","5","2","3","4","3","4","2","5","2","5","3","4","6","4","3","4","3","3","5","2","6","3","7","5","5","7","6","6","6","5","5","5","7","7","2","4","6","749636547061747713","叶","396","Male","[""好他"",""好我"",""坏我"",""坏他""]","[""强他"",""强我"",""弱我"",""弱他""]","","","","","","","","","","","","","","","","","","","","","","","","","","","","","","feedback_test","","","","","","","",""
"1022","","f","psychophysics","32","373473","0.0-8.0-1.0-1.0-0.0-0.11","3","3","4","2","4","4","3","3","4","4","5","-2","0","0","1","-2","0","0","1","5","5","5","4","5","4","4","5","4","4","6","7","6","8","6","7","7","7","8","4","3","5","5","2","3","4","3","4","2","5","2","5","3","4","6","4","3","4","3","3","5","2","6","3","7","5","5","7","6","6","6","5","5","5","7","7","2","4","6","749636547061747713","叶","396","Male","[""好他"",""好我"",""坏我"",""坏他""]","[""强他"",""强我"",""弱我"",""弱他""]","","","","","","","","match","","","","","","","","","","key","f","16.66738016528899","683","380","f","true","match","img/square.png","强我","强我","prac_ALT2_ability","practice_ability","","","","","","","",""
"null","<span style='color:GreenYellow; font-size: 70px;'>正确! </span>","null","html-keyboard-response","33","373975","0.0-8.0-1.0-1.0-0.0-1.11","3","3","4","2","4","4","3","3","4","4","5","-2","0","0","1","-2","0","0","1","5","5","5","4","5","4","4","5","4","4","6","7","6","8","6","7","7","7","8","4","3","5","5","2","3","4","3","4","2","5","2","5","3","4","6","4","3","4","3","3","5","2","6","3","7","5","5","7","6","6","6","5","5","5","7","7","2","4","6","749636547061747713","叶","396","Male","[""好他"",""好我"",""坏我"",""坏他""]","[""强他"",""强我"",""弱我"",""弱他""]","","","","","","","","","","","","","","","","","","","","","","","","","","","","","","feedback_test","","","","","","","",""
"856","","f","psychophysics","34","375840","0.0-8.0-1.0-1.0-0.0-0.12","3","3","4","2","4","4","3","3","4","4","5","-2","0","0","1","-2","0","0","1","5","5","5","4","5","4","4","5","4","4","6","7","6","8","6","7","7","7","8","4","3","5","5","2","3","4","3","4","2","5","2","5","3","4","6","4","3","4","3","3","5","2","6","3","7","5","5","7","6","6","6","5","5","5","7","7","2","4","6","749636547061747713","叶","396","Male","[""好他"",""好我"",""坏我"",""坏他""]","[""强他"",""强我"",""弱我"",""弱他""]","","","","","","","","match","","","","","","","","","","key","f","16.668234234234227","683","380","j","false","nonmatch","img/ellipse.png","强我","弱我","prac_ALT2_ability","practice_ability","","","","","","","",""
"null","<span style='color:red; font-size: 70px;'>错误! </span>","null","html-keyboard-response","35","376343","0.0-8.0-1.0-1.0-0.0-1.12","3","3","4","2","4","4","3","3","4","4","5","-2","0","0","1","-2","0","0","1","5","5","5","4","5","4","4","5","4","4","6","7","6","8","6","7","7","7","8","4","3","5","5","2","3","4","3","4","2","5","2","5","3","4","6","4","3","4","3","3","5","2","6","3","7","5","5","7","6","6","6","5","5","5","7","7","2","4","6","749636547061747713","叶","396","Male","[""好他"",""好我"",""坏我"",""坏他""]","[""强他"",""强我"",""弱我"",""弱他""]","","","","","","","","","","","","","","","","","","","","","","","","","","","","","","feedback_test","","","","","","","",""
"994","","j","psychophysics","36","378344","0.0-8.0-1.0-1.0-0.0-0.13","3","3","4","2","4","4","3","3","4","4","5","-2","0","0","1","-2","0","0","1","5","5","5","4","5","4","4","5","4","4","6","7","6","8","6","7","7","7","8","4","3","5","5","2","3","4","3","4","2","5","2","5","3","4","6","4","3","4","3","3","5","2","6","3","7","5","5","7","6","6","6","5","5","5","7","7","2","4","6","749636547061747713","叶","396","Male","[""好他"",""好我"",""坏我"",""坏他""]","[""强他"",""强我"",""弱我"",""弱他""]","","","","","","","","nonmatch","","","","","","","","","","key","j","16.804068376068383","683","380","j","true","nonmatch","img/trapezoid.png","强他","弱他","prac_ALT2_ability","practice_ability","","","","","","","",""
"null","<span style='color:GreenYellow; font-size: 70px;'>正确! </span>","null","html-keyboard-response","37","378848","0.0-8.0-1.0-1.0-0.0-1.13","3","3","4","2","4","4","3","3","4","4","5","-2","0","0","1","-2","0","0","1","5","5","5","4","5","4","4","5","4","4","6","7","6","8","6","7","7","7","8","4","3","5","5","2","3","4","3","4","2","5","2","5","3","4","6","4","3","4","3","3","5","2","6","3","7","5","5","7","6","6","6","5","5","5","7","7","2","4","6","749636547061747713","叶","396","Male","[""好他"",""好我"",""坏我"",""坏他""]","[""强他"",""强我"",""弱我"",""弱他""]","","","","","","","","","","","","","","","","","","","","","","","","","","","","","","feedback_test","","","","","","","",""
"null","","null","psychophysics","38","381084","0.0-8.0-1.0-1.0-0.0-0.14","3","3","4","2","4","4","3","3","4","4","5","-2","0","0","1","-2","0","0","1","5","5","5","4","5","4","4","5","4","4","6","7","6","8","6","7","7","7","8","4","3","5","5","2","3","4","3","4","2","5","2","5","3","4","6","4","3","4","3","3","5","2","6","3","7","5","5","7","6","6","6","5","5","5","7","7","2","4","6","749636547061747713","叶","396","Male","[""好他"",""好我"",""坏我"",""坏他""]","[""强他"",""强我"",""弱我"",""弱他""]","","","","","","","","null","","","","","","","","","","key","null","16.657633587785995","683","380","f","false","match","img/trapezoid.png","弱他","弱他","prac_ALT2_ability","practice_ability","","","","","","","",""
"null","<span class='add_' style='color:yellow; font-size: 70px;'> 太慢! </span>","null","html-keyboard-response","39","381592","0.0-8.0-1.0-1.0-0.0-1.14","3","3","4","2","4","4","3","3","4","4","5","-2","0","0","1","-2","0","0","1","5","5","5","4","5","4","4","5","4","4","6","7","6","8","6","7","7","7","8","4","3","5","5","2","3","4","3","4","2","5","2","5","3","4","6","4","3","4","3","3","5","2","6","3","7","5","5","7","6","6","6","5","5","5","7","7","2","4","6","749636547061747713","叶","396","Male","[""好他"",""好我"",""坏我"",""坏他""]","[""强他"",""强我"",""弱我"",""弱他""]","","","","","","","","","","","","","","","","","","","","","","","","","","","","","","feedback_test","","","","","","","",""
"1215","","f","psychophysics","40","383819","0.0-8.0-1.0-1.0-0.0-0.15","3","3","4","2","4","4","3","3","4","4","5","-2","0","0","1","-2","0","0","1","5","5","5","4","5","4","4","5","4","4","6","7","6","8","6","7","7","7","8","4","3","5","5","2","3","4","3","4","2","5","2","5","3","4","6","4","3","4","3","3","5","2","6","3","7","5","5","7","6","6","6","5","5","5","7","7","2","4","6","749636547061747713","叶","396","Male","[""好他"",""好我"",""坏我"",""坏他""]","[""强他"",""强我"",""弱我"",""弱他""]","","","","","","","","match","","","","","","","","","","key","f","16.663809160305142","683","380","j","false","nonmatch","img/hexagon.png","强我","强他","prac_ALT2_ability","practice_ability","","","","","","","",""
"null","<span class='add_' style='color:yellow; font-size: 70px;'> 太慢! </span>","null","html-keyboard-response","41","384328","0.0-8.0-1.0-1.0-0.0-1.15","3","3","4","2","4","4","3","3","4","4","5","-2","0","0","1","-2","0","0","1","5","5","5","4","5","4","4","5","4","4","6","7","6","8","6","7","7","7","8","4","3","5","5","2","3","4","3","4","2","5","2","5","3","4","6","4","3","4","3","3","5","2","6","3","7","5","5","7","6","6","6","5","5","5","7","7","2","4","6","749636547061747713","叶","396","Male","[""好他"",""好我"",""坏我"",""坏他""]","[""强他"",""强我"",""弱我"",""弱他""]","","","","","","","","","","","","","","","","","","","","","","","","","","","","","","feedback_test","","","","","","","",""
"890","","f","psychophysics","42","386224","0.0-8.0-1.0-1.0-0.0-0.16","3","3","4","2","4","4","3","3","4","4","5","-2","0","0","1","-2","0","0","1","5","5","5","4","5","4","4","5","4","4","6","7","6","8","6","7","7","7","8","4","3","5","5","2","3","4","3","4","2","5","2","5","3","4","6","4","3","4","3","3","5","2","6","3","7","5","5","7","6","6","6","5","5","5","7","7","2","4","6","749636547061747713","叶","396","Male","[""好他"",""好我"",""坏我"",""坏他""]","[""强他"",""强我"",""弱我"",""弱他""]","","","","","","","","match","","","","","","","","","","key","f","16.665473214285676","683","380","f","true","match","img/ellipse.png","弱我","弱我","prac_ALT2_ability","practice_ability","","","","","","","",""
"null","<span style='color:GreenYellow; font-size: 70px;'>正确! </span>","null","html-keyboard-response","43","386728","0.0-8.0-1.0-1.0-0.0-1.16","3","3","4","2","4","4","3","3","4","4","5","-2","0","0","1","-2","0","0","1","5","5","5","4","5","4","4","5","4","4","6","7","6","8","6","7","7","7","8","4","3","5","5","2","3","4","3","4","2","5","2","5","3","4","6","4","3","4","3","3","5","2","6","3","7","5","5","7","6","6","6","5","5","5","7","7","2","4","6","749636547061747713","叶","396","Male","[""好他"",""好我"",""坏我"",""坏他""]","[""强他"",""强我"",""弱我"",""弱他""]","","","","","","","","","","","","","","","","","","","","","","","","","","","","","","feedback_test","","","","","","","",""
"923","","j","psychophysics","44","388656","0.0-8.0-1.0-1.0-0.0-0.17","3","3","4","2","4","4","3","3","4","4","5","-2","0","0","1","-2","0","0","1","5","5","5","4","5","4","4","5","4","4","6","7","6","8","6","7","7","7","8","4","3","5","5","2","3","4","3","4","2","5","2","5","3","4","6","4","3","4","3","3","5","2","6","3","7","5","5","7","6","6","6","5","5","5","7","7","2","4","6","749636547061747713","叶","396","Male","[""好他"",""好我"",""坏我"",""坏他""]","[""强他"",""强我"",""弱我"",""弱他""]","","","","","","","","nonmatch","","","","","","","","","","key","j","16.668991304347898","683","380","j","true","nonmatch","img/hexagon.png","弱我","强他","prac_ALT2_ability","practice_ability","","","","","","","",""
"null","<span style='color:GreenYellow; font-size: 70px;'>正确! </span>","null","html-keyboard-response","45","389160","0.0-8.0-1.0-1.0-0.0-1.17","3","3","4","2","4","4","3","3","4","4","5","-2","0","0","1","-2","0","0","1","5","5","5","4","5","4","4","5","4","4","6","7","6","8","6","7","7","7","8","4","3","5","5","2","3","4","3","4","2","5","2","5","3","4","6","4","3","4","3","3","5","2","6","3","7","5","5","7","6","6","6","5","5","5","7","7","2","4","6","749636547061747713","叶","396","Male","[""好他"",""好我"",""坏我"",""坏他""]","[""强他"",""强我"",""弱我"",""弱他""]","","","","","","","","","","","","","","","","","","","","","","","","","","","","","","feedback_test","","","","","","","",""
"1007","","j","psychophysics","46","391176","0.0-8.0-1.0-1.0-0.0-0.18","3","3","4","2","4","4","3","3","4","4","5","-2","0","0","1","-2","0","0","1","5","5","5","4","5","4","4","5","4","4","6","7","6","8","6","7","7","7","8","4","3","5","5","2","3","4","3","4","2","5","2","5","3","4","6","4","3","4","3","3","5","2","6","3","7","5","5","7","6","6","6","5","5","5","7","7","2","4","6","749636547061747713","叶","396","Male","[""好他"",""好我"",""坏我"",""坏他""]","[""强他"",""强我"",""弱我"",""弱他""]","","","","","","","","nonmatch","","","","","","","","","","key","j","16.666336134453733","683","380","j","true","nonmatch","img/square.png","弱他","强我","prac_ALT2_ability","practice_ability","","","","","","","",""
"null","<span style='color:GreenYellow; font-size: 70px;'>正确! </span>","null","html-keyboard-response","47","391680","0.0-8.0-1.0-1.0-0.0-1.18","3","3","4","2","4","4","3","3","4","4","5","-2","0","0","1","-2","0","0","1","5","5","5","4","5","4","4","5","4","4","6","7","6","8","6","7","7","7","8","4","3","5","5","2","3","4","3","4","2","5","2","5","3","4","6","4","3","4","3","3","5","2","6","3","7","5","5","7","6","6","6","5","5","5","7","7","2","4","6","749636547061747713","叶","396","Male","[""好他"",""好我"",""坏我"",""坏他""]","[""强他"",""强我"",""弱我"",""弱他""]","","","","","","","","","","","","","","","","","","","","","","","","","","","","","","feedback_test","","","","","","","",""
"973","","j","psychophysics","48","393656","0.0-8.0-1.0-1.0-0.0-0.19","3","3","4","2","4","4","3","3","4","4","5","-2","0","0","1","-2","0","0","1","5","5","5","4","5","4","4","5","4","4","6","7","6","8","6","7","7","7","8","4","3","5","5","2","3","4","3","4","2","5","2","5","3","4","6","4","3","4","3","3","5","2","6","3","7","5","5","7","6","6","6","5","5","5","7","7","2","4","6","749636547061747713","叶","396","Male","[""好他"",""好我"",""坏我"",""坏他""]","[""强他"",""强我"",""弱我"",""弱他""]","","","","","","","","nonmatch","","","","","","","","","","key","j","16.665499999999785","683","380","j","true","nonmatch","img/ellipse.png","弱他","弱我","prac_ALT2_ability","practice_ability","","","","","","","",""
"null","<span style='color:GreenYellow; font-size: 70px;'>正确! </span>","null","html-keyboard-response","49","394159","0.0-8.0-1.0-1.0-0.0-1.19","3","3","4","2","4","4","3","3","4","4","5","-2","0","0","1","-2","0","0","1","5","5","5","4","5","4","4","5","4","4","6","7","6","8","6","7","7","7","8","4","3","5","5","2","3","4","3","4","2","5","2","5","3","4","6","4","3","4","3","3","5","2","6","3","7","5","5","7","6","6","6","5","5","5","7","7","2","4","6","749636547061747713","叶","396","Male","[""好他"",""好我"",""坏我"",""坏他""]","[""强他"",""强我"",""弱我"",""弱他""]","","","","","","","","","","","","","","","","","","","","","","","","","","","","","","feedback_test","","","","","","","",""
"762","","f","psychophysics","50","395928","0.0-8.0-1.0-1.0-0.0-0.20","3","3","4","2","4","4","3","3","4","4","5","-2","0","0","1","-2","0","0","1","5","5","5","4","5","4","4","5","4","4","6","7","6","8","6","7","7","7","8","4","3","5","5","2","3","4","3","4","2","5","2","5","3","4","6","4","3","4","3","3","5","2","6","3","7","5","5","7","6","6","6","5","5","5","7","7","2","4","6","749636547061747713","叶","396","Male","[""好他"",""好我"",""坏我"",""坏他""]","[""强他"",""强我"",""弱我"",""弱他""]","","","","","","","","match","","","","","","","","","","key","f","16.66610476190468","683","380","f","true","match","img/ellipse.png","弱我","弱我","prac_ALT2_ability","practice_ability","","","","","","","",""
"null","<span style='color:GreenYellow; font-size: 70px;'>正确! </span>","null","html-keyboard-response","51","396431","0.0-8.0-1.0-1.0-0.0-1.20","3","3","4","2","4","4","3","3","4","4","5","-2","0","0","1","-2","0","0","1","5","5","5","4","5","4","4","5","4","4","6","7","6","8","6","7","7","7","8","4","3","5","5","2","3","4","3","4","2","5","2","5","3","4","6","4","3","4","3","3","5","2","6","3","7","5","5","7","6","6","6","5","5","5","7","7","2","4","6","749636547061747713","叶","396","Male","[""好他"",""好我"",""坏我"",""坏他""]","[""强他"",""强我"",""弱我"",""弱他""]","","","","","","","","","","","","","","","","","","","","","","","","","","","","","","feedback_test","","","","","","","",""
"null","","null","psychophysics","52","398641","0.0-8.0-1.0-1.0-0.0-0.21","3","3","4","2","4","4","3","3","4","4","5","-2","0","0","1","-2","0","0","1","5","5","5","4","5","4","4","5","4","4","6","7","6","8","6","7","7","7","8","4","3","5","5","2","3","4","3","4","2","5","2","5","3","4","6","4","3","4","3","3","5","2","6","3","7","5","5","7","6","6","6","5","5","5","7","7","2","4","6","749636547061747713","叶","396","Male","[""好他"",""好我"",""坏我"",""坏他""]","[""强他"",""强我"",""弱我"",""弱他""]","","","","","","","","null","","","","","","","","","","key","null","16.790338461538507","683","380","j","false","nonmatch","img/hexagon.png","弱他","强他","prac_ALT2_ability","practice_ability","","","","","","","",""
"null","<span class='add_' style='color:yellow; font-size: 70px;'> 太慢! </span>","null","html-keyboard-response","53","399144","0.0-8.0-1.0-1.0-0.0-1.21","3","3","4","2","4","4","3","3","4","4","5","-2","0","0","1","-2","0","0","1","5","5","5","4","5","4","4","5","4","4","6","7","6","8","6","7","7","7","8","4","3","5","5","2","3","4","3","4","2","5","2","5","3","4","6","4","3","4","3","3","5","2","6","3","7","5","5","7","6","6","6","5","5","5","7","7","2","4","6","749636547061747713","叶","396","Male","[""好他"",""好我"",""坏我"",""坏他""]","[""强他"",""强我"",""弱我"",""弱他""]","","","","","","","","","","","","","","","","","","","","","","","","","","","","","","feedback_test","","","","","","","",""
"955","","f","psychophysics","54","401105","0.0-8.0-1.0-1.0-0.0-0.22","3","3","4","2","4","4","3","3","4","4","5","-2","0","0","1","-2","0","0","1","5","5","5","4","5","4","4","5","4","4","6","7","6","8","6","7","7","7","8","4","3","5","5","2","3","4","3","4","2","5","2","5","3","4","6","4","3","4","3","3","5","2","6","3","7","5","5","7","6","6","6","5","5","5","7","7","2","4","6","749636547061747713","叶","396","Male","[""好他"",""好我"",""坏我"",""坏他""]","[""强他"",""强我"",""弱我"",""弱他""]","","","","","","","","match","","","","","","","","","","key","f","16.672182608695962","683","380","f","true","match","img/square.png","强我","强我","prac_ALT2_ability","practice_ability","","","","","","","",""
"null","<span style='color:GreenYellow; font-size: 70px;'>正确! </span>","null","html-keyboard-response","55","401608","0.0-8.0-1.0-1.0-0.0-1.22","3","3","4","2","4","4","3","3","4","4","5","-2","0","0","1","-2","0","0","1","5","5","5","4","5","4","4","5","4","4","6","7","6","8","6","7","7","7","8","4","3","5","5","2","3","4","3","4","2","5","2","5","3","4","6","4","3","4","3","3","5","2","6","3","7","5","5","7","6","6","6","5","5","5","7","7","2","4","6","749636547061747713","叶","396","Male","[""好他"",""好我"",""坏我"",""坏他""]","[""强他"",""强我"",""弱我"",""弱他""]","","","","","","","","","","","","","","","","","","","","","","","","","","","","","","feedback_test","","","","","","","",""
"911","","f","psychophysics","56","403528","0.0-8.0-1.0-1.0-0.0-0.23","3","3","4","2","4","4","3","3","4","4","5","-2","0","0","1","-2","0","0","1","5","5","5","4","5","4","4","5","4","4","6","7","6","8","6","7","7","7","8","4","3","5","5","2","3","4","3","4","2","5","2","5","3","4","6","4","3","4","3","3","5","2","6","3","7","5","5","7","6","6","6","5","5","5","7","7","2","4","6","749636547061747713","叶","396","Male","[""好他"",""好我"",""坏我"",""坏他""]","[""强他"",""强我"",""弱我"",""弱他""]","","","","","","","","match","","","","","","","","","","key","f","16.673078947368165","683","380","f","true","match","img/hexagon.png","强他","强他","prac_ALT2_ability","practice_ability","","","","","","","",""
"null","<span style='color:GreenYellow; font-size: 70px;'>正确! </span>","null","html-keyboard-response","57","404032","0.0-8.0-1.0-1.0-0.0-1.23","3","3","4","2","4","4","3","3","4","4","5","-2","0","0","1","-2","0","0","1","5","5","5","4","5","4","4","5","4","4","6","7","6","8","6","7","7","7","8","4","3","5","5","2","3","4","3","4","2","5","2","5","3","4","6","4","3","4","3","3","5","2","6","3","7","5","5","7","6","6","6","5","5","5","7","7","2","4","6","749636547061747713","叶","396","Male","[""好他"",""好我"",""坏我"",""坏他""]","[""强他"",""强我"",""弱我"",""弱他""]","","","","","","","","","","","","","","","","","","","","","","","","","","","","","","feedback_test","","","","","","","",""
"1104","","j","psychophysics","58","406144","0.0-8.0-1.0-1.0-0.0-0.24","3","3","4","2","4","4","3","3","4","4","5","-2","0","0","1","-2","0","0","1","5","5","5","4","5","4","4","5","4","4","6","7","6","8","6","7","7","7","8","4","3","5","5","2","3","4","3","4","2","5","2","5","3","4","6","4","3","4","3","3","5","2","6","3","7","5","5","7","6","6","6","5","5","5","7","7","2","4","6","749636547061747713","叶","396","Male","[""好他"",""好我"",""坏我"",""坏他""]","[""强他"",""强我"",""弱我"",""弱他""]","","","","","","","","nonmatch","","","","","","","","","","key","j","16.66323387096758","683","380","j","true","nonmatch","img/ellipse.png","弱他","弱我","prac_ALT2_ability","practice_ability","","","","","","","",""
"null","<span style='color:GreenYellow; font-size: 70px;'>正确! </span>","null","html-keyboard-response","59","406648","0.0-8.0-1.0-1.0-0.0-1.24","3","3","4","2","4","4","3","3","4","4","5","-2","0","0","1","-2","0","0","1","5","5","5","4","5","4","4","5","4","4","6","7","6","8","6","7","7","7","8","4","3","5","5","2","3","4","3","4","2","5","2","5","3","4","6","4","3","4","3","3","5","2","6","3","7","5","5","7","6","6","6","5","5","5","7","7","2","4","6","749636547061747713","叶","396","Male","[""好他"",""好我"",""坏我"",""坏他""]","[""强他"",""强我"",""弱我"",""弱他""]","","","","","","","","","","","","","","","","","","","","","","","","","","","","","","feedback_test","","","","","","","",""
"957","","f","psychophysics","60","408608","0.0-8.0-1.0-1.0-0.0-0.25","3","3","4","2","4","4","3","3","4","4","5","-2","0","0","1","-2","0","0","1","5","5","5","4","5","4","4","5","4","4","6","7","6","8","6","7","7","7","8","4","3","5","5","2","3","4","3","4","2","5","2","5","3","4","6","4","3","4","3","3","5","2","6","3","7","5","5","7","6","6","6","5","5","5","7","7","2","4","6","749636547061747713","叶","396","Male","[""好他"",""好我"",""坏我"",""坏他""]","[""强他"",""强我"",""弱我"",""弱他""]","","","","","","","","match","","","","","","","","","","key","f","16.660827586207045","683","380","j","false","nonmatch","img/trapezoid.png","强他","弱他","prac_ALT2_ability","practice_ability","","","","","","","",""
"null","<span style='color:red; font-size: 70px;'>错误! </span>","null","html-keyboard-response","61","409112","0.0-8.0-1.0-1.0-0.0-1.25","3","3","4","2","4","4","3","3","4","4","5","-2","0","0","1","-2","0","0","1","5","5","5","4","5","4","4","5","4","4","6","7","6","8","6","7","7","7","8","4","3","5","5","2","3","4","3","4","2","5","2","5","3","4","6","4","3","4","3","3","5","2","6","3","7","5","5","7","6","6","6","5","5","5","7","7","2","4","6","749636547061747713","叶","396","Male","[""好他"",""好我"",""坏我"",""坏他""]","[""强他"",""强我"",""弱我"",""弱他""]","","","","","","","","","","","","","","","","","","","","","","","","","","","","","","feedback_test","","","","","","","",""
"888","","f","psychophysics","62","411008","0.0-8.0-1.0-1.0-0.0-0.26","3","3","4","2","4","4","3","3","4","4","5","-2","0","0","1","-2","0","0","1","5","5","5","4","5","4","4","5","4","4","6","7","6","8","6","7","7","7","8","4","3","5","5","2","3","4","3","4","2","5","2","5","3","4","6","4","3","4","3","3","5","2","6","3","7","5","5","7","6","6","6","5","5","5","7","7","2","4","6","749636547061747713","叶","396","Male","[""好他"",""好我"",""坏我"",""坏他""]","[""强他"",""强我"",""弱我"",""弱他""]","","","","","","","","match","","","","","","","","","","key","f","16.669185840708113","683","380","f","true","match","img/hexagon.png","强他","强他","prac_ALT2_ability","practice_ability","","","","","","","",""
"null","<span style='color:GreenYellow; font-size: 70px;'>正确! </span>","null","html-keyboard-response","63","411512","0.0-8.0-1.0-1.0-0.0-1.26","3","3","4","2","4","4","3","3","4","4","5","-2","0","0","1","-2","0","0","1","5","5","5","4","5","4","4","5","4","4","6","7","6","8","6","7","7","7","8","4","3","5","5","2","3","4","3","4","2","5","2","5","3","4","6","4","3","4","3","3","5","2","6","3","7","5","5","7","6","6","6","5","5","5","7","7","2","4","6","749636547061747713","叶","396","Male","[""好他"",""好我"",""坏我"",""坏他""]","[""强他"",""强我"",""弱我"",""弱他""]","","","","","","","","","","","","","","","","","","","","","","","","","","","","","","feedback_test","","","","","","","",""
"734","","f","psychophysics","64","413249","0.0-8.0-1.0-1.0-0.0-0.27","3","3","4","2","4","4","3","3","4","4","5","-2","0","0","1","-2","0","0","1","5","5","5","4","5","4","4","5","4","4","6","7","6","8","6","7","7","7","8","4","3","5","5","2","3","4","3","4","2","5","2","5","3","4","6","4","3","4","3","3","5","2","6","3","7","5","5","7","6","6","6","5","5","5","7","7","2","4","6","749636547061747713","叶","396","Male","[""好他"",""好我"",""坏我"",""坏他""]","[""强他"",""强我"",""弱我"",""弱他""]","","","","","","","","match","","","","","","","","","","key","f","16.66670873786438","683","380","f","true","match","img/ellipse.png","弱我","弱我","prac_ALT2_ability","practice_ability","","","","","","","",""
"null","<span style='color:GreenYellow; font-size: 70px;'>正确! </span>","null","html-keyboard-response","65","413752","0.0-8.0-1.0-1.0-0.0-1.27","3","3","4","2","4","4","3","3","4","4","5","-2","0","0","1","-2","0","0","1","5","5","5","4","5","4","4","5","4","4","6","7","6","8","6","7","7","7","8","4","3","5","5","2","3","4","3","4","2","5","2","5","3","4","6","4","3","4","3","3","5","2","6","3","7","5","5","7","6","6","6","5","5","5","7","7","2","4","6","749636547061747713","叶","396","Male","[""好他"",""好我"",""坏我"",""坏他""]","[""强他"",""强我"",""弱我"",""弱他""]","","","","","","","","","","","","","","","","","","","","","","","","","","","","","","feedback_test","","","","","","","",""
"1041","","j","psychophysics","66","415801","0.0-8.0-1.0-1.0-0.0-0.28","3","3","4","2","4","4","3","3","4","4","5","-2","0","0","1","-2","0","0","1","5","5","5","4","5","4","4","5","4","4","6","7","6","8","6","7","7","7","8","4","3","5","5","2","3","4","3","4","2","5","2","5","3","4","6","4","3","4","3","3","5","2","6","3","7","5","5","7","6","6","6","5","5","5","7","7","2","4","6","749636547061747713","叶","396","Male","[""好他"",""好我"",""坏我"",""坏他""]","[""强他"",""强我"",""弱我"",""弱他""]","","","","","","","","nonmatch","","","","","","","","","","key","j","16.666233333333608","683","380","f","false","match","img/trapezoid.png","弱他","弱他","prac_ALT2_ability","practice_ability","","","","","","","",""
"null","<span style='color:red; font-size: 70px;'>错误! </span>","null","html-keyboard-response","67","416304","0.0-8.0-1.0-1.0-0.0-1.28","3","3","4","2","4","4","3","3","4","4","5","-2","0","0","1","-2","0","0","1","5","5","5","4","5","4","4","5","4","4","6","7","6","8","6","7","7","7","8","4","3","5","5","2","3","4","3","4","2","5","2","5","3","4","6","4","3","4","3","3","5","2","6","3","7","5","5","7","6","6","6","5","5","5","7","7","2","4","6","749636547061747713","叶","396","Male","[""好他"",""好我"",""坏我"",""坏他""]","[""强他"",""强我"",""弱我"",""弱他""]","","","","","","","","","","","","","","","","","","","","","","","","","","","","","","feedback_test","","","","","","","",""
"938","","f","psychophysics","68","418250","0.0-8.0-1.0-1.0-0.0-0.29","3","3","4","2","4","4","3","3","4","4","5","-2","0","0","1","-2","0","0","1","5","5","5","4","5","4","4","5","4","4","6","7","6","8","6","7","7","7","8","4","3","5","5","2","3","4","3","4","2","5","2","5","3","4","6","4","3","4","3","3","5","2","6","3","7","5","5","7","6","6","6","5","5","5","7","7","2","4","6","749636547061747713","叶","396","Male","[""好他"",""好我"",""坏我"",""坏他""]","[""强他"",""强我"",""弱我"",""弱他""]","","","","","","","","match","","","","","","","","","","key","f","16.664578947368824","683","380","f","true","match","img/hexagon.png","强他","强他","prac_ALT2_ability","practice_ability","","","","","","","",""
"null","<span style='color:GreenYellow; font-size: 70px;'>正确! </span>","null","html-keyboard-response","69","418760","0.0-8.0-1.0-1.0-0.0-1.29","3","3","4","2","4","4","3","3","4","4","5","-2","0","0","1","-2","0","0","1","5","5","5","4","5","4","4","5","4","4","6","7","6","8","6","7","7","7","8","4","3","5","5","2","3","4","3","4","2","5","2","5","3","4","6","4","3","4","3","3","5","2","6","3","7","5","5","7","6","6","6","5","5","5","7","7","2","4","6","749636547061747713","叶","396","Male","[""好他"",""好我"",""坏我"",""坏他""]","[""强他"",""强我"",""弱我"",""弱他""]","","","","","","","","","","","","","","","","","","","","","","","","","","","","","","feedback_test","","","","","","","",""
"998","","f","psychophysics","70","420769","0.0-8.0-1.0-1.0-0.0-0.30","3","3","4","2","4","4","3","3","4","4","5","-2","0","0","1","-2","0","0","1","5","5","5","4","5","4","4","5","4","4","6","7","6","8","6","7","7","7","8","4","3","5","5","2","3","4","3","4","2","5","2","5","3","4","6","4","3","4","3","3","5","2","6","3","7","5","5","7","6","6","6","5","5","5","7","7","2","4","6","749636547061747713","叶","396","Male","[""好他"",""好我"",""坏我"",""坏他""]","[""强他"",""强我"",""弱我"",""弱他""]","","","","","","","","match","","","","","","","","","","key","f","16.676816666666614","683","380","f","true","match","img/square.png","强我","强我","prac_ALT2_ability","practice_ability","","","","","","","",""
"null","<span style='color:GreenYellow; font-size: 70px;'>正确! </span>","null","html-keyboard-response","71","421272","0.0-8.0-1.0-1.0-0.0-1.30","3","3","4","2","4","4","3","3","4","4","5","-2","0","0","1","-2","0","0","1","5","5","5","4","5","4","4","5","4","4","6","7","6","8","6","7","7","7","8","4","3","5","5","2","3","4","3","4","2","5","2","5","3","4","6","4","3","4","3","3","5","2","6","3","7","5","5","7","6","6","6","5","5","5","7","7","2","4","6","749636547061747713","叶","396","Male","[""好他"",""好我"",""坏我"",""坏他""]","[""强他"",""强我"",""弱我"",""弱他""]","","","","","","","","","","","","","","","","","","","","","","","","","","","","","","feedback_test","","","","","","","",""
"1112","","j","psychophysics","72","423392","0.0-8.0-1.0-1.0-0.0-0.31","3","3","4","2","4","4","3","3","4","4","5","-2","0","0","1","-2","0","0","1","5","5","5","4","5","4","4","5","4","4","6","7","6","8","6","7","7","7","8","4","3","5","5","2","3","4","3","4","2","5","2","5","3","4","6","4","3","4","3","3","5","2","6","3","7","5","5","7","6","6","6","5","5","5","7","7","2","4","6","749636547061747713","叶","396","Male","[""好他"",""好我"",""坏我"",""坏他""]","[""强他"",""强我"",""弱我"",""弱他""]","","","","","","","","nonmatch","","","","","","","","","","key","j","16.667285714286013","683","380","j","true","nonmatch","img/ellipse.png","强他","弱我","prac_ALT2_ability","practice_ability","","","","","","","",""
"null","<span style='color:GreenYellow; font-size: 70px;'>正确! </span>","null","html-keyboard-response","73","423896","0.0-8.0-1.0-1.0-0.0-1.31","3","3","4","2","4","4","3","3","4","4","5","-2","0","0","1","-2","0","0","1","5","5","5","4","5","4","4","5","4","4","6","7","6","8","6","7","7","7","8","4","3","5","5","2","3","4","3","4","2","5","2","5","3","4","6","4","3","4","3","3","5","2","6","3","7","5","5","7","6","6","6","5","5","5","7","7","2","4","6","749636547061747713","叶","396","Male","[""好他"",""好我"",""坏我"",""坏他""]","[""强他"",""强我"",""弱我"",""弱他""]","","","","","","","","","","","","","","","","","","","","","","","","","","","","","","feedback_test","","","","","","","",""
"null","","null","psychophysics","74","426103","0.0-8.0-1.0-1.0-0.0-0.32","3","3","4","2","4","4","3","3","4","4","5","-2","0","0","1","-2","0","0","1","5","5","5","4","5","4","4","5","4","4","6","7","6","8","6","7","7","7","8","4","3","5","5","2","3","4","3","4","2","5","2","5","3","4","6","4","3","4","3","3","5","2","6","3","7","5","5","7","6","6","6","5","5","5","7","7","2","4","6","749636547061747713","叶","396","Male","[""好他"",""好我"",""坏我"",""坏他""]","[""强他"",""强我"",""弱我"",""弱他""]","","","","","","","","null","","","","","","","","","","key","null","16.67482442748093","683","380","j","false","nonmatch","img/trapezoid.png","弱我","弱他","prac_ALT2_ability","practice_ability","","","","","","","",""
"null","<span class='add_' style='color:yellow; font-size: 70px;'> 太慢! </span>","null","html-keyboard-response","75","426608","0.0-8.0-1.0-1.0-0.0-1.32","3","3","4","2","4","4","3","3","4","4","5","-2","0","0","1","-2","0","0","1","5","5","5","4","5","4","4","5","4","4","6","7","6","8","6","7","7","7","8","4","3","5","5","2","3","4","3","4","2","5","2","5","3","4","6","4","3","4","3","3","5","2","6","3","7","5","5","7","6","6","6","5","5","5","7","7","2","4","6","749636547061747713","叶","396","Male","[""好他"",""好我"",""坏我"",""坏他""]","[""强他"",""强我"",""弱我"",""弱他""]","","","","","","","","","","","","","","","","","","","","","","","","","","","","","","feedback_test","","","","","","","",""
"854","","f","psychophysics","76","428472","0.0-8.0-1.0-1.0-0.0-0.33","3","3","4","2","4","4","3","3","4","4","5","-2","0","0","1","-2","0","0","1","5","5","5","4","5","4","4","5","4","4","6","7","6","8","6","7","7","7","8","4","3","5","5","2","3","4","3","4","2","5","2","5","3","4","6","4","3","4","3","3","5","2","6","3","7","5","5","7","6","6","6","5","5","5","7","7","2","4","6","749636547061747713","叶","396","Male","[""好他"",""好我"",""坏我"",""坏他""]","[""强他"",""强我"",""弱我"",""弱他""]","","","","","","","","match","","","","","","","","","","key","f","16.67438181818156","683","380","f","true","match","img/square.png","强我","强我","prac_ALT2_ability","practice_ability","","","","","","","",""
"null","<span style='color:GreenYellow; font-size: 70px;'>正确! </span>","null","html-keyboard-response","77","428976","0.0-8.0-1.0-1.0-0.0-1.33","3","3","4","2","4","4","3","3","4","4","5","-2","0","0","1","-2","0","0","1","5","5","5","4","5","4","4","5","4","4","6","7","6","8","6","7","7","7","8","4","3","5","5","2","3","4","3","4","2","5","2","5","3","4","6","4","3","4","3","3","5","2","6","3","7","5","5","7","6","6","6","5","5","5","7","7","2","4","6","749636547061747713","叶","396","Male","[""好他"",""好我"",""坏我"",""坏他""]","[""强他"",""强我"",""弱我"",""弱他""]","","","","","","","","","","","","","","","","","","","","","","","","","","","","","","feedback_test","","","","","","","",""
"826","","j","psychophysics","78","430808","0.0-8.0-1.0-1.0-0.0-0.34","3","3","4","2","4","4","3","3","4","4","5","-2","0","0","1","-2","0","0","1","5","5","5","4","5","4","4","5","4","4","6","7","6","8","6","7","7","7","8","4","3","5","5","2","3","4","3","4","2","5","2","5","3","4","6","4","3","4","3","3","5","2","6","3","7","5","5","7","6","6","6","5","5","5","7","7","2","4","6","749636547061747713","叶","396","Male","[""好他"",""好我"",""坏我"",""坏他""]","[""强他"",""强我"",""弱我"",""弱他""]","","","","","","","","nonmatch","","","","","","","","","","key","j","16.666715596330462","683","380","j","true","nonmatch","img/ellipse.png","强我","弱我","prac_ALT2_ability","practice_ability","","","","","","","",""
"null","<span style='color:GreenYellow; font-size: 70px;'>正确! </span>","null","html-keyboard-response","79","431312","0.0-8.0-1.0-1.0-0.0-1.34","3","3","4","2","4","4","3","3","4","4","5","-2","0","0","1","-2","0","0","1","5","5","5","4","5","4","4","5","4","4","6","7","6","8","6","7","7","7","8","4","3","5","5","2","3","4","3","4","2","5","2","5","3","4","6","4","3","4","3","3","5","2","6","3","7","5","5","7","6","6","6","5","5","5","7","7","2","4","6","749636547061747713","叶","396","Male","[""好他"",""好我"",""坏我"",""坏他""]","[""强他"",""强我"",""弱我"",""弱他""]","","","","","","","","","","","","","","","","","","","","","","","","","","","","","","feedback_test","","","","","","","",""
"1107","","j","psychophysics","80","433424","0.0-8.0-1.0-1.0-0.0-0.35","3","3","4","2","4","4","3","3","4","4","5","-2","0","0","1","-2","0","0","1","5","5","5","4","5","4","4","5","4","4","6","7","6","8","6","7","7","7","8","4","3","5","5","2","3","4","3","4","2","5","2","5","3","4","6","4","3","4","3","3","5","2","6","3","7","5","5","7","6","6","6","5","5","5","7","7","2","4","6","749636547061747713","叶","396","Male","[""好他"",""好我"",""坏我"",""坏他""]","[""强他"",""强我"",""弱我"",""弱他""]","","","","","","","","nonmatch","","","","","","","","","","key","j","16.662230158730555","683","380","j","true","nonmatch","img/hexagon.png","弱他","强他","prac_ALT2_ability","practice_ability","","","","","","","",""
"null","<span style='color:GreenYellow; font-size: 70px;'>正确! </span>","null","html-keyboard-response","81","433928","0.0-8.0-1.0-1.0-0.0-1.35","3","3","4","2","4","4","3","3","4","4","5","-2","0","0","1","-2","0","0","1","5","5","5","4","5","4","4","5","4","4","6","7","6","8","6","7","7","7","8","4","3","5","5","2","3","4","3","4","2","5","2","5","3","4","6","4","3","4","3","3","5","2","6","3","7","5","5","7","6","6","6","5","5","5","7","7","2","4","6","749636547061747713","叶","396","Male","[""好他"",""好我"",""坏我"",""坏他""]","[""强他"",""强我"",""弱我"",""弱他""]","","","","","","","","","","","","","","","","","","","","","","","","","","","","","","feedback_test","","","","","","","",""
"1069","","j","psychophysics","82","436003","0.0-8.0-1.0-1.0-0.0-0.36","3","3","4","2","4","4","3","3","4","4","5","-2","0","0","1","-2","0","0","1","5","5","5","4","5","4","4","5","4","4","6","7","6","8","6","7","7","7","8","4","3","5","5","2","3","4","3","4","2","5","2","5","3","4","6","4","3","4","3","3","5","2","6","3","7","5","5","7","6","6","6","5","5","5","7","7","2","4","6","749636547061747713","叶","396","Male","[""好他"",""好我"",""坏我"",""坏他""]","[""强他"",""强我"",""弱我"",""弱他""]","","","","","","","","nonmatch","","","","","","","","","","key","j","16.670032786885294","683","380","j","true","nonmatch","img/trapezoid.png","强我","弱他","prac_ALT2_ability","practice_ability","","","","","","","",""
"null","<span style='color:GreenYellow; font-size: 70px;'>正确! </span>","null","html-keyboard-response","83","436504","0.0-8.0-1.0-1.0-0.0-1.36","3","3","4","2","4","4","3","3","4","4","5","-2","0","0","1","-2","0","0","1","5","5","5","4","5","4","4","5","4","4","6","7","6","8","6","7","7","7","8","4","3","5","5","2","3","4","3","4","2","5","2","5","3","4","6","4","3","4","3","3","5","2","6","3","7","5","5","7","6","6","6","5","5","5","7","7","2","4","6","749636547061747713","叶","396","Male","[""好他"",""好我"",""坏我"",""坏他""]","[""强他"",""强我"",""弱我"",""弱他""]","","","","","","","","","","","","","","","","","","","","","","","","","","","","","","feedback_test","","","","","","","",""
"991","","f","psychophysics","84","438504","0.0-8.0-1.0-1.0-0.0-0.37","3","3","4","2","4","4","3","3","4","4","5","-2","0","0","1","-2","0","0","1","5","5","5","4","5","4","4","5","4","4","6","7","6","8","6","7","7","7","8","4","3","5","5","2","3","4","3","4","2","5","2","5","3","4","6","4","3","4","3","3","5","2","6","3","7","5","5","7","6","6","6","5","5","5","7","7","2","4","6","749636547061747713","叶","396","Male","[""好他"",""好我"",""坏我"",""坏他""]","[""强他"",""强我"",""弱我"",""弱他""]","","","","","","","","match","","","","","","","","","","key","f","16.66605084745748","683","380","j","false","nonmatch","img/hexagon.png","弱我","强他","prac_ALT2_ability","practice_ability","","","","","","","",""
"null","<span style='color:red; font-size: 70px;'>错误! </span>","null","html-keyboard-response","85","439009","0.0-8.0-1.0-1.0-0.0-1.37","3","3","4","2","4","4","3","3","4","4","5","-2","0","0","1","-2","0","0","1","5","5","5","4","5","4","4","5","4","4","6","7","6","8","6","7","7","7","8","4","3","5","5","2","3","4","3","4","2","5","2","5","3","4","6","4","3","4","3","3","5","2","6","3","7","5","5","7","6","6","6","5","5","5","7","7","2","4","6","749636547061747713","叶","396","Male","[""好他"",""好我"",""坏我"",""坏他""]","[""强他"",""强我"",""弱我"",""弱他""]","","","","","","","","","","","","","","","","","","","","","","","","","","","","","","feedback_test","","","","","","","",""
"1112","","f","psychophysics","86","441128","0.0-8.0-1.0-1.0-0.0-0.38","3","3","4","2","4","4","3","3","4","4","5","-2","0","0","1","-2","0","0","1","5","5","5","4","5","4","4","5","4","4","6","7","6","8","6","7","7","7","8","4","3","5","5","2","3","4","3","4","2","5","2","5","3","4","6","4","3","4","3","3","5","2","6","3","7","5","5","7","6","6","6","5","5","5","7","7","2","4","6","749636547061747713","叶","396","Male","[""好他"",""好我"",""坏我"",""坏他""]","[""强他"",""强我"",""弱我"",""弱他""]","","","","","","","","match","","","","","","","","","","key","f","16.666322580645247","683","380","f","true","match","img/hexagon.png","强他","强他","prac_ALT2_ability","practice_ability","","","","","","","",""
"null","<span style='color:GreenYellow; font-size: 70px;'>正确! </span>","null","html-keyboard-response","87","441632","0.0-8.0-1.0-1.0-0.0-1.38","3","3","4","2","4","4","3","3","4","4","5","-2","0","0","1","-2","0","0","1","5","5","5","4","5","4","4","5","4","4","6","7","6","8","6","7","7","7","8","4","3","5","5","2","3","4","3","4","2","5","2","5","3","4","6","4","3","4","3","3","5","2","6","3","7","5","5","7","6","6","6","5","5","5","7","7","2","4","6","749636547061747713","叶","396","Male","[""好他"",""好我"",""坏我"",""坏他""]","[""强他"",""强我"",""弱我"",""弱他""]","","","","","","","","","","","","","","","","","","","","","","","","","","","","","","feedback_test","","","","","","","",""
"null","","null","psychophysics","88","443841","0.0-8.0-1.0-1.0-0.0-0.39","3","3","4","2","4","4","3","3","4","4","5","-2","0","0","1","-2","0","0","1","5","5","5","4","5","4","4","5","4","4","6","7","6","8","6","7","7","7","8","4","3","5","5","2","3","4","3","4","2","5","2","5","3","4","6","4","3","4","3","3","5","2","6","3","7","5","5","7","6","6","6","5","5","5","7","7","2","4","6","749636547061747713","叶","396","Male","[""好他"",""好我"",""坏我"",""坏他""]","[""强他"",""强我"",""弱我"",""弱他""]","","","","","","","","null","","","","","","","","","","key","null","16.66548854961835","683","380","f","false","match","img/trapezoid.png","弱他","弱他","prac_ALT2_ability","practice_ability","","","","","","","",""
"null","<span class='add_' style='color:yellow; font-size: 70px;'> 太慢! </span>","null","html-keyboard-response","89","444344","0.0-8.0-1.0-1.0-0.0-1.39","3","3","4","2","4","4","3","3","4","4","5","-2","0","0","1","-2","0","0","1","5","5","5","4","5","4","4","5","4","4","6","7","6","8","6","7","7","7","8","4","3","5","5","2","3","4","3","4","2","5","2","5","3","4","6","4","3","4","3","3","5","2","6","3","7","5","5","7","6","6","6","5","5","5","7","7","2","4","6","749636547061747713","叶","396","Male","[""好他"",""好我"",""坏我"",""坏他""]","[""强他"",""强我"",""弱我"",""弱他""]","","","","","","","","","","","","","","","","","","","","","","","","","","","","","","feedback_test","","","","","","","",""
"1125","","f","psychophysics","90","446472","0.0-8.0-1.0-1.0-0.0-0.40","3","3","4","2","4","4","3","3","4","4","5","-2","0","0","1","-2","0","0","1","5","5","5","4","5","4","4","5","4","4","6","7","6","8","6","7","7","7","8","4","3","5","5","2","3","4","3","4","2","5","2","5","3","4","6","4","3","4","3","3","5","2","6","3","7","5","5","7","6","6","6","5","5","5","7","7","2","4","6","749636547061747713","叶","396","Male","[""好他"",""好我"",""坏我"",""坏他""]","[""强他"",""强我"",""弱我"",""弱他""]","","","","","","","","match","","","","","","","","","","key","f","16.666783999999986","683","380","j","false","nonmatch","img/square.png","弱他","强我","prac_ALT2_ability","practice_ability","","","","","","","",""
"null","<span style='color:red; font-size: 70px;'>错误! </span>","null","html-keyboard-response","91","446976","0.0-8.0-1.0-1.0-0.0-1.40","3","3","4","2","4","4","3","3","4","4","5","-2","0","0","1","-2","0","0","1","5","5","5","4","5","4","4","5","4","4","6","7","6","8","6","7","7","7","8","4","3","5","5","2","3","4","3","4","2","5","2","5","3","4","6","4","3","4","3","3","5","2","6","3","7","5","5","7","6","6","6","5","5","5","7","7","2","4","6","749636547061747713","叶","396","Male","[""好他"",""好我"",""坏我"",""坏他""]","[""强他"",""强我"",""弱我"",""弱他""]","","","","","","","","","","","","","","","","","","","","","","","","","","","","","","feedback_test","","","","","","","",""
"1017","","f","psychophysics","92","449001","0.0-8.0-1.0-1.0-0.0-0.41","3","3","4","2","4","4","3","3","4","4","5","-2","0","0","1","-2","0","0","1","5","5","5","4","5","4","4","5","4","4","6","7","6","8","6","7","7","7","8","4","3","5","5","2","3","4","3","4","2","5","2","5","3","4","6","4","3","4","3","3","5","2","6","3","7","5","5","7","6","6","6","5","5","5","7","7","2","4","6","749636547061747713","叶","396","Male","[""好他"",""好我"",""坏我"",""坏他""]","[""强他"",""强我"",""弱我"",""弱他""]","","","","","","","","match","","","","","","","","","","key","f","16.665454545454217","683","380","j","false","nonmatch","img/hexagon.png","强我","强他","prac_ALT2_ability","practice_ability","","","","","","","",""
"null","<span style='color:red; font-size: 70px;'>错误! </span>","null","html-keyboard-response","93","449504","0.0-8.0-1.0-1.0-0.0-1.41","3","3","4","2","4","4","3","3","4","4","5","-2","0","0","1","-2","0","0","1","5","5","5","4","5","4","4","5","4","4","6","7","6","8","6","7","7","7","8","4","3","5","5","2","3","4","3","4","2","5","2","5","3","4","6","4","3","4","3","3","5","2","6","3","7","5","5","7","6","6","6","5","5","5","7","7","2","4","6","749636547061747713","叶","396","Male","[""好他"",""好我"",""坏我"",""坏他""]","[""强他"",""强我"",""弱我"",""弱他""]","","","","","","","","","","","","","","","","","","","","","","","","","","","","","","feedback_test","","","","","","","",""
"994","","f","psychophysics","94","451515","0.0-8.0-1.0-1.0-0.0-0.42","3","3","4","2","4","4","3","3","4","4","5","-2","0","0","1","-2","0","0","1","5","5","5","4","5","4","4","5","4","4","6","7","6","8","6","7","7","7","8","4","3","5","5","2","3","4","3","4","2","5","2","5","3","4","6","4","3","4","3","3","5","2","6","3","7","5","5","7","6","6","6","5","5","5","7","7","2","4","6","749636547061747713","叶","396","Male","[""好他"",""好我"",""坏我"",""坏他""]","[""强他"",""强我"",""弱我"",""弱他""]","","","","","","","","match","","","","","","","","","","key","f","16.669559322033667","683","380","f","true","match","img/square.png","强我","强我","prac_ALT2_ability","practice_ability","","","","","","","",""
"null","<span style='color:GreenYellow; font-size: 70px;'>正确! </span>","null","html-keyboard-response","95","452024","0.0-8.0-1.0-1.0-0.0-1.42","3","3","4","2","4","4","3","3","4","4","5","-2","0","0","1","-2","0","0","1","5","5","5","4","5","4","4","5","4","4","6","7","6","8","6","7","7","7","8","4","3","5","5","2","3","4","3","4","2","5","2","5","3","4","6","4","3","4","3","3","5","2","6","3","7","5","5","7","6","6","6","5","5","5","7","7","2","4","6","749636547061747713","叶","396","Male","[""好他"",""好我"",""坏我"",""坏他""]","[""强他"",""强我"",""弱我"",""弱他""]","","","","","","","","","","","","","","","","","","","","","","","","","","","","","","feedback_test","","","","","","","",""
"736","","f","psychophysics","96","453768","0.0-8.0-1.0-1.0-0.0-0.43","3","3","4","2","4","4","3","3","4","4","5","-2","0","0","1","-2","0","0","1","5","5","5","4","5","4","4","5","4","4","6","7","6","8","6","7","7","7","8","4","3","5","5","2","3","4","3","4","2","5","2","5","3","4","6","4","3","4","3","3","5","2","6","3","7","5","5","7","6","6","6","5","5","5","7","7","2","4","6","749636547061747713","叶","396","Male","[""好他"",""好我"",""坏我"",""坏他""]","[""强他"",""强我"",""弱我"",""弱他""]","","","","","","","","match","","","","","","","","","","key","f","16.666990384615648","683","380","f","true","match","img/ellipse.png","弱我","弱我","prac_ALT2_ability","practice_ability","","","","","","","",""
"null","<span style='color:GreenYellow; font-size: 70px;'>正确! </span>","null","html-keyboard-response","97","454272","0.0-8.0-1.0-1.0-0.0-1.43","3","3","4","2","4","4","3","3","4","4","5","-2","0","0","1","-2","0","0","1","5","5","5","4","5","4","4","5","4","4","6","7","6","8","6","7","7","7","8","4","3","5","5","2","3","4","3","4","2","5","2","5","3","4","6","4","3","4","3","3","5","2","6","3","7","5","5","7","6","6","6","5","5","5","7","7","2","4","6","749636547061747713","叶","396","Male","[""好他"",""好我"",""坏我"",""坏他""]","[""强他"",""强我"",""弱我"",""弱他""]","","","","","","","","","","","","","","","","","","","","","","","","","","","","","","feedback_test","","","","","","","",""
"871","","j","psychophysics","98","456152","0.0-8.0-1.0-1.0-0.0-0.44","3","3","4","2","4","4","3","3","4","4","5","-2","0","0","1","-2","0","0","1","5","5","5","4","5","4","4","5","4","4","6","7","6","8","6","7","7","7","8","4","3","5","5","2","3","4","3","4","2","5","2","5","3","4","6","4","3","4","3","3","5","2","6","3","7","5","5","7","6","6","6","5","5","5","7","7","2","4","6","749636547061747713","叶","396","Male","[""好他"",""好我"",""坏我"",""坏他""]","[""强他"",""强我"",""弱我"",""弱他""]","","","","","","","","nonmatch","","","","","","","","","","key","j","16.664348214285774","683","380","j","true","nonmatch","img/square.png","弱我","强我","prac_ALT2_ability","practice_ability","","","","","","","",""
"null","<span style='color:GreenYellow; font-size: 70px;'>正确! </span>","null","html-keyboard-response","99","456656","0.0-8.0-1.0-1.0-0.0-1.44","3","3","4","2","4","4","3","3","4","4","5","-2","0","0","1","-2","0","0","1","5","5","5","4","5","4","4","5","4","4","6","7","6","8","6","7","7","7","8","4","3","5","5","2","3","4","3","4","2","5","2","5","3","4","6","4","3","4","3","3","5","2","6","3","7","5","5","7","6","6","6","5","5","5","7","7","2","4","6","749636547061747713","叶","396","Male","[""好他"",""好我"",""坏我"",""坏他""]","[""强他"",""强我"",""弱我"",""弱他""]","","","","","","","","","","","","","","","","","","","","","","","","","","","","","","feedback_test","","","","","","","",""
"820","","f","psychophysics","100","458488","0.0-8.0-1.0-1.0-0.0-0.45","3","3","4","2","4","4","3","3","4","4","5","-2","0","0","1","-2","0","0","1","5","5","5","4","5","4","4","5","4","4","6","7","6","8","6","7","7","7","8","4","3","5","5","2","3","4","3","4","2","5","2","5","3","4","6","4","3","4","3","3","5","2","6","3","7","5","5","7","6","6","6","5","5","5","7","7","2","4","6","749636547061747713","叶","396","Male","[""好他"",""好我"",""坏我"",""坏他""]","[""强他"",""强我"",""弱我"",""弱他""]","","","","","","","","match","","","","","","","","","","key","f","16.67133944954108","683","380","f","true","match","img/ellipse.png","弱我","弱我","prac_ALT2_ability","practice_ability","","","","","","","",""
"null","<span style='color:GreenYellow; font-size: 70px;'>正确! </span>","null","html-keyboard-response","101","458993","0.0-8.0-1.0-1.0-0.0-1.45","3","3","4","2","4","4","3","3","4","4","5","-2","0","0","1","-2","0","0","1","5","5","5","4","5","4","4","5","4","4","6","7","6","8","6","7","7","7","8","4","3","5","5","2","3","4","3","4","2","5","2","5","3","4","6","4","3","4","3","3","5","2","6","3","7","5","5","7","6","6","6","5","5","5","7","7","2","4","6","749636547061747713","叶","396","Male","[""好他"",""好我"",""坏我"",""坏他""]","[""强他"",""强我"",""弱我"",""弱他""]","","","","","","","","","","","","","","","","","","","","","","","","","","","","","","feedback_test","","","","","","","",""
"1053","","f","psychophysics","102","461051","0.0-8.0-1.0-1.0-0.0-0.46","3","3","4","2","4","4","3","3","4","4","5","-2","0","0","1","-2","0","0","1","5","5","5","4","5","4","4","5","4","4","6","7","6","8","6","7","7","7","8","4","3","5","5","2","3","4","3","4","2","5","2","5","3","4","6","4","3","4","3","3","5","2","6","3","7","5","5","7","6","6","6","5","5","5","7","7","2","4","6","749636547061747713","叶","396","Male","[""好他"",""好我"",""坏我"",""坏他""]","[""强他"",""强我"",""弱我"",""弱他""]","","","","","","","","match","","","","","","","","","","key","f","16.663305785124045","683","380","f","true","match","img/trapezoid.png","弱他","弱他","prac_ALT2_ability","practice_ability","","","","","","","",""
"null","<span style='color:GreenYellow; font-size: 70px;'>正确! </span>","null","html-keyboard-response","103","461553","0.0-8.0-1.0-1.0-0.0-1.46","3","3","4","2","4","4","3","3","4","4","5","-2","0","0","1","-2","0","0","1","5","5","5","4","5","4","4","5","4","4","6","7","6","8","6","7","7","7","8","4","3","5","5","2","3","4","3","4","2","5","2","5","3","4","6","4","3","4","3","3","5","2","6","3","7","5","5","7","6","6","6","5","5","5","7","7","2","4","6","749636547061747713","叶","396","Male","[""好他"",""好我"",""坏我"",""坏他""]","[""强他"",""强我"",""弱我"",""弱他""]","","","","","","","","","","","","","","","","","","","","","","","","","","","","","","feedback_test","","","","","","","",""
"null","","null","psychophysics","104","463793","0.0-8.0-1.0-1.0-0.0-0.47","3","3","4","2","4","4","3","3","4","4","5","-2","0","0","1","-2","0","0","1","5","5","5","4","5","4","4","5","4","4","6","7","6","8","6","7","7","7","8","4","3","5","5","2","3","4","3","4","2","5","2","5","3","4","6","4","3","4","3","3","5","2","6","3","7","5","5","7","6","6","6","5","5","5","7","7","2","4","6","749636547061747713","叶","396","Male","[""好他"",""好我"",""坏我"",""坏他""]","[""强他"",""强我"",""弱我"",""弱他""]","","","","","","","","null","","","","","","","","","","key","null","16.660977272727354","683","380","j","false","nonmatch","img/square.png","强他","强我","prac_ALT2_ability","practice_ability","","","","","","","",""
"null","<span class='add_' style='color:yellow; font-size: 70px;'> 太慢! </span>","null","html-keyboard-response","105","464296","0.0-8.0-1.0-1.0-0.0-1.47","3","3","4","2","4","4","3","3","4","4","5","-2","0","0","1","-2","0","0","1","5","5","5","4","5","4","4","5","4","4","6","7","6","8","6","7","7","7","8","4","3","5","5","2","3","4","3","4","2","5","2","5","3","4","6","4","3","4","3","3","5","2","6","3","7","5","5","7","6","6","6","5","5","5","7","7","2","4","6","749636547061747713","叶","396","Male","[""好他"",""好我"",""坏我"",""坏他""]","[""强他"",""强我"",""弱我"",""弱他""]","","","","","","","","","","","","","","","","","","","","","","","","","","","","","","feedback_test","","","","","","","",""
"39152","<style>.context{color:white; font-size: 35px; line-height:40px}</style>                          <div><p class='context'>您正确回答了60% 的试次。</p><p class='context'>您的平均反应时为949毫秒。</p><p class='context'>恭喜您完成练习。按空格键进入正式实验。</p><p class='footer' style='color:white;font-size: 35px; line-height:40px;'>请在进入正式实验实验之前将您的<span style='color: lightgreen;'>食指</span>放在电脑键盘的相应键位上进行按键。</p>"," ","html-keyboard-response","106","503456","0.0-8.0-1.0-2.0","3","3","4","2","4","4","3","3","4","4","5","-2","0","0","1","-2","0","0","1","5","5","5","4","5","4","4","5","4","4","6","7","6","8","6","7","7","7","8","4","3","5","5","2","3","4","3","4","2","5","2","5","3","4","6","4","3","4","3","3","5","2","6","3","7","5","5","7","6","6","6","5","5","5","7","7","2","4","6","749636547061747713","叶","396","Male","[""好他"",""好我"",""坏我"",""坏他""]","[""强他"",""强我"",""弱我"",""弱他""]","","","","","","","","","","","","","","","","","","","","","","","","","","","","","","","","","","","","","",""
"1737","
  <p style='color: white; font-size: 22px'>请您将手指放在按键上，准备进入正式的匹配任务。</p>
  <p> <div style = ""color: green""><按空格键进入下一阶段的匹配任务></div></p>
  "," ","html-keyboard-response","107","505207","0.0-8.0-1.0-3.0","3","3","4","2","4","4","3","3","4","4","5","-2","0","0","1","-2","0","0","1","5","5","5","4","5","4","4","5","4","4","6","7","6","8","6","7","7","7","8","4","3","5","5","2","3","4","3","4","2","5","2","5","3","4","6","4","3","4","3","3","5","2","6","3","7","5","5","7","6","6","6","5","5","5","7","7","2","4","6","749636547061747713","叶","396","Male","[""好他"",""好我"",""坏我"",""坏他""]","[""强他"",""强我"",""弱我"",""弱他""]","","","","","","","","","","","","","","","","","","","","","","","","","","","","","","","","","","","","","",""
"921","","j","psychophysics","108","507135","0.0-8.0-1.0-4.0-0.0-0.0","3","3","4","2","4","4","3","3","4","4","5","-2","0","0","1","-2","0","0","1","5","5","5","4","5","4","4","5","4","4","6","7","6","8","6","7","7","7","8","4","3","5","5","2","3","4","3","4","2","5","2","5","3","4","6","4","3","4","3","3","5","2","6","3","7","5","5","7","6","6","6","5","5","5","7","7","2","4","6","749636547061747713","叶","396","Male","[""好他"",""好我"",""坏我"",""坏他""]","[""强他"",""强我"",""弱我"",""弱他""]","","","","","","","","nonmatch","","","","","","","","","","key","j","16.819745614035096","683","380","j","true","nonmatch","img/ellipse.png","弱他","弱我","ALT2","ability","","","","","","","",""
"null","<span style='color:GreenYellow; font-size: 70px;'>正确! </span>","null","html-keyboard-response","109","507641","0.0-8.0-1.0-4.0-0.0-1.0","3","3","4","2","4","4","3","3","4","4","5","-2","0","0","1","-2","0","0","1","5","5","5","4","5","4","4","5","4","4","6","7","6","8","6","7","7","7","8","4","3","5","5","2","3","4","3","4","2","5","2","5","3","4","6","4","3","4","3","3","5","2","6","3","7","5","5","7","6","6","6","5","5","5","7","7","2","4","6","749636547061747713","叶","396","Male","[""好他"",""好我"",""坏我"",""坏他""]","[""强他"",""强我"",""弱我"",""弱他""]","","","","","","","","","","","","","","","","","","","","","","","","","","","","","","feedback_test","","","","","","","",""
"1036","","f","psychophysics","110","509681","0.0-8.0-1.0-4.0-0.0-0.1","3","3","4","2","4","4","3","3","4","4","5","-2","0","0","1","-2","0","0","1","5","5","5","4","5","4","4","5","4","4","6","7","6","8","6","7","7","7","8","4","3","5","5","2","3","4","3","4","2","5","2","5","3","4","6","4","3","4","3","3","5","2","6","3","7","5","5","7","6","6","6","5","5","5","7","7","2","4","6","749636547061747713","叶","396","Male","[""好他"",""好我"",""坏我"",""坏他""]","[""强他"",""强我"",""弱我"",""弱他""]","","","","","","","","match","","","","","","","","","","key","f","16.813858333333336","683","380","f","true","match","img/hexagon.png","强他","强他","ALT2","ability","","","","","","","",""
"null","<span style='color:GreenYellow; font-size: 70px;'>正确! </span>","null","html-keyboard-response","111","510184","0.0-8.0-1.0-4.0-0.0-1.1","3","3","4","2","4","4","3","3","4","4","5","-2","0","0","1","-2","0","0","1","5","5","5","4","5","4","4","5","4","4","6","7","6","8","6","7","7","7","8","4","3","5","5","2","3","4","3","4","2","5","2","5","3","4","6","4","3","4","3","3","5","2","6","3","7","5","5","7","6","6","6","5","5","5","7","7","2","4","6","749636547061747713","叶","396","Male","[""好他"",""好我"",""坏我"",""坏他""]","[""强他"",""强我"",""弱我"",""弱他""]","","","","","","","","","","","","","","","","","","","","","","","","","","","","","","feedback_test","","","","","","","",""
"955","","j","psychophysics","112","512151","0.0-8.0-1.0-4.0-0.0-0.2","3","3","4","2","4","4","3","3","4","4","5","-2","0","0","1","-2","0","0","1","5","5","5","4","5","4","4","5","4","4","6","7","6","8","6","7","7","7","8","4","3","5","5","2","3","4","3","4","2","5","2","5","3","4","6","4","3","4","3","3","5","2","6","3","7","5","5","7","6","6","6","5","5","5","7","7","2","4","6","749636547061747713","叶","396","Male","[""好他"",""好我"",""坏我"",""坏他""]","[""强他"",""强我"",""弱我"",""弱他""]","","","","","","","","nonmatch","","","","","","","","","","key","j","16.812655172413635","683","380","j","true","nonmatch","img/trapezoid.png","弱我","弱他","ALT2","ability","","","","","","","",""
"null","<span style='color:GreenYellow; font-size: 70px;'>正确! </span>","null","html-keyboard-response","113","512656","0.0-8.0-1.0-4.0-0.0-1.2","3","3","4","2","4","4","3","3","4","4","5","-2","0","0","1","-2","0","0","1","5","5","5","4","5","4","4","5","4","4","6","7","6","8","6","7","7","7","8","4","3","5","5","2","3","4","3","4","2","5","2","5","3","4","6","4","3","4","3","3","5","2","6","3","7","5","5","7","6","6","6","5","5","5","7","7","2","4","6","749636547061747713","叶","396","Male","[""好他"",""好我"",""坏我"",""坏他""]","[""强他"",""强我"",""弱我"",""弱他""]","","","","","","","","","","","","","","","","","","","","","","","","","","","","","","feedback_test","","","","","","","",""
"979","","f","psychophysics","114","514640","0.0-8.0-1.0-4.0-0.0-0.3","3","3","4","2","4","4","3","3","4","4","5","-2","0","0","1","-2","0","0","1","5","5","5","4","5","4","4","5","4","4","6","7","6","8","6","7","7","7","8","4","3","5","5","2","3","4","3","4","2","5","2","5","3","4","6","4","3","4","3","3","5","2","6","3","7","5","5","7","6","6","6","5","5","5","7","7","2","4","6","749636547061747713","叶","396","Male","[""好他"",""好我"",""坏我"",""坏他""]","[""强他"",""强我"",""弱我"",""弱他""]","","","","","","","","match","","","","","","","","","","key","f","16.954905172414048","683","380","f","true","match","img/square.png","强我","强我","ALT2","ability","","","","","","","",""
"null","<span style='color:GreenYellow; font-size: 70px;'>正确! </span>","null","html-keyboard-response","115","515144","0.0-8.0-1.0-4.0-0.0-1.3","3","3","4","2","4","4","3","3","4","4","5","-2","0","0","1","-2","0","0","1","5","5","5","4","5","4","4","5","4","4","6","7","6","8","6","7","7","7","8","4","3","5","5","2","3","4","3","4","2","5","2","5","3","4","6","4","3","4","3","3","5","2","6","3","7","5","5","7","6","6","6","5","5","5","7","7","2","4","6","749636547061747713","叶","396","Male","[""好他"",""好我"",""坏我"",""坏他""]","[""强他"",""强我"",""弱我"",""弱他""]","","","","","","","","","","","","","","","","","","","","","","","","","","","","","","feedback_test","","","","","","","",""
"1103","","j","psychophysics","116","517255","0.0-8.0-1.0-4.0-0.0-0.4","3","3","4","2","4","4","3","3","4","4","5","-2","0","0","1","-2","0","0","1","5","5","5","4","5","4","4","5","4","4","6","7","6","8","6","7","7","7","8","4","3","5","5","2","3","4","3","4","2","5","2","5","3","4","6","4","3","4","3","3","5","2","6","3","7","5","5","7","6","6","6","5","5","5","7","7","2","4","6","749636547061747713","叶","396","Male","[""好他"",""好我"",""坏我"",""坏他""]","[""强他"",""强我"",""弱我"",""弱他""]","","","","","","","","nonmatch","","","","","","","","","","key","j","16.80419354838687","683","380","j","true","nonmatch","img/square.png","强他","强我","ALT2","ability","","","","","","","",""
"null","<span style='color:GreenYellow; font-size: 70px;'>正确! </span>","null","html-keyboard-response","117","517760","0.0-8.0-1.0-4.0-0.0-1.4","3","3","4","2","4","4","3","3","4","4","5","-2","0","0","1","-2","0","0","1","5","5","5","4","5","4","4","5","4","4","6","7","6","8","6","7","7","7","8","4","3","5","5","2","3","4","3","4","2","5","2","5","3","4","6","4","3","4","3","3","5","2","6","3","7","5","5","7","6","6","6","5","5","5","7","7","2","4","6","749636547061747713","叶","396","Male","[""好他"",""好我"",""坏我"",""坏他""]","[""强他"",""强我"",""弱我"",""弱他""]","","","","","","","","","","","","","","","","","","","","","","","","","","","","","","feedback_test","","","","","","","",""
"1075","","j","psychophysics","118","519840","0.0-8.0-1.0-4.0-0.0-0.5","3","3","4","2","4","4","3","3","4","4","5","-2","0","0","1","-2","0","0","1","5","5","5","4","5","4","4","5","4","4","6","7","6","8","6","7","7","7","8","4","3","5","5","2","3","4","3","4","2","5","2","5","3","4","6","4","3","4","3","3","5","2","6","3","7","5","5","7","6","6","6","5","5","5","7","7","2","4","6","749636547061747713","叶","396","Male","[""好他"",""好我"",""坏我"",""坏他""]","[""强他"",""强我"",""弱我"",""弱他""]","","","","","","","","nonmatch","","","","","","","","","","key","j","16.674878048780563","683","380","j","true","nonmatch","img/hexagon.png","弱他","强他","ALT2","ability","","","","","","","",""
"null","<span style='color:GreenYellow; font-size: 70px;'>正确! </span>","null","html-keyboard-response","119","520345","0.0-8.0-1.0-4.0-0.0-1.5","3","3","4","2","4","4","3","3","4","4","5","-2","0","0","1","-2","0","0","1","5","5","5","4","5","4","4","5","4","4","6","7","6","8","6","7","7","7","8","4","3","5","5","2","3","4","3","4","2","5","2","5","3","4","6","4","3","4","3","3","5","2","6","3","7","5","5","7","6","6","6","5","5","5","7","7","2","4","6","749636547061747713","叶","396","Male","[""好他"",""好我"",""坏我"",""坏他""]","[""强他"",""强我"",""弱我"",""弱他""]","","","","","","","","","","","","","","","","","","","","","","","","","","","","","","feedback_test","","","","","","","",""
"807","","j","psychophysics","120","522161","0.0-8.0-1.0-4.0-0.0-0.6","3","3","4","2","4","4","3","3","4","4","5","-2","0","0","1","-2","0","0","1","5","5","5","4","5","4","4","5","4","4","6","7","6","8","6","7","7","7","8","4","3","5","5","2","3","4","3","4","2","5","2","5","3","4","6","4","3","4","3","3","5","2","6","3","7","5","5","7","6","6","6","5","5","5","7","7","2","4","6","749636547061747713","叶","396","Male","[""好他"",""好我"",""坏我"",""坏他""]","[""强他"",""强我"",""弱我"",""弱他""]","","","","","","","","nonmatch","","","","","","","","","","key","j","16.822849056604404","683","380","j","true","nonmatch","img/ellipse.png","强他","弱我","ALT2","ability","","","","","","","",""
"null","<span style='color:GreenYellow; font-size: 70px;'>正确! </span>","null","html-keyboard-response","121","522665","0.0-8.0-1.0-4.0-0.0-1.6","3","3","4","2","4","4","3","3","4","4","5","-2","0","0","1","-2","0","0","1","5","5","5","4","5","4","4","5","4","4","6","7","6","8","6","7","7","7","8","4","3","5","5","2","3","4","3","4","2","5","2","5","3","4","6","4","3","4","3","3","5","2","6","3","7","5","5","7","6","6","6","5","5","5","7","7","2","4","6","749636547061747713","叶","396","Male","[""好他"",""好我"",""坏我"",""坏他""]","[""强他"",""强我"",""弱我"",""弱他""]","","","","","","","","","","","","","","","","","","","","","","","","","","","","","","feedback_test","","","","","","","",""
"975","","f","psychophysics","122","524648","0.0-8.0-1.0-4.0-0.0-0.7","3","3","4","2","4","4","3","3","4","4","5","-2","0","0","1","-2","0","0","1","5","5","5","4","5","4","4","5","4","4","6","7","6","8","6","7","7","7","8","4","3","5","5","2","3","4","3","4","2","5","2","5","3","4","6","4","3","4","3","3","5","2","6","3","7","5","5","7","6","6","6","5","5","5","7","7","2","4","6","749636547061747713","叶","396","Male","[""好他"",""好我"",""坏我"",""坏他""]","[""强他"",""强我"",""弱我"",""弱他""]","","","","","","","","match","","","","","","","","","","key","f","16.8104871794866","683","380","f","true","match","img/trapezoid.png","弱他","弱他","ALT2","ability","","","","","","","",""
"null","<span style='color:GreenYellow; font-size: 70px;'>正确! </span>","null","html-keyboard-response","123","525154","0.0-8.0-1.0-4.0-0.0-1.7","3","3","4","2","4","4","3","3","4","4","5","-2","0","0","1","-2","0","0","1","5","5","5","4","5","4","4","5","4","4","6","7","6","8","6","7","7","7","8","4","3","5","5","2","3","4","3","4","2","5","2","5","3","4","6","4","3","4","3","3","5","2","6","3","7","5","5","7","6","6","6","5","5","5","7","7","2","4","6","749636547061747713","叶","396","Male","[""好他"",""好我"",""坏我"",""坏他""]","[""强他"",""强我"",""弱我"",""弱他""]","","","","","","","","","","","","","","","","","","","","","","","","","","","","","","feedback_test","","","","","","","",""
"969","","j","psychophysics","124","527136","0.0-8.0-1.0-4.0-0.0-0.8","3","3","4","2","4","4","3","3","4","4","5","-2","0","0","1","-2","0","0","1","5","5","5","4","5","4","4","5","4","4","6","7","6","8","6","7","7","7","8","4","3","5","5","2","3","4","3","4","2","5","2","5","3","4","6","4","3","4","3","3","5","2","6","3","7","5","5","7","6","6","6","5","5","5","7","7","2","4","6","749636547061747713","叶","396","Male","[""好他"",""好我"",""坏我"",""坏他""]","[""强他"",""强我"",""弱我"",""弱他""]","","","","","","","","nonmatch","","","","","","","","","","key","j","16.66760169491527","683","380","j","true","nonmatch","img/ellipse.png","强我","弱我","ALT2","ability","","","","","","","",""
"null","<span style='color:GreenYellow; font-size: 70px;'>正确! </span>","null","html-keyboard-response","125","527642","0.0-8.0-1.0-4.0-0.0-1.8","3","3","4","2","4","4","3","3","4","4","5","-2","0","0","1","-2","0","0","1","5","5","5","4","5","4","4","5","4","4","6","7","6","8","6","7","7","7","8","4","3","5","5","2","3","4","3","4","2","5","2","5","3","4","6","4","3","4","3","3","5","2","6","3","7","5","5","7","6","6","6","5","5","5","7","7","2","4","6","749636547061747713","叶","396","Male","[""好他"",""好我"",""坏我"",""坏他""]","[""强他"",""强我"",""弱我"",""弱他""]","","","","","","","","","","","","","","","","","","","","","","","","","","","","","","feedback_test","","","","","","","",""
"1042","","j","psychophysics","126","529688","0.0-8.0-1.0-4.0-0.0-0.9","3","3","4","2","4","4","3","3","4","4","5","-2","0","0","1","-2","0","0","1","5","5","5","4","5","4","4","5","4","4","6","7","6","8","6","7","7","7","8","4","3","5","5","2","3","4","3","4","2","5","2","5","3","4","6","4","3","4","3","3","5","2","6","3","7","5","5","7","6","6","6","5","5","5","7","7","2","4","6","749636547061747713","叶","396","Male","[""好他"",""好我"",""坏我"",""坏他""]","[""强他"",""强我"",""弱我"",""弱他""]","","","","","","","","nonmatch","","","","","","","","","","key","j","16.66000833333334","683","380","j","true","nonmatch","img/hexagon.png","强我","强他","ALT2","ability","","","","","","","",""
"null","<span style='color:GreenYellow; font-size: 70px;'>正确! </span>","null","html-keyboard-response","127","530194","0.0-8.0-1.0-4.0-0.0-1.9","3","3","4","2","4","4","3","3","4","4","5","-2","0","0","1","-2","0","0","1","5","5","5","4","5","4","4","5","4","4","6","7","6","8","6","7","7","7","8","4","3","5","5","2","3","4","3","4","2","5","2","5","3","4","6","4","3","4","3","3","5","2","6","3","7","5","5","7","6","6","6","5","5","5","7","7","2","4","6","749636547061747713","叶","396","Male","[""好他"",""好我"",""坏我"",""坏他""]","[""强他"",""强我"",""弱我"",""弱他""]","","","","","","","","","","","","","","","","","","","","","","","","","","","","","","feedback_test","","","","","","","",""
"1013","","j","psychophysics","128","532209","0.0-8.0-1.0-4.0-0.0-0.10","3","3","4","2","4","4","3","3","4","4","5","-2","0","0","1","-2","0","0","1","5","5","5","4","5","4","4","5","4","4","6","7","6","8","6","7","7","7","8","4","3","5","5","2","3","4","3","4","2","5","2","5","3","4","6","4","3","4","3","3","5","2","6","3","7","5","5","7","6","6","6","5","5","5","7","7","2","4","6","749636547061747713","叶","396","Male","[""好他"",""好我"",""坏我"",""坏他""]","[""强他"",""强我"",""弱我"",""弱他""]","","","","","","","","nonmatch","","","","","","","","","","key","j","16.671915254236982","683","380","j","true","nonmatch","img/square.png","弱他","强我","ALT2","ability","","","","","","","",""
"null","<span style='color:GreenYellow; font-size: 70px;'>正确! </span>","null","html-keyboard-response","129","532721","0.0-8.0-1.0-4.0-0.0-1.10","3","3","4","2","4","4","3","3","4","4","5","-2","0","0","1","-2","0","0","1","5","5","5","4","5","4","4","5","4","4","6","7","6","8","6","7","7","7","8","4","3","5","5","2","3","4","3","4","2","5","2","5","3","4","6","4","3","4","3","3","5","2","6","3","7","5","5","7","6","6","6","5","5","5","7","7","2","4","6","749636547061747713","叶","396","Male","[""好他"",""好我"",""坏我"",""坏他""]","[""强他"",""强我"",""弱我"",""弱他""]","","","","","","","","","","","","","","","","","","","","","","","","","","","","","","feedback_test","","","","","","","",""
"1055","","f","psychophysics","130","534784","0.0-8.0-1.0-4.0-0.0-0.11","3","3","4","2","4","4","3","3","4","4","5","-2","0","0","1","-2","0","0","1","5","5","5","4","5","4","4","5","4","4","6","7","6","8","6","7","7","7","8","4","3","5","5","2","3","4","3","4","2","5","2","5","3","4","6","4","3","4","3","3","5","2","6","3","7","5","5","7","6","6","6","5","5","5","7","7","2","4","6","749636547061747713","叶","396","Male","[""好他"",""好我"",""坏我"",""坏他""]","[""强他"",""强我"",""弱我"",""弱他""]","","","","","","","","match","","","","","","","","","","key","f","16.804426229508312","683","380","f","true","match","img/hexagon.png","强他","强他","ALT2","ability","","","","","","","",""
"null","<span style='color:GreenYellow; font-size: 70px;'>正确! </span>","null","html-keyboard-response","131","535289","0.0-8.0-1.0-4.0-0.0-1.11","3","3","4","2","4","4","3","3","4","4","5","-2","0","0","1","-2","0","0","1","5","5","5","4","5","4","4","5","4","4","6","7","6","8","6","7","7","7","8","4","3","5","5","2","3","4","3","4","2","5","2","5","3","4","6","4","3","4","3","3","5","2","6","3","7","5","5","7","6","6","6","5","5","5","7","7","2","4","6","749636547061747713","叶","396","Male","[""好他"",""好我"",""坏我"",""坏他""]","[""强他"",""强我"",""弱我"",""弱他""]","","","","","","","","","","","","","","","","","","","","","","","","","","","","","","feedback_test","","","","","","","",""
"1097","","f","psychophysics","132","537394","0.0-8.0-1.0-4.0-0.0-0.12","3","3","4","2","4","4","3","3","4","4","5","-2","0","0","1","-2","0","0","1","5","5","5","4","5","4","4","5","4","4","6","7","6","8","6","7","7","7","8","4","3","5","5","2","3","4","3","4","2","5","2","5","3","4","6","4","3","4","3","3","5","2","6","3","7","5","5","7","6","6","6","5","5","5","7","7","2","4","6","749636547061747713","叶","396","Male","[""好他"",""好我"",""坏我"",""坏他""]","[""强他"",""强我"",""弱我"",""弱他""]","","","","","","","","match","","","","","","","","","","key","f","16.804112903225505","683","380","j","false","nonmatch","img/trapezoid.png","强他","弱他","ALT2","ability","","","","","","","",""
"null","<span style='color:red; font-size: 70px;'>错误! </span>","null","html-keyboard-response","133","537905","0.0-8.0-1.0-4.0-0.0-1.12","3","3","4","2","4","4","3","3","4","4","5","-2","0","0","1","-2","0","0","1","5","5","5","4","5","4","4","5","4","4","6","7","6","8","6","7","7","7","8","4","3","5","5","2","3","4","3","4","2","5","2","5","3","4","6","4","3","4","3","3","5","2","6","3","7","5","5","7","6","6","6","5","5","5","7","7","2","4","6","749636547061747713","叶","396","Male","[""好他"",""好我"",""坏我"",""坏他""]","[""强他"",""强我"",""弱我"",""弱他""]","","","","","","","","","","","","","","","","","","","","","","","","","","","","","","feedback_test","","","","","","","",""
"1139","","j","psychophysics","134","540048","0.0-8.0-1.0-4.0-0.0-0.13","3","3","4","2","4","4","3","3","4","4","5","-2","0","0","1","-2","0","0","1","5","5","5","4","5","4","4","5","4","4","6","7","6","8","6","7","7","7","8","4","3","5","5","2","3","4","3","4","2","5","2","5","3","4","6","4","3","4","3","3","5","2","6","3","7","5","5","7","6","6","6","5","5","5","7","7","2","4","6","749636547061747713","叶","396","Male","[""好他"",""好我"",""坏我"",""坏他""]","[""强他"",""强我"",""弱我"",""弱他""]","","","","","","","","nonmatch","","","","","","","","","","key","j","16.655429687500146","683","380","j","true","nonmatch","img/hexagon.png","弱我","强他","ALT2","ability","","","","","","","",""
"null","<span style='color:GreenYellow; font-size: 70px;'>正确! </span>","null","html-keyboard-response","135","540553","0.0-8.0-1.0-4.0-0.0-1.13","3","3","4","2","4","4","3","3","4","4","5","-2","0","0","1","-2","0","0","1","5","5","5","4","5","4","4","5","4","4","6","7","6","8","6","7","7","7","8","4","3","5","5","2","3","4","3","4","2","5","2","5","3","4","6","4","3","4","3","3","5","2","6","3","7","5","5","7","6","6","6","5","5","5","7","7","2","4","6","749636547061747713","叶","396","Male","[""好他"",""好我"",""坏我"",""坏他""]","[""强他"",""强我"",""弱我"",""弱他""]","","","","","","","","","","","","","","","","","","","","","","","","","","","","","","feedback_test","","","","","","","",""
"872","","f","psychophysics","136","542431","0.0-8.0-1.0-4.0-0.0-0.14","3","3","4","2","4","4","3","3","4","4","5","-2","0","0","1","-2","0","0","1","5","5","5","4","5","4","4","5","4","4","6","7","6","8","6","7","7","7","8","4","3","5","5","2","3","4","3","4","2","5","2","5","3","4","6","4","3","4","3","3","5","2","6","3","7","5","5","7","6","6","6","5","5","5","7","7","2","4","6","749636547061747713","叶","396","Male","[""好他"",""好我"",""坏我"",""坏他""]","[""强他"",""强我"",""弱我"",""弱他""]","","","","","","","","match","","","","","","","","","","key","f","16.814387387387363","683","380","f","true","match","img/square.png","强我","强我","ALT2","ability","","","","","","","",""
"null","<span style='color:GreenYellow; font-size: 70px;'>正确! </span>","null","html-keyboard-response","137","542937","0.0-8.0-1.0-4.0-0.0-1.14","3","3","4","2","4","4","3","3","4","4","5","-2","0","0","1","-2","0","0","1","5","5","5","4","5","4","4","5","4","4","6","7","6","8","6","7","7","7","8","4","3","5","5","2","3","4","3","4","2","5","2","5","3","4","6","4","3","4","3","3","5","2","6","3","7","5","5","7","6","6","6","5","5","5","7","7","2","4","6","749636547061747713","叶","396","Male","[""好他"",""好我"",""坏我"",""坏他""]","[""强他"",""强我"",""弱我"",""弱他""]","","","","","","","","","","","","","","","","","","","","","","","","","","","","","","feedback_test","","","","","","","",""
"787","","f","psychophysics","138","544729","0.0-8.0-1.0-4.0-0.0-0.15","3","3","4","2","4","4","3","3","4","4","5","-2","0","0","1","-2","0","0","1","5","5","5","4","5","4","4","5","4","4","6","7","6","8","6","7","7","7","8","4","3","5","5","2","3","4","3","4","2","5","2","5","3","4","6","4","3","4","3","3","5","2","6","3","7","5","5","7","6","6","6","5","5","5","7","7","2","4","6","749636547061747713","叶","396","Male","[""好他"",""好我"",""坏我"",""坏他""]","[""强他"",""强我"",""弱我"",""弱他""]","","","","","","","","match","","","","","","","","","","key","f","16.815707547169502","683","380","f","true","match","img/ellipse.png","弱我","弱我","ALT2","ability","","","","","","","",""
"null","<span style='color:GreenYellow; font-size: 70px;'>正确! </span>","null","html-keyboard-response","139","545233","0.0-8.0-1.0-4.0-0.0-1.15","3","3","4","2","4","4","3","3","4","4","5","-2","0","0","1","-2","0","0","1","5","5","5","4","5","4","4","5","4","4","6","7","6","8","6","7","7","7","8","4","3","5","5","2","3","4","3","4","2","5","2","5","3","4","6","4","3","4","3","3","5","2","6","3","7","5","5","7","6","6","6","5","5","5","7","7","2","4","6","749636547061747713","叶","396","Male","[""好他"",""好我"",""坏我"",""坏他""]","[""强他"",""强我"",""弱我"",""弱他""]","","","","","","","","","","","","","","","","","","","","","","","","","","","","","","feedback_test","","","","","","","",""
