"rt","stimulus","response","trial_type","trial_index","time_elapsed","internal_node_id","swb_1","swb_2","swb_3","swb_4","swb_5","LOT_1","LOT_2","LOT_3","LOT_4","LOT_5","LOT_6","IPC_1","IPC_2","IPC_3","IPC_4","IPC_5","IPC_6","IPC_7","IPC_8","MorIden_1","MorIden_2","MorIden_3","MorIden_4","MorIden_5","MorIden_6","MorIden_7","MorIden_8","MorIden_9","MorIden_10","moralSeImag_1","moralSeImag_2","moralSeImag_3","moralSeImag_4","moralSeImag_5","moralSeImag_6","moralSeImag_7","moralSeImag_8","moralSeImag_9","sde_1","sde_2","sde_3","sde_4","sde_5","sde_6","sde_7","sde_8","sde_9","sde_10","sde_11","sde_12","sde_13","sde_14","sde_15","sde_16","sde_17","sde_18","sde_19","sde_20","IM_1","IM_2","IM_3","IM_4","IM_5","IM_6","IM_7","IM_8","IM_9","IM_10","IM_11","IM_12","IM_13","IM_14","IM_15","IM_16","IM_17","IM_18","IM_19","IM_20","subj_idx","friend_name","ParticipantID","Sex","Word","Word2","value","success","timeout","failed_images","failed_audio","failed_video","user_agent","responses","item_order","radio_event_ids","radio_event_times","key_event_times","mouse_event_times","straightlining","zigzagging","honeypot","view_history","response_type","key_press","avg_frame_time","center_x","center_y","correct_response","correct","identity","Image","word","condition","task_id","screen_id","time_stamp","person","valence","domain","math","status","duration","question_order"
"95632","
   <p><div style='color:white; font-size: 25px'>您好，欢迎参加本次实验。</div></p>
   <p><div style='color:white; font-size: 25px'>为充分保障您的权利，请确保您已经知晓并同意《参与实验同意书》以及《数据公开知情同意书》。</div></p>
   <p><div style='color:white; font-size: 25px'>如果您未见过上述内容，请咨询实验员。</div></p>
   <p style='color:white; font-size: 25px'>如果您选择继续实验，则表示您已经清楚两份知情同意书的内容并同意。</p>
   <p><div style = ""color: red;font-size:30px;"">请确保您记得day0的实验编号，您将在本次实验输入该编号，若您忘记，请咨询实验员后作答。</div></p>
   <p> <div style = ""color: green""><按空格键至下页></div> </p>
   "," ","html-keyboard-response","0","95633","0.0-0.0","6","6","7","5","5","5","5","5","5","5","5","2","2","1","2","1","2","2","2","5","5","5","5","5","4","4","4","5","5","7","8","8","8","7","8","7","9","8","6","7","4","7","7","7","6","7","7","7","6","7","7","7","6","7","7","7","5","7","7","7","7","7","7","7","7","7","7","7","7","7","7","7","6","7","7","7","7","7","718581844601208832","周","216","Male","[""好我"",""坏我"",""好他"",""坏他""]","[""强我"",""弱我"",""强他"",""弱他""]","","","","","","","","","","","","","","","","","","","","","","","","","","","","","","","","","","","","","",""
"","","","call-function","1","95634","0.0-1.0-0.0","6","6","7","5","5","5","5","5","5","5","5","2","2","1","2","1","2","2","2","5","5","5","5","5","4","4","4","5","5","7","8","8","8","7","8","7","9","8","6","7","4","7","7","7","6","7","7","7","6","7","7","7","6","7","7","7","5","7","7","7","7","7","7","7","7","7","7","7","7","7","7","7","6","7","7","7","7","7","718581844601208832","周","216","Male","[""好我"",""坏我"",""好他"",""坏他""]","[""强我"",""弱我"",""强他"",""弱他""]","","","","","","","","","","","","","","","","","","","","","","","","","","","","","","","","","","","","","",""
"52790","","[{""name"":""Sex"",""value"":""0""},{""name"":""friend_name"",""value"":""周""},{""name"":""ParticipantID"",""value"":""216""}]","survey-html-form","2","148425","0.0-1.0-1.0","6","6","7","5","5","5","5","5","5","5","5","2","2","1","2","1","2","2","2","5","5","5","5","5","4","4","4","5","5","7","8","8","8","7","8","7","9","8","6","7","4","7","7","7","6","7","7","7","6","7","7","7","6","7","7","7","5","7","7","7","7","7","7","7","7","7","7","7","7","7","7","7","6","7","7","7","7","7","718581844601208832","周","216","Male","[""好我"",""坏我"",""好他"",""坏他""]","[""强我"",""弱我"",""强他"",""弱他""]","","","","","","","","","","","","","","","","","","","","","","","","","","","","","","","","","","","","","",""
"","","","preload","3","148690","0.0-2.0","6","6","7","5","5","5","5","5","5","5","5","2","2","1","2","1","2","2","2","5","5","5","5","5","4","4","4","5","5","7","8","8","8","7","8","7","9","8","6","7","4","7","7","7","6","7","7","7","6","7","7","7","6","7","7","7","5","7","7","7","7","7","7","7","7","7","7","7","7","7","7","7","6","7","7","7","7","7","718581844601208832","周","216","Male","[""好我"",""坏我"",""好他"",""坏他""]","[""强我"",""弱我"",""强他"",""弱他""]","","true","false","[]","[]","[]","","","","","","","","","","","","","","","","","","","","","","","","","","","","","","","",""
"","","","fullscreen","4","149710","0.0-3.0","6","6","7","5","5","5","5","5","5","5","5","2","2","1","2","1","2","2","2","5","5","5","5","5","4","4","4","5","5","7","8","8","8","7","8","7","9","8","6","7","4","7","7","7","6","7","7","7","6","7","7","7","6","7","7","7","5","7","7","7","7","7","7","7","7","7","7","7","7","7","7","7","6","7","7","7","7","7","718581844601208832","周","216","Male","[""好我"",""坏我"",""好他"",""坏他""]","[""强我"",""弱我"",""强他"",""弱他""]","","true","","","","","{}","","","","","","","","","","","","","","","","","","","","","","","","","","","","","","",""
"14962","","{""Q01"":""6"",""Q02"":""6"",""Q03"":""7"",""Q04"":""5"",""Q05"":""5""}","survey-template","5","164674","0.0-4.0","6","6","7","5","5","5","5","5","5","5","5","2","2","1","2","1","2","2","2","5","5","5","5","5","4","4","4","5","5","7","8","8","8","7","8","7","9","8","6","7","4","7","7","7","6","7","7","7","6","7","7","7","6","7","7","7","5","7","7","7","7","7","7","7","7","7","7","7","7","7","7","7","6","7","7","7","7","7","718581844601208832","周","216","Male","[""好我"",""坏我"",""好他"",""坏他""]","[""强我"",""弱我"",""强他"",""弱他""]","","","","","","","","{""Q01"":""6"",""Q02"":""6"",""Q03"":""7"",""Q04"":""5"",""Q05"":""5""}","[0,1,2,3,4]","[""Q01"",""Q02"",""Q05"",""Q04"",""Q03""]","[3249.2000000476837,6002.100000143051,8506.100000143051,9874.100000143051,10752.900000095367]","[]","[3249.2000000476837,6002.100000143051,7105.100000143051,7901,8506.100000143051,9097.100000143051,9874.100000143051,10752.900000095367,14961]","0.4","0.25","0","","","","","","","","","","","","","","","","","","","","","",""
"16528.799999952316","","{""Q01"":""5"",""Q02"":""5"",""Q03"":""5"",""Q04"":""5"",""Q05"":""5"",""Q06"":""5""}","survey-template","6","181205","0.0-5.0","6","6","7","5","5","5","5","5","5","5","5","2","2","1","2","1","2","2","2","5","5","5","5","5","4","4","4","5","5","7","8","8","8","7","8","7","9","8","6","7","4","7","7","7","6","7","7","7","6","7","7","7","6","7","7","7","5","7","7","7","7","7","7","7","7","7","7","7","7","7","7","7","6","7","7","7","7","7","718581844601208832","周","216","Male","[""好我"",""坏我"",""好他"",""坏他""]","[""强我"",""弱我"",""强他"",""弱他""]","","","","","","","","{""Q01"":""5"",""Q02"":""5"",""Q03"":""5"",""Q04"":""5"",""Q05"":""5"",""Q06"":""5""}","[0,1,2,3,4,5]","[""Q01"",""Q02"",""Q03"",""Q04"",""Q05"",""Q06""]","[2388.2000000476837,5117.200000047684,6022.799999952316,7349.5,10769.299999952316,11688.099999904633]","[]","[2388.2000000476837,4229,5117.200000047684,6022.799999952316,7349.5,9360.200000047684,10769.299999952316,11688.099999904633,16528.299999952316]","0.5","0.8","0","","","","","","","","","","","","","","","","","","","","","",""
"17910.200000047684","","{""Q01"":""2"",""Q02"":""2"",""Q03"":""1"",""Q04"":""2"",""Q05"":""1"",""Q06"":""2"",""Q07"":""2"",""Q08"":""2""}","survey-template","7","199117","0.0-6.0","6","6","7","5","5","5","5","5","5","5","5","2","2","1","2","1","2","2","2","5","5","5","5","5","4","4","4","5","5","7","8","8","8","7","8","7","9","8","6","7","4","7","7","7","6","7","7","7","6","7","7","7","6","7","7","7","5","7","7","7","7","7","7","7","7","7","7","7","7","7","7","7","6","7","7","7","7","7","718581844601208832","周","216","Male","[""好我"",""坏我"",""好他"",""坏他""]","[""强我"",""弱我"",""强他"",""弱他""]","","","","","","","","{""Q01"":""2"",""Q02"":""2"",""Q03"":""1"",""Q04"":""2"",""Q05"":""1"",""Q06"":""2"",""Q07"":""2"",""Q08"":""2""}","[0,1,2,3,4,5,6,7]","[""Q01"",""Q02"",""Q03"",""Q04"",""Q05"",""Q05"",""Q06"",""Q07"",""Q07"",""Q08""]","[2061.5,3977.2999999523163,5033.600000143051,7245.400000095367,8485.400000095367,9765.5,11925.5,13629.799999952316,14221.600000143051,15582.400000095367]","[]","[2061.5,3977.2999999523163,5033.600000143051,7245.400000095367,8485.400000095367,9765.5,11357.400000095367,11925.5,13221.5,13629.799999952316,14221.600000143051,14949.5,15582.400000095367,17909.5]","0.75","0.5714285714285714","0","","","","","","","","","","","","","","","","","","","","","",""
"7830","","","instructions","8","206949","0.0-7.0","6","6","7","5","5","5","5","5","5","5","5","2","2","1","2","1","2","2","2","5","5","5","5","5","4","4","4","5","5","7","8","8","8","7","8","7","9","8","6","7","4","7","7","7","6","7","7","7","6","7","7","7","6","7","7","7","5","7","7","7","7","7","7","7","7","7","7","7","7","7","7","7","6","7","7","7","7","7","718581844601208832","周","216","Male","[""好我"",""坏我"",""好他"",""坏他""]","[""强我"",""弱我"",""强他"",""弱他""]","","","","","","","","","","","","","","","","","[{""page_index"":0,""viewing_time"":7830}]","","","","","","","","","","","","","","","","","","","","",""
"96439","","","instructions","9","303389","0.0-8.0-1.0-0.0","6","6","7","5","5","5","5","5","5","5","5","2","2","1","2","1","2","2","2","5","5","5","5","5","4","4","4","5","5","7","8","8","8","7","8","7","9","8","6","7","4","7","7","7","6","7","7","7","6","7","7","7","6","7","7","7","5","7","7","7","7","7","7","7","7","7","7","7","7","7","7","7","6","7","7","7","7","7","718581844601208832","周","216","Male","[""好我"",""坏我"",""好他"",""坏他""]","[""强我"",""弱我"",""强他"",""弱他""]","","","","","","","","","","","","","","","","","[{""page_index"":0,""viewing_time"":2024},{""page_index"":1,""viewing_time"":87287},{""page_index"":2,""viewing_time"":1056},{""page_index"":3,""viewing_time"":6072}]","","","","","","","","","","","","","","","","","","","","",""
"818","","j","psychophysics","10","305209","0.0-8.0-1.0-1.0-0.0-0.0","6","6","7","5","5","5","5","5","5","5","5","2","2","1","2","1","2","2","2","5","5","5","5","5","4","4","4","5","5","7","8","8","8","7","8","7","9","8","6","7","4","7","7","7","6","7","7","7","6","7","7","7","6","7","7","7","5","7","7","7","7","7","7","7","7","7","7","7","7","7","7","7","6","7","7","7","7","7","718581844601208832","周","216","Male","[""好我"",""坏我"",""好他"",""坏他""]","[""强我"",""弱我"",""强他"",""弱他""]","","","","","","","","nonmatch","","","","","","","","","","key","j","8.333410138248741","853.3333333333334","476","f","false","match","img/ellipse.png","强我","强我","prac_ALT2_ability","practice_ability","","","","","","","",""
"null","<span style='color:red; font-size: 70px;'>错误! </span>","null","html-keyboard-response","11","305717","0.0-8.0-1.0-1.0-0.0-1.0","6","6","7","5","5","5","5","5","5","5","5","2","2","1","2","1","2","2","2","5","5","5","5","5","4","4","4","5","5","7","8","8","8","7","8","7","9","8","6","7","4","7","7","7","6","7","7","7","6","7","7","7","6","7","7","7","5","7","7","7","7","7","7","7","7","7","7","7","7","7","7","7","6","7","7","7","7","7","718581844601208832","周","216","Male","[""好我"",""坏我"",""好他"",""坏他""]","[""强我"",""弱我"",""强他"",""弱他""]","","","","","","","","","","","","","","","","","","","","","","","","","","","","","","feedback_test","","","","","","","",""
"1076","","f","psychophysics","12","307793","0.0-8.0-1.0-1.0-0.0-0.1","6","6","7","5","5","5","5","5","5","5","5","2","2","1","2","1","2","2","2","5","5","5","5","5","4","4","4","5","5","7","8","8","8","7","8","7","9","8","6","7","4","7","7","7","6","7","7","7","6","7","7","7","6","7","7","7","5","7","7","7","7","7","7","7","7","7","7","7","7","7","7","7","6","7","7","7","7","7","718581844601208832","周","216","Male","[""好我"",""坏我"",""好他"",""坏他""]","[""强我"",""弱我"",""强他"",""弱他""]","","","","","","","","match","","","","","","","","","","key","f","8.332379032258036","853.3333333333334","476","f","true","match","img/hexagon.png","弱他","弱他","prac_ALT2_ability","practice_ability","","","","","","","",""
"null","<span style='color:GreenYellow; font-size: 70px;'>正确! </span>","null","html-keyboard-response","13","308301","0.0-8.0-1.0-1.0-0.0-1.1","6","6","7","5","5","5","5","5","5","5","5","2","2","1","2","1","2","2","2","5","5","5","5","5","4","4","4","5","5","7","8","8","8","7","8","7","9","8","6","7","4","7","7","7","6","7","7","7","6","7","7","7","6","7","7","7","5","7","7","7","7","7","7","7","7","7","7","7","7","7","7","7","6","7","7","7","7","7","718581844601208832","周","216","Male","[""好我"",""坏我"",""好他"",""坏他""]","[""强我"",""弱我"",""强他"",""弱他""]","","","","","","","","","","","","","","","","","","","","","","","","","","","","","","feedback_test","","","","","","","",""
"1170","","j","psychophysics","14","310472","0.0-8.0-1.0-1.0-0.0-0.2","6","6","7","5","5","5","5","5","5","5","5","2","2","1","2","1","2","2","2","5","5","5","5","5","4","4","4","5","5","7","8","8","8","7","8","7","9","8","6","7","4","7","7","7","6","7","7","7","6","7","7","7","6","7","7","7","5","7","7","7","7","7","7","7","7","7","7","7","7","7","7","7","6","7","7","7","7","7","718581844601208832","周","216","Male","[""好我"",""坏我"",""好他"",""坏他""]","[""强我"",""弱我"",""强他"",""弱他""]","","","","","","","","nonmatch","","","","","","","","","","key","j","8.332189189189233","853.3333333333334","476","j","true","nonmatch","img/triangle.png","弱他","弱我","prac_ALT2_ability","practice_ability","","","","","","","",""
"null","<span style='color:GreenYellow; font-size: 70px;'>正确! </span>","null","html-keyboard-response","15","310979","0.0-8.0-1.0-1.0-0.0-1.2","6","6","7","5","5","5","5","5","5","5","5","2","2","1","2","1","2","2","2","5","5","5","5","5","4","4","4","5","5","7","8","8","8","7","8","7","9","8","6","7","4","7","7","7","6","7","7","7","6","7","7","7","6","7","7","7","5","7","7","7","7","7","7","7","7","7","7","7","7","7","7","7","6","7","7","7","7","7","718581844601208832","周","216","Male","[""好我"",""坏我"",""好他"",""坏他""]","[""强我"",""弱我"",""强他"",""弱他""]","","","","","","","","","","","","","","","","","","","","","","","","","","","","","","feedback_test","","","","","","","",""
"948","","j","psychophysics","16","312928","0.0-8.0-1.0-1.0-0.0-0.3","6","6","7","5","5","5","5","5","5","5","5","2","2","1","2","1","2","2","2","5","5","5","5","5","4","4","4","5","5","7","8","8","8","7","8","7","9","8","6","7","4","7","7","7","6","7","7","7","6","7","7","7","6","7","7","7","5","7","7","7","7","7","7","7","7","7","7","7","7","7","7","7","6","7","7","7","7","7","718581844601208832","周","216","Male","[""好我"",""坏我"",""好他"",""坏他""]","[""强我"",""弱我"",""强他"",""弱他""]","","","","","","","","nonmatch","","","","","","","","","","key","j","8.330905172413873","853.3333333333334","476","j","true","nonmatch","img/triangle.png","强他","弱我","prac_ALT2_ability","practice_ability","","","","","","","",""
"null","<span style='color:GreenYellow; font-size: 70px;'>正确! </span>","null","html-keyboard-response","17","313430","0.0-8.0-1.0-1.0-0.0-1.3","6","6","7","5","5","5","5","5","5","5","5","2","2","1","2","1","2","2","2","5","5","5","5","5","4","4","4","5","5","7","8","8","8","7","8","7","9","8","6","7","4","7","7","7","6","7","7","7","6","7","7","7","6","7","7","7","5","7","7","7","7","7","7","7","7","7","7","7","7","7","7","7","6","7","7","7","7","7","718581844601208832","周","216","Male","[""好我"",""坏我"",""好他"",""坏他""]","[""强我"",""弱我"",""强他"",""弱他""]","","","","","","","","","","","","","","","","","","","","","","","","","","","","","","feedback_test","","","","","","","",""
"927","","j","psychophysics","18","315360","0.0-8.0-1.0-1.0-0.0-0.4","6","6","7","5","5","5","5","5","5","5","5","2","2","1","2","1","2","2","2","5","5","5","5","5","4","4","4","5","5","7","8","8","8","7","8","7","9","8","6","7","4","7","7","7","6","7","7","7","6","7","7","7","6","7","7","7","5","7","7","7","7","7","7","7","7","7","7","7","7","7","7","7","6","7","7","7","7","7","718581844601208832","周","216","Male","[""好我"",""坏我"",""好他"",""坏他""]","[""强我"",""弱我"",""强他"",""弱他""]","","","","","","","","nonmatch","","","","","","","","","","key","j","8.330692640692702","853.3333333333334","476","j","true","nonmatch","img/hexagon.png","强他","弱他","prac_ALT2_ability","practice_ability","","","","","","","",""
"null","<span style='color:GreenYellow; font-size: 70px;'>正确! </span>","null","html-keyboard-response","19","315868","0.0-8.0-1.0-1.0-0.0-1.4","6","6","7","5","5","5","5","5","5","5","5","2","2","1","2","1","2","2","2","5","5","5","5","5","4","4","4","5","5","7","8","8","8","7","8","7","9","8","6","7","4","7","7","7","6","7","7","7","6","7","7","7","6","7","7","7","5","7","7","7","7","7","7","7","7","7","7","7","7","7","7","7","6","7","7","7","7","7","718581844601208832","周","216","Male","[""好我"",""坏我"",""好他"",""坏他""]","[""强我"",""弱我"",""强他"",""弱他""]","","","","","","","","","","","","","","","","","","","","","","","","","","","","","","feedback_test","","","","","","","",""
"1036","","f","psychophysics","20","317905","0.0-8.0-1.0-1.0-0.0-0.5","6","6","7","5","5","5","5","5","5","5","5","2","2","1","2","1","2","2","2","5","5","5","5","5","4","4","4","5","5","7","8","8","8","7","8","7","9","8","6","7","4","7","7","7","6","7","7","7","6","7","7","7","6","7","7","7","5","7","7","7","7","7","7","7","7","7","7","7","7","7","7","7","6","7","7","7","7","7","718581844601208832","周","216","Male","[""好我"",""坏我"",""好他"",""坏他""]","[""强我"",""弱我"",""强他"",""弱他""]","","","","","","","","match","","","","","","","","","","key","f","8.333037037036856","853.3333333333334","476","f","true","match","img/triangle.png","弱我","弱我","prac_ALT2_ability","practice_ability","","","","","","","",""
"null","<span style='color:GreenYellow; font-size: 70px;'>正确! </span>","null","html-keyboard-response","21","318412","0.0-8.0-1.0-1.0-0.0-1.5","6","6","7","5","5","5","5","5","5","5","5","2","2","1","2","1","2","2","2","5","5","5","5","5","4","4","4","5","5","7","8","8","8","7","8","7","9","8","6","7","4","7","7","7","6","7","7","7","6","7","7","7","6","7","7","7","5","7","7","7","7","7","7","7","7","7","7","7","7","7","7","7","6","7","7","7","7","7","718581844601208832","周","216","Male","[""好我"",""坏我"",""好他"",""坏他""]","[""强我"",""弱我"",""强他"",""弱他""]","","","","","","","","","","","","","","","","","","","","","","","","","","","","","","feedback_test","","","","","","","",""
"676","","f","psychophysics","22","320088","0.0-8.0-1.0-1.0-0.0-0.6","6","6","7","5","5","5","5","5","5","5","5","2","2","1","2","1","2","2","2","5","5","5","5","5","4","4","4","5","5","7","8","8","8","7","8","7","9","8","6","7","4","7","7","7","6","7","7","7","6","7","7","7","6","7","7","7","5","7","7","7","7","7","7","7","7","7","7","7","7","7","7","7","6","7","7","7","7","7","718581844601208832","周","216","Male","[""好我"",""坏我"",""好他"",""坏他""]","[""强我"",""弱我"",""强他"",""弱他""]","","","","","","","","match","","","","","","","","","","key","f","8.332419999999983","853.3333333333334","476","f","true","match","img/ellipse.png","强我","强我","prac_ALT2_ability","practice_ability","","","","","","","",""
"null","<span style='color:GreenYellow; font-size: 70px;'>正确! </span>","null","html-keyboard-response","23","320596","0.0-8.0-1.0-1.0-0.0-1.6","6","6","7","5","5","5","5","5","5","5","5","2","2","1","2","1","2","2","2","5","5","5","5","5","4","4","4","5","5","7","8","8","8","7","8","7","9","8","6","7","4","7","7","7","6","7","7","7","6","7","7","7","6","7","7","7","5","7","7","7","7","7","7","7","7","7","7","7","7","7","7","7","6","7","7","7","7","7","718581844601208832","周","216","Male","[""好我"",""坏我"",""好他"",""坏他""]","[""强我"",""弱我"",""强他"",""弱他""]","","","","","","","","","","","","","","","","","","","","","","","","","","","","","","feedback_test","","","","","","","",""
"676","","f","psychophysics","24","322272","0.0-8.0-1.0-1.0-0.0-0.7","6","6","7","5","5","5","5","5","5","5","5","2","2","1","2","1","2","2","2","5","5","5","5","5","4","4","4","5","5","7","8","8","8","7","8","7","9","8","6","7","4","7","7","7","6","7","7","7","6","7","7","7","6","7","7","7","5","7","7","7","7","7","7","7","7","7","7","7","7","7","7","7","6","7","7","7","7","7","718581844601208832","周","216","Male","[""好我"",""坏我"",""好他"",""坏他""]","[""强我"",""弱我"",""强他"",""弱他""]","","","","","","","","match","","","","","","","","","","key","f","8.33401499999978","853.3333333333334","476","f","true","match","img/square.png","强他","强他","prac_ALT2_ability","practice_ability","","","","","","","",""
"null","<span style='color:GreenYellow; font-size: 70px;'>正确! </span>","null","html-keyboard-response","25","322779","0.0-8.0-1.0-1.0-0.0-1.7","6","6","7","5","5","5","5","5","5","5","5","2","2","1","2","1","2","2","2","5","5","5","5","5","4","4","4","5","5","7","8","8","8","7","8","7","9","8","6","7","4","7","7","7","6","7","7","7","6","7","7","7","6","7","7","7","5","7","7","7","7","7","7","7","7","7","7","7","7","7","7","7","6","7","7","7","7","7","718581844601208832","周","216","Male","[""好我"",""坏我"",""好他"",""坏他""]","[""强我"",""弱我"",""强他"",""弱他""]","","","","","","","","","","","","","","","","","","","","","","","","","","","","","","feedback_test","","","","","","","",""
"917","","j","psychophysics","26","324697","0.0-8.0-1.0-1.0-0.0-0.8","6","6","7","5","5","5","5","5","5","5","5","2","2","1","2","1","2","2","2","5","5","5","5","5","4","4","4","5","5","7","8","8","8","7","8","7","9","8","6","7","4","7","7","7","6","7","7","7","6","7","7","7","6","7","7","7","5","7","7","7","7","7","7","7","7","7","7","7","7","7","7","7","6","7","7","7","7","7","718581844601208832","周","216","Male","[""好我"",""坏我"",""好他"",""坏他""]","[""强我"",""弱我"",""强他"",""弱他""]","","","","","","","","nonmatch","","","","","","","","","","key","j","8.3328209606985","853.3333333333334","476","j","true","nonmatch","img/square.png","弱我","强他","prac_ALT2_ability","practice_ability","","","","","","","",""
"null","<span style='color:GreenYellow; font-size: 70px;'>正确! </span>","null","html-keyboard-response","27","325204","0.0-8.0-1.0-1.0-0.0-1.8","6","6","7","5","5","5","5","5","5","5","5","2","2","1","2","1","2","2","2","5","5","5","5","5","4","4","4","5","5","7","8","8","8","7","8","7","9","8","6","7","4","7","7","7","6","7","7","7","6","7","7","7","6","7","7","7","5","7","7","7","7","7","7","7","7","7","7","7","7","7","7","7","6","7","7","7","7","7","718581844601208832","周","216","Male","[""好我"",""坏我"",""好他"",""坏他""]","[""强我"",""弱我"",""强他"",""弱他""]","","","","","","","","","","","","","","","","","","","","","","","","","","","","","","feedback_test","","","","","","","",""
"907","","j","psychophysics","28","327113","0.0-8.0-1.0-1.0-0.0-0.9","6","6","7","5","5","5","5","5","5","5","5","2","2","1","2","1","2","2","2","5","5","5","5","5","4","4","4","5","5","7","8","8","8","7","8","7","9","8","6","7","4","7","7","7","6","7","7","7","6","7","7","7","6","7","7","7","5","7","7","7","7","7","7","7","7","7","7","7","7","7","7","7","6","7","7","7","7","7","718581844601208832","周","216","Male","[""好我"",""坏我"",""好他"",""坏他""]","[""强我"",""弱我"",""强他"",""弱他""]","","","","","","","","nonmatch","","","","","","","","","","key","j","8.334396475770907","853.3333333333334","476","j","true","nonmatch","img/hexagon.png","弱我","弱他","prac_ALT2_ability","practice_ability","","","","","","","",""
"null","<span style='color:GreenYellow; font-size: 70px;'>正确! </span>","null","html-keyboard-response","29","327618","0.0-8.0-1.0-1.0-0.0-1.9","6","6","7","5","5","5","5","5","5","5","5","2","2","1","2","1","2","2","2","5","5","5","5","5","4","4","4","5","5","7","8","8","8","7","8","7","9","8","6","7","4","7","7","7","6","7","7","7","6","7","7","7","6","7","7","7","5","7","7","7","7","7","7","7","7","7","7","7","7","7","7","7","6","7","7","7","7","7","718581844601208832","周","216","Male","[""好我"",""坏我"",""好他"",""坏他""]","[""强我"",""弱我"",""强他"",""弱他""]","","","","","","","","","","","","","","","","","","","","","","","","","","","","","","feedback_test","","","","","","","",""
"654","","j","psychophysics","30","329273","0.0-8.0-1.0-1.0-0.0-0.10","6","6","7","5","5","5","5","5","5","5","5","2","2","1","2","1","2","2","2","5","5","5","5","5","4","4","4","5","5","7","8","8","8","7","8","7","9","8","6","7","4","7","7","7","6","7","7","7","6","7","7","7","6","7","7","7","5","7","7","7","7","7","7","7","7","7","7","7","7","7","7","7","6","7","7","7","7","7","718581844601208832","周","216","Male","[""好我"",""坏我"",""好他"",""坏他""]","[""强我"",""弱我"",""强他"",""弱他""]","","","","","","","","nonmatch","","","","","","","","","","key","j","8.334474747474577","853.3333333333334","476","j","true","nonmatch","img/square.png","强我","强他","prac_ALT2_ability","practice_ability","","","","","","","",""
"null","<span style='color:GreenYellow; font-size: 70px;'>正确! </span>","null","html-keyboard-response","31","329780","0.0-8.0-1.0-1.0-0.0-1.10","6","6","7","5","5","5","5","5","5","5","5","2","2","1","2","1","2","2","2","5","5","5","5","5","4","4","4","5","5","7","8","8","8","7","8","7","9","8","6","7","4","7","7","7","6","7","7","7","6","7","7","7","6","7","7","7","5","7","7","7","7","7","7","7","7","7","7","7","7","7","7","7","6","7","7","7","7","7","718581844601208832","周","216","Male","[""好我"",""坏我"",""好他"",""坏他""]","[""强我"",""弱我"",""强他"",""弱他""]","","","","","","","","","","","","","","","","","","","","","","","","","","","","","","feedback_test","","","","","","","",""
"947","","j","psychophysics","32","331728","0.0-8.0-1.0-1.0-0.0-0.11","6","6","7","5","5","5","5","5","5","5","5","2","2","1","2","1","2","2","2","5","5","5","5","5","4","4","4","5","5","7","8","8","8","7","8","7","9","8","6","7","4","7","7","7","6","7","7","7","6","7","7","7","6","7","7","7","5","7","7","7","7","7","7","7","7","7","7","7","7","7","7","7","6","7","7","7","7","7","718581844601208832","周","216","Male","[""好我"",""坏我"",""好他"",""坏他""]","[""强我"",""弱我"",""强他"",""弱他""]","","","","","","","","nonmatch","","","","","","","","","","key","j","8.332693965517231","853.3333333333334","476","f","false","match","img/square.png","强他","强他","prac_ALT2_ability","practice_ability","","","","","","","",""
"null","<span style='color:red; font-size: 70px;'>错误! </span>","null","html-keyboard-response","33","332235","0.0-8.0-1.0-1.0-0.0-1.11","6","6","7","5","5","5","5","5","5","5","5","2","2","1","2","1","2","2","2","5","5","5","5","5","4","4","4","5","5","7","8","8","8","7","8","7","9","8","6","7","4","7","7","7","6","7","7","7","6","7","7","7","6","7","7","7","5","7","7","7","7","7","7","7","7","7","7","7","7","7","7","7","6","7","7","7","7","7","718581844601208832","周","216","Male","[""好我"",""坏我"",""好他"",""坏他""]","[""强我"",""弱我"",""强他"",""弱他""]","","","","","","","","","","","","","","","","","","","","","","","","","","","","","","feedback_test","","","","","","","",""
"957","","j","psychophysics","34","334193","0.0-8.0-1.0-1.0-0.0-0.12","6","6","7","5","5","5","5","5","5","5","5","2","2","1","2","1","2","2","2","5","5","5","5","5","4","4","4","5","5","7","8","8","8","7","8","7","9","8","6","7","4","7","7","7","6","7","7","7","6","7","7","7","6","7","7","7","5","7","7","7","7","7","7","7","7","7","7","7","7","7","7","7","6","7","7","7","7","7","718581844601208832","周","216","Male","[""好我"",""坏我"",""好他"",""坏他""]","[""强我"",""弱我"",""强他"",""弱他""]","","","","","","","","nonmatch","","","","","","","","","","key","j","8.334390557939916","853.3333333333334","476","j","true","nonmatch","img/triangle.png","强我","弱我","prac_ALT2_ability","practice_ability","","","","","","","",""
"null","<span style='color:GreenYellow; font-size: 70px;'>正确! </span>","null","html-keyboard-response","35","334700","0.0-8.0-1.0-1.0-0.0-1.12","6","6","7","5","5","5","5","5","5","5","5","2","2","1","2","1","2","2","2","5","5","5","5","5","4","4","4","5","5","7","8","8","8","7","8","7","9","8","6","7","4","7","7","7","6","7","7","7","6","7","7","7","6","7","7","7","5","7","7","7","7","7","7","7","7","7","7","7","7","7","7","7","6","7","7","7","7","7","718581844601208832","周","216","Male","[""好我"",""坏我"",""好他"",""坏他""]","[""强我"",""弱我"",""强他"",""弱他""]","","","","","","","","","","","","","","","","","","","","","","","","","","","","","","feedback_test","","","","","","","",""
"948","","j","psychophysics","36","336648","0.0-8.0-1.0-1.0-0.0-0.13","6","6","7","5","5","5","5","5","5","5","5","2","2","1","2","1","2","2","2","5","5","5","5","5","4","4","4","5","5","7","8","8","8","7","8","7","9","8","6","7","4","7","7","7","6","7","7","7","6","7","7","7","6","7","7","7","5","7","7","7","7","7","7","7","7","7","7","7","7","7","7","7","6","7","7","7","7","7","718581844601208832","周","216","Male","[""好我"",""坏我"",""好他"",""坏他""]","[""强我"",""弱我"",""强他"",""弱他""]","","","","","","","","nonmatch","","","","","","","","","","key","j","8.3338017241381","853.3333333333334","476","j","true","nonmatch","img/ellipse.png","弱我","强我","prac_ALT2_ability","practice_ability","","","","","","","",""
"null","<span style='color:GreenYellow; font-size: 70px;'>正确! </span>","null","html-keyboard-response","37","337155","0.0-8.0-1.0-1.0-0.0-1.13","6","6","7","5","5","5","5","5","5","5","5","2","2","1","2","1","2","2","2","5","5","5","5","5","4","4","4","5","5","7","8","8","8","7","8","7","9","8","6","7","4","7","7","7","6","7","7","7","6","7","7","7","6","7","7","7","5","7","7","7","7","7","7","7","7","7","7","7","7","7","7","7","6","7","7","7","7","7","718581844601208832","周","216","Male","[""好我"",""坏我"",""好他"",""坏他""]","[""强我"",""弱我"",""强他"",""弱他""]","","","","","","","","","","","","","","","","","","","","","","","","","","","","","","feedback_test","","","","","","","",""
"860","","f","psychophysics","38","339016","0.0-8.0-1.0-1.0-0.0-0.14","6","6","7","5","5","5","5","5","5","5","5","2","2","1","2","1","2","2","2","5","5","5","5","5","4","4","4","5","5","7","8","8","8","7","8","7","9","8","6","7","4","7","7","7","6","7","7","7","6","7","7","7","6","7","7","7","5","7","7","7","7","7","7","7","7","7","7","7","7","7","7","7","6","7","7","7","7","7","718581844601208832","周","216","Male","[""好我"",""坏我"",""好他"",""坏他""]","[""强我"",""弱我"",""强他"",""弱他""]","","","","","","","","match","","","","","","","","","","key","f","8.33295945945953","853.3333333333334","476","f","true","match","img/square.png","强他","强他","prac_ALT2_ability","practice_ability","","","","","","","",""
"null","<span style='color:GreenYellow; font-size: 70px;'>正确! </span>","null","html-keyboard-response","39","339518","0.0-8.0-1.0-1.0-0.0-1.14","6","6","7","5","5","5","5","5","5","5","5","2","2","1","2","1","2","2","2","5","5","5","5","5","4","4","4","5","5","7","8","8","8","7","8","7","9","8","6","7","4","7","7","7","6","7","7","7","6","7","7","7","6","7","7","7","5","7","7","7","7","7","7","7","7","7","7","7","7","7","7","7","6","7","7","7","7","7","718581844601208832","周","216","Male","[""好我"",""坏我"",""好他"",""坏他""]","[""强我"",""弱我"",""强他"",""弱他""]","","","","","","","","","","","","","","","","","","","","","","","","","","","","","","feedback_test","","","","","","","",""
"882","","f","psychophysics","40","341401","0.0-8.0-1.0-1.0-0.0-0.15","6","6","7","5","5","5","5","5","5","5","5","2","2","1","2","1","2","2","2","5","5","5","5","5","4","4","4","5","5","7","8","8","8","7","8","7","9","8","6","7","4","7","7","7","6","7","7","7","6","7","7","7","6","7","7","7","5","7","7","7","7","7","7","7","7","7","7","7","7","7","7","7","6","7","7","7","7","7","718581844601208832","周","216","Male","[""好我"",""坏我"",""好他"",""坏他""]","[""强我"",""弱我"",""强他"",""弱他""]","","","","","","","","match","","","","","","","","","","key","f","8.328616071428769","853.3333333333334","476","f","true","match","img/ellipse.png","强我","强我","prac_ALT2_ability","practice_ability","","","","","","","",""
"null","<span style='color:GreenYellow; font-size: 70px;'>正确! </span>","null","html-keyboard-response","41","341908","0.0-8.0-1.0-1.0-0.0-1.15","6","6","7","5","5","5","5","5","5","5","5","2","2","1","2","1","2","2","2","5","5","5","5","5","4","4","4","5","5","7","8","8","8","7","8","7","9","8","6","7","4","7","7","7","6","7","7","7","6","7","7","7","6","7","7","7","5","7","7","7","7","7","7","7","7","7","7","7","7","7","7","7","6","7","7","7","7","7","718581844601208832","周","216","Male","[""好我"",""坏我"",""好他"",""坏他""]","[""强我"",""弱我"",""强他"",""弱他""]","","","","","","","","","","","","","","","","","","","","","","","","","","","","","","feedback_test","","","","","","","",""
"675","","f","psychophysics","42","343584","0.0-8.0-1.0-1.0-0.0-0.16","6","6","7","5","5","5","5","5","5","5","5","2","2","1","2","1","2","2","2","5","5","5","5","5","4","4","4","5","5","7","8","8","8","7","8","7","9","8","6","7","4","7","7","7","6","7","7","7","6","7","7","7","6","7","7","7","5","7","7","7","7","7","7","7","7","7","7","7","7","7","7","7","6","7","7","7","7","7","718581844601208832","周","216","Male","[""好我"",""坏我"",""好他"",""坏他""]","[""强我"",""弱我"",""强他"",""弱他""]","","","","","","","","match","","","","","","","","","","key","f","8.33298999999999","853.3333333333334","476","f","true","match","img/hexagon.png","弱他","弱他","prac_ALT2_ability","practice_ability","","","","","","","",""
"null","<span style='color:GreenYellow; font-size: 70px;'>正确! </span>","null","html-keyboard-response","43","344092","0.0-8.0-1.0-1.0-0.0-1.16","6","6","7","5","5","5","5","5","5","5","5","2","2","1","2","1","2","2","2","5","5","5","5","5","4","4","4","5","5","7","8","8","8","7","8","7","9","8","6","7","4","7","7","7","6","7","7","7","6","7","7","7","6","7","7","7","5","7","7","7","7","7","7","7","7","7","7","7","7","7","7","7","6","7","7","7","7","7","718581844601208832","周","216","Male","[""好我"",""坏我"",""好他"",""坏他""]","[""强我"",""弱我"",""强他"",""弱他""]","","","","","","","","","","","","","","","","","","","","","","","","","","","","","","feedback_test","","","","","","","",""
"819","","f","psychophysics","44","345913","0.0-8.0-1.0-1.0-0.0-0.17","6","6","7","5","5","5","5","5","5","5","5","2","2","1","2","1","2","2","2","5","5","5","5","5","4","4","4","5","5","7","8","8","8","7","8","7","9","8","6","7","4","7","7","7","6","7","7","7","6","7","7","7","6","7","7","7","5","7","7","7","7","7","7","7","7","7","7","7","7","7","7","7","6","7","7","7","7","7","718581844601208832","周","216","Male","[""好我"",""坏我"",""好他"",""坏他""]","[""强我"",""弱我"",""强他"",""弱他""]","","","","","","","","match","","","","","","","","","","key","f","8.333612903225674","853.3333333333334","476","f","true","match","img/triangle.png","弱我","弱我","prac_ALT2_ability","practice_ability","","","","","","","",""
"null","<span style='color:GreenYellow; font-size: 70px;'>正确! </span>","null","html-keyboard-response","45","346421","0.0-8.0-1.0-1.0-0.0-1.17","6","6","7","5","5","5","5","5","5","5","5","2","2","1","2","1","2","2","2","5","5","5","5","5","4","4","4","5","5","7","8","8","8","7","8","7","9","8","6","7","4","7","7","7","6","7","7","7","6","7","7","7","6","7","7","7","5","7","7","7","7","7","7","7","7","7","7","7","7","7","7","7","6","7","7","7","7","7","718581844601208832","周","216","Male","[""好我"",""坏我"",""好他"",""坏他""]","[""强我"",""弱我"",""强他"",""弱他""]","","","","","","","","","","","","","","","","","","","","","","","","","","","","","","feedback_test","","","","","","","",""
"883","","f","psychophysics","46","348305","0.0-8.0-1.0-1.0-0.0-0.18","6","6","7","5","5","5","5","5","5","5","5","2","2","1","2","1","2","2","2","5","5","5","5","5","4","4","4","5","5","7","8","8","8","7","8","7","9","8","6","7","4","7","7","7","6","7","7","7","6","7","7","7","6","7","7","7","5","7","7","7","7","7","7","7","7","7","7","7","7","7","7","7","6","7","7","7","7","7","718581844601208832","周","216","Male","[""好我"",""坏我"",""好他"",""坏他""]","[""强我"",""弱我"",""强他"",""弱他""]","","","","","","","","match","","","","","","","","","","key","f","8.333339285714308","853.3333333333334","476","f","true","match","img/hexagon.png","弱他","弱他","prac_ALT2_ability","practice_ability","","","","","","","",""
"null","<span style='color:GreenYellow; font-size: 70px;'>正确! </span>","null","html-keyboard-response","47","348821","0.0-8.0-1.0-1.0-0.0-1.18","6","6","7","5","5","5","5","5","5","5","5","2","2","1","2","1","2","2","2","5","5","5","5","5","4","4","4","5","5","7","8","8","8","7","8","7","9","8","6","7","4","7","7","7","6","7","7","7","6","7","7","7","6","7","7","7","5","7","7","7","7","7","7","7","7","7","7","7","7","7","7","7","6","7","7","7","7","7","718581844601208832","周","216","Male","[""好我"",""坏我"",""好他"",""坏他""]","[""强我"",""弱我"",""强他"",""弱他""]","","","","","","","","","","","","","","","","","","","","","","","","","","","","","","feedback_test","","","","","","","",""
"698","","j","psychophysics","48","350520","0.0-8.0-1.0-1.0-0.0-0.19","6","6","7","5","5","5","5","5","5","5","5","2","2","1","2","1","2","2","2","5","5","5","5","5","4","4","4","5","5","7","8","8","8","7","8","7","9","8","6","7","4","7","7","7","6","7","7","7","6","7","7","7","6","7","7","7","5","7","7","7","7","7","7","7","7","7","7","7","7","7","7","7","6","7","7","7","7","7","718581844601208832","周","216","Male","[""好我"",""坏我"",""好他"",""坏他""]","[""强我"",""弱我"",""强他"",""弱他""]","","","","","","","","nonmatch","","","","","","","","","","key","j","8.332722772277043","853.3333333333334","476","j","true","nonmatch","img/square.png","弱他","强他","prac_ALT2_ability","practice_ability","","","","","","","",""
"null","<span style='color:GreenYellow; font-size: 70px;'>正确! </span>","null","html-keyboard-response","49","351028","0.0-8.0-1.0-1.0-0.0-1.19","6","6","7","5","5","5","5","5","5","5","5","2","2","1","2","1","2","2","2","5","5","5","5","5","4","4","4","5","5","7","8","8","8","7","8","7","9","8","6","7","4","7","7","7","6","7","7","7","6","7","7","7","6","7","7","7","5","7","7","7","7","7","7","7","7","7","7","7","7","7","7","7","6","7","7","7","7","7","718581844601208832","周","216","Male","[""好我"",""坏我"",""好他"",""坏他""]","[""强我"",""弱我"",""强他"",""弱他""]","","","","","","","","","","","","","","","","","","","","","","","","","","","","","","feedback_test","","","","","","","",""
"811","","f","psychophysics","50","352841","0.0-8.0-1.0-1.0-0.0-0.20","6","6","7","5","5","5","5","5","5","5","5","2","2","1","2","1","2","2","2","5","5","5","5","5","4","4","4","5","5","7","8","8","8","7","8","7","9","8","6","7","4","7","7","7","6","7","7","7","6","7","7","7","6","7","7","7","5","7","7","7","7","7","7","7","7","7","7","7","7","7","7","7","6","7","7","7","7","7","718581844601208832","周","216","Male","[""好我"",""坏我"",""好他"",""坏他""]","[""强我"",""弱我"",""强他"",""弱他""]","","","","","","","","match","","","","","","","","","","key","f","8.334078703703804","853.3333333333334","476","f","true","match","img/triangle.png","弱我","弱我","prac_ALT2_ability","practice_ability","","","","","","","",""
"null","<span style='color:GreenYellow; font-size: 70px;'>正确! </span>","null","html-keyboard-response","51","353349","0.0-8.0-1.0-1.0-0.0-1.20","6","6","7","5","5","5","5","5","5","5","5","2","2","1","2","1","2","2","2","5","5","5","5","5","4","4","4","5","5","7","8","8","8","7","8","7","9","8","6","7","4","7","7","7","6","7","7","7","6","7","7","7","6","7","7","7","5","7","7","7","7","7","7","7","7","7","7","7","7","7","7","7","6","7","7","7","7","7","718581844601208832","周","216","Male","[""好我"",""坏我"",""好他"",""坏他""]","[""强我"",""弱我"",""强他"",""弱他""]","","","","","","","","","","","","","","","","","","","","","","","","","","","","","","feedback_test","","","","","","","",""
"650","","j","psychophysics","52","355000","0.0-8.0-1.0-1.0-0.0-0.21","6","6","7","5","5","5","5","5","5","5","5","2","2","1","2","1","2","2","2","5","5","5","5","5","4","4","4","5","5","7","8","8","8","7","8","7","9","8","6","7","4","7","7","7","6","7","7","7","6","7","7","7","6","7","7","7","5","7","7","7","7","7","7","7","7","7","7","7","7","7","7","7","6","7","7","7","7","7","718581844601208832","周","216","Male","[""好我"",""坏我"",""好他"",""坏他""]","[""强我"",""弱我"",""强他"",""弱他""]","","","","","","","","nonmatch","","","","","","","","","","key","j","8.333233502538057","853.3333333333334","476","j","true","nonmatch","img/ellipse.png","弱他","强我","prac_ALT2_ability","practice_ability","","","","","","","",""
"null","<span style='color:GreenYellow; font-size: 70px;'>正确! </span>","null","html-keyboard-response","53","355508","0.0-8.0-1.0-1.0-0.0-1.21","6","6","7","5","5","5","5","5","5","5","5","2","2","1","2","1","2","2","2","5","5","5","5","5","4","4","4","5","5","7","8","8","8","7","8","7","9","8","6","7","4","7","7","7","6","7","7","7","6","7","7","7","6","7","7","7","5","7","7","7","7","7","7","7","7","7","7","7","7","7","7","7","6","7","7","7","7","7","718581844601208832","周","216","Male","[""好我"",""坏我"",""好他"",""坏他""]","[""强我"",""弱我"",""强他"",""弱他""]","","","","","","","","","","","","","","","","","","","","","","","","","","","","","","feedback_test","","","","","","","",""
"691","","j","psychophysics","54","357200","0.0-8.0-1.0-1.0-0.0-0.22","6","6","7","5","5","5","5","5","5","5","5","2","2","1","2","1","2","2","2","5","5","5","5","5","4","4","4","5","5","7","8","8","8","7","8","7","9","8","6","7","4","7","7","7","6","7","7","7","6","7","7","7","6","7","7","7","5","7","7","7","7","7","7","7","7","7","7","7","7","7","7","7","6","7","7","7","7","7","718581844601208832","周","216","Male","[""好我"",""坏我"",""好他"",""坏他""]","[""强我"",""弱我"",""强他"",""弱他""]","","","","","","","","nonmatch","","","","","","","","","","key","j","8.335004950494916","853.3333333333334","476","j","true","nonmatch","img/hexagon.png","强我","弱他","prac_ALT2_ability","practice_ability","","","","","","","",""
"null","<span style='color:GreenYellow; font-size: 70px;'>正确! </span>","null","html-keyboard-response","55","357708","0.0-8.0-1.0-1.0-0.0-1.22","6","6","7","5","5","5","5","5","5","5","5","2","2","1","2","1","2","2","2","5","5","5","5","5","4","4","4","5","5","7","8","8","8","7","8","7","9","8","6","7","4","7","7","7","6","7","7","7","6","7","7","7","6","7","7","7","5","7","7","7","7","7","7","7","7","7","7","7","7","7","7","7","6","7","7","7","7","7","718581844601208832","周","216","Male","[""好我"",""坏我"",""好他"",""坏他""]","[""强我"",""弱我"",""强他"",""弱他""]","","","","","","","","","","","","","","","","","","","","","","","","","","","","","","feedback_test","","","","","","","",""
"803","","j","psychophysics","56","359513","0.0-8.0-1.0-1.0-0.0-0.23","6","6","7","5","5","5","5","5","5","5","5","2","2","1","2","1","2","2","2","5","5","5","5","5","4","4","4","5","5","7","8","8","8","7","8","7","9","8","6","7","4","7","7","7","6","7","7","7","6","7","7","7","6","7","7","7","5","7","7","7","7","7","7","7","7","7","7","7","7","7","7","7","6","7","7","7","7","7","718581844601208832","周","216","Male","[""好我"",""坏我"",""好他"",""坏他""]","[""强我"",""弱我"",""强他"",""弱他""]","","","","","","","","nonmatch","","","","","","","","","","key","j","8.333888372092854","853.3333333333334","476","j","true","nonmatch","img/ellipse.png","强他","强我","prac_ALT2_ability","practice_ability","","","","","","","",""
"null","<span style='color:GreenYellow; font-size: 70px;'>正确! </span>","null","html-keyboard-response","57","360019","0.0-8.0-1.0-1.0-0.0-1.23","6","6","7","5","5","5","5","5","5","5","5","2","2","1","2","1","2","2","2","5","5","5","5","5","4","4","4","5","5","7","8","8","8","7","8","7","9","8","6","7","4","7","7","7","6","7","7","7","6","7","7","7","6","7","7","7","5","7","7","7","7","7","7","7","7","7","7","7","7","7","7","7","6","7","7","7","7","7","718581844601208832","周","216","Male","[""好我"",""坏我"",""好他"",""坏他""]","[""强我"",""弱我"",""强他"",""弱他""]","","","","","","","","","","","","","","","","","","","","","","","","","","","","","","feedback_test","","","","","","","",""
"716","","j","psychophysics","58","361736","0.0-8.0-1.0-1.0-0.0-0.24","6","6","7","5","5","5","5","5","5","5","5","2","2","1","2","1","2","2","2","5","5","5","5","5","4","4","4","5","5","7","8","8","8","7","8","7","9","8","6","7","4","7","7","7","6","7","7","7","6","7","7","7","6","7","7","7","5","7","7","7","7","7","7","7","7","7","7","7","7","7","7","7","6","7","7","7","7","7","718581844601208832","周","216","Male","[""好我"",""坏我"",""好他"",""坏他""]","[""强我"",""弱我"",""强他"",""弱他""]","","","","","","","","nonmatch","","","","","","","","","","key","j","8.330955882352724","853.3333333333334","476","f","false","match","img/triangle.png","弱我","弱我","prac_ALT2_ability","practice_ability","","","","","","","",""
"null","<span style='color:red; font-size: 70px;'>错误! </span>","null","html-keyboard-response","59","362244","0.0-8.0-1.0-1.0-0.0-1.24","6","6","7","5","5","5","5","5","5","5","5","2","2","1","2","1","2","2","2","5","5","5","5","5","4","4","4","5","5","7","8","8","8","7","8","7","9","8","6","7","4","7","7","7","6","7","7","7","6","7","7","7","6","7","7","7","5","7","7","7","7","7","7","7","7","7","7","7","7","7","7","7","6","7","7","7","7","7","718581844601208832","周","216","Male","[""好我"",""坏我"",""好他"",""坏他""]","[""强我"",""弱我"",""强他"",""弱他""]","","","","","","","","","","","","","","","","","","","","","","","","","","","","","","feedback_test","","","","","","","",""
"636","","f","psychophysics","60","363880","0.0-8.0-1.0-1.0-0.0-0.25","6","6","7","5","5","5","5","5","5","5","5","2","2","1","2","1","2","2","2","5","5","5","5","5","4","4","4","5","5","7","8","8","8","7","8","7","9","8","6","7","4","7","7","7","6","7","7","7","6","7","7","7","6","7","7","7","5","7","7","7","7","7","7","7","7","7","7","7","7","7","7","7","6","7","7","7","7","7","718581844601208832","周","216","Male","[""好我"",""坏我"",""好他"",""坏他""]","[""强我"",""弱我"",""强他"",""弱他""]","","","","","","","","match","","","","","","","","","","key","f","8.334835897435923","853.3333333333334","476","f","true","match","img/square.png","强他","强他","prac_ALT2_ability","practice_ability","","","","","","","",""
"null","<span style='color:GreenYellow; font-size: 70px;'>正确! </span>","null","html-keyboard-response","61","364382","0.0-8.0-1.0-1.0-0.0-1.25","6","6","7","5","5","5","5","5","5","5","5","2","2","1","2","1","2","2","2","5","5","5","5","5","4","4","4","5","5","7","8","8","8","7","8","7","9","8","6","7","4","7","7","7","6","7","7","7","6","7","7","7","6","7","7","7","5","7","7","7","7","7","7","7","7","7","7","7","7","7","7","7","6","7","7","7","7","7","718581844601208832","周","216","Male","[""好我"",""坏我"",""好他"",""坏他""]","[""强我"",""弱我"",""强他"",""弱他""]","","","","","","","","","","","","","","","","","","","","","","","","","","","","","","feedback_test","","","","","","","",""
"1145","","j","psychophysics","62","366529","0.0-8.0-1.0-1.0-0.0-0.26","6","6","7","5","5","5","5","5","5","5","5","2","2","1","2","1","2","2","2","5","5","5","5","5","4","4","4","5","5","7","8","8","8","7","8","7","9","8","6","7","4","7","7","7","6","7","7","7","6","7","7","7","6","7","7","7","5","7","7","7","7","7","7","7","7","7","7","7","7","7","7","7","6","7","7","7","7","7","718581844601208832","周","216","Male","[""好我"",""坏我"",""好他"",""坏他""]","[""强我"",""弱我"",""强他"",""弱他""]","","","","","","","","nonmatch","","","","","","","","","","key","j","8.333284046692532","853.3333333333334","476","f","false","match","img/hexagon.png","弱他","弱他","prac_ALT2_ability","practice_ability","","","","","","","",""
"null","<span style='color:red; font-size: 70px;'>错误! </span>","null","html-keyboard-response","63","367031","0.0-8.0-1.0-1.0-0.0-1.26","6","6","7","5","5","5","5","5","5","5","5","2","2","1","2","1","2","2","2","5","5","5","5","5","4","4","4","5","5","7","8","8","8","7","8","7","9","8","6","7","4","7","7","7","6","7","7","7","6","7","7","7","6","7","7","7","5","7","7","7","7","7","7","7","7","7","7","7","7","7","7","7","6","7","7","7","7","7","718581844601208832","周","216","Male","[""好我"",""坏我"",""好他"",""坏他""]","[""强我"",""弱我"",""强他"",""弱他""]","","","","","","","","","","","","","","","","","","","","","","","","","","","","","","feedback_test","","","","","","","",""
"1040","","j","psychophysics","64","369073","0.0-8.0-1.0-1.0-0.0-0.27","6","6","7","5","5","5","5","5","5","5","5","2","2","1","2","1","2","2","2","5","5","5","5","5","4","4","4","5","5","7","8","8","8","7","8","7","9","8","6","7","4","7","7","7","6","7","7","7","6","7","7","7","6","7","7","7","5","7","7","7","7","7","7","7","7","7","7","7","7","7","7","7","6","7","7","7","7","7","718581844601208832","周","216","Male","[""好我"",""坏我"",""好他"",""坏他""]","[""强我"",""弱我"",""强他"",""弱他""]","","","","","","","","nonmatch","","","","","","","","","","key","j","8.33279012345686","853.3333333333334","476","j","true","nonmatch","img/hexagon.png","弱我","弱他","prac_ALT2_ability","practice_ability","","","","","","","",""
"null","<span style='color:GreenYellow; font-size: 70px;'>正确! </span>","null","html-keyboard-response","65","369582","0.0-8.0-1.0-1.0-0.0-1.27","6","6","7","5","5","5","5","5","5","5","5","2","2","1","2","1","2","2","2","5","5","5","5","5","4","4","4","5","5","7","8","8","8","7","8","7","9","8","6","7","4","7","7","7","6","7","7","7","6","7","7","7","6","7","7","7","5","7","7","7","7","7","7","7","7","7","7","7","7","7","7","7","6","7","7","7","7","7","718581844601208832","周","216","Male","[""好我"",""坏我"",""好他"",""坏他""]","[""强我"",""弱我"",""强他"",""弱他""]","","","","","","","","","","","","","","","","","","","","","","","","","","","","","","feedback_test","","","","","","","",""
"721","","f","psychophysics","66","371304","0.0-8.0-1.0-1.0-0.0-0.28","6","6","7","5","5","5","5","5","5","5","5","2","2","1","2","1","2","2","2","5","5","5","5","5","4","4","4","5","5","7","8","8","8","7","8","7","9","8","6","7","4","7","7","7","6","7","7","7","6","7","7","7","6","7","7","7","5","7","7","7","7","7","7","7","7","7","7","7","7","7","7","7","6","7","7","7","7","7","718581844601208832","周","216","Male","[""好我"",""坏我"",""好他"",""坏他""]","[""强我"",""弱我"",""强他"",""弱他""]","","","","","","","","match","","","","","","","","","","key","f","8.334531707317204","853.3333333333334","476","f","true","match","img/ellipse.png","强我","强我","prac_ALT2_ability","practice_ability","","","","","","","",""
"null","<span style='color:GreenYellow; font-size: 70px;'>正确! </span>","null","html-keyboard-response","67","371805","0.0-8.0-1.0-1.0-0.0-1.28","6","6","7","5","5","5","5","5","5","5","5","2","2","1","2","1","2","2","2","5","5","5","5","5","4","4","4","5","5","7","8","8","8","7","8","7","9","8","6","7","4","7","7","7","6","7","7","7","6","7","7","7","6","7","7","7","5","7","7","7","7","7","7","7","7","7","7","7","7","7","7","7","6","7","7","7","7","7","718581844601208832","周","216","Male","[""好我"",""坏我"",""好他"",""坏他""]","[""强我"",""弱我"",""强他"",""弱他""]","","","","","","","","","","","","","","","","","","","","","","","","","","","","","","feedback_test","","","","","","","",""
"691","","j","psychophysics","68","373497","0.0-8.0-1.0-1.0-0.0-0.29","6","6","7","5","5","5","5","5","5","5","5","2","2","1","2","1","2","2","2","5","5","5","5","5","4","4","4","5","5","7","8","8","8","7","8","7","9","8","6","7","4","7","7","7","6","7","7","7","6","7","7","7","6","7","7","7","5","7","7","7","7","7","7","7","7","7","7","7","7","7","7","7","6","7","7","7","7","7","718581844601208832","周","216","Male","[""好我"",""坏我"",""好他"",""坏他""]","[""强我"",""弱我"",""强他"",""弱他""]","","","","","","","","nonmatch","","","","","","","","","","key","j","8.332836633663403","853.3333333333334","476","j","true","nonmatch","img/hexagon.png","强我","弱他","prac_ALT2_ability","practice_ability","","","","","","","",""
"null","<span style='color:GreenYellow; font-size: 70px;'>正确! </span>","null","html-keyboard-response","69","374004","0.0-8.0-1.0-1.0-0.0-1.29","6","6","7","5","5","5","5","5","5","5","5","2","2","1","2","1","2","2","2","5","5","5","5","5","4","4","4","5","5","7","8","8","8","7","8","7","9","8","6","7","4","7","7","7","6","7","7","7","6","7","7","7","6","7","7","7","5","7","7","7","7","7","7","7","7","7","7","7","7","7","7","7","6","7","7","7","7","7","718581844601208832","周","216","Male","[""好我"",""坏我"",""好他"",""坏他""]","[""强我"",""弱我"",""强他"",""弱他""]","","","","","","","","","","","","","","","","","","","","","","","","","","","","","","feedback_test","","","","","","","",""
"716","","j","psychophysics","70","375720","0.0-8.0-1.0-1.0-0.0-0.30","6","6","7","5","5","5","5","5","5","5","5","2","2","1","2","1","2","2","2","5","5","5","5","5","4","4","4","5","5","7","8","8","8","7","8","7","9","8","6","7","4","7","7","7","6","7","7","7","6","7","7","7","6","7","7","7","5","7","7","7","7","7","7","7","7","7","7","7","7","7","7","7","6","7","7","7","7","7","718581844601208832","周","216","Male","[""好我"",""坏我"",""好他"",""坏他""]","[""强我"",""弱我"",""强他"",""弱他""]","","","","","","","","nonmatch","","","","","","","","","","key","j","8.330063725490119","853.3333333333334","476","j","true","nonmatch","img/triangle.png","强我","弱我","prac_ALT2_ability","practice_ability","","","","","","","",""
"null","<span style='color:GreenYellow; font-size: 70px;'>正确! </span>","null","html-keyboard-response","71","376229","0.0-8.0-1.0-1.0-0.0-1.30","6","6","7","5","5","5","5","5","5","5","5","2","2","1","2","1","2","2","2","5","5","5","5","5","4","4","4","5","5","7","8","8","8","7","8","7","9","8","6","7","4","7","7","7","6","7","7","7","6","7","7","7","6","7","7","7","5","7","7","7","7","7","7","7","7","7","7","7","7","7","7","7","6","7","7","7","7","7","718581844601208832","周","216","Male","[""好我"",""坏我"",""好他"",""坏他""]","[""强我"",""弱我"",""强他"",""弱他""]","","","","","","","","","","","","","","","","","","","","","","","","","","","","","","feedback_test","","","","","","","",""
"714","","j","psychophysics","72","377944","0.0-8.0-1.0-1.0-0.0-0.31","6","6","7","5","5","5","5","5","5","5","5","2","2","1","2","1","2","2","2","5","5","5","5","5","4","4","4","5","5","7","8","8","8","7","8","7","9","8","6","7","4","7","7","7","6","7","7","7","6","7","7","7","6","7","7","7","5","7","7","7","7","7","7","7","7","7","7","7","7","7","7","7","6","7","7","7","7","7","718581844601208832","周","216","Male","[""好我"",""坏我"",""好他"",""坏他""]","[""强我"",""弱我"",""强他"",""弱他""]","","","","","","","","nonmatch","","","","","","","","","","key","j","8.334882352941136","853.3333333333334","476","j","true","nonmatch","img/square.png","弱他","强他","prac_ALT2_ability","practice_ability","","","","","","","",""
"null","<span style='color:GreenYellow; font-size: 70px;'>正确! </span>","null","html-keyboard-response","73","378451","0.0-8.0-1.0-1.0-0.0-1.31","6","6","7","5","5","5","5","5","5","5","5","2","2","1","2","1","2","2","2","5","5","5","5","5","4","4","4","5","5","7","8","8","8","7","8","7","9","8","6","7","4","7","7","7","6","7","7","7","6","7","7","7","6","7","7","7","5","7","7","7","7","7","7","7","7","7","7","7","7","7","7","7","6","7","7","7","7","7","718581844601208832","周","216","Male","[""好我"",""坏我"",""好他"",""坏他""]","[""强我"",""弱我"",""强他"",""弱他""]","","","","","","","","","","","","","","","","","","","","","","","","","","","","","","feedback_test","","","","","","","",""
"877","","j","psychophysics","74","380329","0.0-8.0-1.0-1.0-0.0-0.32","6","6","7","5","5","5","5","5","5","5","5","2","2","1","2","1","2","2","2","5","5","5","5","5","4","4","4","5","5","7","8","8","8","7","8","7","9","8","6","7","4","7","7","7","6","7","7","7","6","7","7","7","6","7","7","7","5","7","7","7","7","7","7","7","7","7","7","7","7","7","7","7","6","7","7","7","7","7","718581844601208832","周","216","Male","[""好我"",""坏我"",""好他"",""坏他""]","[""强我"",""弱我"",""强他"",""弱他""]","","","","","","","","nonmatch","","","","","","","","","","key","j","8.3347053571428","853.3333333333334","476","j","true","nonmatch","img/square.png","弱我","强他","prac_ALT2_ability","practice_ability","","","","","","","",""
"null","<span style='color:GreenYellow; font-size: 70px;'>正确! </span>","null","html-keyboard-response","75","380836","0.0-8.0-1.0-1.0-0.0-1.32","6","6","7","5","5","5","5","5","5","5","5","2","2","1","2","1","2","2","2","5","5","5","5","5","4","4","4","5","5","7","8","8","8","7","8","7","9","8","6","7","4","7","7","7","6","7","7","7","6","7","7","7","6","7","7","7","5","7","7","7","7","7","7","7","7","7","7","7","7","7","7","7","6","7","7","7","7","7","718581844601208832","周","216","Male","[""好我"",""坏我"",""好他"",""坏他""]","[""强我"",""弱我"",""强他"",""弱他""]","","","","","","","","","","","","","","","","","","","","","","","","","","","","","","feedback_test","","","","","","","",""
"603","","f","psychophysics","76","382440","0.0-8.0-1.0-1.0-0.0-0.33","6","6","7","5","5","5","5","5","5","5","5","2","2","1","2","1","2","2","2","5","5","5","5","5","4","4","4","5","5","7","8","8","8","7","8","7","9","8","6","7","4","7","7","7","6","7","7","7","6","7","7","7","6","7","7","7","5","7","7","7","7","7","7","7","7","7","7","7","7","7","7","7","6","7","7","7","7","7","718581844601208832","周","216","Male","[""好我"",""坏我"",""好他"",""坏他""]","[""强我"",""弱我"",""强他"",""弱他""]","","","","","","","","match","","","","","","","","","","key","f","8.335151832460557","853.3333333333334","476","f","true","match","img/ellipse.png","强我","强我","prac_ALT2_ability","practice_ability","","","","","","","",""
"null","<span style='color:GreenYellow; font-size: 70px;'>正确! </span>","null","html-keyboard-response","77","382949","0.0-8.0-1.0-1.0-0.0-1.33","6","6","7","5","5","5","5","5","5","5","5","2","2","1","2","1","2","2","2","5","5","5","5","5","4","4","4","5","5","7","8","8","8","7","8","7","9","8","6","7","4","7","7","7","6","7","7","7","6","7","7","7","6","7","7","7","5","7","7","7","7","7","7","7","7","7","7","7","7","7","7","7","6","7","7","7","7","7","718581844601208832","周","216","Male","[""好我"",""坏我"",""好他"",""坏他""]","[""强我"",""弱我"",""强他"",""弱他""]","","","","","","","","","","","","","","","","","","","","","","","","","","","","","","feedback_test","","","","","","","",""
"644","","j","psychophysics","78","384593","0.0-8.0-1.0-1.0-0.0-0.34","6","6","7","5","5","5","5","5","5","5","5","2","2","1","2","1","2","2","2","5","5","5","5","5","4","4","4","5","5","7","8","8","8","7","8","7","9","8","6","7","4","7","7","7","6","7","7","7","6","7","7","7","6","7","7","7","5","7","7","7","7","7","7","7","7","7","7","7","7","7","7","7","6","7","7","7","7","7","718581844601208832","周","216","Male","[""好我"",""坏我"",""好他"",""坏他""]","[""强我"",""弱我"",""强他"",""弱他""]","","","","","","","","nonmatch","","","","","","","","","","key","j","8.334045918367337","853.3333333333334","476","j","true","nonmatch","img/triangle.png","强他","弱我","prac_ALT2_ability","practice_ability","","","","","","","",""
"null","<span style='color:GreenYellow; font-size: 70px;'>正确! </span>","null","html-keyboard-response","79","385100","0.0-8.0-1.0-1.0-0.0-1.34","6","6","7","5","5","5","5","5","5","5","5","2","2","1","2","1","2","2","2","5","5","5","5","5","4","4","4","5","5","7","8","8","8","7","8","7","9","8","6","7","4","7","7","7","6","7","7","7","6","7","7","7","6","7","7","7","5","7","7","7","7","7","7","7","7","7","7","7","7","7","7","7","6","7","7","7","7","7","718581844601208832","周","216","Male","[""好我"",""坏我"",""好他"",""坏他""]","[""强我"",""弱我"",""强他"",""弱他""]","","","","","","","","","","","","","","","","","","","","","","","","","","","","","","feedback_test","","","","","","","",""
"723","","j","psychophysics","80","386824","0.0-8.0-1.0-1.0-0.0-0.35","6","6","7","5","5","5","5","5","5","5","5","2","2","1","2","1","2","2","2","5","5","5","5","5","4","4","4","5","5","7","8","8","8","7","8","7","9","8","6","7","4","7","7","7","6","7","7","7","6","7","7","7","6","7","7","7","5","7","7","7","7","7","7","7","7","7","7","7","7","7","7","7","6","7","7","7","7","7","718581844601208832","周","216","Male","[""好我"",""坏我"",""好他"",""坏他""]","[""强我"",""弱我"",""强他"",""弱他""]","","","","","","","","nonmatch","","","","","","","","","","key","j","8.334609756097425","853.3333333333334","476","j","true","nonmatch","img/triangle.png","弱他","弱我","prac_ALT2_ability","practice_ability","","","","","","","",""
"null","<span style='color:GreenYellow; font-size: 70px;'>正确! </span>","null","html-keyboard-response","81","387333","0.0-8.0-1.0-1.0-0.0-1.35","6","6","7","5","5","5","5","5","5","5","5","2","2","1","2","1","2","2","2","5","5","5","5","5","4","4","4","5","5","7","8","8","8","7","8","7","9","8","6","7","4","7","7","7","6","7","7","7","6","7","7","7","6","7","7","7","5","7","7","7","7","7","7","7","7","7","7","7","7","7","7","7","6","7","7","7","7","7","718581844601208832","周","216","Male","[""好我"",""坏我"",""好他"",""坏他""]","[""强我"",""弱我"",""强他"",""弱他""]","","","","","","","","","","","","","","","","","","","","","","","","","","","","","","feedback_test","","","","","","","",""
"652","","j","psychophysics","82","388985","0.0-8.0-1.0-1.0-0.0-0.36","6","6","7","5","5","5","5","5","5","5","5","2","2","1","2","1","2","2","2","5","5","5","5","5","4","4","4","5","5","7","8","8","8","7","8","7","9","8","6","7","4","7","7","7","6","7","7","7","6","7","7","7","6","7","7","7","5","7","7","7","7","7","7","7","7","7","7","7","7","7","7","7","6","7","7","7","7","7","718581844601208832","周","216","Male","[""好我"",""坏我"",""好他"",""坏他""]","[""强我"",""弱我"",""强他"",""弱他""]","","","","","","","","nonmatch","","","","","","","","","","key","j","8.334248730964513","853.3333333333334","476","f","false","match","img/triangle.png","弱我","弱我","prac_ALT2_ability","practice_ability","","","","","","","",""
"null","<span style='color:red; font-size: 70px;'>错误! </span>","null","html-keyboard-response","83","389492","0.0-8.0-1.0-1.0-0.0-1.36","6","6","7","5","5","5","5","5","5","5","5","2","2","1","2","1","2","2","2","5","5","5","5","5","4","4","4","5","5","7","8","8","8","7","8","7","9","8","6","7","4","7","7","7","6","7","7","7","6","7","7","7","6","7","7","7","5","7","7","7","7","7","7","7","7","7","7","7","7","7","7","7","6","7","7","7","7","7","718581844601208832","周","216","Male","[""好我"",""坏我"",""好他"",""坏他""]","[""强我"",""弱我"",""强他"",""弱他""]","","","","","","","","","","","","","","","","","","","","","","","","","","","","","","feedback_test","","","","","","","",""
"731","","j","psychophysics","84","391224","0.0-8.0-1.0-1.0-0.0-0.37","6","6","7","5","5","5","5","5","5","5","5","2","2","1","2","1","2","2","2","5","5","5","5","5","4","4","4","5","5","7","8","8","8","7","8","7","9","8","6","7","4","7","7","7","6","7","7","7","6","7","7","7","6","7","7","7","5","7","7","7","7","7","7","7","7","7","7","7","7","7","7","7","6","7","7","7","7","7","718581844601208832","周","216","Male","[""好我"",""坏我"",""好他"",""坏他""]","[""强我"",""弱我"",""强他"",""弱他""]","","","","","","","","nonmatch","","","","","","","","","","key","j","8.333223300971015","853.3333333333334","476","j","true","nonmatch","img/ellipse.png","弱我","强我","prac_ALT2_ability","practice_ability","","","","","","","",""
"null","<span style='color:GreenYellow; font-size: 70px;'>正确! </span>","null","html-keyboard-response","85","391726","0.0-8.0-1.0-1.0-0.0-1.37","6","6","7","5","5","5","5","5","5","5","5","2","2","1","2","1","2","2","2","5","5","5","5","5","4","4","4","5","5","7","8","8","8","7","8","7","9","8","6","7","4","7","7","7","6","7","7","7","6","7","7","7","6","7","7","7","5","7","7","7","7","7","7","7","7","7","7","7","7","7","7","7","6","7","7","7","7","7","718581844601208832","周","216","Male","[""好我"",""坏我"",""好他"",""坏他""]","[""强我"",""弱我"",""强他"",""弱他""]","","","","","","","","","","","","","","","","","","","","","","","","","","","","","","feedback_test","","","","","","","",""
"627","","f","psychophysics","86","393354","0.0-8.0-1.0-1.0-0.0-0.38","6","6","7","5","5","5","5","5","5","5","5","2","2","1","2","1","2","2","2","5","5","5","5","5","4","4","4","5","5","7","8","8","8","7","8","7","9","8","6","7","4","7","7","7","6","7","7","7","6","7","7","7","6","7","7","7","5","7","7","7","7","7","7","7","7","7","7","7","7","7","7","7","6","7","7","7","7","7","718581844601208832","周","216","Male","[""好我"",""坏我"",""好他"",""坏他""]","[""强我"",""弱我"",""强他"",""弱他""]","","","","","","","","match","","","","","","","","","","key","f","8.334695876288569","853.3333333333334","476","f","true","match","img/square.png","强他","强他","prac_ALT2_ability","practice_ability","","","","","","","",""
"null","<span style='color:GreenYellow; font-size: 70px;'>正确! </span>","null","html-keyboard-response","87","393862","0.0-8.0-1.0-1.0-0.0-1.38","6","6","7","5","5","5","5","5","5","5","5","2","2","1","2","1","2","2","2","5","5","5","5","5","4","4","4","5","5","7","8","8","8","7","8","7","9","8","6","7","4","7","7","7","6","7","7","7","6","7","7","7","6","7","7","7","5","7","7","7","7","7","7","7","7","7","7","7","7","7","7","7","6","7","7","7","7","7","718581844601208832","周","216","Male","[""好我"",""坏我"",""好他"",""坏他""]","[""强我"",""弱我"",""强他"",""弱他""]","","","","","","","","","","","","","","","","","","","","","","","","","","","","","","feedback_test","","","","","","","",""
"689","","j","psychophysics","88","395552","0.0-8.0-1.0-1.0-0.0-0.39","6","6","7","5","5","5","5","5","5","5","5","2","2","1","2","1","2","2","2","5","5","5","5","5","4","4","4","5","5","7","8","8","8","7","8","7","9","8","6","7","4","7","7","7","6","7","7","7","6","7","7","7","6","7","7","7","5","7","7","7","7","7","7","7","7","7","7","7","7","7","7","7","6","7","7","7","7","7","718581844601208832","周","216","Male","[""好我"",""坏我"",""好他"",""坏他""]","[""强我"",""弱我"",""强他"",""弱他""]","","","","","","","","nonmatch","","","","","","","","","","key","j","8.33258706467679","853.3333333333334","476","j","true","nonmatch","img/ellipse.png","弱他","强我","prac_ALT2_ability","practice_ability","","","","","","","",""
"null","<span style='color:GreenYellow; font-size: 70px;'>正确! </span>","null","html-keyboard-response","89","396054","0.0-8.0-1.0-1.0-0.0-1.39","6","6","7","5","5","5","5","5","5","5","5","2","2","1","2","1","2","2","2","5","5","5","5","5","4","4","4","5","5","7","8","8","8","7","8","7","9","8","6","7","4","7","7","7","6","7","7","7","6","7","7","7","6","7","7","7","5","7","7","7","7","7","7","7","7","7","7","7","7","7","7","7","6","7","7","7","7","7","718581844601208832","周","216","Male","[""好我"",""坏我"",""好他"",""坏他""]","[""强我"",""弱我"",""强他"",""弱他""]","","","","","","","","","","","","","","","","","","","","","","","","","","","","","","feedback_test","","","","","","","",""
"712","","f","psychophysics","90","397768","0.0-8.0-1.0-1.0-0.0-0.40","6","6","7","5","5","5","5","5","5","5","5","2","2","1","2","1","2","2","2","5","5","5","5","5","4","4","4","5","5","7","8","8","8","7","8","7","9","8","6","7","4","7","7","7","6","7","7","7","6","7","7","7","6","7","7","7","5","7","7","7","7","7","7","7","7","7","7","7","7","7","7","7","6","7","7","7","7","7","718581844601208832","周","216","Male","[""好我"",""坏我"",""好他"",""坏他""]","[""强我"",""弱我"",""强他"",""弱他""]","","","","","","","","match","","","","","","","","","","key","f","8.330877450980445","853.3333333333334","476","f","true","match","img/ellipse.png","强我","强我","prac_ALT2_ability","practice_ability","","","","","","","",""
"null","<span style='color:GreenYellow; font-size: 70px;'>正确! </span>","null","html-keyboard-response","91","398276","0.0-8.0-1.0-1.0-0.0-1.40","6","6","7","5","5","5","5","5","5","5","5","2","2","1","2","1","2","2","2","5","5","5","5","5","4","4","4","5","5","7","8","8","8","7","8","7","9","8","6","7","4","7","7","7","6","7","7","7","6","7","7","7","6","7","7","7","5","7","7","7","7","7","7","7","7","7","7","7","7","7","7","7","6","7","7","7","7","7","718581844601208832","周","216","Male","[""好我"",""坏我"",""好他"",""坏他""]","[""强我"",""弱我"",""强他"",""弱他""]","","","","","","","","","","","","","","","","","","","","","","","","","","","","","","feedback_test","","","","","","","",""
"596","","j","psychophysics","92","399872","0.0-8.0-1.0-1.0-0.0-0.41","6","6","7","5","5","5","5","5","5","5","5","2","2","1","2","1","2","2","2","5","5","5","5","5","4","4","4","5","5","7","8","8","8","7","8","7","9","8","6","7","4","7","7","7","6","7","7","7","6","7","7","7","6","7","7","7","5","7","7","7","7","7","7","7","7","7","7","7","7","7","7","7","6","7","7","7","7","7","718581844601208832","周","216","Male","[""好我"",""坏我"",""好他"",""坏他""]","[""强我"",""弱我"",""强他"",""弱他""]","","","","","","","","nonmatch","","","","","","","","","","key","j","8.333542105263271","853.3333333333334","476","j","true","nonmatch","img/ellipse.png","强他","强我","prac_ALT2_ability","practice_ability","","","","","","","",""
"null","<span style='color:GreenYellow; font-size: 70px;'>正确! </span>","null","html-keyboard-response","93","400379","0.0-8.0-1.0-1.0-0.0-1.41","6","6","7","5","5","5","5","5","5","5","5","2","2","1","2","1","2","2","2","5","5","5","5","5","4","4","4","5","5","7","8","8","8","7","8","7","9","8","6","7","4","7","7","7","6","7","7","7","6","7","7","7","6","7","7","7","5","7","7","7","7","7","7","7","7","7","7","7","7","7","7","7","6","7","7","7","7","7","718581844601208832","周","216","Male","[""好我"",""坏我"",""好他"",""坏他""]","[""强我"",""弱我"",""强他"",""弱他""]","","","","","","","","","","","","","","","","","","","","","","","","","","","","","","feedback_test","","","","","","","",""
"780","","j","psychophysics","94","402160","0.0-8.0-1.0-1.0-0.0-0.42","6","6","7","5","5","5","5","5","5","5","5","2","2","1","2","1","2","2","2","5","5","5","5","5","4","4","4","5","5","7","8","8","8","7","8","7","9","8","6","7","4","7","7","7","6","7","7","7","6","7","7","7","6","7","7","7","5","7","7","7","7","7","7","7","7","7","7","7","7","7","7","7","6","7","7","7","7","7","718581844601208832","周","216","Male","[""好我"",""坏我"",""好他"",""坏他""]","[""强我"",""弱我"",""强他"",""弱他""]","","","","","","","","nonmatch","","","","","","","","","","key","j","8.332198113207442","853.3333333333334","476","j","true","nonmatch","img/square.png","强我","强他","prac_ALT2_ability","practice_ability","","","","","","","",""
"null","<span style='color:GreenYellow; font-size: 70px;'>正确! </span>","null","html-keyboard-response","95","402666","0.0-8.0-1.0-1.0-0.0-1.42","6","6","7","5","5","5","5","5","5","5","5","2","2","1","2","1","2","2","2","5","5","5","5","5","4","4","4","5","5","7","8","8","8","7","8","7","9","8","6","7","4","7","7","7","6","7","7","7","6","7","7","7","6","7","7","7","5","7","7","7","7","7","7","7","7","7","7","7","7","7","7","7","6","7","7","7","7","7","718581844601208832","周","216","Male","[""好我"",""坏我"",""好他"",""坏他""]","[""强我"",""弱我"",""强他"",""弱他""]","","","","","","","","","","","","","","","","","","","","","","","","","","","","","","feedback_test","","","","","","","",""
"636","","j","psychophysics","96","404304","0.0-8.0-1.0-1.0-0.0-0.43","6","6","7","5","5","5","5","5","5","5","5","2","2","1","2","1","2","2","2","5","5","5","5","5","4","4","4","5","5","7","8","8","8","7","8","7","9","8","6","7","4","7","7","7","6","7","7","7","6","7","7","7","6","7","7","7","5","7","7","7","7","7","7","7","7","7","7","7","7","7","7","7","6","7","7","7","7","7","718581844601208832","周","216","Male","[""好我"",""坏我"",""好他"",""坏他""]","[""强我"",""弱我"",""强他"",""弱他""]","","","","","","","","nonmatch","","","","","","","","","","key","j","8.334389743589773","853.3333333333334","476","f","false","match","img/triangle.png","弱我","弱我","prac_ALT2_ability","practice_ability","","","","","","","",""
"null","<span style='color:red; font-size: 70px;'>错误! </span>","null","html-keyboard-response","97","404804","0.0-8.0-1.0-1.0-0.0-1.43","6","6","7","5","5","5","5","5","5","5","5","2","2","1","2","1","2","2","2","5","5","5","5","5","4","4","4","5","5","7","8","8","8","7","8","7","9","8","6","7","4","7","7","7","6","7","7","7","6","7","7","7","6","7","7","7","5","7","7","7","7","7","7","7","7","7","7","7","7","7","7","7","6","7","7","7","7","7","718581844601208832","周","216","Male","[""好我"",""坏我"",""好他"",""坏他""]","[""强我"",""弱我"",""强他"",""弱他""]","","","","","","","","","","","","","","","","","","","","","","","","","","","","","","feedback_test","","","","","","","",""
"618","","f","psychophysics","98","406424","0.0-8.0-1.0-1.0-0.0-0.44","6","6","7","5","5","5","5","5","5","5","5","2","2","1","2","1","2","2","2","5","5","5","5","5","4","4","4","5","5","7","8","8","8","7","8","7","9","8","6","7","4","7","7","7","6","7","7","7","6","7","7","7","6","7","7","7","5","7","7","7","7","7","7","7","7","7","7","7","7","7","7","7","6","7","7","7","7","7","718581844601208832","周","216","Male","[""好我"",""坏我"",""好他"",""坏他""]","[""强我"",""弱我"",""强他"",""弱他""]","","","","","","","","match","","","","","","","","","","key","f","8.335181347150272","853.3333333333334","476","f","true","match","img/hexagon.png","弱他","弱他","prac_ALT2_ability","practice_ability","","","","","","","",""
"null","<span style='color:GreenYellow; font-size: 70px;'>正确! </span>","null","html-keyboard-response","99","406932","0.0-8.0-1.0-1.0-0.0-1.44","6","6","7","5","5","5","5","5","5","5","5","2","2","1","2","1","2","2","2","5","5","5","5","5","4","4","4","5","5","7","8","8","8","7","8","7","9","8","6","7","4","7","7","7","6","7","7","7","6","7","7","7","6","7","7","7","5","7","7","7","7","7","7","7","7","7","7","7","7","7","7","7","6","7","7","7","7","7","718581844601208832","周","216","Male","[""好我"",""坏我"",""好他"",""坏他""]","[""强我"",""弱我"",""强他"",""弱他""]","","","","","","","","","","","","","","","","","","","","","","","","","","","","","","feedback_test","","","","","","","",""
"1067","","j","psychophysics","100","409000","0.0-8.0-1.0-1.0-0.0-0.45","6","6","7","5","5","5","5","5","5","5","5","2","2","1","2","1","2","2","2","5","5","5","5","5","4","4","4","5","5","7","8","8","8","7","8","7","9","8","6","7","4","7","7","7","6","7","7","7","6","7","7","7","6","7","7","7","5","7","7","7","7","7","7","7","7","7","7","7","7","7","7","7","6","7","7","7","7","7","718581844601208832","周","216","Male","[""好我"",""坏我"",""好他"",""坏他""]","[""强我"",""弱我"",""强他"",""弱他""]","","","","","","","","nonmatch","","","","","","","","","","key","j","8.334287449392784","853.3333333333334","476","j","true","nonmatch","img/hexagon.png","强他","弱他","prac_ALT2_ability","practice_ability","","","","","","","",""
"null","<span style='color:GreenYellow; font-size: 70px;'>正确! </span>","null","html-keyboard-response","101","409507","0.0-8.0-1.0-1.0-0.0-1.45","6","6","7","5","5","5","5","5","5","5","5","2","2","1","2","1","2","2","2","5","5","5","5","5","4","4","4","5","5","7","8","8","8","7","8","7","9","8","6","7","4","7","7","7","6","7","7","7","6","7","7","7","6","7","7","7","5","7","7","7","7","7","7","7","7","7","7","7","7","7","7","7","6","7","7","7","7","7","718581844601208832","周","216","Male","[""好我"",""坏我"",""好他"",""坏他""]","[""强我"",""弱我"",""强他"",""弱他""]","","","","","","","","","","","","","","","","","","","","","","","","","","","","","","feedback_test","","","","","","","",""
"796","","f","psychophysics","102","411304","0.0-8.0-1.0-1.0-0.0-0.46","6","6","7","5","5","5","5","5","5","5","5","2","2","1","2","1","2","2","2","5","5","5","5","5","4","4","4","5","5","7","8","8","8","7","8","7","9","8","6","7","4","7","7","7","6","7","7","7","6","7","7","7","6","7","7","7","5","7","7","7","7","7","7","7","7","7","7","7","7","7","7","7","6","7","7","7","7","7","718581844601208832","周","216","Male","[""好我"",""坏我"",""好他"",""坏他""]","[""强我"",""弱我"",""强他"",""弱他""]","","","","","","","","match","","","","","","","","","","key","f","8.334130841121567","853.3333333333334","476","f","true","match","img/square.png","强他","强他","prac_ALT2_ability","practice_ability","","","","","","","",""
"null","<span style='color:GreenYellow; font-size: 70px;'>正确! </span>","null","html-keyboard-response","103","411804","0.0-8.0-1.0-1.0-0.0-1.46","6","6","7","5","5","5","5","5","5","5","5","2","2","1","2","1","2","2","2","5","5","5","5","5","4","4","4","5","5","7","8","8","8","7","8","7","9","8","6","7","4","7","7","7","6","7","7","7","6","7","7","7","6","7","7","7","5","7","7","7","7","7","7","7","7","7","7","7","7","7","7","7","6","7","7","7","7","7","718581844601208832","周","216","Male","[""好我"",""坏我"",""好他"",""坏他""]","[""强我"",""弱我"",""强他"",""弱他""]","","","","","","","","","","","","","","","","","","","","","","","","","","","","","","feedback_test","","","","","","","",""
"730","","f","psychophysics","104","413536","0.0-8.0-1.0-1.0-0.0-0.47","6","6","7","5","5","5","5","5","5","5","5","2","2","1","2","1","2","2","2","5","5","5","5","5","4","4","4","5","5","7","8","8","8","7","8","7","9","8","6","7","4","7","7","7","6","7","7","7","6","7","7","7","6","7","7","7","5","7","7","7","7","7","7","7","7","7","7","7","7","7","7","7","6","7","7","7","7","7","718581844601208832","周","216","Male","[""好我"",""坏我"",""好他"",""坏他""]","[""强我"",""弱我"",""强他"",""弱他""]","","","","","","","","match","","","","","","","","","","key","f","8.333344660194147","853.3333333333334","476","f","true","match","img/hexagon.png","弱他","弱他","prac_ALT2_ability","practice_ability","","","","","","","",""
"null","<span style='color:GreenYellow; font-size: 70px;'>正确! </span>","null","html-keyboard-response","105","414044","0.0-8.0-1.0-1.0-0.0-1.47","6","6","7","5","5","5","5","5","5","5","5","2","2","1","2","1","2","2","2","5","5","5","5","5","4","4","4","5","5","7","8","8","8","7","8","7","9","8","6","7","4","7","7","7","6","7","7","7","6","7","7","7","6","7","7","7","5","7","7","7","7","7","7","7","7","7","7","7","7","7","7","7","6","7","7","7","7","7","718581844601208832","周","216","Male","[""好我"",""坏我"",""好他"",""坏他""]","[""强我"",""弱我"",""强他"",""弱他""]","","","","","","","","","","","","","","","","","","","","","","","","","","","","","","feedback_test","","","","","","","",""
"2122","<style>.context{color:white; font-size: 35px; line-height:40px}</style>                          <div><p class='context'>您正确回答了88% 的试次。</p><p class='context'>您的平均反应时为795毫秒。</p><p class='context'>恭喜您完成练习。按空格键进入正式实验。</p><p class='footer' style='color:white;font-size: 35px; line-height:40px;'>请在进入正式实验实验之前将您的<span style='color: lightgreen;'>食指</span>放在电脑键盘的相应键位上进行按键。</p>"," ","html-keyboard-response","106","416168","0.0-8.0-1.0-2.0","6","6","7","5","5","5","5","5","5","5","5","2","2","1","2","1","2","2","2","5","5","5","5","5","4","4","4","5","5","7","8","8","8","7","8","7","9","8","6","7","4","7","7","7","6","7","7","7","6","7","7","7","6","7","7","7","5","7","7","7","7","7","7","7","7","7","7","7","7","7","7","7","6","7","7","7","7","7","718581844601208832","周","216","Male","[""好我"",""坏我"",""好他"",""坏他""]","[""强我"",""弱我"",""强他"",""弱他""]","","","","","","","","","","","","","","","","","","","","","","","","","","","","","","","","","","","","","",""
"886","
  <p style='color: white; font-size: 22px'>请您将手指放在按键上，准备进入正式的匹配任务。</p>
  <p> <div style = ""color: green""><按空格键进入下一阶段的匹配任务></div></p>
  "," ","html-keyboard-response","107","417056","0.0-8.0-1.0-3.0","6","6","7","5","5","5","5","5","5","5","5","2","2","1","2","1","2","2","2","5","5","5","5","5","4","4","4","5","5","7","8","8","8","7","8","7","9","8","6","7","4","7","7","7","6","7","7","7","6","7","7","7","6","7","7","7","5","7","7","7","7","7","7","7","7","7","7","7","7","7","7","7","6","7","7","7","7","7","718581844601208832","周","216","Male","[""好我"",""坏我"",""好他"",""坏他""]","[""强我"",""弱我"",""强他"",""弱他""]","","","","","","","","","","","","","","","","","","","","","","","","","","","","","","","","","","","","","",""
"639","","f","psychophysics","108","418696","0.0-8.0-1.0-4.0-0.0-0.0","6","6","7","5","5","5","5","5","5","5","5","2","2","1","2","1","2","2","2","5","5","5","5","5","4","4","4","5","5","7","8","8","8","7","8","7","9","8","6","7","4","7","7","7","6","7","7","7","6","7","7","7","6","7","7","7","5","7","7","7","7","7","7","7","7","7","7","7","7","7","7","7","6","7","7","7","7","7","718581844601208832","周","216","Male","[""好我"",""坏我"",""好他"",""坏他""]","[""强我"",""弱我"",""强他"",""弱他""]","","","","","","","","match","","","","","","","","","","key","f","8.330592783505203","853.3333333333334","476","f","true","match","img/hexagon.png","弱他","弱他","ALT2","ability","","","","","","","",""
"null","<span style='color:GreenYellow; font-size: 70px;'>正确! </span>","null","html-keyboard-response","109","419203","0.0-8.0-1.0-4.0-0.0-1.0","6","6","7","5","5","5","5","5","5","5","5","2","2","1","2","1","2","2","2","5","5","5","5","5","4","4","4","5","5","7","8","8","8","7","8","7","9","8","6","7","4","7","7","7","6","7","7","7","6","7","7","7","6","7","7","7","5","7","7","7","7","7","7","7","7","7","7","7","7","7","7","7","6","7","7","7","7","7","718581844601208832","周","216","Male","[""好我"",""坏我"",""好他"",""坏他""]","[""强我"",""弱我"",""强他"",""弱他""]","","","","","","","","","","","","","","","","","","","","","","","","","","","","","","feedback_test","","","","","","","",""
"763","","f","psychophysics","110","420968","0.0-8.0-1.0-4.0-0.0-0.1","6","6","7","5","5","5","5","5","5","5","5","2","2","1","2","1","2","2","2","5","5","5","5","5","4","4","4","5","5","7","8","8","8","7","8","7","9","8","6","7","4","7","7","7","6","7","7","7","6","7","7","7","6","7","7","7","5","7","7","7","7","7","7","7","7","7","7","7","7","7","7","7","6","7","7","7","7","7","718581844601208832","周","216","Male","[""好我"",""坏我"",""好他"",""坏他""]","[""强我"",""弱我"",""强他"",""弱他""]","","","","","","","","match","","","","","","","","","","key","f","8.334747619047716","853.3333333333334","476","f","true","match","img/hexagon.png","弱他","弱他","ALT2","ability","","","","","","","",""
"null","<span style='color:GreenYellow; font-size: 70px;'>正确! </span>","null","html-keyboard-response","111","421475","0.0-8.0-1.0-4.0-0.0-1.1","6","6","7","5","5","5","5","5","5","5","5","2","2","1","2","1","2","2","2","5","5","5","5","5","4","4","4","5","5","7","8","8","8","7","8","7","9","8","6","7","4","7","7","7","6","7","7","7","6","7","7","7","6","7","7","7","5","7","7","7","7","7","7","7","7","7","7","7","7","7","7","7","6","7","7","7","7","7","718581844601208832","周","216","Male","[""好我"",""坏我"",""好他"",""坏他""]","[""强我"",""弱我"",""强他"",""弱他""]","","","","","","","","","","","","","","","","","","","","","","","","","","","","","","feedback_test","","","","","","","",""
"612","","f","psychophysics","112","423088","0.0-8.0-1.0-4.0-0.0-0.2","6","6","7","5","5","5","5","5","5","5","5","2","2","1","2","1","2","2","2","5","5","5","5","5","4","4","4","5","5","7","8","8","8","7","8","7","9","8","6","7","4","7","7","7","6","7","7","7","6","7","7","7","6","7","7","7","5","7","7","7","7","7","7","7","7","7","7","7","7","7","7","7","6","7","7","7","7","7","718581844601208832","周","216","Male","[""好我"",""坏我"",""好他"",""坏他""]","[""强我"",""弱我"",""强他"",""弱他""]","","","","","","","","match","","","","","","","","","","key","f","8.333953125000031","853.3333333333334","476","f","true","match","img/ellipse.png","强我","强我","ALT2","ability","","","","","","","",""
"null","<span style='color:GreenYellow; font-size: 70px;'>正确! </span>","null","html-keyboard-response","113","423595","0.0-8.0-1.0-4.0-0.0-1.2","6","6","7","5","5","5","5","5","5","5","5","2","2","1","2","1","2","2","2","5","5","5","5","5","4","4","4","5","5","7","8","8","8","7","8","7","9","8","6","7","4","7","7","7","6","7","7","7","6","7","7","7","6","7","7","7","5","7","7","7","7","7","7","7","7","7","7","7","7","7","7","7","6","7","7","7","7","7","718581844601208832","周","216","Male","[""好我"",""坏我"",""好他"",""坏他""]","[""强我"",""弱我"",""强他"",""弱他""]","","","","","","","","","","","","","","","","","","","","","","","","","","","","","","feedback_test","","","","","","","",""
"572","","f","psychophysics","114","425168","0.0-8.0-1.0-4.0-0.0-0.3","6","6","7","5","5","5","5","5","5","5","5","2","2","1","2","1","2","2","2","5","5","5","5","5","4","4","4","5","5","7","8","8","8","7","8","7","9","8","6","7","4","7","7","7","6","7","7","7","6","7","7","7","6","7","7","7","5","7","7","7","7","7","7","7","7","7","7","7","7","7","7","7","6","7","7","7","7","7","718581844601208832","周","216","Male","[""好我"",""坏我"",""好他"",""坏他""]","[""强我"",""弱我"",""强他"",""弱他""]","","","","","","","","match","","","","","","","","","","key","f","8.333042780748558","853.3333333333334","476","f","true","match","img/ellipse.png","强我","强我","ALT2","ability","","","","","","","",""
"null","<span style='color:GreenYellow; font-size: 70px;'>正确! </span>","null","html-keyboard-response","115","425674","0.0-8.0-1.0-4.0-0.0-1.3","6","6","7","5","5","5","5","5","5","5","5","2","2","1","2","1","2","2","2","5","5","5","5","5","4","4","4","5","5","7","8","8","8","7","8","7","9","8","6","7","4","7","7","7","6","7","7","7","6","7","7","7","6","7","7","7","5","7","7","7","7","7","7","7","7","7","7","7","7","7","7","7","6","7","7","7","7","7","718581844601208832","周","216","Male","[""好我"",""坏我"",""好他"",""坏他""]","[""强我"",""弱我"",""强他"",""弱他""]","","","","","","","","","","","","","","","","","","","","","","","","","","","","","","feedback_test","","","","","","","",""
"701","","f","psychophysics","116","427376","0.0-8.0-1.0-4.0-0.0-0.4","6","6","7","5","5","5","5","5","5","5","5","2","2","1","2","1","2","2","2","5","5","5","5","5","4","4","4","5","5","7","8","8","8","7","8","7","9","8","6","7","4","7","7","7","6","7","7","7","6","7","7","7","6","7","7","7","5","7","7","7","7","7","7","7","7","7","7","7","7","7","7","7","6","7","7","7","7","7","718581844601208832","周","216","Male","[""好我"",""坏我"",""好他"",""坏他""]","[""强我"",""弱我"",""强他"",""弱他""]","","","","","","","","match","","","","","","","","","","key","f","8.332458128078825","853.3333333333334","476","f","true","match","img/triangle.png","弱我","弱我","ALT2","ability","","","","","","","",""
"null","<span style='color:GreenYellow; font-size: 70px;'>正确! </span>","null","html-keyboard-response","117","427876","0.0-8.0-1.0-4.0-0.0-1.4","6","6","7","5","5","5","5","5","5","5","5","2","2","1","2","1","2","2","2","5","5","5","5","5","4","4","4","5","5","7","8","8","8","7","8","7","9","8","6","7","4","7","7","7","6","7","7","7","6","7","7","7","6","7","7","7","5","7","7","7","7","7","7","7","7","7","7","7","7","7","7","7","6","7","7","7","7","7","718581844601208832","周","216","Male","[""好我"",""坏我"",""好他"",""坏他""]","[""强我"",""弱我"",""强他"",""弱他""]","","","","","","","","","","","","","","","","","","","","","","","","","","","","","","feedback_test","","","","","","","",""
"675","","f","psychophysics","118","429552","0.0-8.0-1.0-4.0-0.0-0.5","6","6","7","5","5","5","5","5","5","5","5","2","2","1","2","1","2","2","2","5","5","5","5","5","4","4","4","5","5","7","8","8","8","7","8","7","9","8","6","7","4","7","7","7","6","7","7","7","6","7","7","7","6","7","7","7","5","7","7","7","7","7","7","7","7","7","7","7","7","7","7","7","6","7","7","7","7","7","718581844601208832","周","216","Male","[""好我"",""坏我"",""好他"",""坏他""]","[""强我"",""弱我"",""强他"",""弱他""]","","","","","","","","match","","","","","","","","","","key","f","8.334150000000081","853.3333333333334","476","f","true","match","img/square.png","强他","强他","ALT2","ability","","","","","","","",""
"null","<span style='color:GreenYellow; font-size: 70px;'>正确! </span>","null","html-keyboard-response","119","430059","0.0-8.0-1.0-4.0-0.0-1.5","6","6","7","5","5","5","5","5","5","5","5","2","2","1","2","1","2","2","2","5","5","5","5","5","4","4","4","5","5","7","8","8","8","7","8","7","9","8","6","7","4","7","7","7","6","7","7","7","6","7","7","7","6","7","7","7","5","7","7","7","7","7","7","7","7","7","7","7","7","7","7","7","6","7","7","7","7","7","718581844601208832","周","216","Male","[""好我"",""坏我"",""好他"",""坏他""]","[""强我"",""弱我"",""强他"",""弱他""]","","","","","","","","","","","","","","","","","","","","","","","","","","","","","","feedback_test","","","","","","","",""
"756","","j","psychophysics","120","431816","0.0-8.0-1.0-4.0-0.0-0.6","6","6","7","5","5","5","5","5","5","5","5","2","2","1","2","1","2","2","2","5","5","5","5","5","4","4","4","5","5","7","8","8","8","7","8","7","9","8","6","7","4","7","7","7","6","7","7","7","6","7","7","7","6","7","7","7","5","7","7","7","7","7","7","7","7","7","7","7","7","7","7","7","6","7","7","7","7","7","718581844601208832","周","216","Male","[""好我"",""坏我"",""好他"",""坏他""]","[""强我"",""弱我"",""强他"",""弱他""]","","","","","","","","nonmatch","","","","","","","","","","key","j","8.332397129186697","853.3333333333334","476","j","true","nonmatch","img/triangle.png","强他","弱我","ALT2","ability","","","","","","","",""
"null","<span style='color:GreenYellow; font-size: 70px;'>正确! </span>","null","html-keyboard-response","121","432321","0.0-8.0-1.0-4.0-0.0-1.6","6","6","7","5","5","5","5","5","5","5","5","2","2","1","2","1","2","2","2","5","5","5","5","5","4","4","4","5","5","7","8","8","8","7","8","7","9","8","6","7","4","7","7","7","6","7","7","7","6","7","7","7","6","7","7","7","5","7","7","7","7","7","7","7","7","7","7","7","7","7","7","7","6","7","7","7","7","7","718581844601208832","周","216","Male","[""好我"",""坏我"",""好他"",""坏他""]","[""强我"",""弱我"",""强他"",""弱他""]","","","","","","","","","","","","","","","","","","","","","","","","","","","","","","feedback_test","","","","","","","",""
"605","","f","psychophysics","122","433928","0.0-8.0-1.0-4.0-0.0-0.7","6","6","7","5","5","5","5","5","5","5","5","2","2","1","2","1","2","2","2","5","5","5","5","5","4","4","4","5","5","7","8","8","8","7","8","7","9","8","6","7","4","7","7","7","6","7","7","7","6","7","7","7","6","7","7","7","5","7","7","7","7","7","7","7","7","7","7","7","7","7","7","7","6","7","7","7","7","7","718581844601208832","周","216","Male","[""好我"",""坏我"",""好他"",""坏他""]","[""强我"",""弱我"",""强他"",""弱他""]","","","","","","","","match","","","","","","","","","","key","f","8.332910994764452","853.3333333333334","476","j","false","nonmatch","img/square.png","弱他","强他","ALT2","ability","","","","","","","",""
"null","<span style='color:red; font-size: 70px;'>错误! </span>","null","html-keyboard-response","123","434436","0.0-8.0-1.0-4.0-0.0-1.7","6","6","7","5","5","5","5","5","5","5","5","2","2","1","2","1","2","2","2","5","5","5","5","5","4","4","4","5","5","7","8","8","8","7","8","7","9","8","6","7","4","7","7","7","6","7","7","7","6","7","7","7","6","7","7","7","5","7","7","7","7","7","7","7","7","7","7","7","7","7","7","7","6","7","7","7","7","7","718581844601208832","周","216","Male","[""好我"",""坏我"",""好他"",""坏他""]","[""强我"",""弱我"",""强他"",""弱他""]","","","","","","","","","","","","","","","","","","","","","","","","","","","","","","feedback_test","","","","","","","",""
"756","","j","psychophysics","124","436192","0.0-8.0-1.0-4.0-0.0-0.8","6","6","7","5","5","5","5","5","5","5","5","2","2","1","2","1","2","2","2","5","5","5","5","5","4","4","4","5","5","7","8","8","8","7","8","7","9","8","6","7","4","7","7","7","6","7","7","7","6","7","7","7","6","7","7","7","5","7","7","7","7","7","7","7","7","7","7","7","7","7","7","7","6","7","7","7","7","7","718581844601208832","周","216","Male","[""好我"",""坏我"",""好他"",""坏他""]","[""强我"",""弱我"",""强他"",""弱他""]","","","","","","","","nonmatch","","","","","","","","","","key","j","8.33475598086114","853.3333333333334","476","j","true","nonmatch","img/square.png","强我","强他","ALT2","ability","","","","","","","",""
"null","<span style='color:GreenYellow; font-size: 70px;'>正确! </span>","null","html-keyboard-response","125","436693","0.0-8.0-1.0-4.0-0.0-1.8","6","6","7","5","5","5","5","5","5","5","5","2","2","1","2","1","2","2","2","5","5","5","5","5","4","4","4","5","5","7","8","8","8","7","8","7","9","8","6","7","4","7","7","7","6","7","7","7","6","7","7","7","6","7","7","7","5","7","7","7","7","7","7","7","7","7","7","7","7","7","7","7","6","7","7","7","7","7","718581844601208832","周","216","Male","[""好我"",""坏我"",""好他"",""坏他""]","[""强我"",""弱我"",""强他"",""弱他""]","","","","","","","","","","","","","","","","","","","","","","","","","","","","","","feedback_test","","","","","","","",""
"860","","j","psychophysics","126","438560","0.0-8.0-1.0-4.0-0.0-0.9","6","6","7","5","5","5","5","5","5","5","5","2","2","1","2","1","2","2","2","5","5","5","5","5","4","4","4","5","5","7","8","8","8","7","8","7","9","8","6","7","4","7","7","7","6","7","7","7","6","7","7","7","6","7","7","7","5","7","7","7","7","7","7","7","7","7","7","7","7","7","7","7","6","7","7","7","7","7","718581844601208832","周","216","Male","[""好我"",""坏我"",""好他"",""坏他""]","[""强我"",""弱我"",""强他"",""弱他""]","","","","","","","","nonmatch","","","","","","","","","","key","j","8.332693693693727","853.3333333333334","476","j","true","nonmatch","img/hexagon.png","强我","弱他","ALT2","ability","","","","","","","",""
"null","<span style='color:GreenYellow; font-size: 70px;'>正确! </span>","null","html-keyboard-response","127","439062","0.0-8.0-1.0-4.0-0.0-1.9","6","6","7","5","5","5","5","5","5","5","5","2","2","1","2","1","2","2","2","5","5","5","5","5","4","4","4","5","5","7","8","8","8","7","8","7","9","8","6","7","4","7","7","7","6","7","7","7","6","7","7","7","6","7","7","7","5","7","7","7","7","7","7","7","7","7","7","7","7","7","7","7","6","7","7","7","7","7","718581844601208832","周","216","Male","[""好我"",""坏我"",""好他"",""坏他""]","[""强我"",""弱我"",""强他"",""弱他""]","","","","","","","","","","","","","","","","","","","","","","","","","","","","","","feedback_test","","","","","","","",""
"793","","j","psychophysics","128","440856","0.0-8.0-1.0-4.0-0.0-0.10","6","6","7","5","5","5","5","5","5","5","5","2","2","1","2","1","2","2","2","5","5","5","5","5","4","4","4","5","5","7","8","8","8","7","8","7","9","8","6","7","4","7","7","7","6","7","7","7","6","7","7","7","6","7","7","7","5","7","7","7","7","7","7","7","7","7","7","7","7","7","7","7","6","7","7","7","7","7","718581844601208832","周","216","Male","[""好我"",""坏我"",""好他"",""坏他""]","[""强我"",""弱我"",""强他"",""弱他""]","","","","","","","","nonmatch","","","","","","","","","","key","j","8.334654205607382","853.3333333333334","476","j","true","nonmatch","img/triangle.png","弱他","弱我","ALT2","ability","","","","","","","",""
"null","<span style='color:GreenYellow; font-size: 70px;'>正确! </span>","null","html-keyboard-response","129","441362","0.0-8.0-1.0-4.0-0.0-1.10","6","6","7","5","5","5","5","5","5","5","5","2","2","1","2","1","2","2","2","5","5","5","5","5","4","4","4","5","5","7","8","8","8","7","8","7","9","8","6","7","4","7","7","7","6","7","7","7","6","7","7","7","6","7","7","7","5","7","7","7","7","7","7","7","7","7","7","7","7","7","7","7","6","7","7","7","7","7","718581844601208832","周","216","Male","[""好我"",""坏我"",""好他"",""坏他""]","[""强我"",""弱我"",""强他"",""弱他""]","","","","","","","","","","","","","","","","","","","","","","","","","","","","","","feedback_test","","","","","","","",""
"909","","f","psychophysics","130","443272","0.0-8.0-1.0-4.0-0.0-0.11","6","6","7","5","5","5","5","5","5","5","5","2","2","1","2","1","2","2","2","5","5","5","5","5","4","4","4","5","5","7","8","8","8","7","8","7","9","8","6","7","4","7","7","7","6","7","7","7","6","7","7","7","6","7","7","7","5","7","7","7","7","7","7","7","7","7","7","7","7","7","7","7","6","7","7","7","7","7","718581844601208832","周","216","Male","[""好我"",""坏我"",""好他"",""坏他""]","[""强我"",""弱我"",""强他"",""弱他""]","","","","","","","","match","","","","","","","","","","key","f","8.332482456140529","853.3333333333334","476","f","true","match","img/square.png","强他","强他","ALT2","ability","","","","","","","",""
"null","<span style='color:GreenYellow; font-size: 70px;'>正确! </span>","null","html-keyboard-response","131","443779","0.0-8.0-1.0-4.0-0.0-1.11","6","6","7","5","5","5","5","5","5","5","5","2","2","1","2","1","2","2","2","5","5","5","5","5","4","4","4","5","5","7","8","8","8","7","8","7","9","8","6","7","4","7","7","7","6","7","7","7","6","7","7","7","6","7","7","7","5","7","7","7","7","7","7","7","7","7","7","7","7","7","7","7","6","7","7","7","7","7","718581844601208832","周","216","Male","[""好我"",""坏我"",""好他"",""坏他""]","[""强我"",""弱我"",""强他"",""弱他""]","","","","","","","","","","","","","","","","","","","","","","","","","","","","","","feedback_test","","","","","","","",""
"732","","f","psychophysics","132","445512","0.0-8.0-1.0-4.0-0.0-0.12","6","6","7","5","5","5","5","5","5","5","5","2","2","1","2","1","2","2","2","5","5","5","5","5","4","4","4","5","5","7","8","8","8","7","8","7","9","8","6","7","4","7","7","7","6","7","7","7","6","7","7","7","6","7","7","7","5","7","7","7","7","7","7","7","7","7","7","7","7","7","7","7","6","7","7","7","7","7","718581844601208832","周","216","Male","[""好我"",""坏我"",""好他"",""坏他""]","[""强我"",""弱我"",""强他"",""弱他""]","","","","","","","","match","","","","","","","","","","key","f","8.332276699029235","853.3333333333334","476","f","true","match","img/square.png","强他","强他","ALT2","ability","","","","","","","",""
"null","<span style='color:GreenYellow; font-size: 70px;'>正确! </span>","null","html-keyboard-response","133","446012","0.0-8.0-1.0-4.0-0.0-1.12","6","6","7","5","5","5","5","5","5","5","5","2","2","1","2","1","2","2","2","5","5","5","5","5","4","4","4","5","5","7","8","8","8","7","8","7","9","8","6","7","4","7","7","7","6","7","7","7","6","7","7","7","6","7","7","7","5","7","7","7","7","7","7","7","7","7","7","7","7","7","7","7","6","7","7","7","7","7","718581844601208832","周","216","Male","[""好我"",""坏我"",""好他"",""坏他""]","[""强我"",""弱我"",""强他"",""弱他""]","","","","","","","","","","","","","","","","","","","","","","","","","","","","","","feedback_test","","","","","","","",""
"562","","j","psychophysics","134","447576","0.0-8.0-1.0-4.0-0.0-0.13","6","6","7","5","5","5","5","5","5","5","5","2","2","1","2","1","2","2","2","5","5","5","5","5","4","4","4","5","5","7","8","8","8","7","8","7","9","8","6","7","4","7","7","7","6","7","7","7","6","7","7","7","6","7","7","7","5","7","7","7","7","7","7","7","7","7","7","7","7","7","7","7","6","7","7","7","7","7","718581844601208832","周","216","Male","[""好我"",""坏我"",""好他"",""坏他""]","[""强我"",""弱我"",""强他"",""弱他""]","","","","","","","","nonmatch","","","","","","","","","","key","j","8.335263440860198","853.3333333333334","476","j","true","nonmatch","img/hexagon.png","弱我","弱他","ALT2","ability","","","","","","","",""
"null","<span style='color:GreenYellow; font-size: 70px;'>正确! </span>","null","html-keyboard-response","135","448084","0.0-8.0-1.0-4.0-0.0-1.13","6","6","7","5","5","5","5","5","5","5","5","2","2","1","2","1","2","2","2","5","5","5","5","5","4","4","4","5","5","7","8","8","8","7","8","7","9","8","6","7","4","7","7","7","6","7","7","7","6","7","7","7","6","7","7","7","5","7","7","7","7","7","7","7","7","7","7","7","7","7","7","7","6","7","7","7","7","7","718581844601208832","周","216","Male","[""好我"",""坏我"",""好他"",""坏他""]","[""强我"",""弱我"",""强他"",""弱他""]","","","","","","","","","","","","","","","","","","","","","","","","","","","","","","feedback_test","","","","","","","",""
"635","","f","psychophysics","136","449720","0.0-8.0-1.0-4.0-0.0-0.14","6","6","7","5","5","5","5","5","5","5","5","2","2","1","2","1","2","2","2","5","5","5","5","5","4","4","4","5","5","7","8","8","8","7","8","7","9","8","6","7","4","7","7","7","6","7","7","7","6","7","7","7","6","7","7","7","5","7","7","7","7","7","7","7","7","7","7","7","7","7","7","7","6","7","7","7","7","7","718581844601208832","周","216","Male","[""好我"",""坏我"",""好他"",""坏他""]","[""强我"",""弱我"",""强他"",""弱他""]","","","","","","","","match","","","","","","","","","","key","f","8.334733333333265","853.3333333333334","476","f","true","match","img/ellipse.png","强我","强我","ALT2","ability","","","","","","","",""
"null","<span style='color:GreenYellow; font-size: 70px;'>正确! </span>","null","html-keyboard-response","137","450227","0.0-8.0-1.0-4.0-0.0-1.14","6","6","7","5","5","5","5","5","5","5","5","2","2","1","2","1","2","2","2","5","5","5","5","5","4","4","4","5","5","7","8","8","8","7","8","7","9","8","6","7","4","7","7","7","6","7","7","7","6","7","7","7","6","7","7","7","5","7","7","7","7","7","7","7","7","7","7","7","7","7","7","7","6","7","7","7","7","7","718581844601208832","周","216","Male","[""好我"",""坏我"",""好他"",""坏他""]","[""强我"",""弱我"",""强他"",""弱他""]","","","","","","","","","","","","","","","","","","","","","","","","","","","","","","feedback_test","","","","","","","",""
"892","","f","psychophysics","138","452120","0.0-8.0-1.0-4.0-0.0-0.15","6","6","7","5","5","5","5","5","5","5","5","2","2","1","2","1","2","2","2","5","5","5","5","5","4","4","4","5","5","7","8","8","8","7","8","7","9","8","6","7","4","7","7","7","6","7","7","7","6","7","7","7","6","7","7","7","5","7","7","7","7","7","7","7","7","7","7","7","7","7","7","7","6","7","7","7","7","7","718581844601208832","周","216","Male","[""好我"",""坏我"",""好他"",""坏他""]","[""强我"",""弱我"",""强他"",""弱他""]","","","","","","","","match","","","","","","","","","","key","f","8.333464601769965","853.3333333333334","476","f","true","match","img/triangle.png","弱我","弱我","ALT2","ability","","","","","","","",""
