"rt","stimulus","response","trial_type","trial_index","time_elapsed","internal_node_id","swb_1","swb_2","swb_3","swb_4","swb_5","LOT_1","LOT_2","LOT_3","LOT_4","LOT_5","LOT_6","IPC_1","IPC_2","IPC_3","IPC_4","IPC_5","IPC_6","IPC_7","IPC_8","MorIden_1","MorIden_2","MorIden_3","MorIden_4","MorIden_5","MorIden_6","MorIden_7","MorIden_8","MorIden_9","MorIden_10","moralSeImag_1","moralSeImag_2","moralSeImag_3","moralSeImag_4","moralSeImag_5","moralSeImag_6","moralSeImag_7","moralSeImag_8","moralSeImag_9","sde_1","sde_2","sde_3","sde_4","sde_5","sde_6","sde_7","sde_8","sde_9","sde_10","sde_11","sde_12","sde_13","sde_14","sde_15","sde_16","sde_17","sde_18","sde_19","sde_20","IM_1","IM_2","IM_3","IM_4","IM_5","IM_6","IM_7","IM_8","IM_9","IM_10","IM_11","IM_12","IM_13","IM_14","IM_15","IM_16","IM_17","IM_18","IM_19","IM_20","subj_idx","friend_name","ParticipantID","Sex","Word","Word2","value","success","timeout","failed_images","failed_audio","failed_video","user_agent","responses","item_order","radio_event_ids","radio_event_times","key_event_times","mouse_event_times","straightlining","zigzagging","honeypot","task_id","screen_id","time_stamp","response_type","key_press","avg_frame_time","center_x","center_y","person","word","valence","domain","math","correct_response","correct","status","identity","view_history","duration","Image","condition","question_order"
"2573","
   <p><div style='color:white; font-size: 25px'>您好，欢迎参加本次实验。</div></p>
   <p><div style='color:white; font-size: 25px'>为充分保障您的权利，请确保您已经知晓并同意《参与实验同意书》以及《数据公开知情同意书》。</div></p>
   <p><div style='color:white; font-size: 25px'>如果您未见过上述内容，请咨询实验员。</div></p>
   <p style='color:white; font-size: 25px'>如果您选择继续实验，则表示您已经清楚两份知情同意书的内容并同意。</p>
   <p><div style = ""color: red;font-size:30px;"">请确保您记得day0的实验编号，您将在本次实验输入该编号，若您忘记，请咨询实验员后作答。</div></p>
   <p> <div style = ""color: green""><按空格键至下页></div> </p>
   "," ","html-keyboard-response","0","2579","0.0-0.0","6","7","6","6","6","4","4","4","4","5","4","0","0","1","1","1","1","1","1","4","5","5","4","4","4","5","4","4","4","7","6","4","6","7","7","6","3","4","6","5","6","6","6","6","6","5","6","6","5","4","6","6","3","5","6","3","6","6","3","6","2","3","3","4","3","5","5","5","3","3","2","3","3","5","2","5","3","4","770196006494277634","刘","49","Male","[""好我"",""坏我"",""坏他"",""好他""]","[""强我"",""弱我"",""弱他"",""强他""]","","","","","","","","","","","","","","","","","","","","","","","","","","","","","","","","","","","","","",""
"","","","call-function","1","2582","0.0-1.0-0.0","6","7","6","6","6","4","4","4","4","5","4","0","0","1","1","1","1","1","1","4","5","5","4","4","4","5","4","4","4","7","6","4","6","7","7","6","3","4","6","5","6","6","6","6","6","5","6","6","5","4","6","6","3","5","6","3","6","6","3","6","2","3","3","4","3","5","5","5","3","3","2","3","3","5","2","5","3","4","770196006494277634","刘","49","Male","[""好我"",""坏我"",""坏他"",""好他""]","[""强我"",""弱我"",""弱他"",""强他""]","","","","","","","","","","","","","","","","","","","","","","","","","","","","","","","","","","","","","",""
"24734","","[{""name"":""Sex"",""value"":""0""},{""name"":""friend_name"",""value"":""刘""},{""name"":""ParticipantID"",""value"":""49""}]","survey-html-form","2","27319","0.0-1.0-1.0","6","7","6","6","6","4","4","4","4","5","4","0","0","1","1","1","1","1","1","4","5","5","4","4","4","5","4","4","4","7","6","4","6","7","7","6","3","4","6","5","6","6","6","6","6","5","6","6","5","4","6","6","3","5","6","3","6","6","3","6","2","3","3","4","3","5","5","5","3","3","2","3","3","5","2","5","3","4","770196006494277634","刘","49","Male","[""好我"",""坏我"",""坏他"",""好他""]","[""强我"",""弱我"",""弱他"",""强他""]","","","","","","","","","","","","","","","","","","","","","","","","","","","","","","","","","","","","","",""
"","","","preload","3","27749","0.0-2.0","6","7","6","6","6","4","4","4","4","5","4","0","0","1","1","1","1","1","1","4","5","5","4","4","4","5","4","4","4","7","6","4","6","7","7","6","3","4","6","5","6","6","6","6","6","5","6","6","5","4","6","6","3","5","6","3","6","6","3","6","2","3","3","4","3","5","5","5","3","3","2","3","3","5","2","5","3","4","770196006494277634","刘","49","Male","[""好我"",""坏我"",""坏他"",""好他""]","[""强我"",""弱我"",""弱他"",""强他""]","","true","false","[]","[]","[]","","","","","","","","","","","","","","","","","","","","","","","","","","","","","","","",""
"","","","fullscreen","4","29900","0.0-3.0","6","7","6","6","6","4","4","4","4","5","4","0","0","1","1","1","1","1","1","4","5","5","4","4","4","5","4","4","4","7","6","4","6","7","7","6","3","4","6","5","6","6","6","6","6","5","6","6","5","4","6","6","3","5","6","3","6","6","3","6","2","3","3","4","3","5","5","5","3","3","2","3","3","5","2","5","3","4","770196006494277634","刘","49","Male","[""好我"",""坏我"",""坏他"",""好他""]","[""强我"",""弱我"",""弱他"",""强他""]","","true","","","","","{}","","","","","","","","","","","","","","","","","","","","","","","","","","","","","","",""
"14519.199999999983","","{""Q01"":""6"",""Q02"":""7"",""Q03"":""6"",""Q04"":""6"",""Q05"":""6""}","survey-template","5","44432","0.0-4.0","6","7","6","6","6","4","4","4","4","5","4","0","0","1","1","1","1","1","1","4","5","5","4","4","4","5","4","4","4","7","6","4","6","7","7","6","3","4","6","5","6","6","6","6","6","5","6","6","5","4","6","6","3","5","6","3","6","6","3","6","2","3","3","4","3","5","5","5","3","3","2","3","3","5","2","5","3","4","770196006494277634","刘","49","Male","[""好我"",""坏我"",""坏他"",""好他""]","[""强我"",""弱我"",""弱他"",""强他""]","","","","","","","","{""Q01"":""6"",""Q02"":""7"",""Q03"":""6"",""Q04"":""6"",""Q05"":""6""}","[0,1,2,3,4]","[""Q01"",""Q02"",""Q03"",""Q04"",""Q05""]","[5909.399999999994,7909.099999999977,8820.899999999994,11277.299999999988,13981.199999999983]","[]","[5909.399999999994,7909.099999999977,8820.899999999994,10677.399999999994,11277.299999999988,12181.799999999988,13981.199999999983,14517.299999999988]","0.8","0.5","0","","","","","","","","","","","","","","","","","","","","","",""
"13684.899999999994","","{""Q01"":""4"",""Q02"":""4"",""Q03"":""4"",""Q04"":""4"",""Q05"":""5"",""Q06"":""4""}","survey-template","6","58127","0.0-5.0","6","7","6","6","6","4","4","4","4","5","4","0","0","1","1","1","1","1","1","4","5","5","4","4","4","5","4","4","4","7","6","4","6","7","7","6","3","4","6","5","6","6","6","6","6","5","6","6","5","4","6","6","3","5","6","3","6","6","3","6","2","3","3","4","3","5","5","5","3","3","2","3","3","5","2","5","3","4","770196006494277634","刘","49","Male","[""好我"",""坏我"",""坏他"",""好他""]","[""强我"",""弱我"",""弱他"",""强他""]","","","","","","","","{""Q01"":""4"",""Q02"":""4"",""Q03"":""4"",""Q04"":""4"",""Q05"":""5"",""Q06"":""4""}","[0,1,2,3,4,5]","[""Q01"",""Q02"",""Q03"",""Q04"",""Q05"",""Q06""]","[2483.399999999994,5531.399999999994,6603.399999999994,8315.5,9651.399999999994,12515.399999999994]","[]","[2483.399999999994,5531.399999999994,6603.399999999994,8315.5,9651.399999999994,12515.399999999994,13139.5,13683.699999999983]","0.5","0.2","0","","","","","","","","","","","","","","","","","","","","","",""
"20377.900000000023","","{""Q01"":""0"",""Q02"":""0"",""Q03"":""1"",""Q04"":""1"",""Q05"":""1"",""Q06"":""1"",""Q07"":""1"",""Q08"":""1""}","survey-template","7","78512","0.0-6.0","6","7","6","6","6","4","4","4","4","5","4","0","0","1","1","1","1","1","1","4","5","5","4","4","4","5","4","4","4","7","6","4","6","7","7","6","3","4","6","5","6","6","6","6","6","5","6","6","5","4","6","6","3","5","6","3","6","6","3","6","2","3","3","4","3","5","5","5","3","3","2","3","3","5","2","5","3","4","770196006494277634","刘","49","Male","[""好我"",""坏我"",""坏他"",""好他""]","[""强我"",""弱我"",""弱他"",""强他""]","","","","","","","","{""Q01"":""0"",""Q02"":""0"",""Q03"":""1"",""Q04"":""1"",""Q05"":""1"",""Q06"":""1"",""Q07"":""1"",""Q08"":""1""}","[0,1,2,3,4,5,6,7]","[""Q01"",""Q02"",""Q03"",""Q04"",""Q05"",""Q06"",""Q07"",""Q08""]","[4303.400000000023,7351.400000000023,10463.800000000017,11063.900000000023,13135.600000000006,15783.600000000006,18447.5,19919.600000000006]","[]","[4303.400000000023,7351.400000000023,9231.900000000023,10463.800000000017,11063.900000000023,13135.600000000006,15783.600000000006,18447.5,19919.600000000006,20375.600000000006]","0.75","0.14285714285714285","0","","","","","","","","","","","","","","","","","","","","","",""
"3639","
    <p><div style='color:white;font-size:35px; line-height:20px;'>词汇评估任务</div></p><br>
    <p><div style='color:white;font-size:25px; line-height:20px;'>请再次回忆该亲密的朋友，你们至少2年前就认识了，并且最近2年经常见面。</div></p>
    <p><div style='color:white;font-size:25px; line-height:20px;'>在本实验中，您将会看到一些形容词。</div></p>
    <p><div style='color:yellow;font-size:25px; line-height:20px;'>您的任务是判断这些形容词是否符合对您自己或您的朋友的描述。</div></p><p style='font-size:35px'>符合按<span style=""color:lightgreen""> j 键</span>，不符合按<span style=""color:red""> f 键</span></p>","0","html-button-response","8","82157","0.0-7.0-0.0","6","7","6","6","6","4","4","4","4","5","4","0","0","1","1","1","1","1","1","4","5","5","4","4","4","5","4","4","4","7","6","4","6","7","7","6","3","4","6","5","6","6","6","6","6","5","6","6","5","4","6","6","3","5","6","3","6","6","3","6","2","3","3","4","3","5","5","5","3","3","2","3","3","5","2","5","3","4","770196006494277634","刘","49","Male","[""好我"",""坏我"",""坏他"",""好他""]","[""强我"",""弱我"",""弱他"",""强他""]","","","","","","","","","","","","","","","","","SRET_EW","EW_instructions","Thu Nov 02 2023 20:10:40 GMT+0800 (中国标准时间)","","","","","","","","","","","","","","","","","","",""
"4206","","f","psychophysics","9","87371","0.0-7.0-1.0-0.0","6","7","6","6","6","4","4","4","4","5","4","0","0","1","1","1","1","1","1","4","5","5","4","4","4","5","4","4","4","7","6","4","6","7","7","6","3","4","6","5","6","6","6","6","6","5","6","6","5","4","6","6","3","5","6","3","6","6","3","6","2","3","3","4","3","5","5","5","3","3","2","3","3","5","2","5","3","4","770196006494277634","刘","49","Male","[""好我"",""坏我"",""坏他"",""好他""]","[""强我"",""弱我"",""弱他"",""强他""]","","","","","","","","no","","","","","","","","","SRET_EW","EW_practice","","key","f","16.647814696485632","683","380","朋友","忠实","Positive","morality","","","","","","","","","",""
"2260","","j","psychophysics","10","90635","0.0-7.0-1.0-0.1","6","7","6","6","6","4","4","4","4","5","4","0","0","1","1","1","1","1","1","4","5","5","4","4","4","5","4","4","4","7","6","4","6","7","7","6","3","4","6","5","6","6","6","6","6","5","6","6","5","4","6","6","3","5","6","3","6","6","3","6","2","3","3","4","3","5","5","5","3","3","2","3","3","5","2","5","3","4","770196006494277634","刘","49","Male","[""好我"",""坏我"",""坏他"",""好他""]","[""强我"",""弱我"",""弱他"",""强他""]","","","","","","","","yes","","","","","","","","","SRET_EW","EW_practice","","key","j","16.64748717948723","683","380","自己","严谨","Positive","ability","","","","","","","","","",""
"458","","j","psychophysics","11","92094","0.0-7.0-1.0-0.2","6","7","6","6","6","4","4","4","4","5","4","0","0","1","1","1","1","1","1","4","5","5","4","4","4","5","4","4","4","7","6","4","6","7","7","6","3","4","6","5","6","6","6","6","6","5","6","6","5","4","6","6","3","5","6","3","6","6","3","6","2","3","3","4","3","5","5","5","3","3","2","3","3","5","2","5","3","4","770196006494277634","刘","49","Male","[""好我"",""坏我"",""坏他"",""好他""]","[""强我"",""弱我"",""弱他"",""强他""]","","","","","","","","yes","","","","","","","","","SRET_EW","EW_practice","","key","j","16.647931034482706","683","380","自己","刻板","Negative","ability","","","","","","","","","",""
"1220","","f","psychophysics","12","94316","0.0-7.0-1.0-0.3","6","7","6","6","6","4","4","4","4","5","4","0","0","1","1","1","1","1","1","4","5","5","4","4","4","5","4","4","4","7","6","4","6","7","7","6","3","4","6","5","6","6","6","6","6","5","6","6","5","4","6","6","3","5","6","3","6","6","3","6","2","3","3","4","3","5","5","5","3","3","2","3","3","5","2","5","3","4","770196006494277634","刘","49","Male","[""好我"",""坏我"",""坏他"",""好他""]","[""强我"",""弱我"",""弱他"",""强他""]","","","","","","","","no","","","","","","","","","SRET_EW","EW_practice","","key","f","16.648030303030364","683","380","朋友","徇私","Negative","morality","","","","","","","","","",""
"2727","
    <p><div style='color:white;font-size:35px; line-height:20px;'>请您再次阅读实验要求</div></p><br>
    <p><div style='color:white;font-size:25px; line-height:20px;'>请回忆某一个亲密的朋友，你们至少2年前就认识了，并且最近2年经常见面。</div></p>
    <p><div style='color:white;font-size:25px; line-height:20px;'>在本实验中，您将会看到一些形容词。</div></p>
    <p><div style='color:yellow;font-size:25px; line-height:20px;'>您的任务是判断这些形容词是否符合对您自己或您的朋友的描述。</div></p>
    <p><div class='footer' style='font-size:25px; line-height:20px;'>如果对本实验还有不清楚之处，请立即向实验员咨询。</p><p style='font-size:25px; line-height:20px;'>如果您明白了规则：</p><p style='font-size:22px; line-height:20px;'>请按 继续 进入正式实验</p>
    </div>
    <p style='font-size:35px'>符合按<span style=""color:lightgreen""> j 键</span>，不符合按<span style=""color:red""> f 键</span></p>","0","html-button-response","13","97045","0.0-7.0-2.0","6","7","6","6","6","4","4","4","4","5","4","0","0","1","1","1","1","1","1","4","5","5","4","4","4","5","4","4","4","7","6","4","6","7","7","6","3","4","6","5","6","6","6","6","6","5","6","6","5","4","6","6","3","5","6","3","6","6","3","6","2","3","3","4","3","5","5","5","3","3","2","3","3","5","2","5","3","4","770196006494277634","刘","49","Male","[""好我"",""坏我"",""坏他"",""好他""]","[""强我"",""弱我"",""弱他"",""强他""]","","","","","","","","","","","","","","","","","SRET_EW","prac_instructions","Thu Nov 02 2023 20:10:40 GMT+0800 (中国标准时间)","","","","","","","","","","","","","","","","","","",""
"9795","","f","psychophysics","14","107843","0.0-7.0-3.0-0.0","6","7","6","6","6","4","4","4","4","5","4","0","0","1","1","1","1","1","1","4","5","5","4","4","4","5","4","4","4","7","6","4","6","7","7","6","3","4","6","5","6","6","6","6","6","5","6","6","5","4","6","6","3","5","6","3","6","6","3","6","2","3","3","4","3","5","5","5","3","3","2","3","3","5","2","5","3","4","770196006494277634","刘","49","Male","[""好我"",""坏我"",""坏他"",""好他""]","[""强我"",""弱我"",""弱他"",""强他""]","","","","","","","","no","","","","","","","","","SRET","EW_formal","","key","f","16.64781664098614","683","380","朋友","迷糊","Negative","ability","","","","","","","","","",""
"633","","f","psychophysics","15","109478","0.0-7.0-3.0-0.1","6","7","6","6","6","4","4","4","4","5","4","0","0","1","1","1","1","1","1","4","5","5","4","4","4","5","4","4","4","7","6","4","6","7","7","6","3","4","6","5","6","6","6","6","6","5","6","6","5","4","6","6","3","5","6","3","6","6","3","6","2","3","3","4","3","5","5","5","3","3","2","3","3","5","2","5","3","4","770196006494277634","刘","49","Male","[""好我"",""坏我"",""坏他"",""好他""]","[""强我"",""弱我"",""弱他"",""强他""]","","","","","","","","no","","","","","","","","","SRET","EW_formal","","key","f","16.647721649484513","683","380","自己","说谎","Negative","morality","","","","","","","","","",""
"1489","","f","psychophysics","16","111968","0.0-7.0-3.0-0.2","6","7","6","6","6","4","4","4","4","5","4","0","0","1","1","1","1","1","1","4","5","5","4","4","4","5","4","4","4","7","6","4","6","7","7","6","3","4","6","5","6","6","6","6","6","5","6","6","5","4","6","6","3","5","6","3","6","6","3","6","2","3","3","4","3","5","5","5","3","3","2","3","3","5","2","5","3","4","770196006494277634","刘","49","Male","[""好我"",""坏我"",""坏他"",""好他""]","[""强我"",""弱我"",""弱他"",""强他""]","","","","","","","","no","","","","","","","","","SRET","EW_formal","","key","f","16.64778523489926","683","380","自己","坚贞","Positive","morality","","","","","","","","","",""
"662","","j","psychophysics","17","113632","0.0-7.0-3.0-0.3","6","7","6","6","6","4","4","4","4","5","4","0","0","1","1","1","1","1","1","4","5","5","4","4","4","5","4","4","4","7","6","4","6","7","7","6","3","4","6","5","6","6","6","6","6","5","6","6","5","4","6","6","3","5","6","3","6","6","3","6","2","3","3","4","3","5","5","5","3","3","2","3","3","5","2","5","3","4","770196006494277634","刘","49","Male","[""好我"",""坏我"",""坏他"",""好他""]","[""强我"",""弱我"",""弱他"",""强他""]","","","","","","","","yes","","","","","","","","","SRET","EW_formal","","key","j","16.64790816326526","683","380","朋友","务实","Positive","ability","","","","","","","","","",""
"4691","","j","psychophysics","18","119326","0.0-7.0-3.0-0.4","6","7","6","6","6","4","4","4","4","5","4","0","0","1","1","1","1","1","1","4","5","5","4","4","4","5","4","4","4","7","6","4","6","7","7","6","3","4","6","5","6","6","6","6","6","5","6","6","5","4","6","6","3","5","6","3","6","6","3","6","2","3","3","4","3","5","5","5","3","3","2","3","3","5","2","5","3","4","770196006494277634","刘","49","Male","[""好我"",""坏我"",""坏他"",""好他""]","[""强我"",""弱我"",""弱他"",""强他""]","","","","","","","","yes","","","","","","","","","SRET","EW_formal","","key","j","16.64758771929822","683","380","自己","能干","Positive","ability","","","","","","","","","",""
"4093","","j","psychophysics","19","124422","0.0-7.0-3.0-0.5","6","7","6","6","6","4","4","4","4","5","4","0","0","1","1","1","1","1","1","4","5","5","4","4","4","5","4","4","4","7","6","4","6","7","7","6","3","4","6","5","6","6","6","6","6","5","6","6","5","4","6","6","3","5","6","3","6","6","3","6","2","3","3","4","3","5","5","5","3","3","2","3","3","5","2","5","3","4","770196006494277634","刘","49","Male","[""好我"",""坏我"",""坏他"",""好他""]","[""强我"",""弱我"",""弱他"",""强他""]","","","","","","","","yes","","","","","","","","","SRET","EW_formal","","key","j","16.647773770491792","683","380","朋友","拙笨","Negative","ability","","","","","","","","","",""
"998","","j","psychophysics","20","126422","0.0-7.0-3.0-0.6","6","7","6","6","6","4","4","4","4","5","4","0","0","1","1","1","1","1","1","4","5","5","4","4","4","5","4","4","4","7","6","4","6","7","7","6","3","4","6","5","6","6","6","6","6","5","6","6","5","4","6","6","3","5","6","3","6","6","3","6","2","3","3","4","3","5","5","5","3","3","2","3","3","5","2","5","3","4","770196006494277634","刘","49","Male","[""好我"",""坏我"",""坏他"",""好他""]","[""强我"",""弱我"",""弱他"",""强他""]","","","","","","","","yes","","","","","","","","","SRET","EW_formal","","key","j","16.64812605042023","683","380","自己","高洁","Positive","morality","","","","","","","","","",""
"764","","j","psychophysics","21","128187","0.0-7.0-3.0-0.7","6","7","6","6","6","4","4","4","4","5","4","0","0","1","1","1","1","1","1","4","5","5","4","4","4","5","4","4","4","7","6","4","6","7","7","6","3","4","6","5","6","6","6","6","6","5","6","6","5","4","6","6","3","5","6","3","6","6","3","6","2","3","3","4","3","5","5","5","3","3","2","3","3","5","2","5","3","4","770196006494277634","刘","49","Male","[""好我"",""坏我"",""坏他"",""好他""]","[""强我"",""弱我"",""弱他"",""强他""]","","","","","","","","yes","","","","","","","","","SRET","EW_formal","","key","j","16.647590476190505","683","380","自己","细心","Positive","ability","","","","","","","","","",""
"513","","f","psychophysics","22","129703","0.0-7.0-3.0-0.8","6","7","6","6","6","4","4","4","4","5","4","0","0","1","1","1","1","1","1","4","5","5","4","4","4","5","4","4","4","7","6","4","6","7","7","6","3","4","6","5","6","6","6","6","6","5","6","6","5","4","6","6","3","5","6","3","6","6","3","6","2","3","3","4","3","5","5","5","3","3","2","3","3","5","2","5","3","4","770196006494277634","刘","49","Male","[""好我"",""坏我"",""坏他"",""好他""]","[""强我"",""弱我"",""弱他"",""强他""]","","","","","","","","no","","","","","","","","","SRET","EW_formal","","key","f","16.647966666666616","683","380","自己","远见","Positive","ability","","","","","","","","","",""
"699","","f","psychophysics","23","131403","0.0-7.0-3.0-0.9","6","7","6","6","6","4","4","4","4","5","4","0","0","1","1","1","1","1","1","4","5","5","4","4","4","5","4","4","4","7","6","4","6","7","7","6","3","4","6","5","6","6","6","6","6","5","6","6","5","4","6","6","3","5","6","3","6","6","3","6","2","3","3","4","3","5","5","5","3","3","2","3","3","5","2","5","3","4","770196006494277634","刘","49","Male","[""好我"",""坏我"",""坏他"",""好他""]","[""强我"",""弱我"",""弱他"",""强他""]","","","","","","","","no","","","","","","","","","SRET","EW_formal","","key","f","16.64770297029708","683","380","自己","小人","Negative","morality","","","","","","","","","",""
"790","","f","psychophysics","24","133195","0.0-7.0-3.0-0.10","6","7","6","6","6","4","4","4","4","5","4","0","0","1","1","1","1","1","1","4","5","5","4","4","4","5","4","4","4","7","6","4","6","7","7","6","3","4","6","5","6","6","6","6","6","5","6","6","5","4","6","6","3","5","6","3","6","6","3","6","2","3","3","4","3","5","5","5","3","3","2","3","3","5","2","5","3","4","770196006494277634","刘","49","Male","[""好我"",""坏我"",""坏他"",""好他""]","[""强我"",""弱我"",""弱他"",""强他""]","","","","","","","","no","","","","","","","","","SRET","EW_formal","","key","f","16.647887850467498","683","380","自己","黑心","Negative","morality","","","","","","","","","",""
"3997","","f","psychophysics","25","138194","0.0-7.0-3.0-0.11","6","7","6","6","6","4","4","4","4","5","4","0","0","1","1","1","1","1","1","4","5","5","4","4","4","5","4","4","4","7","6","4","6","7","7","6","3","4","6","5","6","6","6","6","6","5","6","6","5","4","6","6","3","5","6","3","6","6","3","6","2","3","3","4","3","5","5","5","3","3","2","3","3","5","2","5","3","4","770196006494277634","刘","49","Male","[""好我"",""坏我"",""坏他"",""好他""]","[""强我"",""弱我"",""弱他"",""强他""]","","","","","","","","no","","","","","","","","","SRET","EW_formal","","key","f","16.64759531772573","683","380","朋友","失信","Negative","morality","","","","","","","","","",""
"1093","","f","psychophysics","26","140290","0.0-7.0-3.0-0.12","6","7","6","6","6","4","4","4","4","5","4","0","0","1","1","1","1","1","1","4","5","5","4","4","4","5","4","4","4","7","6","4","6","7","7","6","3","4","6","5","6","6","6","6","6","5","6","6","5","4","6","6","3","5","6","3","6","6","3","6","2","3","3","4","3","5","5","5","3","3","2","3","3","5","2","5","3","4","770196006494277634","刘","49","Male","[""好我"",""坏我"",""坏他"",""好他""]","[""强我"",""弱我"",""弱他"",""强他""]","","","","","","","","no","","","","","","","","","SRET","EW_formal","","key","f","16.64765599999996","683","380","自己","逞能","Negative","ability","","","","","","","","","",""
"749","","j","psychophysics","27","142042","0.0-7.0-3.0-0.13","6","7","6","6","6","4","4","4","4","5","4","0","0","1","1","1","1","1","1","4","5","5","4","4","4","5","4","4","4","7","6","4","6","7","7","6","3","4","6","5","6","6","6","6","6","5","6","6","5","4","6","6","3","5","6","3","6","6","3","6","2","3","3","4","3","5","5","5","3","3","2","3","3","5","2","5","3","4","770196006494277634","刘","49","Male","[""好我"",""坏我"",""坏他"",""好他""]","[""强我"",""弱我"",""弱他"",""强他""]","","","","","","","","yes","","","","","","","","","SRET","EW_formal","","key","j","16.647826923076746","683","380","自己","上进","Positive","ability","","","","","","","","","",""
"1130","","f","psychophysics","28","144176","0.0-7.0-3.0-0.14","6","7","6","6","6","4","4","4","4","5","4","0","0","1","1","1","1","1","1","4","5","5","4","4","4","5","4","4","4","7","6","4","6","7","7","6","3","4","6","5","6","6","6","6","6","5","6","6","5","4","6","6","3","5","6","3","6","6","3","6","2","3","3","4","3","5","5","5","3","3","2","3","3","5","2","5","3","4","770196006494277634","刘","49","Male","[""好我"",""坏我"",""坏他"",""好他""]","[""强我"",""弱我"",""弱他"",""强他""]","","","","","","","","no","","","","","","","","","SRET","EW_formal","","key","f","16.647692913385924","683","380","朋友","淫乱","Negative","morality","","","","","","","","","",""
"2009","","j","psychophysics","29","147188","0.0-7.0-3.0-0.15","6","7","6","6","6","4","4","4","4","5","4","0","0","1","1","1","1","1","1","4","5","5","4","4","4","5","4","4","4","7","6","4","6","7","7","6","3","4","6","5","6","6","6","6","6","5","6","6","5","4","6","6","3","5","6","3","6","6","3","6","2","3","3","4","3","5","5","5","3","3","2","3","3","5","2","5","3","4","770196006494277634","刘","49","Male","[""好我"",""坏我"",""坏他"",""好他""]","[""强我"",""弱我"",""弱他"",""强他""]","","","","","","","","yes","","","","","","","","","SRET","EW_formal","","key","j","16.64767777777791","683","380","自己","无能","Negative","ability","","","","","","","","","",""
"4112","","f","psychophysics","30","152302","0.0-7.0-3.0-0.16","6","7","6","6","6","4","4","4","4","5","4","0","0","1","1","1","1","1","1","4","5","5","4","4","4","5","4","4","4","7","6","4","6","7","7","6","3","4","6","5","6","6","6","6","6","5","6","6","5","4","6","6","3","5","6","3","6","6","3","6","2","3","3","4","3","5","5","5","3","3","2","3","3","5","2","5","3","4","770196006494277634","刘","49","Male","[""好我"",""坏我"",""坏他"",""好他""]","[""强我"",""弱我"",""弱他"",""强他""]","","","","","","","","no","","","","","","","","","SRET","EW_formal","","key","f","16.64801307189538","683","380","朋友","无耻","Negative","morality","","","","","","","","","",""
"567","","f","psychophysics","31","153872","0.0-7.0-3.0-0.17","6","7","6","6","6","4","4","4","4","5","4","0","0","1","1","1","1","1","1","4","5","5","4","4","4","5","4","4","4","7","6","4","6","7","7","6","3","4","6","5","6","6","6","6","6","5","6","6","5","4","6","6","3","5","6","3","6","6","3","6","2","3","3","4","3","5","5","5","3","3","2","3","3","5","2","5","3","4","770196006494277634","刘","49","Male","[""好我"",""坏我"",""坏他"",""好他""]","[""强我"",""弱我"",""弱他"",""强他""]","","","","","","","","no","","","","","","","","","SRET","EW_formal","","key","f","16.646851063829516","683","380","朋友","混账","Negative","morality","","","","","","","","","",""
"672","","j","psychophysics","32","155546","0.0-7.0-3.0-0.18","6","7","6","6","6","4","4","4","4","5","4","0","0","1","1","1","1","1","1","4","5","5","4","4","4","5","4","4","4","7","6","4","6","7","7","6","3","4","6","5","6","6","6","6","6","5","6","6","5","4","6","6","3","5","6","3","6","6","3","6","2","3","3","4","3","5","5","5","3","3","2","3","3","5","2","5","3","4","770196006494277634","刘","49","Male","[""好我"",""坏我"",""坏他"",""好他""]","[""强我"",""弱我"",""弱他"",""强他""]","","","","","","","","yes","","","","","","","","","SRET","EW_formal","","key","j","16.647494949495087","683","380","朋友","好心","Positive","morality","","","","","","","","","",""
"826","","j","psychophysics","33","157373","0.0-7.0-3.0-0.19","6","7","6","6","6","4","4","4","4","5","4","0","0","1","1","1","1","1","1","4","5","5","4","4","4","5","4","4","4","7","6","4","6","7","7","6","3","4","6","5","6","6","6","6","6","5","6","6","5","4","6","6","3","5","6","3","6","6","3","6","2","3","3","4","3","5","5","5","3","3","2","3","3","5","2","5","3","4","770196006494277634","刘","49","Male","[""好我"",""坏我"",""坏他"",""好他""]","[""强我"",""弱我"",""弱他"",""强他""]","","","","","","","","yes","","","","","","","","","SRET","EW_formal","","key","j","16.64780733944958","683","380","自己","专注","Positive","ability","","","","","","","","","",""
"2022","","j","psychophysics","34","160397","0.0-7.0-3.0-0.20","6","7","6","6","6","4","4","4","4","5","4","0","0","1","1","1","1","1","1","4","5","5","4","4","4","5","4","4","4","7","6","4","6","7","7","6","3","4","6","5","6","6","6","6","6","5","6","6","5","4","6","6","3","5","6","3","6","6","3","6","2","3","3","4","3","5","5","5","3","3","2","3","3","5","2","5","3","4","770196006494277634","刘","49","Male","[""好我"",""坏我"",""坏他"",""好他""]","[""强我"",""弱我"",""弱他"",""强他""]","","","","","","","","yes","","","","","","","","","SRET","EW_formal","","key","j","16.647839779005476","683","380","自己","义气","Positive","morality","","","","","","","","","",""
"1472","","j","psychophysics","35","162871","0.0-7.0-3.0-0.21","6","7","6","6","6","4","4","4","4","5","4","0","0","1","1","1","1","1","1","4","5","5","4","4","4","5","4","4","4","7","6","4","6","7","7","6","3","4","6","5","6","6","6","6","6","5","6","6","5","4","6","6","3","5","6","3","6","6","3","6","2","3","3","4","3","5","5","5","3","3","2","3","3","5","2","5","3","4","770196006494277634","刘","49","Male","[""好我"",""坏我"",""坏他"",""好他""]","[""强我"",""弱我"",""弱他"",""强他""]","","","","","","","","yes","","","","","","","","","SRET","EW_formal","","key","j","16.647782312925283","683","380","朋友","孝顺","Positive","morality","","","","","","","","","",""
"2020","","j","psychophysics","36","165893","0.0-7.0-3.0-0.22","6","7","6","6","6","4","4","4","4","5","4","0","0","1","1","1","1","1","1","4","5","5","4","4","4","5","4","4","4","7","6","4","6","7","7","6","3","4","6","5","6","6","6","6","6","5","6","6","5","4","6","6","3","5","6","3","6","6","3","6","2","3","3","4","3","5","5","5","3","3","2","3","3","5","2","5","3","4","770196006494277634","刘","49","Male","[""好我"",""坏我"",""坏他"",""好他""]","[""强我"",""弱我"",""弱他"",""强他""]","","","","","","","","yes","","","","","","","","","SRET","EW_formal","","key","j","16.647408839778908","683","380","自己","自私","Negative","morality","","","","","","","","","",""
"2009","","f","psychophysics","37","168903","0.0-7.0-3.0-0.23","6","7","6","6","6","4","4","4","4","5","4","0","0","1","1","1","1","1","1","4","5","5","4","4","4","5","4","4","4","7","6","4","6","7","7","6","3","4","6","5","6","6","6","6","6","5","6","6","5","4","6","6","3","5","6","3","6","6","3","6","2","3","3","4","3","5","5","5","3","3","2","3","3","5","2","5","3","4","770196006494277634","刘","49","Male","[""好我"",""坏我"",""坏他"",""好他""]","[""强我"",""弱我"",""弱他"",""强他""]","","","","","","","","no","","","","","","","","","SRET","EW_formal","","key","f","16.647783333333305","683","380","自己","龌龊","Negative","morality","","","","","","","","","",""
"207","","j","psychophysics","38","170111","0.0-7.0-3.0-0.24","6","7","6","6","6","4","4","4","4","5","4","0","0","1","1","1","1","1","1","4","5","5","4","4","4","5","4","4","4","7","6","4","6","7","7","6","3","4","6","5","6","6","6","6","6","5","6","6","5","4","6","6","3","5","6","3","6","6","3","6","2","3","3","4","3","5","5","5","3","3","2","3","3","5","2","5","3","4","770196006494277634","刘","49","Male","[""好我"",""坏我"",""坏他"",""好他""]","[""强我"",""弱我"",""弱他"",""强他""]","","","","","","","","yes","","","","","","","","","SRET","EW_formal","","key","j","16.647492957746195","683","380","自己","邪恶","Negative","morality","","","","","","","","","",""
"5","","j","psychophysics","39","171118","0.0-7.0-3.0-0.25","6","7","6","6","6","4","4","4","4","5","4","0","0","1","1","1","1","1","1","4","5","5","4","4","4","5","4","4","4","7","6","4","6","7","7","6","3","4","6","5","6","6","6","6","6","5","6","6","5","4","6","6","3","5","6","3","6","6","3","6","2","3","3","4","3","5","5","5","3","3","2","3","3","5","2","5","3","4","770196006494277634","刘","49","Male","[""好我"",""坏我"",""坏他"",""好他""]","[""强我"",""弱我"",""弱他"",""强他""]","","","","","","","","yes","","","","","","","","","SRET","EW_formal","","key","j","16.648149999999927","683","380","自己","无助","Negative","ability","","","","","","","","","",""
"691","","j","psychophysics","40","172811","0.0-7.0-3.0-0.26","6","7","6","6","6","4","4","4","4","5","4","0","0","1","1","1","1","1","1","4","5","5","4","4","4","5","4","4","4","7","6","4","6","7","7","6","3","4","6","5","6","6","6","6","6","5","6","6","5","4","6","6","3","5","6","3","6","6","3","6","2","3","3","4","3","5","5","5","3","3","2","3","3","5","2","5","3","4","770196006494277634","刘","49","Male","[""好我"",""坏我"",""坏他"",""好他""]","[""强我"",""弱我"",""弱他"",""强他""]","","","","","","","","yes","","","","","","","","","SRET","EW_formal","","key","j","16.648009999999775","683","380","自己","仁爱","Positive","morality","","","","","","","","","",""
"1611","","j","psychophysics","41","175427","0.0-7.0-3.0-0.27","6","7","6","6","6","4","4","4","4","5","4","0","0","1","1","1","1","1","1","4","5","5","4","4","4","5","4","4","4","7","6","4","6","7","7","6","3","4","6","5","6","6","6","6","6","5","6","6","5","4","6","6","3","5","6","3","6","6","3","6","2","3","3","4","3","5","5","5","3","3","2","3","3","5","2","5","3","4","770196006494277634","刘","49","Male","[""好我"",""坏我"",""坏他"",""好他""]","[""强我"",""弱我"",""弱他"",""强他""]","","","","","","","","yes","","","","","","","","","SRET","EW_formal","","key","j","16.64786538461545","683","380","朋友","聪明","Positive","ability","","","","","","","","","",""
"1162","","j","psychophysics","42","177593","0.0-7.0-3.0-0.28","6","7","6","6","6","4","4","4","4","5","4","0","0","1","1","1","1","1","1","4","5","5","4","4","4","5","4","4","4","7","6","4","6","7","7","6","3","4","6","5","6","6","6","6","6","5","6","6","5","4","6","6","3","5","6","3","6","6","3","6","2","3","3","4","3","5","5","5","3","3","2","3","3","5","2","5","3","4","770196006494277634","刘","49","Male","[""好我"",""坏我"",""坏他"",""好他""]","[""强我"",""弱我"",""弱他"",""强他""]","","","","","","","","yes","","","","","","","","","SRET","EW_formal","","key","j","16.64786153846138","683","380","自己","奸诈","Negative","morality","","","","","","","","","",""
"2367","","f","psychophysics","43","180962","0.0-7.0-3.0-0.29","6","7","6","6","6","4","4","4","4","5","4","0","0","1","1","1","1","1","1","4","5","5","4","4","4","5","4","4","4","7","6","4","6","7","7","6","3","4","6","5","6","6","6","6","6","5","6","6","5","4","6","6","3","5","6","3","6","6","3","6","2","3","3","4","3","5","5","5","3","3","2","3","3","5","2","5","3","4","770196006494277634","刘","49","Male","[""好我"",""坏我"",""坏他"",""好他""]","[""强我"",""弱我"",""弱他"",""强他""]","","","","","","","","no","","","","","","","","","SRET","EW_formal","","key","f","16.647407960199082","683","380","朋友","粗心","Negative","ability","","","","","","","","","",""
"191","","j","psychophysics","44","182155","0.0-7.0-3.0-0.30","6","7","6","6","6","4","4","4","4","5","4","0","0","1","1","1","1","1","1","4","5","5","4","4","4","5","4","4","4","7","6","4","6","7","7","6","3","4","6","5","6","6","6","6","6","5","6","6","5","4","6","6","3","5","6","3","6","6","3","6","2","3","3","4","3","5","5","5","3","3","2","3","3","5","2","5","3","4","770196006494277634","刘","49","Male","[""好我"",""坏我"",""坏他"",""好他""]","[""强我"",""弱我"",""弱他"",""强他""]","","","","","","","","yes","","","","","","","","","SRET","EW_formal","","key","j","16.648338028169107","683","380","自己","善心","Positive","morality","","","","","","","","","",""
"701","","f","psychophysics","45","183857","0.0-7.0-3.0-0.31","6","7","6","6","6","4","4","4","4","5","4","0","0","1","1","1","1","1","1","4","5","5","4","4","4","5","4","4","4","7","6","4","6","7","7","6","3","4","6","5","6","6","6","6","6","5","6","6","5","4","6","6","3","5","6","3","6","6","3","6","2","3","3","4","3","5","5","5","3","3","2","3","3","5","2","5","3","4","770196006494277634","刘","49","Male","[""好我"",""坏我"",""坏他"",""好他""]","[""强我"",""弱我"",""弱他"",""强他""]","","","","","","","","no","","","","","","","","","SRET","EW_formal","","key","f","16.64792079207923","683","380","朋友","刻苦","Positive","ability","","","","","","","","","",""
"581","","j","psychophysics","46","185441","0.0-7.0-3.0-0.32","6","7","6","6","6","4","4","4","4","5","4","0","0","1","1","1","1","1","1","4","5","5","4","4","4","5","4","4","4","7","6","4","6","7","7","6","3","4","6","5","6","6","6","6","6","5","6","6","5","4","6","6","3","5","6","3","6","6","3","6","2","3","3","4","3","5","5","5","3","3","2","3","3","5","2","5","3","4","770196006494277634","刘","49","Male","[""好我"",""坏我"",""坏他"",""好他""]","[""强我"",""弱我"",""弱他"",""强他""]","","","","","","","","yes","","","","","","","","","SRET","EW_formal","","key","j","16.647180851063744","683","380","朋友","敬业","Positive","morality","","","","","","","","","",""
"237","","f","psychophysics","47","186683","0.0-7.0-3.0-0.33","6","7","6","6","6","4","4","4","4","5","4","0","0","1","1","1","1","1","1","4","5","5","4","4","4","5","4","4","4","7","6","4","6","7","7","6","3","4","6","5","6","6","6","6","6","5","6","6","5","4","6","6","3","5","6","3","6","6","3","6","2","3","3","4","3","5","5","5","3","3","2","3","3","5","2","5","3","4","770196006494277634","刘","49","Male","[""好我"",""坏我"",""坏他"",""好他""]","[""强我"",""弱我"",""弱他"",""强他""]","","","","","","","","no","","","","","","","","","SRET","EW_formal","","key","f","16.648364864864757","683","380","自己","草率","Negative","ability","","","","","","","","","",""
"331","","f","psychophysics","48","188015","0.0-7.0-3.0-0.34","6","7","6","6","6","4","4","4","4","5","4","0","0","1","1","1","1","1","1","4","5","5","4","4","4","5","4","4","4","7","6","4","6","7","7","6","3","4","6","5","6","6","6","6","6","5","6","6","5","4","6","6","3","5","6","3","6","6","3","6","2","3","3","4","3","5","5","5","3","3","2","3","3","5","2","5","3","4","770196006494277634","刘","49","Male","[""好我"",""坏我"",""坏他"",""好他""]","[""强我"",""弱我"",""弱他"",""强他""]","","","","","","","","no","","","","","","","","","SRET","EW_formal","","key","f","16.647544303797318","683","380","自己","正气","Positive","morality","","","","","","","","","",""
"1379","","f","psychophysics","49","190396","0.0-7.0-3.0-0.35","6","7","6","6","6","4","4","4","4","5","4","0","0","1","1","1","1","1","1","4","5","5","4","4","4","5","4","4","4","7","6","4","6","7","7","6","3","4","6","5","6","6","6","6","6","5","6","6","5","4","6","6","3","5","6","3","6","6","3","6","2","3","3","4","3","5","5","5","3","3","2","3","3","5","2","5","3","4","770196006494277634","刘","49","Male","[""好我"",""坏我"",""坏他"",""好他""]","[""强我"",""弱我"",""弱他"",""强他""]","","","","","","","","no","","","","","","","","","SRET","EW_formal","","key","f","16.647345070422602","683","380","自己","毛糙","Negative","ability","","","","","","","","","",""
"208","","j","psychophysics","50","191605","0.0-7.0-3.0-0.36","6","7","6","6","6","4","4","4","4","5","4","0","0","1","1","1","1","1","1","4","5","5","4","4","4","5","4","4","4","7","6","4","6","7","7","6","3","4","6","5","6","6","6","6","6","5","6","6","5","4","6","6","3","5","6","3","6","6","3","6","2","3","3","4","3","5","5","5","3","3","2","3","3","5","2","5","3","4","770196006494277634","刘","49","Male","[""好我"",""坏我"",""坏他"",""好他""]","[""强我"",""弱我"",""弱他"",""强他""]","","","","","","","","yes","","","","","","","","","SRET","EW_formal","","key","j","16.647605633802556","683","380","朋友","清廉","Positive","morality","","","","","","","","","",""
"2580","","j","psychophysics","51","195189","0.0-7.0-3.0-0.37","6","7","6","6","6","4","4","4","4","5","4","0","0","1","1","1","1","1","1","4","5","5","4","4","4","5","4","4","4","7","6","4","6","7","7","6","3","4","6","5","6","6","6","6","6","5","6","6","5","4","6","6","3","5","6","3","6","6","3","6","2","3","3","4","3","5","5","5","3","3","2","3","3","5","2","5","3","4","770196006494277634","刘","49","Male","[""好我"",""坏我"",""坏他"",""好他""]","[""强我"",""弱我"",""弱他"",""强他""]","","","","","","","","yes","","","","","","","","","SRET","EW_formal","","key","j","16.64761682242989","683","380","朋友","下流","Negative","morality","","","","","","","","","",""
"99","","j","psychophysics","52","196292","0.0-7.0-3.0-0.38","6","7","6","6","6","4","4","4","4","5","4","0","0","1","1","1","1","1","1","4","5","5","4","4","4","5","4","4","4","7","6","4","6","7","7","6","3","4","6","5","6","6","6","6","6","5","6","6","5","4","6","6","3","5","6","3","6","6","3","6","2","3","3","4","3","5","5","5","3","3","2","3","3","5","2","5","3","4","770196006494277634","刘","49","Male","[""好我"",""坏我"",""坏他"",""好他""]","[""强我"",""弱我"",""弱他"",""强他""]","","","","","","","","yes","","","","","","","","","SRET","EW_formal","","key","j","16.648424242424273","683","380","朋友","博学","Positive","ability","","","","","","","","","",""
"22","","f","psychophysics","53","197316","0.0-7.0-3.0-0.39","6","7","6","6","6","4","4","4","4","5","4","0","0","1","1","1","1","1","1","4","5","5","4","4","4","5","4","4","4","7","6","4","6","7","7","6","3","4","6","5","6","6","6","6","6","5","6","6","5","4","6","6","3","5","6","3","6","6","3","6","2","3","3","4","3","5","5","5","3","3","2","3","3","5","2","5","3","4","770196006494277634","刘","49","Male","[""好我"",""坏我"",""坏他"",""好他""]","[""强我"",""弱我"",""弱他"",""强他""]","","","","","","","","no","","","","","","","","","SRET","EW_formal","","key","f","16.647550000000045","683","380","朋友","诚信","Positive","morality","","","","","","","","","",""
"852","","j","psychophysics","54","199170","0.0-7.0-3.0-0.40","6","7","6","6","6","4","4","4","4","5","4","0","0","1","1","1","1","1","1","4","5","5","4","4","4","5","4","4","4","7","6","4","6","7","7","6","3","4","6","5","6","6","6","6","6","5","6","6","5","4","6","6","3","5","6","3","6","6","3","6","2","3","3","4","3","5","5","5","3","3","2","3","3","5","2","5","3","4","770196006494277634","刘","49","Male","[""好我"",""坏我"",""坏他"",""好他""]","[""强我"",""弱我"",""弱他"",""强他""]","","","","","","","","yes","","","","","","","","","SRET","EW_formal","","key","j","16.64810810810813","683","380","朋友","刻薄","Negative","morality","","","","","","","","","",""
"1282","","j","psychophysics","55","201453","0.0-7.0-3.0-0.41","6","7","6","6","6","4","4","4","4","5","4","0","0","1","1","1","1","1","1","4","5","5","4","4","4","5","4","4","4","7","6","4","6","7","7","6","3","4","6","5","6","6","6","6","6","5","6","6","5","4","6","6","3","5","6","3","6","6","3","6","2","3","3","4","3","5","5","5","3","3","2","3","3","5","2","5","3","4","770196006494277634","刘","49","Male","[""好我"",""坏我"",""坏他"",""好他""]","[""强我"",""弱我"",""弱他"",""强他""]","","","","","","","","yes","","","","","","","","","SRET","EW_formal","","key","j","16.64761764705883","683","380","自己","奉献","Positive","morality","","","","","","","","","",""
"684","","j","psychophysics","56","203139","0.0-7.0-3.0-0.42","6","7","6","6","6","4","4","4","4","5","4","0","0","1","1","1","1","1","1","4","5","5","4","4","4","5","4","4","4","7","6","4","6","7","7","6","3","4","6","5","6","6","6","6","6","5","6","6","5","4","6","6","3","5","6","3","6","6","3","6","2","3","3","4","3","5","5","5","3","3","2","3","3","5","2","5","3","4","770196006494277634","刘","49","Male","[""好我"",""坏我"",""坏他"",""好他""]","[""强我"",""弱我"",""弱他"",""强他""]","","","","","","","","yes","","","","","","","","","SRET","EW_formal","","key","j","16.64783999999985","683","380","朋友","果断","Positive","ability","","","","","","","","","",""
"1062","","f","psychophysics","57","205203","0.0-7.0-3.0-0.43","6","7","6","6","6","4","4","4","4","5","4","0","0","1","1","1","1","1","1","4","5","5","4","4","4","5","4","4","4","7","6","4","6","7","7","6","3","4","6","5","6","6","6","6","6","5","6","6","5","4","6","6","3","5","6","3","6","6","3","6","2","3","3","4","3","5","5","5","3","3","2","3","3","5","2","5","3","4","770196006494277634","刘","49","Male","[""好我"",""坏我"",""坏他"",""好他""]","[""强我"",""弱我"",""弱他"",""强他""]","","","","","","","","no","","","","","","","","","SRET","EW_formal","","key","f","16.64743902439032","683","380","朋友","腐败","Negative","morality","","","","","","","","","",""
"995","","j","psychophysics","58","207200","0.0-7.0-3.0-0.44","6","7","6","6","6","4","4","4","4","5","4","0","0","1","1","1","1","1","1","4","5","5","4","4","4","5","4","4","4","7","6","4","6","7","7","6","3","4","6","5","6","6","6","6","6","5","6","6","5","4","6","6","3","5","6","3","6","6","3","6","2","3","3","4","3","5","5","5","3","3","2","3","3","5","2","5","3","4","770196006494277634","刘","49","Male","[""好我"",""坏我"",""坏他"",""好他""]","[""强我"",""弱我"",""弱他"",""强他""]","","","","","","","","yes","","","","","","","","","SRET","EW_formal","","key","j","16.647756302520875","683","380","朋友","外行","Negative","ability","","","","","","","","","",""
"1690","","j","psychophysics","59","209893","0.0-7.0-3.0-0.45","6","7","6","6","6","4","4","4","4","5","4","0","0","1","1","1","1","1","1","4","5","5","4","4","4","5","4","4","4","7","6","4","6","7","7","6","3","4","6","5","6","6","6","6","6","5","6","6","5","4","6","6","3","5","6","3","6","6","3","6","2","3","3","4","3","5","5","5","3","3","2","3","3","5","2","5","3","4","770196006494277634","刘","49","Male","[""好我"",""坏我"",""坏他"",""好他""]","[""强我"",""弱我"",""弱他"",""强他""]","","","","","","","","yes","","","","","","","","","SRET","EW_formal","","key","j","16.647695652173972","683","380","自己","懂行","Positive","ability","","","","","","","","","",""
"1675","","j","psychophysics","60","212570","0.0-7.0-3.0-0.46","6","7","6","6","6","4","4","4","4","5","4","0","0","1","1","1","1","1","1","4","5","5","4","4","4","5","4","4","4","7","6","4","6","7","7","6","3","4","6","5","6","6","6","6","6","5","6","6","5","4","6","6","3","5","6","3","6","6","3","6","2","3","3","4","3","5","5","5","3","3","2","3","3","5","2","5","3","4","770196006494277634","刘","49","Male","[""好我"",""坏我"",""坏他"",""好他""]","[""强我"",""弱我"",""弱他"",""强他""]","","","","","","","","yes","","","","","","","","","SRET","EW_formal","","key","j","16.64786875000009","683","380","自己","业余","Negative","ability","","","","","","","","","",""
"487","","j","psychophysics","61","214059","0.0-7.0-3.0-0.47","6","7","6","6","6","4","4","4","4","5","4","0","0","1","1","1","1","1","1","4","5","5","4","4","4","5","4","4","4","7","6","4","6","7","7","6","3","4","6","5","6","6","6","6","6","5","6","6","5","4","6","6","3","5","6","3","6","6","3","6","2","3","3","4","3","5","5","5","3","3","2","3","3","5","2","5","3","4","770196006494277634","刘","49","Male","[""好我"",""坏我"",""坏他"",""好他""]","[""强我"",""弱我"",""弱他"",""强他""]","","","","","","","","yes","","","","","","","","","SRET","EW_formal","","key","j","16.648147727272523","683","380","朋友","马虎","Negative","ability","","","","","","","","","",""
"898","","f","psychophysics","62","215961","0.0-7.0-3.0-0.48","6","7","6","6","6","4","4","4","4","5","4","0","0","1","1","1","1","1","1","4","5","5","4","4","4","5","4","4","4","7","6","4","6","7","7","6","3","4","6","5","6","6","6","6","6","5","6","6","5","4","6","6","3","5","6","3","6","6","3","6","2","3","3","4","3","5","5","5","3","3","2","3","3","5","2","5","3","4","770196006494277634","刘","49","Male","[""好我"",""坏我"",""坏他"",""好他""]","[""强我"",""弱我"",""弱他"",""强他""]","","","","","","","","no","","","","","","","","","SRET","EW_formal","","key","f","16.647654867256616","683","380","自己","骁勇","Positive","ability","","","","","","","","","",""
"118","","j","psychophysics","63","217080","0.0-7.0-3.0-0.49","6","7","6","6","6","4","4","4","4","5","4","0","0","1","1","1","1","1","1","4","5","5","4","4","4","5","4","4","4","7","6","4","6","7","7","6","3","4","6","5","6","6","6","6","6","5","6","6","5","4","6","6","3","5","6","3","6","6","3","6","2","3","3","4","3","5","5","5","3","3","2","3","3","5","2","5","3","4","770196006494277634","刘","49","Male","[""好我"",""坏我"",""坏他"",""好他""]","[""强我"",""弱我"",""弱他"",""强他""]","","","","","","","","yes","","","","","","","","","SRET","EW_formal","","key","j","16.6471060606061","683","380","朋友","虚假","Negative","morality","","","","","","","","","",""
"110","","f","psychophysics","64","218192","0.0-7.0-3.0-0.50","6","7","6","6","6","4","4","4","4","5","4","0","0","1","1","1","1","1","1","4","5","5","4","4","4","5","4","4","4","7","6","4","6","7","7","6","3","4","6","5","6","6","6","6","6","5","6","6","5","4","6","6","3","5","6","3","6","6","3","6","2","3","3","4","3","5","5","5","3","3","2","3","3","5","2","5","3","4","770196006494277634","刘","49","Male","[""好我"",""坏我"",""坏他"",""好他""]","[""强我"",""弱我"",""弱他"",""强他""]","","","","","","","","no","","","","","","","","","SRET","EW_formal","","key","f","16.64787878787893","683","380","朋友","驽钝","Negative","ability","","","","","","","","","",""
"955","","f","psychophysics","65","220149","0.0-7.0-3.0-0.51","6","7","6","6","6","4","4","4","4","5","4","0","0","1","1","1","1","1","1","4","5","5","4","4","4","5","4","4","4","7","6","4","6","7","7","6","3","4","6","5","6","6","6","6","6","5","6","6","5","4","6","6","3","5","6","3","6","6","3","6","2","3","3","4","3","5","5","5","3","3","2","3","3","5","2","5","3","4","770196006494277634","刘","49","Male","[""好我"",""坏我"",""坏他"",""好他""]","[""强我"",""弱我"",""弱他"",""强他""]","","","","","","","","no","","","","","","","","","SRET","EW_formal","","key","f","16.64842735042743","683","380","自己","愚钝","Negative","ability","","","","","","","","","",""
"2573","","f","psychophysics","66","223725","0.0-7.0-3.0-0.52","6","7","6","6","6","4","4","4","4","5","4","0","0","1","1","1","1","1","1","4","5","5","4","4","4","5","4","4","4","7","6","4","6","7","7","6","3","4","6","5","6","6","6","6","6","5","6","6","5","4","6","6","3","5","6","3","6","6","3","6","2","3","3","4","3","5","5","5","3","3","2","3","3","5","2","5","3","4","770196006494277634","刘","49","Male","[""好我"",""坏我"",""坏他"",""好他""]","[""强我"",""弱我"",""弱他"",""强他""]","","","","","","","","no","","","","","","","","","SRET","EW_formal","","key","f","16.647644859813177","683","380","朋友","窝囊","Negative","ability","","","","","","","","","",""
"790","","f","psychophysics","67","225517","0.0-7.0-3.0-0.53","6","7","6","6","6","4","4","4","4","5","4","0","0","1","1","1","1","1","1","4","5","5","4","4","4","5","4","4","4","7","6","4","6","7","7","6","3","4","6","5","6","6","6","6","6","5","6","6","5","4","6","6","3","5","6","3","6","6","3","6","2","3","3","4","3","5","5","5","3","3","2","3","3","5","2","5","3","4","770196006494277634","刘","49","Male","[""好我"",""坏我"",""坏他"",""好他""]","[""强我"",""弱我"",""弱他"",""强他""]","","","","","","","","no","","","","","","","","","SRET","EW_formal","","key","f","16.64783962264153","683","380","自己","伪善","Negative","morality","","","","","","","","","",""
"994","","j","psychophysics","68","227513","0.0-7.0-3.0-0.54","6","7","6","6","6","4","4","4","4","5","4","0","0","1","1","1","1","1","1","4","5","5","4","4","4","5","4","4","4","7","6","4","6","7","7","6","3","4","6","5","6","6","6","6","6","5","6","6","5","4","6","6","3","5","6","3","6","6","3","6","2","3","3","4","3","5","5","5","3","3","2","3","3","5","2","5","3","4","770196006494277634","刘","49","Male","[""好我"",""坏我"",""坏他"",""好他""]","[""强我"",""弱我"",""弱他"",""强他""]","","","","","","","","yes","","","","","","","","","SRET","EW_formal","","key","j","16.647394957983018","683","380","自己","坦荡","Positive","morality","","","","","","","","","",""
"184","","j","psychophysics","69","228698","0.0-7.0-3.0-0.55","6","7","6","6","6","4","4","4","4","5","4","0","0","1","1","1","1","1","1","4","5","5","4","4","4","5","4","4","4","7","6","4","6","7","7","6","3","4","6","5","6","6","6","6","6","5","6","6","5","4","6","6","3","5","6","3","6","6","3","6","2","3","3","4","3","5","5","5","3","3","2","3","3","5","2","5","3","4","770196006494277634","刘","49","Male","[""好我"",""坏我"",""坏他"",""好他""]","[""强我"",""弱我"",""弱他"",""强他""]","","","","","","","","yes","","","","","","","","","SRET","EW_formal","","key","j","16.64687142857126","683","380","朋友","才尽","Negative","ability","","","","","","","","","",""
"924","","j","psychophysics","70","230625","0.0-7.0-3.0-0.56","6","7","6","6","6","4","4","4","4","5","4","0","0","1","1","1","1","1","1","4","5","5","4","4","4","5","4","4","4","7","6","4","6","7","7","6","3","4","6","5","6","6","6","6","6","5","6","6","5","4","6","6","3","5","6","3","6","6","3","6","2","3","3","4","3","5","5","5","3","3","2","3","3","5","2","5","3","4","770196006494277634","刘","49","Male","[""好我"",""坏我"",""坏他"",""好他""]","[""强我"",""弱我"",""弱他"",""强他""]","","","","","","","","yes","","","","","","","","","SRET","EW_formal","","key","j","16.64793913043484","683","380","朋友","中用","Positive","ability","","","","","","","","","",""
"622","","j","psychophysics","71","232249","0.0-7.0-3.0-0.57","6","7","6","6","6","4","4","4","4","5","4","0","0","1","1","1","1","1","1","4","5","5","4","4","4","5","4","4","4","7","6","4","6","7","7","6","3","4","6","5","6","6","6","6","6","5","6","6","5","4","6","6","3","5","6","3","6","6","3","6","2","3","3","4","3","5","5","5","3","3","2","3","3","5","2","5","3","4","770196006494277634","刘","49","Male","[""好我"",""坏我"",""坏他"",""好他""]","[""强我"",""弱我"",""弱他"",""强他""]","","","","","","","","yes","","","","","","","","","SRET","EW_formal","","key","j","16.64747422680405","683","380","自己","忠诚","Positive","morality","","","","","","","","","",""
"3190","","j","psychophysics","72","236443","0.0-7.0-3.0-0.58","6","7","6","6","6","4","4","4","4","5","4","0","0","1","1","1","1","1","1","4","5","5","4","4","4","5","4","4","4","7","6","4","6","7","7","6","3","4","6","5","6","6","6","6","6","5","6","6","5","4","6","6","3","5","6","3","6","6","3","6","2","3","3","4","3","5","5","5","3","3","2","3","3","5","2","5","3","4","770196006494277634","刘","49","Male","[""好我"",""坏我"",""坏他"",""好他""]","[""强我"",""弱我"",""弱他"",""强他""]","","","","","","","","yes","","","","","","","","","SRET","EW_formal","","key","j","16.648032000000008","683","380","朋友","精干","Positive","ability","","","","","","","","","",""
"5102","","f","psychophysics","73","242547","0.0-7.0-3.0-0.59","6","7","6","6","6","4","4","4","4","5","4","0","0","1","1","1","1","1","1","4","5","5","4","4","4","5","4","4","4","7","6","4","6","7","7","6","3","4","6","5","6","6","6","6","6","5","6","6","5","4","6","6","3","5","6","3","6","6","3","6","2","3","3","4","3","5","5","5","3","3","2","3","3","5","2","5","3","4","770196006494277634","刘","49","Male","[""好我"",""坏我"",""坏他"",""好他""]","[""强我"",""弱我"",""弱他"",""强他""]","","","","","","","","no","","","","","","","","","SRET","EW_formal","","key","f","16.647863387978187","683","380","自己","狡狯","Negative","morality","","","","","","","","","",""
"3410","","j","psychophysics","74","246958","0.0-7.0-3.0-0.60","6","7","6","6","6","4","4","4","4","5","4","0","0","1","1","1","1","1","1","4","5","5","4","4","4","5","4","4","4","7","6","4","6","7","7","6","3","4","6","5","6","6","6","6","6","5","6","6","5","4","6","6","3","5","6","3","6","6","3","6","2","3","3","4","3","5","5","5","3","3","2","3","3","5","2","5","3","4","770196006494277634","刘","49","Male","[""好我"",""坏我"",""坏他"",""好他""]","[""强我"",""弱我"",""弱他"",""强他""]","","","","","","","","yes","","","","","","","","","SRET","EW_formal","","key","j","16.6478484848484","683","380","朋友","坚持","Positive","ability","","","","","","","","","",""
"1652","","j","psychophysics","75","249613","0.0-7.0-3.0-0.61","6","7","6","6","6","4","4","4","4","5","4","0","0","1","1","1","1","1","1","4","5","5","4","4","4","5","4","4","4","7","6","4","6","7","7","6","3","4","6","5","6","6","6","6","6","5","6","6","5","4","6","6","3","5","6","3","6","6","3","6","2","3","3","4","3","5","5","5","3","3","2","3","3","5","2","5","3","4","770196006494277634","刘","49","Male","[""好我"",""坏我"",""坏他"",""好他""]","[""强我"",""弱我"",""弱他"",""强他""]","","","","","","","","yes","","","","","","","","","SRET","EW_formal","","key","j","16.647742138364837","683","380","朋友","狡诈","Negative","morality","","","","","","","","","",""
"2973","","f","psychophysics","76","253588","0.0-7.0-3.0-0.62","6","7","6","6","6","4","4","4","4","5","4","0","0","1","1","1","1","1","1","4","5","5","4","4","4","5","4","4","4","7","6","4","6","7","7","6","3","4","6","5","6","6","6","6","6","5","6","6","5","4","6","6","3","5","6","3","6","6","3","6","2","3","3","4","3","5","5","5","3","3","2","3","3","5","2","5","3","4","770196006494277634","刘","49","Male","[""好我"",""坏我"",""坏他"",""好他""]","[""强我"",""弱我"",""弱他"",""强他""]","","","","","","","","no","","","","","","","","","SRET","EW_formal","","key","f","16.647843881856495","683","380","自己","新手","Negative","ability","","","","","","","","","",""
"1817","","j","psychophysics","77","256409","0.0-7.0-3.0-0.63","6","7","6","6","6","4","4","4","4","5","4","0","0","1","1","1","1","1","1","4","5","5","4","4","4","5","4","4","4","7","6","4","6","7","7","6","3","4","6","5","6","6","6","6","6","5","6","6","5","4","6","6","3","5","6","3","6","6","3","6","2","3","3","4","3","5","5","5","3","3","2","3","3","5","2","5","3","4","770196006494277634","刘","49","Male","[""好我"",""坏我"",""坏他"",""好他""]","[""强我"",""弱我"",""弱他"",""强他""]","","","","","","","","yes","","","","","","","","","SRET","EW_formal","","key","j","16.647656804733714","683","380","朋友","偏私","Negative","morality","","","","","","","","","",""
"460","","f","psychophysics","78","257870","0.0-7.0-3.0-0.64","6","7","6","6","6","4","4","4","4","5","4","0","0","1","1","1","1","1","1","4","5","5","4","4","4","5","4","4","4","7","6","4","6","7","7","6","3","4","6","5","6","6","6","6","6","5","6","6","5","4","6","6","3","5","6","3","6","6","3","6","2","3","3","4","3","5","5","5","3","3","2","3","3","5","2","5","3","4","770196006494277634","刘","49","Male","[""好我"",""坏我"",""坏他"",""好他""]","[""强我"",""弱我"",""弱他"",""强他""]","","","","","","","","no","","","","","","","","","SRET","EW_formal","","key","f","16.648252873563397","683","380","自己","犹豫","Negative","ability","","","","","","","","","",""
"565","","j","psychophysics","79","259436","0.0-7.0-3.0-0.65","6","7","6","6","6","4","4","4","4","5","4","0","0","1","1","1","1","1","1","4","5","5","4","4","4","5","4","4","4","7","6","4","6","7","7","6","3","4","6","5","6","6","6","6","6","5","6","6","5","4","6","6","3","5","6","3","6","6","3","6","2","3","3","4","3","5","5","5","3","3","2","3","3","5","2","5","3","4","770196006494277634","刘","49","Male","[""好我"",""坏我"",""坏他"",""好他""]","[""强我"",""弱我"",""弱他"",""强他""]","","","","","","","","yes","","","","","","","","","SRET","EW_formal","","key","j","16.647053763440933","683","380","朋友","淡泊","Positive","morality","","","","","","","","","",""
"1696","","f","psychophysics","80","262133","0.0-7.0-3.0-0.66","6","7","6","6","6","4","4","4","4","5","4","0","0","1","1","1","1","1","1","4","5","5","4","4","4","5","4","4","4","7","6","4","6","7","7","6","3","4","6","5","6","6","6","6","6","5","6","6","5","4","6","6","3","5","6","3","6","6","3","6","2","3","3","4","3","5","5","5","3","3","2","3","3","5","2","5","3","4","770196006494277634","刘","49","Male","[""好我"",""坏我"",""坏他"",""好他""]","[""强我"",""弱我"",""弱他"",""强他""]","","","","","","","","no","","","","","","","","","SRET","EW_formal","","key","f","16.647639751552912","683","380","自己","毅力","Positive","ability","","","","","","","","","",""
"485","","j","psychophysics","81","263619","0.0-7.0-3.0-0.67","6","7","6","6","6","4","4","4","4","5","4","0","0","1","1","1","1","1","1","4","5","5","4","4","4","5","4","4","4","7","6","4","6","7","7","6","3","4","6","5","6","6","6","6","6","5","6","6","5","4","6","6","3","5","6","3","6","6","3","6","2","3","3","4","3","5","5","5","3","3","2","3","3","5","2","5","3","4","770196006494277634","刘","49","Male","[""好我"",""坏我"",""坏他"",""好他""]","[""强我"",""弱我"",""弱他"",""强他""]","","","","","","","","yes","","","","","","","","","SRET","EW_formal","","key","j","16.647568181818563","683","380","朋友","愚蠢","Negative","ability","","","","","","","","","",""
"427","","j","psychophysics","82","265048","0.0-7.0-3.0-0.68","6","7","6","6","6","4","4","4","4","5","4","0","0","1","1","1","1","1","1","4","5","5","4","4","4","5","4","4","4","7","6","4","6","7","7","6","3","4","6","5","6","6","6","6","6","5","6","6","5","4","6","6","3","5","6","3","6","6","3","6","2","3","3","4","3","5","5","5","3","3","2","3","3","5","2","5","3","4","770196006494277634","刘","49","Male","[""好我"",""坏我"",""坏他"",""好他""]","[""强我"",""弱我"",""弱他"",""强他""]","","","","","","","","yes","","","","","","","","","SRET","EW_formal","","key","j","16.64803529411746","683","380","自己","稳健","Positive","ability","","","","","","","","","",""
"350","","j","psychophysics","83","266401","0.0-7.0-3.0-0.69","6","7","6","6","6","4","4","4","4","5","4","0","0","1","1","1","1","1","1","4","5","5","4","4","4","5","4","4","4","7","6","4","6","7","7","6","3","4","6","5","6","6","6","6","6","5","6","6","5","4","6","6","3","5","6","3","6","6","3","6","2","3","3","4","3","5","5","5","3","3","2","3","3","5","2","5","3","4","770196006494277634","刘","49","Male","[""好我"",""坏我"",""坏他"",""好他""]","[""强我"",""弱我"",""弱他"",""强他""]","","","","","","","","yes","","","","","","","","","SRET","EW_formal","","key","j","16.6471749999997","683","380","朋友","廉明","Positive","morality","","","","","","","","","",""
"127","","f","psychophysics","84","267530","0.0-7.0-3.0-0.70","6","7","6","6","6","4","4","4","4","5","4","0","0","1","1","1","1","1","1","4","5","5","4","4","4","5","4","4","4","7","6","4","6","7","7","6","3","4","6","5","6","6","6","6","6","5","6","6","5","4","6","6","3","5","6","3","6","6","3","6","2","3","3","4","3","5","5","5","3","3","2","3","3","5","2","5","3","4","770196006494277634","刘","49","Male","[""好我"",""坏我"",""坏他"",""好他""]","[""强我"",""弱我"",""弱他"",""强他""]","","","","","","","","no","","","","","","","","","SRET","EW_formal","","key","f","16.64741791044744","683","380","朋友","守法","Positive","morality","","","","","","","","","",""
"494","","j","psychophysics","85","269026","0.0-7.0-3.0-0.71","6","7","6","6","6","4","4","4","4","5","4","0","0","1","1","1","1","1","1","4","5","5","4","4","4","5","4","4","4","7","6","4","6","7","7","6","3","4","6","5","6","6","6","6","6","5","6","6","5","4","6","6","3","5","6","3","6","6","3","6","2","3","3","4","3","5","5","5","3","3","2","3","3","5","2","5","3","4","770196006494277634","刘","49","Male","[""好我"",""坏我"",""坏他"",""好他""]","[""强我"",""弱我"",""弱他"",""强他""]","","","","","","","","yes","","","","","","","","","SRET","EW_formal","","key","j","16.64747191011236","683","380","朋友","屈才","Negative","ability","","","","","","","","","",""
"2603","","j","psychophysics","86","272630","0.0-7.0-3.0-0.72","6","7","6","6","6","4","4","4","4","5","4","0","0","1","1","1","1","1","1","4","5","5","4","4","4","5","4","4","4","7","6","4","6","7","7","6","3","4","6","5","6","6","6","6","6","5","6","6","5","4","6","6","3","5","6","3","6","6","3","6","2","3","3","4","3","5","5","5","3","3","2","3","3","5","2","5","3","4","770196006494277634","刘","49","Male","[""好我"",""坏我"",""坏他"",""好他""]","[""强我"",""弱我"",""弱他"",""强他""]","","","","","","","","yes","","","","","","","","","SRET","EW_formal","","key","j","16.72551869158878","683","380","自己","诡诈","Negative","morality","","","","","","","","","",""
"4010","","j","psychophysics","87","277642","0.0-7.0-3.0-0.73","6","7","6","6","6","4","4","4","4","5","4","0","0","1","1","1","1","1","1","4","5","5","4","4","4","5","4","4","4","7","6","4","6","7","7","6","3","4","6","5","6","6","6","6","6","5","6","6","5","4","6","6","3","5","6","3","6","6","3","6","2","3","3","4","3","5","5","5","3","3","2","3","3","5","2","5","3","4","770196006494277634","刘","49","Male","[""好我"",""坏我"",""坏他"",""好他""]","[""强我"",""弱我"",""弱他"",""强他""]","","","","","","","","yes","","","","","","","","","SRET","EW_formal","","key","j","16.647636666666756","683","380","自己","勤恳","Positive","morality","","","","","","","","","",""
"2950","","j","psychophysics","88","281593","0.0-7.0-3.0-0.74","6","7","6","6","6","4","4","4","4","5","4","0","0","1","1","1","1","1","1","4","5","5","4","4","4","5","4","4","4","7","6","4","6","7","7","6","3","4","6","5","6","6","6","6","6","5","6","6","5","4","6","6","3","5","6","3","6","6","3","6","2","3","3","4","3","5","5","5","3","3","2","3","3","5","2","5","3","4","770196006494277634","刘","49","Male","[""好我"",""坏我"",""坏他"",""好他""]","[""强我"",""弱我"",""弱他"",""强他""]","","","","","","","","yes","","","","","","","","","SRET","EW_formal","","key","j","16.647713080168906","683","380","朋友","敏捷","Positive","ability","","","","","","","","","",""
"1678","","j","psychophysics","89","284274","0.0-7.0-3.0-0.75","6","7","6","6","6","4","4","4","4","5","4","0","0","1","1","1","1","1","1","4","5","5","4","4","4","5","4","4","4","7","6","4","6","7","7","6","3","4","6","5","6","6","6","6","6","5","6","6","5","4","6","6","3","5","6","3","6","6","3","6","2","3","3","4","3","5","5","5","3","3","2","3","3","5","2","5","3","4","770196006494277634","刘","49","Male","[""好我"",""坏我"",""坏他"",""好他""]","[""强我"",""弱我"",""弱他"",""强他""]","","","","","","","","yes","","","","","","","","","SRET","EW_formal","","key","j","16.647812500000146","683","380","朋友","忠义","Positive","morality","","","","","","","","","",""
"1284","","j","psychophysics","90","286559","0.0-7.0-3.0-0.76","6","7","6","6","6","4","4","4","4","5","4","0","0","1","1","1","1","1","1","4","5","5","4","4","4","5","4","4","4","7","6","4","6","7","7","6","3","4","6","5","6","6","6","6","6","5","6","6","5","4","6","6","3","5","6","3","6","6","3","6","2","3","3","4","3","5","5","5","3","3","2","3","3","5","2","5","3","4","770196006494277634","刘","49","Male","[""好我"",""坏我"",""坏他"",""好他""]","[""强我"",""弱我"",""弱他"",""强他""]","","","","","","","","yes","","","","","","","","","SRET","EW_formal","","key","j","16.64744852941187","683","380","自己","高效","Positive","ability","","","","","","","","","",""
"1529","","j","psychophysics","91","289090","0.0-7.0-3.0-0.77","6","7","6","6","6","4","4","4","4","5","4","0","0","1","1","1","1","1","1","4","5","5","4","4","4","5","4","4","4","7","6","4","6","7","7","6","3","4","6","5","6","6","6","6","6","5","6","6","5","4","6","6","3","5","6","3","6","6","3","6","2","3","3","4","3","5","5","5","3","3","2","3","3","5","2","5","3","4","770196006494277634","刘","49","Male","[""好我"",""坏我"",""坏他"",""好他""]","[""强我"",""弱我"",""弱他"",""强他""]","","","","","","","","yes","","","","","","","","","SRET","EW_formal","","key","j","16.6478079470196","683","380","朋友","努力","Positive","ability","","","","","","","","","",""
"2303","","j","psychophysics","92","292394","0.0-7.0-3.0-0.78","6","7","6","6","6","4","4","4","4","5","4","0","0","1","1","1","1","1","1","4","5","5","4","4","4","5","4","4","4","7","6","4","6","7","7","6","3","4","6","5","6","6","6","6","6","5","6","6","5","4","6","6","3","5","6","3","6","6","3","6","2","3","3","4","3","5","5","5","3","3","2","3","3","5","2","5","3","4","770196006494277634","刘","49","Male","[""好我"",""坏我"",""坏他"",""好他""]","[""强我"",""弱我"",""弱他"",""强他""]","","","","","","","","yes","","","","","","","","","SRET","EW_formal","","key","j","16.647715736040492","683","380","自己","礼貌","Positive","morality","","","","","","","","","",""
"436","","f","psychophysics","93","293836","0.0-7.0-3.0-0.79","6","7","6","6","6","4","4","4","4","5","4","0","0","1","1","1","1","1","1","4","5","5","4","4","4","5","4","4","4","7","6","4","6","7","7","6","3","4","6","5","6","6","6","6","6","5","6","6","5","4","6","6","3","5","6","3","6","6","3","6","2","3","3","4","3","5","5","5","3","3","2","3","3","5","2","5","3","4","770196006494277634","刘","49","Male","[""好我"",""坏我"",""坏他"",""好他""]","[""强我"",""弱我"",""弱他"",""强他""]","","","","","","","","no","","","","","","","","","SRET","EW_formal","","key","f","16.647244186046517","683","380","自己","畏难","Negative","ability","","","","","","","","","",""
"806","","j","psychophysics","94","295644","0.0-7.0-3.0-0.80","6","7","6","6","6","4","4","4","4","5","4","0","0","1","1","1","1","1","1","4","5","5","4","4","4","5","4","4","4","7","6","4","6","7","7","6","3","4","6","5","6","6","6","6","6","5","6","6","5","4","6","6","3","5","6","3","6","6","3","6","2","3","3","4","3","5","5","5","3","3","2","3","3","5","2","5","3","4","770196006494277634","刘","49","Male","[""好我"",""坏我"",""坏他"",""好他""]","[""强我"",""弱我"",""弱他"",""强他""]","","","","","","","","yes","","","","","","","","","SRET","EW_formal","","key","j","16.647620370370095","683","380","朋友","智慧","Positive","ability","","","","","","","","","",""
"135","","f","psychophysics","95","296781","0.0-7.0-3.0-0.81","6","7","6","6","6","4","4","4","4","5","4","0","0","1","1","1","1","1","1","4","5","5","4","4","4","5","4","4","4","7","6","4","6","7","7","6","3","4","6","5","6","6","6","6","6","5","6","6","5","4","6","6","3","5","6","3","6","6","3","6","2","3","3","4","3","5","5","5","3","3","2","3","3","5","2","5","3","4","770196006494277634","刘","49","Male","[""好我"",""坏我"",""坏他"",""好他""]","[""强我"",""弱我"",""弱他"",""强他""]","","","","","","","","no","","","","","","","","","SRET","EW_formal","","key","f","16.646999999999814","683","380","朋友","短视","Negative","ability","","","","","","","","","",""
"446","","f","psychophysics","96","298228","0.0-7.0-3.0-0.82","6","7","6","6","6","4","4","4","4","5","4","0","0","1","1","1","1","1","1","4","5","5","4","4","4","5","4","4","4","7","6","4","6","7","7","6","3","4","6","5","6","6","6","6","6","5","6","6","5","4","6","6","3","5","6","3","6","6","3","6","2","3","3","4","3","5","5","5","3","3","2","3","3","5","2","5","3","4","770196006494277634","刘","49","Male","[""好我"",""坏我"",""坏他"",""好他""]","[""强我"",""弱我"",""弱他"",""强他""]","","","","","","","","no","","","","","","","","","SRET","EW_formal","","key","f","16.647895348837686","683","380","朋友","廉正","Positive","morality","","","","","","","","","",""
"787","","j","psychophysics","97","300023","0.0-7.0-3.0-0.83","6","7","6","6","6","4","4","4","4","5","4","0","0","1","1","1","1","1","1","4","5","5","4","4","4","5","4","4","4","7","6","4","6","7","7","6","3","4","6","5","6","6","6","6","6","5","6","6","5","4","6","6","3","5","6","3","6","6","3","6","2","3","3","4","3","5","5","5","3","3","2","3","3","5","2","5","3","4","770196006494277634","刘","49","Male","[""好我"",""坏我"",""坏他"",""好他""]","[""强我"",""弱我"",""弱他"",""强他""]","","","","","","","","yes","","","","","","","","","SRET","EW_formal","","key","j","16.648130841121823","683","380","自己","蛇蝎","Negative","morality","","","","","","","","","",""
"1661","","j","psychophysics","98","302686","0.0-7.0-3.0-0.84","6","7","6","6","6","4","4","4","4","5","4","0","0","1","1","1","1","1","1","4","5","5","4","4","4","5","4","4","4","7","6","4","6","7","7","6","3","4","6","5","6","6","6","6","6","5","6","6","5","4","6","6","3","5","6","3","6","6","3","6","2","3","3","4","3","5","5","5","3","3","2","3","3","5","2","5","3","4","770196006494277634","刘","49","Male","[""好我"",""坏我"",""坏他"",""好他""]","[""强我"",""弱我"",""弱他"",""强他""]","","","","","","","","yes","","","","","","","","","SRET","EW_formal","","key","j","16.647855345912074","683","380","朋友","低俗","Negative","morality","","","","","","","","","",""
"563","","f","psychophysics","99","304252","0.0-7.0-3.0-0.85","6","7","6","6","6","4","4","4","4","5","4","0","0","1","1","1","1","1","1","4","5","5","4","4","4","5","4","4","4","7","6","4","6","7","7","6","3","4","6","5","6","6","6","6","6","5","6","6","5","4","6","6","3","5","6","3","6","6","3","6","2","3","3","4","3","5","5","5","3","3","2","3","3","5","2","5","3","4","770196006494277634","刘","49","Male","[""好我"",""坏我"",""坏他"",""好他""]","[""强我"",""弱我"",""弱他"",""强他""]","","","","","","","","no","","","","","","","","","SRET","EW_formal","","key","f","16.647698924731543","683","380","自己","缓慢","Negative","ability","","","","","","","","","",""
"353","","f","psychophysics","100","305606","0.0-7.0-3.0-0.86","6","7","6","6","6","4","4","4","4","5","4","0","0","1","1","1","1","1","1","4","5","5","4","4","4","5","4","4","4","7","6","4","6","7","7","6","3","4","6","5","6","6","6","6","6","5","6","6","5","4","6","6","3","5","6","3","6","6","3","6","2","3","3","4","3","5","5","5","3","3","2","3","3","5","2","5","3","4","770196006494277634","刘","49","Male","[""好我"",""坏我"",""坏他"",""好他""]","[""强我"",""弱我"",""弱他"",""强他""]","","","","","","","","no","","","","","","","","","SRET","EW_formal","","key","f","16.647550000000045","683","380","朋友","素养","Positive","morality","","","","","","","","","",""
"3473","","j","psychophysics","101","310080","0.0-7.0-3.0-0.87","6","7","6","6","6","4","4","4","4","5","4","0","0","1","1","1","1","1","1","4","5","5","4","4","4","5","4","4","4","7","6","4","6","7","7","6","3","4","6","5","6","6","6","6","6","5","6","6","5","4","6","6","3","5","6","3","6","6","3","6","2","3","3","4","3","5","5","5","3","3","2","3","3","5","2","5","3","4","770196006494277634","刘","49","Male","[""好我"",""坏我"",""坏他"",""好他""]","[""强我"",""弱我"",""弱他"",""强他""]","","","","","","","","yes","","","","","","","","","SRET","EW_formal","","key","j","16.647496268656862","683","380","自己","主见","Positive","ability","","","","","","","","","",""
"6902","
    <p><div style='color:white;font-size:35px; line-height:20px;'>计算任务</div></p><br>
    <p><div style='color:red;font-size:25px; line-height:20px;'>接下来，您将看到一些四则运算题，<b>请从键盘选择 0-9 进行反应。</b></div></p>
    <p><div class='footer' style='color:white;font-size:25px; line-height:20px;'>如果对本实验还有不清楚之处，请立即向实验员咨询。</p><p style='color:white;font-size:25px; line-height:20px;'>如果您明白了规则：</p><p style='color:white;font-size:22px; line-height:20px;'>请按 继续 进入练习</p>
    </div>
    ","0","html-button-response","102","316983","0.0-7.0-4.0","6","7","6","6","6","4","4","4","4","5","4","0","0","1","1","1","1","1","1","4","5","5","4","4","4","5","4","4","4","7","6","4","6","7","7","6","3","4","6","5","6","6","6","6","6","5","6","6","5","4","6","6","3","5","6","3","6","6","3","6","2","3","3","4","3","5","5","5","3","3","2","3","3","5","2","5","3","4","770196006494277634","刘","49","Male","[""好我"",""坏我"",""坏他"",""好他""]","[""强我"",""弱我"",""弱他"",""强他""]","","","","","","","","","","","","","","","","","SRET_math","math_instructions","Thu Nov 02 2023 20:10:40 GMT+0800 (中国标准时间)","","","","","","","","","","","","","","","","","","",""
"3072","","5","psychophysics","103","320059","0.0-7.0-5.0-0.0","6","7","6","6","6","4","4","4","4","5","4","0","0","1","1","1","1","1","1","4","5","5","4","4","4","5","4","4","4","7","6","4","6","7","7","6","3","4","6","5","6","6","6","6","6","5","6","6","5","4","6","6","3","5","6","3","6","6","3","6","2","3","3","4","3","5","5","5","3","3","2","3","3","5","2","5","3","4","770196006494277634","刘","49","Male","[""好我"",""坏我"",""坏他"",""好他""]","[""强我"",""弱我"",""弱他"",""强他""]","","","","","","","","5","","","","","","","","","SRET","SRET_math_calculate","","key","5","16.64756756756782","683","380","","","","","5/1= ?","5","1","","","","","","",""
"2436","","5","psychophysics","104","322508","0.0-7.0-5.0-0.1","6","7","6","6","6","4","4","4","4","5","4","0","0","1","1","1","1","1","1","4","5","5","4","4","4","5","4","4","4","7","6","4","6","7","7","6","3","4","6","5","6","6","6","6","6","5","6","6","5","4","6","6","3","5","6","3","6","6","3","6","2","3","3","4","3","5","5","5","3","3","2","3","3","5","2","5","3","4","770196006494277634","刘","49","Male","[""好我"",""坏我"",""坏他"",""好他""]","[""强我"",""弱我"",""弱他"",""强他""]","","","","","","","","5","","","","","","","","","SRET","SRET_math_calculate","","key","5","16.648143835616146","683","380","","","","","17-12= ? ","5","1","","","","","","",""
"2750","","0","psychophysics","105","325264","0.0-7.0-5.0-0.2","6","7","6","6","6","4","4","4","4","5","4","0","0","1","1","1","1","1","1","4","5","5","4","4","4","5","4","4","4","7","6","4","6","7","7","6","3","4","6","5","6","6","6","6","6","5","6","6","5","4","6","6","3","5","6","3","6","6","3","6","2","3","3","4","3","5","5","5","3","3","2","3","3","5","2","5","3","4","770196006494277634","刘","49","Male","[""好我"",""坏我"",""坏他"",""好他""]","[""强我"",""弱我"",""弱他"",""强他""]","","","","","","","","0","","","","","","","","","SRET","SRET_math_calculate","","key","0","16.647848484848247","683","380","","","","","12-12= ?","0","1","","","","","","",""
"2564","","8","psychophysics","106","327832","0.0-7.0-5.0-0.3","6","7","6","6","6","4","4","4","4","5","4","0","0","1","1","1","1","1","1","4","5","5","4","4","4","5","4","4","4","7","6","4","6","7","7","6","3","4","6","5","6","6","6","6","6","5","6","6","5","4","6","6","3","5","6","3","6","6","3","6","2","3","3","4","3","5","5","5","3","3","2","3","3","5","2","5","3","4","770196006494277634","刘","49","Male","[""好我"",""坏我"",""坏他"",""好他""]","[""强我"",""弱我"",""弱他"",""强他""]","","","","","","","","8","","","","","","","","","SRET","SRET_math_calculate","","key","8","16.648137254901823","683","380","","","","","13-5= ?","8","1","","","","","","",""
"3501","","9","psychophysics","107","331344","0.0-7.0-5.0-0.4","6","7","6","6","6","4","4","4","4","5","4","0","0","1","1","1","1","1","1","4","5","5","4","4","4","5","4","4","4","7","6","4","6","7","7","6","3","4","6","5","6","6","6","6","6","5","6","6","5","4","6","6","3","5","6","3","6","6","3","6","2","3","3","4","3","5","5","5","3","3","2","3","3","5","2","5","3","4","770196006494277634","刘","49","Male","[""好我"",""坏我"",""坏他"",""好他""]","[""强我"",""弱我"",""弱他"",""强他""]","","","","","","","","9","","","","","","","","","SRET","SRET_math_calculate","","key","9","16.647623809523758","683","380","","","","","18/2= ?","9","1","","","","","","",""
"2354","","4","psychophysics","108","333701","0.0-7.0-5.0-0.5","6","7","6","6","6","4","4","4","4","5","4","0","0","1","1","1","1","1","1","4","5","5","4","4","4","5","4","4","4","7","6","4","6","7","7","6","3","4","6","5","6","6","6","6","6","5","6","6","5","4","6","6","3","5","6","3","6","6","3","6","2","3","3","4","3","5","5","5","3","3","2","3","3","5","2","5","3","4","770196006494277634","刘","49","Male","[""好我"",""坏我"",""坏他"",""好他""]","[""强我"",""弱我"",""弱他"",""强他""]","","","","","","","","4","","","","","","","","","SRET","SRET_math_calculate","","key","4","16.647397163120537","683","380","","","","","2+2= ?","4","1","","","","","","",""
"2054","","7","psychophysics","109","335759","0.0-7.0-5.0-0.6","6","7","6","6","6","4","4","4","4","5","4","0","0","1","1","1","1","1","1","4","5","5","4","4","4","5","4","4","4","7","6","4","6","7","7","6","3","4","6","5","6","6","6","6","6","5","6","6","5","4","6","6","3","5","6","3","6","6","3","6","2","3","3","4","3","5","5","5","3","3","2","3","3","5","2","5","3","4","770196006494277634","刘","49","Male","[""好我"",""坏我"",""坏他"",""好他""]","[""强我"",""弱我"",""弱他"",""强他""]","","","","","","","","7","","","","","","","","","SRET","SRET_math_calculate","","key","7","16.647704918032463","683","380","","","","","9-2= ?","7","1","","","","","","",""
"1949","","2","psychophysics","110","337712","0.0-7.0-5.0-0.7","6","7","6","6","6","4","4","4","4","5","4","0","0","1","1","1","1","1","1","4","5","5","4","4","4","5","4","4","4","7","6","4","6","7","7","6","3","4","6","5","6","6","6","6","6","5","6","6","5","4","6","6","3","5","6","3","6","6","3","6","2","3","3","4","3","5","5","5","3","3","2","3","3","5","2","5","3","4","770196006494277634","刘","49","Male","[""好我"",""坏我"",""坏他"",""好他""]","[""强我"",""弱我"",""弱他"",""强他""]","","","","","","","","2","","","","","","","","","SRET","SRET_math_calculate","","key","2","16.647376068375713","683","380","","","","","19-17= ?","2","1","","","","","","",""
"1989","","3","psychophysics","111","339705","0.0-7.0-5.0-0.8","6","7","6","6","6","4","4","4","4","5","4","0","0","1","1","1","1","1","1","4","5","5","4","4","4","5","4","4","4","7","6","4","6","7","7","6","3","4","6","5","6","6","6","6","6","5","6","6","5","4","6","6","3","5","6","3","6","6","3","6","2","3","3","4","3","5","5","5","3","3","2","3","3","5","2","5","3","4","770196006494277634","刘","49","Male","[""好我"",""坏我"",""坏他"",""好他""]","[""强我"",""弱我"",""弱他"",""强他""]","","","","","","","","3","","","","","","","","","SRET","SRET_math_calculate","","key","3","16.64779661016951","683","380","","","","","1+2= ?","3","1","","","","","","",""
"2119","","7","psychophysics","112","341832","0.0-7.0-5.0-0.9","6","7","6","6","6","4","4","4","4","5","4","0","0","1","1","1","1","1","1","4","5","5","4","4","4","5","4","4","4","7","6","4","6","7","7","6","3","4","6","5","6","6","6","6","6","5","6","6","5","4","6","6","3","5","6","3","6","6","3","6","2","3","3","4","3","5","5","5","3","3","2","3","3","5","2","5","3","4","770196006494277634","刘","49","Male","[""好我"",""坏我"",""坏他"",""好他""]","[""强我"",""弱我"",""弱他"",""强他""]","","","","","","","","7","","","","","","","","","SRET","SRET_math_calculate","","key","7","16.647897637795243","683","380","","","","","7*1=  ?","7","1","","","","","","",""
"1981","","1","psychophysics","113","343815","0.0-7.0-5.0-0.10","6","7","6","6","6","4","4","4","4","5","4","0","0","1","1","1","1","1","1","4","5","5","4","4","4","5","4","4","4","7","6","4","6","7","7","6","3","4","6","5","6","6","6","6","6","5","6","6","5","4","6","6","3","5","6","3","6","6","3","6","2","3","3","4","3","5","5","5","3","3","2","3","3","5","2","5","3","4","770196006494277634","刘","49","Male","[""好我"",""坏我"",""坏他"",""好他""]","[""强我"",""弱我"",""弱他"",""强他""]","","","","","","","","1","","","","","","","","","SRET","SRET_math_calculate","","key","1","16.647508474576416","683","380","","","","","9-8= ?","1","1","","","","","","",""
"1776","","0","psychophysics","114","345594","0.0-7.0-5.0-0.11","6","7","6","6","6","4","4","4","4","5","4","0","0","1","1","1","1","1","1","4","5","5","4","4","4","5","4","4","4","7","6","4","6","7","7","6","3","4","6","5","6","6","6","6","6","5","6","6","5","4","6","6","3","5","6","3","6","6","3","6","2","3","3","4","3","5","5","5","3","3","2","3","3","5","2","5","3","4","770196006494277634","刘","49","Male","[""好我"",""坏我"",""坏他"",""好他""]","[""强我"",""弱我"",""弱他"",""强他""]","","","","","","","","0","","","","","","","","","SRET","SRET_math_calculate","","key","0","16.648103773585117","683","380","","","","","7*0= ?","0","1","","","","","","",""
"2318","","3","psychophysics","115","347916","0.0-7.0-5.0-0.12","6","7","6","6","6","4","4","4","4","5","4","0","0","1","1","1","1","1","1","4","5","5","4","4","4","5","4","4","4","7","6","4","6","7","7","6","3","4","6","5","6","6","6","6","6","5","6","6","5","4","6","6","3","5","6","3","6","6","3","6","2","3","3","4","3","5","5","5","3","3","2","3","3","5","2","5","3","4","770196006494277634","刘","49","Male","[""好我"",""坏我"",""坏他"",""好他""]","[""强我"",""弱我"",""弱他"",""强他""]","","","","","","","","3","","","","","","","","","SRET","SRET_math_calculate","","key","3","16.647683453237345","683","380","","","","","3+0= ?","3","1","","","","","","",""
"2230","","3","psychophysics","116","350149","0.0-7.0-5.0-0.13","6","7","6","6","6","4","4","4","4","5","4","0","0","1","1","1","1","1","1","4","5","5","4","4","4","5","4","4","4","7","6","4","6","7","7","6","3","4","6","5","6","6","6","6","6","5","6","6","5","4","6","6","3","5","6","3","6","6","3","6","2","3","3","4","3","5","5","5","3","3","2","3","3","5","2","5","3","4","770196006494277634","刘","49","Male","[""好我"",""坏我"",""坏他"",""好他""]","[""强我"",""弱我"",""弱他"",""强他""]","","","","","","","","3","","","","","","","","","SRET","SRET_math_calculate","","key","3","16.648157894736965","683","380","","","","","6/2= ?","3","1","","","","","","",""
"2487","","7","psychophysics","117","352639","0.0-7.0-5.0-0.14","6","7","6","6","6","4","4","4","4","5","4","0","0","1","1","1","1","1","1","4","5","5","4","4","4","5","4","4","4","7","6","4","6","7","7","6","3","4","6","5","6","6","6","6","6","5","6","6","5","4","6","6","3","5","6","3","6","6","3","6","2","3","3","4","3","5","5","5","3","3","2","3","3","5","2","5","3","4","770196006494277634","刘","49","Male","[""好我"",""坏我"",""坏他"",""好他""]","[""强我"",""弱我"",""弱他"",""强他""]","","","","","","","","7","","","","","","","","","SRET","SRET_math_calculate","","key","7","16.647716216215976","683","380","","","","","1+6= ?","7","1","","","","","","",""
"2233","","4","psychophysics","118","354875","0.0-7.0-5.0-0.15","6","7","6","6","6","4","4","4","4","5","4","0","0","1","1","1","1","1","1","4","5","5","4","4","4","5","4","4","4","7","6","4","6","7","7","6","3","4","6","5","6","6","6","6","6","5","6","6","5","4","6","6","3","5","6","3","6","6","3","6","2","3","3","4","3","5","5","5","3","3","2","3","3","5","2","5","3","4","770196006494277634","刘","49","Male","[""好我"",""坏我"",""坏他"",""好他""]","[""强我"",""弱我"",""弱他"",""强他""]","","","","","","","","4","","","","","","","","","SRET","SRET_math_calculate","","key","4","16.647358208955108","683","380","","","","","8-4= ?","4","1","","","","","","",""
"3172","","9","psychophysics","119","358050","0.0-7.0-5.0-0.16","6","7","6","6","6","4","4","4","4","5","4","0","0","1","1","1","1","1","1","4","5","5","4","4","4","5","4","4","4","7","6","4","6","7","7","6","3","4","6","5","6","6","6","6","6","5","6","6","5","4","6","6","3","5","6","3","6","6","3","6","2","3","3","4","3","5","5","5","3","3","2","3","3","5","2","5","3","4","770196006494277634","刘","49","Male","[""好我"",""坏我"",""坏他"",""好他""]","[""强我"",""弱我"",""弱他"",""强他""]","","","","","","","","9","","","","","","","","","SRET","SRET_math_calculate","","key","9","16.647730158730017","683","380","","","","","32-23= ?","9","1","","","","","","",""
"2316","","4","psychophysics","120","360368","0.0-7.0-5.0-0.17","6","7","6","6","6","4","4","4","4","5","4","0","0","1","1","1","1","1","1","4","5","5","4","4","4","5","4","4","4","7","6","4","6","7","7","6","3","4","6","5","6","6","6","6","6","5","6","6","5","4","6","6","3","5","6","3","6","6","3","6","2","3","3","4","3","5","5","5","3","3","2","3","3","5","2","5","3","4","770196006494277634","刘","49","Male","[""好我"",""坏我"",""坏他"",""好他""]","[""强我"",""弱我"",""弱他"",""强他""]","","","","","","","","4","","","","","","","","","SRET","SRET_math_calculate","","key","4","16.647712230215873","683","380","","","","","13-9= ?","4","1","","","","","","",""
"2078","","7","psychophysics","121","362450","0.0-7.0-5.0-0.18","6","7","6","6","6","4","4","4","4","5","4","0","0","1","1","1","1","1","1","4","5","5","4","4","4","5","4","4","4","7","6","4","6","7","7","6","3","4","6","5","6","6","6","6","6","5","6","6","5","4","6","6","3","5","6","3","6","6","3","6","2","3","3","4","3","5","5","5","3","3","2","3","3","5","2","5","3","4","770196006494277634","刘","49","Male","[""好我"",""坏我"",""坏他"",""好他""]","[""强我"",""弱我"",""弱他"",""强他""]","","","","","","","","7","","","","","","","","","SRET","SRET_math_calculate","","key","7","16.64802419354824","683","380","","","","","4+3= ?","7","1","","","","","","",""
"2112","","5","psychophysics","122","364565","0.0-7.0-5.0-0.19","6","7","6","6","6","4","4","4","4","5","4","0","0","1","1","1","1","1","1","4","5","5","4","4","4","5","4","4","4","7","6","4","6","7","7","6","3","4","6","5","6","6","6","6","6","5","6","6","5","4","6","6","3","5","6","3","6","6","3","6","2","3","3","4","3","5","5","5","3","3","2","3","3","5","2","5","3","4","770196006494277634","刘","49","Male","[""好我"",""坏我"",""坏他"",""好他""]","[""强我"",""弱我"",""弱他"",""强他""]","","","","","","","","5","","","","","","","","","SRET","SRET_math_calculate","","key","5","16.647873015873344","683","380","","","","","4+1= ?","5","1","","","","","","",""
"2696","","8","psychophysics","123","367264","0.0-7.0-5.0-0.20","6","7","6","6","6","4","4","4","4","5","4","0","0","1","1","1","1","1","1","4","5","5","4","4","4","5","4","4","4","7","6","4","6","7","7","6","3","4","6","5","6","6","6","6","6","5","6","6","5","4","6","6","3","5","6","3","6","6","3","6","2","3","3","4","3","5","5","5","3","3","2","3","3","5","2","5","3","4","770196006494277634","刘","49","Male","[""好我"",""坏我"",""坏他"",""好他""]","[""强我"",""弱我"",""弱他"",""强他""]","","","","","","","","8","","","","","","","","","SRET","SRET_math_calculate","","key","8","16.647819875776392","683","380","","","","","72/9= ?","8","1","","","","","","",""
"2035","","3","psychophysics","124","369302","0.0-7.0-5.0-0.21","6","7","6","6","6","4","4","4","4","5","4","0","0","1","1","1","1","1","1","4","5","5","4","4","4","5","4","4","4","7","6","4","6","7","7","6","3","4","6","5","6","6","6","6","6","5","6","6","5","4","6","6","3","5","6","3","6","6","3","6","2","3","3","4","3","5","5","5","3","3","2","3","3","5","2","5","3","4","770196006494277634","刘","49","Male","[""好我"",""坏我"",""坏他"",""好他""]","[""强我"",""弱我"",""弱他"",""强他""]","","","","","","","","3","","","","","","","","","SRET","SRET_math_calculate","","key","3","16.647719008264552","683","380","","","","","12/4= ?","3","1","","","","","","",""
"2081","","2","psychophysics","125","371385","0.0-7.0-5.0-0.22","6","7","6","6","6","4","4","4","4","5","4","0","0","1","1","1","1","1","1","4","5","5","4","4","4","5","4","4","4","7","6","4","6","7","7","6","3","4","6","5","6","6","6","6","6","5","6","6","5","4","6","6","3","5","6","3","6","6","3","6","2","3","3","4","3","5","5","5","3","3","2","3","3","5","2","5","3","4","770196006494277634","刘","49","Male","[""好我"",""坏我"",""坏他"",""好他""]","[""强我"",""弱我"",""弱他"",""强他""]","","","","","","","","2","","","","","","","","","SRET","SRET_math_calculate","","key","2","16.783203252032777","683","380","","","","","5-3= ?","2","1","","","","","","",""
"2339","","7","psychophysics","126","373730","0.0-7.0-5.0-0.23","6","7","6","6","6","4","4","4","4","5","4","0","0","1","1","1","1","1","1","4","5","5","4","4","4","5","4","4","4","7","6","4","6","7","7","6","3","4","6","5","6","6","6","6","6","5","6","6","5","4","6","6","3","5","6","3","6","6","3","6","2","3","3","4","3","5","5","5","3","3","2","3","3","5","2","5","3","4","770196006494277634","刘","49","Male","[""好我"",""坏我"",""坏他"",""好他""]","[""强我"",""弱我"",""弱他"",""强他""]","","","","","","","","7","","","","","","","","","SRET","SRET_math_calculate","","key","7","16.64762142857154","683","380","","","","","49/7 = ?","7","1","","","","","","",""
"5724","","8","psychophysics","127","379456","0.0-7.0-5.0-0.24","6","7","6","6","6","4","4","4","4","5","4","0","0","1","1","1","1","1","1","4","5","5","4","4","4","5","4","4","4","7","6","4","6","7","7","6","3","4","6","5","6","6","6","6","6","5","6","6","5","4","6","6","3","5","6","3","6","6","3","6","2","3","3","4","3","5","5","5","3","3","2","3","3","5","2","5","3","4","770196006494277634","刘","49","Male","[""好我"",""坏我"",""坏他"",""好他""]","[""强我"",""弱我"",""弱他"",""强他""]","","","","","","","","8","","","","","","","","","SRET","SRET_math_calculate","","key","8","16.647807580174852","683","380","","","","","4*2= ?","8","1","","","","","","",""
"2124","","6","psychophysics","128","381583","0.0-7.0-5.0-0.25","6","7","6","6","6","4","4","4","4","5","4","0","0","1","1","1","1","1","1","4","5","5","4","4","4","5","4","4","4","7","6","4","6","7","7","6","3","4","6","5","6","6","6","6","6","5","6","6","5","4","6","6","3","5","6","3","6","6","3","6","2","3","3","4","3","5","5","5","3","3","2","3","3","5","2","5","3","4","770196006494277634","刘","49","Male","[""好我"",""坏我"",""坏他"",""好他""]","[""强我"",""弱我"",""弱他"",""强他""]","","","","","","","","6","","","","","","","","","SRET","SRET_math_calculate","","key","6","16.647716535433144","683","380","","","","","5+1= ?","6","1","","","","","","",""
"2040","","4","psychophysics","129","383625","0.0-7.0-5.0-0.26","6","7","6","6","6","4","4","4","4","5","4","0","0","1","1","1","1","1","1","4","5","5","4","4","4","5","4","4","4","7","6","4","6","7","7","6","3","4","6","5","6","6","6","6","6","5","6","6","5","4","6","6","3","5","6","3","6","6","3","6","2","3","3","4","3","5","5","5","3","3","2","3","3","5","2","5","3","4","770196006494277634","刘","49","Male","[""好我"",""坏我"",""坏他"",""好他""]","[""强我"",""弱我"",""弱他"",""强他""]","","","","","","","","4","","","","","","","","","SRET","SRET_math_calculate","","key","4","16.647688524590016","683","380","","","","","3+1= ?","4","1","","","","","","",""
"1989","","2","psychophysics","130","385619","0.0-7.0-5.0-0.27","6","7","6","6","6","4","4","4","4","5","4","0","0","1","1","1","1","1","1","4","5","5","4","4","4","5","4","4","4","7","6","4","6","7","7","6","3","4","6","5","6","6","6","6","6","5","6","6","5","4","6","6","3","5","6","3","6","6","3","6","2","3","3","4","3","5","5","5","3","3","2","3","3","5","2","5","3","4","770196006494277634","刘","49","Male","[""好我"",""坏我"",""坏他"",""好他""]","[""强我"",""弱我"",""弱他"",""强他""]","","","","","","","","2","","","","","","","","","SRET","SRET_math_calculate","","key","2","16.64777966101715","683","380","","","","","8-6= ?","2","1","","","","","","",""
"2747","","9","psychophysics","131","388372","0.0-7.0-5.0-0.28","6","7","6","6","6","4","4","4","4","5","4","0","0","1","1","1","1","1","1","4","5","5","4","4","4","5","4","4","4","7","6","4","6","7","7","6","3","4","6","5","6","6","6","6","6","5","6","6","5","4","6","6","3","5","6","3","6","6","3","6","2","3","3","4","3","5","5","5","3","3","2","3","3","5","2","5","3","4","770196006494277634","刘","49","Male","[""好我"",""坏我"",""坏他"",""好他""]","[""强我"",""弱我"",""弱他"",""强他""]","","","","","","","","9","","","","","","","","","SRET","SRET_math_calculate","","key","9","16.64755757575763","683","380","","","","","2+7= ?","9","1","","","","","","",""
"2206","","1","psychophysics","132","390581","0.0-7.0-5.0-0.29","6","7","6","6","6","4","4","4","4","5","4","0","0","1","1","1","1","1","1","4","5","5","4","4","4","5","4","4","4","7","6","4","6","7","7","6","3","4","6","5","6","6","6","6","6","5","6","6","5","4","6","6","3","5","6","3","6","6","3","6","2","3","3","4","3","5","5","5","3","3","2","3","3","5","2","5","3","4","770196006494277634","刘","49","Male","[""好我"",""坏我"",""坏他"",""好他""]","[""强我"",""弱我"",""弱他"",""强他""]","","","","","","","","1","","","","","","","","","SRET","SRET_math_calculate","","key","1","16.64722137404597","683","380","","","","","30-29= ?","1","1","","","","","","",""
"2083","","2","psychophysics","133","392671","0.0-7.0-5.0-0.30","6","7","6","6","6","4","4","4","4","5","4","0","0","1","1","1","1","1","1","4","5","5","4","4","4","5","4","4","4","7","6","4","6","7","7","6","3","4","6","5","6","6","6","6","6","5","6","6","5","4","6","6","3","5","6","3","6","6","3","6","2","3","3","4","3","5","5","5","3","3","2","3","3","5","2","5","3","4","770196006494277634","刘","49","Male","[""好我"",""坏我"",""坏他"",""好他""]","[""强我"",""弱我"",""弱他"",""强他""]","","","","","","","","2","","","","","","","","","SRET","SRET_math_calculate","","key","2","16.647744000000415","683","380","","","","","1+1= ?","2","1","","","","","","",""
"1907","","3","psychophysics","134","394581","0.0-7.0-5.0-0.31","6","7","6","6","6","4","4","4","4","5","4","0","0","1","1","1","1","1","1","4","5","5","4","4","4","5","4","4","4","7","6","4","6","7","7","6","3","4","6","5","6","6","6","6","6","5","6","6","5","4","6","6","3","5","6","3","6","6","3","6","2","3","3","4","3","5","5","5","3","3","2","3","3","5","2","5","3","4","770196006494277634","刘","49","Male","[""好我"",""坏我"",""坏他"",""好他""]","[""强我"",""弱我"",""弱他"",""强他""]","","","","","","","","3","","","","","","","","","SRET","SRET_math_calculate","","key","3","16.648157894736453","683","380","","","","","2+1= ?","3","1","","","","","","",""
"2708","","8","psychophysics","135","397292","0.0-7.0-5.0-0.32","6","7","6","6","6","4","4","4","4","5","4","0","0","1","1","1","1","1","1","4","5","5","4","4","4","5","4","4","4","7","6","4","6","7","7","6","3","4","6","5","6","6","6","6","6","5","6","6","5","4","6","6","3","5","6","3","6","6","3","6","2","3","3","4","3","5","5","5","3","3","2","3","3","5","2","5","3","4","770196006494277634","刘","49","Male","[""好我"",""坏我"",""坏他"",""好他""]","[""强我"",""弱我"",""弱他"",""强他""]","","","","","","","","8","","","","","","","","","SRET","SRET_math_calculate","","key","8","16.64757763975161","683","380","","","","","4+4= ?","8","1","","","","","","",""
"2541","","6","psychophysics","136","399837","0.0-7.0-5.0-0.33","6","7","6","6","6","4","4","4","4","5","4","0","0","1","1","1","1","1","1","4","5","5","4","4","4","5","4","4","4","7","6","4","6","7","7","6","3","4","6","5","6","6","6","6","6","5","6","6","5","4","6","6","3","5","6","3","6","6","3","6","2","3","3","4","3","5","5","5","3","3","2","3","3","5","2","5","3","4","770196006494277634","刘","49","Male","[""好我"",""坏我"",""坏他"",""好他""]","[""强我"",""弱我"",""弱他"",""强他""]","","","","","","","","6","","","","","","","","","SRET","SRET_math_calculate","","key","6","16.647888157894684","683","380","","","","","3*2= ?","6","1","","","","","","",""
"2037","","7","psychophysics","137","401880","0.0-7.0-5.0-0.34","6","7","6","6","6","4","4","4","4","5","4","0","0","1","1","1","1","1","1","4","5","5","4","4","4","5","4","4","4","7","6","4","6","7","7","6","3","4","6","5","6","6","6","6","6","5","6","6","5","4","6","6","3","5","6","3","6","6","3","6","2","3","3","4","3","5","5","5","3","3","2","3","3","5","2","5","3","4","770196006494277634","刘","49","Male","[""好我"",""坏我"",""坏他"",""好他""]","[""强我"",""弱我"",""弱他"",""强他""]","","","","","","","","7","","","","","","","","","SRET","SRET_math_calculate","","key","7","16.64745081967214","683","380","","","","","5+2= ?","7","1","","","","","","",""
"2929","","8","psychophysics","138","404811","0.0-7.0-5.0-0.35","6","7","6","6","6","4","4","4","4","5","4","0","0","1","1","1","1","1","1","4","5","5","4","4","4","5","4","4","4","7","6","4","6","7","7","6","3","4","6","5","6","6","6","6","6","5","6","6","5","4","6","6","3","5","6","3","6","6","3","6","2","3","3","4","3","5","5","5","3","3","2","3","3","5","2","5","3","4","770196006494277634","刘","49","Male","[""好我"",""坏我"",""坏他"",""好他""]","[""强我"",""弱我"",""弱他"",""强他""]","","","","","","","","8","","","","","","","","","SRET","SRET_math_calculate","","key","8","16.647720000000138","683","380","","","","","1*8= ?","8","1","","","","","","",""
"5073","","7","psychophysics","139","409887","0.0-7.0-5.0-0.36","6","7","6","6","6","4","4","4","4","5","4","0","0","1","1","1","1","1","1","4","5","5","4","4","4","5","4","4","4","7","6","4","6","7","7","6","3","4","6","5","6","6","6","6","6","5","6","6","5","4","6","6","3","5","6","3","6","6","3","6","2","3","3","4","3","5","5","5","3","3","2","3","3","5","2","5","3","4","770196006494277634","刘","49","Male","[""好我"",""坏我"",""坏他"",""好他""]","[""强我"",""弱我"",""弱他"",""强他""]","","","","","","","","7","","","","","","","","","SRET","SRET_math_calculate","","key","7","16.647782894736768","683","380","","","","","13-6= ?","7","1","","","","","","",""
"2134","","5","psychophysics","140","412023","0.0-7.0-5.0-0.37","6","7","6","6","6","4","4","4","4","5","4","0","0","1","1","1","1","1","1","4","5","5","4","4","4","5","4","4","4","7","6","4","6","7","7","6","3","4","6","5","6","6","6","6","6","5","6","6","5","4","6","6","3","5","6","3","6","6","3","6","2","3","3","4","3","5","5","5","3","3","2","3","3","5","2","5","3","4","770196006494277634","刘","49","Male","[""好我"",""坏我"",""坏他"",""好他""]","[""强我"",""弱我"",""弱他"",""强他""]","","","","","","","","5","","","","","","","","","SRET","SRET_math_calculate","","key","5","16.648267716535102","683","380","","","","","3+2= ?","5","1","","","","","","",""
"2796","","8","psychophysics","141","414825","0.0-7.0-5.0-0.38","6","7","6","6","6","4","4","4","4","5","4","0","0","1","1","1","1","1","1","4","5","5","4","4","4","5","4","4","4","7","6","4","6","7","7","6","3","4","6","5","6","6","6","6","6","5","6","6","5","4","6","6","3","5","6","3","6","6","3","6","2","3","3","4","3","5","5","5","3","3","2","3","3","5","2","5","3","4","770196006494277634","刘","49","Male","[""好我"",""坏我"",""坏他"",""好他""]","[""强我"",""弱我"",""弱他"",""强他""]","","","","","","","","8","","","","","","","","","SRET","SRET_math_calculate","","key","8","16.647833333333395","683","380","","","","","2*4= ?","8","1","","","","","","",""
"2156","","3","psychophysics","142","416984","0.0-7.0-5.0-0.39","6","7","6","6","6","4","4","4","4","5","4","0","0","1","1","1","1","1","1","4","5","5","4","4","4","5","4","4","4","7","6","4","6","7","7","6","3","4","6","5","6","6","6","6","6","5","6","6","5","4","6","6","3","5","6","3","6","6","3","6","2","3","3","4","3","5","5","5","3","3","2","3","3","5","2","5","3","4","770196006494277634","刘","49","Male","[""好我"",""坏我"",""坏他"",""好他""]","[""强我"",""弱我"",""弱他"",""强他""]","","","","","","","","3","","","","","","","","","SRET","SRET_math_calculate","","key","3","16.647968750000018","683","380","","","","","8-5= ?","3","1","","","","","","",""
"2129","","6","psychophysics","143","419122","0.0-7.0-5.0-0.40","6","7","6","6","6","4","4","4","4","5","4","0","0","1","1","1","1","1","1","4","5","5","4","4","4","5","4","4","4","7","6","4","6","7","7","6","3","4","6","5","6","6","6","6","6","5","6","6","5","4","6","6","3","5","6","3","6","6","3","6","2","3","3","4","3","5","5","5","3","3","2","3","3","5","2","5","3","4","770196006494277634","刘","49","Male","[""好我"",""坏我"",""坏他"",""好他""]","[""强我"",""弱我"",""弱他"",""强他""]","","","","","","","","6","","","","","","","","","SRET","SRET_math_calculate","","key","6","16.6482343749999","683","380","","","","","3+3= ?","6","1","","","","","","",""
"2113","","5","psychophysics","144","421237","0.0-7.0-5.0-0.41","6","7","6","6","6","4","4","4","4","5","4","0","0","1","1","1","1","1","1","4","5","5","4","4","4","5","4","4","4","7","6","4","6","7","7","6","3","4","6","5","6","6","6","6","6","5","6","6","5","4","6","6","3","5","6","3","6","6","3","6","2","3","3","4","3","5","5","5","3","3","2","3","3","5","2","5","3","4","770196006494277634","刘","49","Male","[""好我"",""坏我"",""坏他"",""好他""]","[""强我"",""弱我"",""弱他"",""强他""]","","","","","","","","5","","","","","","","","","SRET","SRET_math_calculate","","key","5","16.647626984127175","683","380","","","","","12-7= ?","5","1","","","","","","",""
"2414","","9","psychophysics","145","423653","0.0-7.0-5.0-0.42","6","7","6","6","6","4","4","4","4","5","4","0","0","1","1","1","1","1","1","4","5","5","4","4","4","5","4","4","4","7","6","4","6","7","7","6","3","4","6","5","6","6","6","6","6","5","6","6","5","4","6","6","3","5","6","3","6","6","3","6","2","3","3","4","3","5","5","5","3","3","2","3","3","5","2","5","3","4","770196006494277634","刘","49","Male","[""好我"",""坏我"",""坏他"",""好他""]","[""强我"",""弱我"",""弱他"",""强他""]","","","","","","","","9","","","","","","","","","SRET","SRET_math_calculate","","key","9","16.648131944444483","683","380","","","","","3+6= ?","9","1","","","","","","",""
