"rt","stimulus","response","trial_type","trial_index","time_elapsed","internal_node_id","swb_1","swb_2","swb_3","swb_4","swb_5","LOT_1","LOT_2","LOT_3","LOT_4","LOT_5","LOT_6","IPC_1","IPC_2","IPC_3","IPC_4","IPC_5","IPC_6","IPC_7","IPC_8","MorIden_1","MorIden_2","MorIden_3","MorIden_4","MorIden_5","MorIden_6","MorIden_7","MorIden_8","MorIden_9","MorIden_10","moralSeImag_1","moralSeImag_2","moralSeImag_3","moralSeImag_4","moralSeImag_5","moralSeImag_6","moralSeImag_7","moralSeImag_8","moralSeImag_9","sde_1","sde_2","sde_3","sde_4","sde_5","sde_6","sde_7","sde_8","sde_9","sde_10","sde_11","sde_12","sde_13","sde_14","sde_15","sde_16","sde_17","sde_18","sde_19","sde_20","IM_1","IM_2","IM_3","IM_4","IM_5","IM_6","IM_7","IM_8","IM_9","IM_10","IM_11","IM_12","IM_13","IM_14","IM_15","IM_16","IM_17","IM_18","IM_19","IM_20","subj_idx","friend_name","ParticipantID","Sex","Word","Word2","value","success","timeout","failed_images","failed_audio","failed_video","user_agent","responses","item_order","radio_event_ids","radio_event_times","key_event_times","mouse_event_times","straightlining","zigzagging","honeypot","view_history","response_type","key_press","avg_frame_time","center_x","center_y","correct_response","correct","identity","Image","word","condition","task_id","screen_id","time_stamp","person","valence","domain","math","status","duration","question_order"
"13491","
   <p><div style='color:white; font-size: 25px'>您好，欢迎参加本次实验。</div></p>
   <p><div style='color:white; font-size: 25px'>为充分保障您的权利，请确保您已经知晓并同意《参与实验同意书》以及《数据公开知情同意书》。</div></p>
   <p><div style='color:white; font-size: 25px'>如果您未见过上述内容，请咨询实验员。</div></p>
   <p style='color:white; font-size: 25px'>如果您选择继续实验，则表示您已经清楚两份知情同意书的内容并同意。</p>
   <p><div style = ""color: red;font-size:30px;"">请确保您记得day0的实验编号，您将在本次实验输入该编号，若您忘记，请咨询实验员后作答。</div></p>
   <p> <div style = ""color: green""><按空格键至下页></div> </p>
   "," ","html-keyboard-response","0","13500","0.0-0.0","6","5","5","5","4","4","4","4","4","4","4","1","-2","0","1","0","1","1","1","4","4","5","5","4","3","4","3","3","4","5","5","5","5","3","4","5","5","5","5","5","5","6","4","4","4","5","6","5","4","3","4","3","6","4","5","6","6","5","3","5","4","3","5","5","4","6","5","5","7","6","4","3","3","6","4","5","3","5","680051628862078976","庞","460","Female","[""好我"",""坏她"",""坏我"",""好她""]","[""强我"",""弱她"",""弱我"",""强她""]","","","","","","","","","","","","","","","","","","","","","","","","","","","","","","","","","","","","","",""
"","","","call-function","1","13504","0.0-1.0-0.0","6","5","5","5","4","4","4","4","4","4","4","1","-2","0","1","0","1","1","1","4","4","5","5","4","3","4","3","3","4","5","5","5","5","3","4","5","5","5","5","5","5","6","4","4","4","5","6","5","4","3","4","3","6","4","5","6","6","5","3","5","4","3","5","5","4","6","5","5","7","6","4","3","3","6","4","5","3","5","680051628862078976","庞","460","Female","[""好我"",""坏她"",""坏我"",""好她""]","[""强我"",""弱她"",""弱我"",""强她""]","","","","","","","","","","","","","","","","","","","","","","","","","","","","","","","","","","","","","",""
"23828","","[{""name"":""Sex"",""value"":""1""},{""name"":""friend_name"",""value"":""庞""},{""name"":""ParticipantID"",""value"":""460""}]","survey-html-form","2","37334","0.0-1.0-1.0","6","5","5","5","4","4","4","4","4","4","4","1","-2","0","1","0","1","1","1","4","4","5","5","4","3","4","3","3","4","5","5","5","5","3","4","5","5","5","5","5","5","6","4","4","4","5","6","5","4","3","4","3","6","4","5","6","6","5","3","5","4","3","5","5","4","6","5","5","7","6","4","3","3","6","4","5","3","5","680051628862078976","庞","460","Female","[""好我"",""坏她"",""坏我"",""好她""]","[""强我"",""弱她"",""弱我"",""强她""]","","","","","","","","","","","","","","","","","","","","","","","","","","","","","","","","","","","","","",""
"","","","preload","3","37913","0.0-2.0","6","5","5","5","4","4","4","4","4","4","4","1","-2","0","1","0","1","1","1","4","4","5","5","4","3","4","3","3","4","5","5","5","5","3","4","5","5","5","5","5","5","6","4","4","4","5","6","5","4","3","4","3","6","4","5","6","6","5","3","5","4","3","5","5","4","6","5","5","7","6","4","3","3","6","4","5","3","5","680051628862078976","庞","460","Female","[""好我"",""坏她"",""坏我"",""好她""]","[""强我"",""弱她"",""弱我"",""强她""]","","true","false","[]","[]","[]","","","","","","","","","","","","","","","","","","","","","","","","","","","","","","","",""
"","","","fullscreen","4","78128","0.0-3.0","6","5","5","5","4","4","4","4","4","4","4","1","-2","0","1","0","1","1","1","4","4","5","5","4","3","4","3","3","4","5","5","5","5","3","4","5","5","5","5","5","5","6","4","4","4","5","6","5","4","3","4","3","6","4","5","6","6","5","3","5","4","3","5","5","4","6","5","5","7","6","4","3","3","6","4","5","3","5","680051628862078976","庞","460","Female","[""好我"",""坏她"",""坏我"",""好她""]","[""强我"",""弱她"",""弱我"",""强她""]","","true","","","","","{}","","","","","","","","","","","","","","","","","","","","","","","","","","","","","","",""
"24427.199999999255","","{""Q01"":""6"",""Q02"":""5"",""Q03"":""5"",""Q04"":""5"",""Q05"":""4""}","survey-template","5","102564","0.0-4.0","6","5","5","5","4","4","4","4","4","4","4","1","-2","0","1","0","1","1","1","4","4","5","5","4","3","4","3","3","4","5","5","5","5","3","4","5","5","5","5","5","5","6","4","4","4","5","6","5","4","3","4","3","6","4","5","6","6","5","3","5","4","3","5","5","4","6","5","5","7","6","4","3","3","6","4","5","3","5","680051628862078976","庞","460","Female","[""好我"",""坏她"",""坏我"",""好她""]","[""强我"",""弱她"",""弱我"",""强她""]","","","","","","","","{""Q01"":""6"",""Q02"":""5"",""Q03"":""5"",""Q04"":""5"",""Q05"":""4""}","[0,1,2,3,4]","[""Q01"",""Q02"",""Q03"",""Q04"",""Q05""]","[5761.300000000745,10853.60000000149,12857.39999999851,16698.699999999255,21126.5]","[]","[5761.300000000745,10853.60000000149,12857.39999999851,16698.699999999255,21126.5,24425.199999999255]","0.6","0.5","0","","","","","","","","","","","","","","","","","","","","","",""
"49953.89999999851","","{""Q01"":""4"",""Q02"":""4"",""Q03"":""4"",""Q04"":""4"",""Q05"":""4"",""Q06"":""4""}","survey-template","6","152526","0.0-5.0","6","5","5","5","4","4","4","4","4","4","4","1","-2","0","1","0","1","1","1","4","4","5","5","4","3","4","3","3","4","5","5","5","5","3","4","5","5","5","5","5","5","6","4","4","4","5","6","5","4","3","4","3","6","4","5","6","6","5","3","5","4","3","5","5","4","6","5","5","7","6","4","3","3","6","4","5","3","5","680051628862078976","庞","460","Female","[""好我"",""坏她"",""坏我"",""好她""]","[""强我"",""弱她"",""弱我"",""强她""]","","","","","","","","{""Q01"":""4"",""Q02"":""4"",""Q03"":""4"",""Q04"":""4"",""Q05"":""4"",""Q06"":""4""}","[0,1,2,3,4,5]","[""Q02"",""Q03"",""Q04"",""Q06"",""Q01"",""Q05""]","[13506.699999999255,16552,21313.10000000149,28636.60000000149,35418.89999999851,44395.60000000149]","[]","[7022.699999999255,13506.699999999255,16552,21313.10000000149,23702.60000000149,27796.5,28636.60000000149,30133.199999999255,35418.89999999851,44395.60000000149,49952.300000000745]","0.5","0","0","","","","","","","","","","","","","","","","","","","","","",""
"43797.10000000149","","{""Q01"":""1"",""Q02"":""-2"",""Q03"":""0"",""Q04"":""1"",""Q05"":""0"",""Q06"":""1"",""Q07"":""1"",""Q08"":""1""}","survey-template","7","196330","0.0-6.0","6","5","5","5","4","4","4","4","4","4","4","1","-2","0","1","0","1","1","1","4","4","5","5","4","3","4","3","3","4","5","5","5","5","3","4","5","5","5","5","5","5","6","4","4","4","5","6","5","4","3","4","3","6","4","5","6","6","5","3","5","4","3","5","5","4","6","5","5","7","6","4","3","3","6","4","5","3","5","680051628862078976","庞","460","Female","[""好我"",""坏她"",""坏我"",""好她""]","[""强我"",""弱她"",""弱我"",""强她""]","","","","","","","","{""Q01"":""1"",""Q02"":""-2"",""Q03"":""0"",""Q04"":""1"",""Q05"":""0"",""Q06"":""1"",""Q07"":""1"",""Q08"":""1""}","[0,1,2,3,4,5,6,7]","[""Q01"",""Q02"",""Q03"",""Q04"",""Q05"",""Q06"",""Q07"",""Q08""]","[8347.89999999851,12486.699999999255,20755.39999999851,25227,27957.199999999255,31308.800000000745,37031.10000000149,42105.89999999851]","[]","[8347.89999999851,12486.699999999255,20755.39999999851,25227,27957.199999999255,31308.800000000745,37031.10000000149,41362.39999999851,42105.89999999851,43794.800000000745]","0.625","0.42857142857142855","0","","","","","","","","","","","","","","","","","","","","","",""
"22681","","","instructions","8","219017","0.0-7.0","6","5","5","5","4","4","4","4","4","4","4","1","-2","0","1","0","1","1","1","4","4","5","5","4","3","4","3","3","4","5","5","5","5","3","4","5","5","5","5","5","5","6","4","4","4","5","6","5","4","3","4","3","6","4","5","6","6","5","3","5","4","3","5","5","4","6","5","5","7","6","4","3","3","6","4","5","3","5","680051628862078976","庞","460","Female","[""好我"",""坏她"",""坏我"",""好她""]","[""强我"",""弱她"",""弱我"",""强她""]","","","","","","","","","","","","","","","","","[{""page_index"":0,""viewing_time"":22681}]","","","","","","","","","","","","","","","","","","","","",""
"72606","","","instructions","9","291626","0.0-8.0-1.0-0.0","6","5","5","5","4","4","4","4","4","4","4","1","-2","0","1","0","1","1","1","4","4","5","5","4","3","4","3","3","4","5","5","5","5","3","4","5","5","5","5","5","5","6","4","4","4","5","6","5","4","3","4","3","6","4","5","6","6","5","3","5","4","3","5","5","4","6","5","5","7","6","4","3","3","6","4","5","3","5","680051628862078976","庞","460","Female","[""好我"",""坏她"",""坏我"",""好她""]","[""强我"",""弱她"",""弱我"",""强她""]","","","","","","","","","","","","","","","","","[{""page_index"":0,""viewing_time"":14189},{""page_index"":1,""viewing_time"":46403},{""page_index"":2,""viewing_time"":8050},{""page_index"":3,""viewing_time"":3964}]","","","","","","","","","","","","","","","","","","","","",""
"1102","","f","psychophysics","10","293737","0.0-8.0-1.0-1.0-0.0-0.0","6","5","5","5","4","4","4","4","4","4","4","1","-2","0","1","0","1","1","1","4","4","5","5","4","3","4","3","3","4","5","5","5","5","3","4","5","5","5","5","5","5","6","4","4","4","5","6","5","4","3","4","3","6","4","5","6","6","5","3","5","4","3","5","5","4","6","5","5","7","6","4","3","3","6","4","5","3","5","680051628862078976","庞","460","Female","[""好我"",""坏她"",""坏我"",""好她""]","[""强我"",""弱她"",""弱我"",""强她""]","","","","","","","","match","","","","","","","","","","key","f","16.63688095238121","683","380","f","true","match","img/circle.png","强我","强我","prac_ALT2_ability","practice_ability","","","","","","","",""
"null","<span style='color:GreenYellow; font-size: 70px;'>正确! </span>","null","html-keyboard-response","11","294251","0.0-8.0-1.0-1.0-0.0-1.0","6","5","5","5","4","4","4","4","4","4","4","1","-2","0","1","0","1","1","1","4","4","5","5","4","3","4","3","3","4","5","5","5","5","3","4","5","5","5","5","5","5","6","4","4","4","5","6","5","4","3","4","3","6","4","5","6","6","5","3","5","4","3","5","5","4","6","5","5","7","6","4","3","3","6","4","5","3","5","680051628862078976","庞","460","Female","[""好我"",""坏她"",""坏我"",""好她""]","[""强我"",""弱她"",""弱我"",""强她""]","","","","","","","","","","","","","","","","","","","","","","","","","","","","","","feedback_test","","","","","","","",""
"1165","","f","psychophysics","12","296427","0.0-8.0-1.0-1.0-0.0-0.1","6","5","5","5","4","4","4","4","4","4","4","1","-2","0","1","0","1","1","1","4","4","5","5","4","3","4","3","3","4","5","5","5","5","3","4","5","5","5","5","5","5","6","4","4","4","5","6","5","4","3","4","3","6","4","5","6","6","5","3","5","4","3","5","5","4","6","5","5","7","6","4","3","3","6","4","5","3","5","680051628862078976","庞","460","Female","[""好我"",""坏她"",""坏我"",""好她""]","[""强我"",""弱她"",""弱我"",""强她""]","","","","","","","","match","","","","","","","","","","key","f","16.634054263565933","683","380","f","true","match","img/triangle.png","弱她","弱她","prac_ALT2_ability","practice_ability","","","","","","","",""
"null","<span style='color:GreenYellow; font-size: 70px;'>正确! </span>","null","html-keyboard-response","13","296931","0.0-8.0-1.0-1.0-0.0-1.1","6","5","5","5","4","4","4","4","4","4","4","1","-2","0","1","0","1","1","1","4","4","5","5","4","3","4","3","3","4","5","5","5","5","3","4","5","5","5","5","5","5","6","4","4","4","5","6","5","4","3","4","3","6","4","5","6","6","5","3","5","4","3","5","5","4","6","5","5","7","6","4","3","3","6","4","5","3","5","680051628862078976","庞","460","Female","[""好我"",""坏她"",""坏我"",""好她""]","[""强我"",""弱她"",""弱我"",""强她""]","","","","","","","","","","","","","","","","","","","","","","","","","","","","","","feedback_test","","","","","","","",""
"1125","","j","psychophysics","14","299059","0.0-8.0-1.0-1.0-0.0-0.2","6","5","5","5","4","4","4","4","4","4","4","1","-2","0","1","0","1","1","1","4","4","5","5","4","3","4","3","3","4","5","5","5","5","3","4","5","5","5","5","5","5","6","4","4","4","5","6","5","4","3","4","3","6","4","5","6","6","5","3","5","4","3","5","5","4","6","5","5","7","6","4","3","3","6","4","5","3","5","680051628862078976","庞","460","Female","[""好我"",""坏她"",""坏我"",""好她""]","[""强我"",""弱她"",""弱我"",""强她""]","","","","","","","","nonmatch","","","","","","","","","","key","j","16.634692913385596","683","380","j","true","nonmatch","img/circle.png","弱我","强我","prac_ALT2_ability","practice_ability","","","","","","","",""
"null","<span style='color:GreenYellow; font-size: 70px;'>正确! </span>","null","html-keyboard-response","15","299565","0.0-8.0-1.0-1.0-0.0-1.2","6","5","5","5","4","4","4","4","4","4","4","1","-2","0","1","0","1","1","1","4","4","5","5","4","3","4","3","3","4","5","5","5","5","3","4","5","5","5","5","5","5","6","4","4","4","5","6","5","4","3","4","3","6","4","5","6","6","5","3","5","4","3","5","5","4","6","5","5","7","6","4","3","3","6","4","5","3","5","680051628862078976","庞","460","Female","[""好我"",""坏她"",""坏我"",""好她""]","[""强我"",""弱她"",""弱我"",""强她""]","","","","","","","","","","","","","","","","","","","","","","","","","","","","","","feedback_test","","","","","","","",""
"1003","","f","psychophysics","16","301578","0.0-8.0-1.0-1.0-0.0-0.3","6","5","5","5","4","4","4","4","4","4","4","1","-2","0","1","0","1","1","1","4","4","5","5","4","3","4","3","3","4","5","5","5","5","3","4","5","5","5","5","5","5","6","4","4","4","5","6","5","4","3","4","3","6","4","5","6","6","5","3","5","4","3","5","5","4","6","5","5","7","6","4","3","3","6","4","5","3","5","680051628862078976","庞","460","Female","[""好我"",""坏她"",""坏我"",""好她""]","[""强我"",""弱她"",""弱我"",""强她""]","","","","","","","","match","","","","","","","","","","key","f","16.63613445378161","683","380","f","true","match","img/square.png","弱我","弱我","prac_ALT2_ability","practice_ability","","","","","","","",""
"null","<span style='color:GreenYellow; font-size: 70px;'>正确! </span>","null","html-keyboard-response","17","302088","0.0-8.0-1.0-1.0-0.0-1.3","6","5","5","5","4","4","4","4","4","4","4","1","-2","0","1","0","1","1","1","4","4","5","5","4","3","4","3","3","4","5","5","5","5","3","4","5","5","5","5","5","5","6","4","4","4","5","6","5","4","3","4","3","6","4","5","6","6","5","3","5","4","3","5","5","4","6","5","5","7","6","4","3","3","6","4","5","3","5","680051628862078976","庞","460","Female","[""好我"",""坏她"",""坏我"",""好她""]","[""强我"",""弱她"",""弱我"",""强她""]","","","","","","","","","","","","","","","","","","","","","","","","","","","","","","feedback_test","","","","","","","",""
"850","","j","psychophysics","18","303942","0.0-8.0-1.0-1.0-0.0-0.4","6","5","5","5","4","4","4","4","4","4","4","1","-2","0","1","0","1","1","1","4","4","5","5","4","3","4","3","3","4","5","5","5","5","3","4","5","5","5","5","5","5","6","4","4","4","5","6","5","4","3","4","3","6","4","5","6","6","5","3","5","4","3","5","5","4","6","5","5","7","6","4","3","3","6","4","5","3","5","680051628862078976","庞","460","Female","[""好我"",""坏她"",""坏我"",""好她""]","[""强我"",""弱她"",""弱我"",""强她""]","","","","","","","","nonmatch","","","","","","","","","","key","j","16.787275229358016","683","380","j","true","nonmatch","img/triangle.png","强她","弱她","prac_ALT2_ability","practice_ability","","","","","","","",""
"null","<span style='color:GreenYellow; font-size: 70px;'>正确! </span>","null","html-keyboard-response","19","304452","0.0-8.0-1.0-1.0-0.0-1.4","6","5","5","5","4","4","4","4","4","4","4","1","-2","0","1","0","1","1","1","4","4","5","5","4","3","4","3","3","4","5","5","5","5","3","4","5","5","5","5","5","5","6","4","4","4","5","6","5","4","3","4","3","6","4","5","6","6","5","3","5","4","3","5","5","4","6","5","5","7","6","4","3","3","6","4","5","3","5","680051628862078976","庞","460","Female","[""好我"",""坏她"",""坏我"",""好她""]","[""强我"",""弱她"",""弱我"",""强她""]","","","","","","","","","","","","","","","","","","","","","","","","","","","","","","feedback_test","","","","","","","",""
"884","","f","psychophysics","20","306346","0.0-8.0-1.0-1.0-0.0-0.5","6","5","5","5","4","4","4","4","4","4","4","1","-2","0","1","0","1","1","1","4","4","5","5","4","3","4","3","3","4","5","5","5","5","3","4","5","5","5","5","5","5","6","4","4","4","5","6","5","4","3","4","3","6","4","5","6","6","5","3","5","4","3","5","5","4","6","5","5","7","6","4","3","3","6","4","5","3","5","680051628862078976","庞","460","Female","[""好我"",""坏她"",""坏我"",""好她""]","[""强我"",""弱她"",""弱我"",""强她""]","","","","","","","","match","","","","","","","","","","key","f","16.78575892857147","683","380","j","false","nonmatch","img/triangle.png","强我","弱她","prac_ALT2_ability","practice_ability","","","","","","","",""
"null","<span style='color:red; font-size: 70px;'>错误! </span>","null","html-keyboard-response","21","306857","0.0-8.0-1.0-1.0-0.0-1.5","6","5","5","5","4","4","4","4","4","4","4","1","-2","0","1","0","1","1","1","4","4","5","5","4","3","4","3","3","4","5","5","5","5","3","4","5","5","5","5","5","5","6","4","4","4","5","6","5","4","3","4","3","6","4","5","6","6","5","3","5","4","3","5","5","4","6","5","5","7","6","4","3","3","6","4","5","3","5","680051628862078976","庞","460","Female","[""好我"",""坏她"",""坏我"",""好她""]","[""强我"",""弱她"",""弱我"",""强她""]","","","","","","","","","","","","","","","","","","","","","","","","","","","","","","feedback_test","","","","","","","",""
"944","","j","psychophysics","22","308822","0.0-8.0-1.0-1.0-0.0-0.6","6","5","5","5","4","4","4","4","4","4","4","1","-2","0","1","0","1","1","1","4","4","5","5","4","3","4","3","3","4","5","5","5","5","3","4","5","5","5","5","5","5","6","4","4","4","5","6","5","4","3","4","3","6","4","5","6","6","5","3","5","4","3","5","5","4","6","5","5","7","6","4","3","3","6","4","5","3","5","680051628862078976","庞","460","Female","[""好我"",""坏她"",""坏我"",""好她""]","[""强我"",""弱她"",""弱我"",""强她""]","","","","","","","","nonmatch","","","","","","","","","","key","j","16.638460869565304","683","380","j","true","nonmatch","img/square.png","强她","弱我","prac_ALT2_ability","practice_ability","","","","","","","",""
"null","<span style='color:GreenYellow; font-size: 70px;'>正确! </span>","null","html-keyboard-response","23","309332","0.0-8.0-1.0-1.0-0.0-1.6","6","5","5","5","4","4","4","4","4","4","4","1","-2","0","1","0","1","1","1","4","4","5","5","4","3","4","3","3","4","5","5","5","5","3","4","5","5","5","5","5","5","6","4","4","4","5","6","5","4","3","4","3","6","4","5","6","6","5","3","5","4","3","5","5","4","6","5","5","7","6","4","3","3","6","4","5","3","5","680051628862078976","庞","460","Female","[""好我"",""坏她"",""坏我"",""好她""]","[""强我"",""弱她"",""弱我"",""强她""]","","","","","","","","","","","","","","","","","","","","","","","","","","","","","","feedback_test","","","","","","","",""
"790","","j","psychophysics","24","311139","0.0-8.0-1.0-1.0-0.0-0.7","6","5","5","5","4","4","4","4","4","4","4","1","-2","0","1","0","1","1","1","4","4","5","5","4","3","4","3","3","4","5","5","5","5","3","4","5","5","5","5","5","5","6","4","4","4","5","6","5","4","3","4","3","6","4","5","6","6","5","3","5","4","3","5","5","4","6","5","5","7","6","4","3","3","6","4","5","3","5","680051628862078976","庞","460","Female","[""好我"",""坏她"",""坏我"",""好她""]","[""强我"",""弱她"",""弱我"",""强她""]","","","","","","","","nonmatch","","","","","","","","","","key","j","16.634499999999843","683","380","j","true","nonmatch","img/circle.png","弱她","强我","prac_ALT2_ability","practice_ability","","","","","","","",""
"null","<span style='color:GreenYellow; font-size: 70px;'>正确! </span>","null","html-keyboard-response","25","311643","0.0-8.0-1.0-1.0-0.0-1.7","6","5","5","5","4","4","4","4","4","4","4","1","-2","0","1","0","1","1","1","4","4","5","5","4","3","4","3","3","4","5","5","5","5","3","4","5","5","5","5","5","5","6","4","4","4","5","6","5","4","3","4","3","6","4","5","6","6","5","3","5","4","3","5","5","4","6","5","5","7","6","4","3","3","6","4","5","3","5","680051628862078976","庞","460","Female","[""好我"",""坏她"",""坏我"",""好她""]","[""强我"",""弱她"",""弱我"",""强她""]","","","","","","","","","","","","","","","","","","","","","","","","","","","","","","feedback_test","","","","","","","",""
"1140","","f","psychophysics","26","313796","0.0-8.0-1.0-1.0-0.0-0.8","6","5","5","5","4","4","4","4","4","4","4","1","-2","0","1","0","1","1","1","4","4","5","5","4","3","4","3","3","4","5","5","5","5","3","4","5","5","5","5","5","5","6","4","4","4","5","6","5","4","3","4","3","6","4","5","6","6","5","3","5","4","3","5","5","4","6","5","5","7","6","4","3","3","6","4","5","3","5","680051628862078976","庞","460","Female","[""好我"",""坏她"",""坏我"",""好她""]","[""强我"",""弱她"",""弱我"",""强她""]","","","","","","","","match","","","","","","","","","","key","f","16.767259842519536","683","380","f","true","match","img/pentagon.png","强她","强她","prac_ALT2_ability","practice_ability","","","","","","","",""
"null","<span style='color:GreenYellow; font-size: 70px;'>正确! </span>","null","html-keyboard-response","27","314310","0.0-8.0-1.0-1.0-0.0-1.8","6","5","5","5","4","4","4","4","4","4","4","1","-2","0","1","0","1","1","1","4","4","5","5","4","3","4","3","3","4","5","5","5","5","3","4","5","5","5","5","5","5","6","4","4","4","5","6","5","4","3","4","3","6","4","5","6","6","5","3","5","4","3","5","5","4","6","5","5","7","6","4","3","3","6","4","5","3","5","680051628862078976","庞","460","Female","[""好我"",""坏她"",""坏我"",""好她""]","[""强我"",""弱她"",""弱我"",""强她""]","","","","","","","","","","","","","","","","","","","","","","","","","","","","","","feedback_test","","","","","","","",""
"957","","j","psychophysics","28","316276","0.0-8.0-1.0-1.0-0.0-0.9","6","5","5","5","4","4","4","4","4","4","4","1","-2","0","1","0","1","1","1","4","4","5","5","4","3","4","3","3","4","5","5","5","5","3","4","5","5","5","5","5","5","6","4","4","4","5","6","5","4","3","4","3","6","4","5","6","6","5","3","5","4","3","5","5","4","6","5","5","7","6","4","3","3","6","4","5","3","5","680051628862078976","庞","460","Female","[""好我"",""坏她"",""坏我"",""好她""]","[""强我"",""弱她"",""弱我"",""强她""]","","","","","","","","nonmatch","","","","","","","","","","key","j","16.63706837606847","683","380","f","false","match","img/circle.png","强我","强我","prac_ALT2_ability","practice_ability","","","","","","","",""
"null","<span style='color:red; font-size: 70px;'>错误! </span>","null","html-keyboard-response","29","316787","0.0-8.0-1.0-1.0-0.0-1.9","6","5","5","5","4","4","4","4","4","4","4","1","-2","0","1","0","1","1","1","4","4","5","5","4","3","4","3","3","4","5","5","5","5","3","4","5","5","5","5","5","5","6","4","4","4","5","6","5","4","3","4","3","6","4","5","6","6","5","3","5","4","3","5","5","4","6","5","5","7","6","4","3","3","6","4","5","3","5","680051628862078976","庞","460","Female","[""好我"",""坏她"",""坏我"",""好她""]","[""强我"",""弱她"",""弱我"",""强她""]","","","","","","","","","","","","","","","","","","","","","","","","","","","","","","feedback_test","","","","","","","",""
"935","","f","psychophysics","30","318732","0.0-8.0-1.0-1.0-0.0-0.10","6","5","5","5","4","4","4","4","4","4","4","1","-2","0","1","0","1","1","1","4","4","5","5","4","3","4","3","3","4","5","5","5","5","3","4","5","5","5","5","5","5","6","4","4","4","5","6","5","4","3","4","3","6","4","5","6","6","5","3","5","4","3","5","5","4","6","5","5","7","6","4","3","3","6","4","5","3","5","680051628862078976","庞","460","Female","[""好我"",""坏她"",""坏我"",""好她""]","[""强我"",""弱她"",""弱我"",""强她""]","","","","","","","","match","","","","","","","","","","key","f","16.78307017543876","683","380","f","true","match","img/circle.png","强我","强我","prac_ALT2_ability","practice_ability","","","","","","","",""
"null","<span style='color:GreenYellow; font-size: 70px;'>正确! </span>","null","html-keyboard-response","31","319241","0.0-8.0-1.0-1.0-0.0-1.10","6","5","5","5","4","4","4","4","4","4","4","1","-2","0","1","0","1","1","1","4","4","5","5","4","3","4","3","3","4","5","5","5","5","3","4","5","5","5","5","5","5","6","4","4","4","5","6","5","4","3","4","3","6","4","5","6","6","5","3","5","4","3","5","5","4","6","5","5","7","6","4","3","3","6","4","5","3","5","680051628862078976","庞","460","Female","[""好我"",""坏她"",""坏我"",""好她""]","[""强我"",""弱她"",""弱我"",""强她""]","","","","","","","","","","","","","","","","","","","","","","","","","","","","","","feedback_test","","","","","","","",""
"882","","j","psychophysics","32","321129","0.0-8.0-1.0-1.0-0.0-0.11","6","5","5","5","4","4","4","4","4","4","4","1","-2","0","1","0","1","1","1","4","4","5","5","4","3","4","3","3","4","5","5","5","5","3","4","5","5","5","5","5","5","6","4","4","4","5","6","5","4","3","4","3","6","4","5","6","6","5","3","5","4","3","5","5","4","6","5","5","7","6","4","3","3","6","4","5","3","5","680051628862078976","庞","460","Female","[""好我"",""坏她"",""坏我"",""好她""]","[""强我"",""弱她"",""弱我"",""强她""]","","","","","","","","nonmatch","","","","","","","","","","key","j","16.634803571428556","683","380","f","false","match","img/square.png","弱我","弱我","prac_ALT2_ability","practice_ability","","","","","","","",""
"null","<span style='color:red; font-size: 70px;'>错误! </span>","null","html-keyboard-response","33","321639","0.0-8.0-1.0-1.0-0.0-1.11","6","5","5","5","4","4","4","4","4","4","4","1","-2","0","1","0","1","1","1","4","4","5","5","4","3","4","3","3","4","5","5","5","5","3","4","5","5","5","5","5","5","6","4","4","4","5","6","5","4","3","4","3","6","4","5","6","6","5","3","5","4","3","5","5","4","6","5","5","7","6","4","3","3","6","4","5","3","5","680051628862078976","庞","460","Female","[""好我"",""坏她"",""坏我"",""好她""]","[""强我"",""弱她"",""弱我"",""强她""]","","","","","","","","","","","","","","","","","","","","","","","","","","","","","","feedback_test","","","","","","","",""
"997","","j","psychophysics","34","323649","0.0-8.0-1.0-1.0-0.0-0.12","6","5","5","5","4","4","4","4","4","4","4","1","-2","0","1","0","1","1","1","4","4","5","5","4","3","4","3","3","4","5","5","5","5","3","4","5","5","5","5","5","5","6","4","4","4","5","6","5","4","3","4","3","6","4","5","6","6","5","3","5","4","3","5","5","4","6","5","5","7","6","4","3","3","6","4","5","3","5","680051628862078976","庞","460","Female","[""好我"",""坏她"",""坏我"",""好她""]","[""强我"",""弱她"",""弱我"",""强她""]","","","","","","","","nonmatch","","","","","","","","","","key","j","16.77782203389827","683","380","j","true","nonmatch","img/pentagon.png","弱她","强她","prac_ALT2_ability","practice_ability","","","","","","","",""
"null","<span style='color:GreenYellow; font-size: 70px;'>正确! </span>","null","html-keyboard-response","35","324156","0.0-8.0-1.0-1.0-0.0-1.12","6","5","5","5","4","4","4","4","4","4","4","1","-2","0","1","0","1","1","1","4","4","5","5","4","3","4","3","3","4","5","5","5","5","3","4","5","5","5","5","5","5","6","4","4","4","5","6","5","4","3","4","3","6","4","5","6","6","5","3","5","4","3","5","5","4","6","5","5","7","6","4","3","3","6","4","5","3","5","680051628862078976","庞","460","Female","[""好我"",""坏她"",""坏我"",""好她""]","[""强我"",""弱她"",""弱我"",""强她""]","","","","","","","","","","","","","","","","","","","","","","","","","","","","","","feedback_test","","","","","","","",""
"1007","","f","psychophysics","36","326172","0.0-8.0-1.0-1.0-0.0-0.13","6","5","5","5","4","4","4","4","4","4","4","1","-2","0","1","0","1","1","1","4","4","5","5","4","3","4","3","3","4","5","5","5","5","3","4","5","5","5","5","5","5","6","4","4","4","5","6","5","4","3","4","3","6","4","5","6","6","5","3","5","4","3","5","5","4","6","5","5","7","6","4","3","3","6","4","5","3","5","680051628862078976","庞","460","Female","[""好我"",""坏她"",""坏我"",""好她""]","[""强我"",""弱她"",""弱我"",""强她""]","","","","","","","","match","","","","","","","","","","key","f","16.776075630252123","683","380","f","true","match","img/pentagon.png","强她","强她","prac_ALT2_ability","practice_ability","","","","","","","",""
"null","<span style='color:GreenYellow; font-size: 70px;'>正确! </span>","null","html-keyboard-response","37","326679","0.0-8.0-1.0-1.0-0.0-1.13","6","5","5","5","4","4","4","4","4","4","4","1","-2","0","1","0","1","1","1","4","4","5","5","4","3","4","3","3","4","5","5","5","5","3","4","5","5","5","5","5","5","6","4","4","4","5","6","5","4","3","4","3","6","4","5","6","6","5","3","5","4","3","5","5","4","6","5","5","7","6","4","3","3","6","4","5","3","5","680051628862078976","庞","460","Female","[""好我"",""坏她"",""坏我"",""好她""]","[""强我"",""弱她"",""弱我"",""强她""]","","","","","","","","","","","","","","","","","","","","","","","","","","","","","","feedback_test","","","","","","","",""
"1155","","j","psychophysics","38","328839","0.0-8.0-1.0-1.0-0.0-0.14","6","5","5","5","4","4","4","4","4","4","4","1","-2","0","1","0","1","1","1","4","4","5","5","4","3","4","3","3","4","5","5","5","5","3","4","5","5","5","5","5","5","6","4","4","4","5","6","5","4","3","4","3","6","4","5","6","6","5","3","5","4","3","5","5","4","6","5","5","7","6","4","3","3","6","4","5","3","5","680051628862078976","庞","460","Female","[""好我"",""坏她"",""坏我"",""好她""]","[""强我"",""弱她"",""弱我"",""强她""]","","","","","","","","nonmatch","","","","","","","","","","key","j","16.636585937500058","683","380","j","true","nonmatch","img/triangle.png","弱我","弱她","prac_ALT2_ability","practice_ability","","","","","","","",""
"null","<span style='color:GreenYellow; font-size: 70px;'>正确! </span>","null","html-keyboard-response","39","329350","0.0-8.0-1.0-1.0-0.0-1.14","6","5","5","5","4","4","4","4","4","4","4","1","-2","0","1","0","1","1","1","4","4","5","5","4","3","4","3","3","4","5","5","5","5","3","4","5","5","5","5","5","5","6","4","4","4","5","6","5","4","3","4","3","6","4","5","6","6","5","3","5","4","3","5","5","4","6","5","5","7","6","4","3","3","6","4","5","3","5","680051628862078976","庞","460","Female","[""好我"",""坏她"",""坏我"",""好她""]","[""强我"",""弱她"",""弱我"",""强她""]","","","","","","","","","","","","","","","","","","","","","","","","","","","","","","feedback_test","","","","","","","",""
"1039","","j","psychophysics","40","331394","0.0-8.0-1.0-1.0-0.0-0.15","6","5","5","5","4","4","4","4","4","4","4","1","-2","0","1","0","1","1","1","4","4","5","5","4","3","4","3","3","4","5","5","5","5","3","4","5","5","5","5","5","5","6","4","4","4","5","6","5","4","3","4","3","6","4","5","6","6","5","3","5","4","3","5","5","4","6","5","5","7","6","4","3","3","6","4","5","3","5","680051628862078976","庞","460","Female","[""好我"",""坏她"",""坏我"",""好她""]","[""强我"",""弱她"",""弱我"",""强她""]","","","","","","","","nonmatch","","","","","","","","","","key","j","16.636286885246204","683","380","j","true","nonmatch","img/pentagon.png","强我","强她","prac_ALT2_ability","practice_ability","","","","","","","",""
"null","<span style='color:GreenYellow; font-size: 70px;'>正确! </span>","null","html-keyboard-response","41","331903","0.0-8.0-1.0-1.0-0.0-1.15","6","5","5","5","4","4","4","4","4","4","4","1","-2","0","1","0","1","1","1","4","4","5","5","4","3","4","3","3","4","5","5","5","5","3","4","5","5","5","5","5","5","6","4","4","4","5","6","5","4","3","4","3","6","4","5","6","6","5","3","5","4","3","5","5","4","6","5","5","7","6","4","3","3","6","4","5","3","5","680051628862078976","庞","460","Female","[""好我"",""坏她"",""坏我"",""好她""]","[""强我"",""弱她"",""弱我"",""强她""]","","","","","","","","","","","","","","","","","","","","","","","","","","","","","","feedback_test","","","","","","","",""
"1088","","j","psychophysics","42","334011","0.0-8.0-1.0-1.0-0.0-0.16","6","5","5","5","4","4","4","4","4","4","4","1","-2","0","1","0","1","1","1","4","4","5","5","4","3","4","3","3","4","5","5","5","5","3","4","5","5","5","5","5","5","6","4","4","4","5","6","5","4","3","4","3","6","4","5","6","6","5","3","5","4","3","5","5","4","6","5","5","7","6","4","3","3","6","4","5","3","5","680051628862078976","庞","460","Female","[""好我"",""坏她"",""坏我"",""好她""]","[""强我"",""弱她"",""弱我"",""强她""]","","","","","","","","nonmatch","","","","","","","","","","key","j","16.636580645161185","683","380","j","true","nonmatch","img/square.png","弱她","弱我","prac_ALT2_ability","practice_ability","","","","","","","",""
"null","<span style='color:GreenYellow; font-size: 70px;'>正确! </span>","null","html-keyboard-response","43","334520","0.0-8.0-1.0-1.0-0.0-1.16","6","5","5","5","4","4","4","4","4","4","4","1","-2","0","1","0","1","1","1","4","4","5","5","4","3","4","3","3","4","5","5","5","5","3","4","5","5","5","5","5","5","6","4","4","4","5","6","5","4","3","4","3","6","4","5","6","6","5","3","5","4","3","5","5","4","6","5","5","7","6","4","3","3","6","4","5","3","5","680051628862078976","庞","460","Female","[""好我"",""坏她"",""坏我"",""好她""]","[""强我"",""弱她"",""弱我"",""强她""]","","","","","","","","","","","","","","","","","","","","","","","","","","","","","","feedback_test","","","","","","","",""
"null","","null","psychophysics","44","336736","0.0-8.0-1.0-1.0-0.0-0.17","6","5","5","5","4","4","4","4","4","4","4","1","-2","0","1","0","1","1","1","4","4","5","5","4","3","4","3","3","4","5","5","5","5","3","4","5","5","5","5","5","5","6","4","4","4","5","6","5","4","3","4","3","6","4","5","6","6","5","3","5","4","3","5","5","4","6","5","5","7","6","4","3","3","6","4","5","3","5","680051628862078976","庞","460","Female","[""好我"",""坏她"",""坏我"",""好她""]","[""强我"",""弱她"",""弱我"",""强她""]","","","","","","","","null","","","","","","","","","","key","null","16.762847328243975","683","380","f","false","match","img/square.png","弱我","弱我","prac_ALT2_ability","practice_ability","","","","","","","",""
"null","<span class='add_' style='color:yellow; font-size: 70px;'> 太慢! </span>","null","html-keyboard-response","45","337241","0.0-8.0-1.0-1.0-0.0-1.17","6","5","5","5","4","4","4","4","4","4","4","1","-2","0","1","0","1","1","1","4","4","5","5","4","3","4","3","3","4","5","5","5","5","3","4","5","5","5","5","5","5","6","4","4","4","5","6","5","4","3","4","3","6","4","5","6","6","5","3","5","4","3","5","5","4","6","5","5","7","6","4","3","3","6","4","5","3","5","680051628862078976","庞","460","Female","[""好我"",""坏她"",""坏我"",""好她""]","[""强我"",""弱她"",""弱我"",""强她""]","","","","","","","","","","","","","","","","","","","","","","","","","","","","","","feedback_test","","","","","","","",""
"1044","","f","psychophysics","46","339291","0.0-8.0-1.0-1.0-0.0-0.18","6","5","5","5","4","4","4","4","4","4","4","1","-2","0","1","0","1","1","1","4","4","5","5","4","3","4","3","3","4","5","5","5","5","3","4","5","5","5","5","5","5","6","4","4","4","5","6","5","4","3","4","3","6","4","5","6","6","5","3","5","4","3","5","5","4","6","5","5","7","6","4","3","3","6","4","5","3","5","680051628862078976","庞","460","Female","[""好我"",""坏她"",""坏我"",""好她""]","[""强我"",""弱她"",""弱我"",""强她""]","","","","","","","","match","","","","","","","","","","key","f","16.77464999999987","683","380","f","true","match","img/triangle.png","弱她","弱她","prac_ALT2_ability","practice_ability","","","","","","","",""
"null","<span style='color:GreenYellow; font-size: 70px;'>正确! </span>","null","html-keyboard-response","47","339806","0.0-8.0-1.0-1.0-0.0-1.18","6","5","5","5","4","4","4","4","4","4","4","1","-2","0","1","0","1","1","1","4","4","5","5","4","3","4","3","3","4","5","5","5","5","3","4","5","5","5","5","5","5","6","4","4","4","5","6","5","4","3","4","3","6","4","5","6","6","5","3","5","4","3","5","5","4","6","5","5","7","6","4","3","3","6","4","5","3","5","680051628862078976","庞","460","Female","[""好我"",""坏她"",""坏我"",""好她""]","[""强我"",""弱她"",""弱我"",""强她""]","","","","","","","","","","","","","","","","","","","","","","","","","","","","","","feedback_test","","","","","","","",""
"824","","f","psychophysics","48","341642","0.0-8.0-1.0-1.0-0.0-0.19","6","5","5","5","4","4","4","4","4","4","4","1","-2","0","1","0","1","1","1","4","4","5","5","4","3","4","3","3","4","5","5","5","5","3","4","5","5","5","5","5","5","6","4","4","4","5","6","5","4","3","4","3","6","4","5","6","6","5","3","5","4","3","5","5","4","6","5","5","7","6","4","3","3","6","4","5","3","5","680051628862078976","庞","460","Female","[""好我"",""坏她"",""坏我"",""好她""]","[""强我"",""弱她"",""弱我"",""强她""]","","","","","","","","match","","","","","","","","","","key","f","16.637201834862534","683","380","f","true","match","img/pentagon.png","强她","强她","prac_ALT2_ability","practice_ability","","","","","","","",""
"null","<span style='color:GreenYellow; font-size: 70px;'>正确! </span>","null","html-keyboard-response","49","342147","0.0-8.0-1.0-1.0-0.0-1.19","6","5","5","5","4","4","4","4","4","4","4","1","-2","0","1","0","1","1","1","4","4","5","5","4","3","4","3","3","4","5","5","5","5","3","4","5","5","5","5","5","5","6","4","4","4","5","6","5","4","3","4","3","6","4","5","6","6","5","3","5","4","3","5","5","4","6","5","5","7","6","4","3","3","6","4","5","3","5","680051628862078976","庞","460","Female","[""好我"",""坏她"",""坏我"",""好她""]","[""强我"",""弱她"",""弱我"",""强她""]","","","","","","","","","","","","","","","","","","","","","","","","","","","","","","feedback_test","","","","","","","",""
"1049","","f","psychophysics","50","344203","0.0-8.0-1.0-1.0-0.0-0.20","6","5","5","5","4","4","4","4","4","4","4","1","-2","0","1","0","1","1","1","4","4","5","5","4","3","4","3","3","4","5","5","5","5","3","4","5","5","5","5","5","5","6","4","4","4","5","6","5","4","3","4","3","6","4","5","6","6","5","3","5","4","3","5","5","4","6","5","5","7","6","4","3","3","6","4","5","3","5","680051628862078976","庞","460","Female","[""好我"",""坏她"",""坏我"",""好她""]","[""强我"",""弱她"",""弱我"",""强她""]","","","","","","","","match","","","","","","","","","","key","f","16.637245901639393","683","380","j","false","nonmatch","img/square.png","强我","弱我","prac_ALT2_ability","practice_ability","","","","","","","",""
"null","<span style='color:red; font-size: 70px;'>错误! </span>","null","html-keyboard-response","51","344716","0.0-8.0-1.0-1.0-0.0-1.20","6","5","5","5","4","4","4","4","4","4","4","1","-2","0","1","0","1","1","1","4","4","5","5","4","3","4","3","3","4","5","5","5","5","3","4","5","5","5","5","5","5","6","4","4","4","5","6","5","4","3","4","3","6","4","5","6","6","5","3","5","4","3","5","5","4","6","5","5","7","6","4","3","3","6","4","5","3","5","680051628862078976","庞","460","Female","[""好我"",""坏她"",""坏我"",""好她""]","[""强我"",""弱她"",""弱我"",""强她""]","","","","","","","","","","","","","","","","","","","","","","","","","","","","","","feedback_test","","","","","","","",""
"1106","","j","psychophysics","52","346832","0.0-8.0-1.0-1.0-0.0-0.21","6","5","5","5","4","4","4","4","4","4","4","1","-2","0","1","0","1","1","1","4","4","5","5","4","3","4","3","3","4","5","5","5","5","3","4","5","5","5","5","5","5","6","4","4","4","5","6","5","4","3","4","3","6","4","5","6","6","5","3","5","4","3","5","5","4","6","5","5","7","6","4","3","3","6","4","5","3","5","680051628862078976","庞","460","Female","[""好我"",""坏她"",""坏我"",""好她""]","[""强我"",""弱她"",""弱我"",""强她""]","","","","","","","","nonmatch","","","","","","","","","","key","j","16.770840000000316","683","380","j","true","nonmatch","img/pentagon.png","弱我","强她","prac_ALT2_ability","practice_ability","","","","","","","",""
"null","<span style='color:GreenYellow; font-size: 70px;'>正确! </span>","null","html-keyboard-response","53","347345","0.0-8.0-1.0-1.0-0.0-1.21","6","5","5","5","4","4","4","4","4","4","4","1","-2","0","1","0","1","1","1","4","4","5","5","4","3","4","3","3","4","5","5","5","5","3","4","5","5","5","5","5","5","6","4","4","4","5","6","5","4","3","4","3","6","4","5","6","6","5","3","5","4","3","5","5","4","6","5","5","7","6","4","3","3","6","4","5","3","5","680051628862078976","庞","460","Female","[""好我"",""坏她"",""坏我"",""好她""]","[""强我"",""弱她"",""弱我"",""强她""]","","","","","","","","","","","","","","","","","","","","","","","","","","","","","","feedback_test","","","","","","","",""
"866","","f","psychophysics","54","349216","0.0-8.0-1.0-1.0-0.0-0.22","6","5","5","5","4","4","4","4","4","4","4","1","-2","0","1","0","1","1","1","4","4","5","5","4","3","4","3","3","4","5","5","5","5","3","4","5","5","5","5","5","5","6","4","4","4","5","6","5","4","3","4","3","6","4","5","6","6","5","3","5","4","3","5","5","4","6","5","5","7","6","4","3","3","6","4","5","3","5","680051628862078976","庞","460","Female","[""好我"",""坏她"",""坏我"",""好她""]","[""强我"",""弱她"",""弱我"",""强她""]","","","","","","","","match","","","","","","","","","","key","f","16.637297297297213","683","380","f","true","match","img/triangle.png","弱她","弱她","prac_ALT2_ability","practice_ability","","","","","","","",""
"null","<span style='color:GreenYellow; font-size: 70px;'>正确! </span>","null","html-keyboard-response","55","349723","0.0-8.0-1.0-1.0-0.0-1.22","6","5","5","5","4","4","4","4","4","4","4","1","-2","0","1","0","1","1","1","4","4","5","5","4","3","4","3","3","4","5","5","5","5","3","4","5","5","5","5","5","5","6","4","4","4","5","6","5","4","3","4","3","6","4","5","6","6","5","3","5","4","3","5","5","4","6","5","5","7","6","4","3","3","6","4","5","3","5","680051628862078976","庞","460","Female","[""好我"",""坏她"",""坏我"",""好她""]","[""强我"",""弱她"",""弱我"",""强她""]","","","","","","","","","","","","","","","","","","","","","","","","","","","","","","feedback_test","","","","","","","",""
"950","","j","psychophysics","56","351683","0.0-8.0-1.0-1.0-0.0-0.23","6","5","5","5","4","4","4","4","4","4","4","1","-2","0","1","0","1","1","1","4","4","5","5","4","3","4","3","3","4","5","5","5","5","3","4","5","5","5","5","5","5","6","4","4","4","5","6","5","4","3","4","3","6","4","5","6","6","5","3","5","4","3","5","5","4","6","5","5","7","6","4","3","3","6","4","5","3","5","680051628862078976","庞","460","Female","[""好我"",""坏她"",""坏我"",""好她""]","[""强我"",""弱她"",""弱我"",""强她""]","","","","","","","","nonmatch","","","","","","","","","","key","j","16.78113043478275","683","380","j","true","nonmatch","img/circle.png","强她","强我","prac_ALT2_ability","practice_ability","","","","","","","",""
"null","<span style='color:GreenYellow; font-size: 70px;'>正确! </span>","null","html-keyboard-response","57","352196","0.0-8.0-1.0-1.0-0.0-1.23","6","5","5","5","4","4","4","4","4","4","4","1","-2","0","1","0","1","1","1","4","4","5","5","4","3","4","3","3","4","5","5","5","5","3","4","5","5","5","5","5","5","6","4","4","4","5","6","5","4","3","4","3","6","4","5","6","6","5","3","5","4","3","5","5","4","6","5","5","7","6","4","3","3","6","4","5","3","5","680051628862078976","庞","460","Female","[""好我"",""坏她"",""坏我"",""好她""]","[""强我"",""弱她"",""弱我"",""强她""]","","","","","","","","","","","","","","","","","","","","","","","","","","","","","","feedback_test","","","","","","","",""
"724","","f","psychophysics","58","353936","0.0-8.0-1.0-1.0-0.0-0.24","6","5","5","5","4","4","4","4","4","4","4","1","-2","0","1","0","1","1","1","4","4","5","5","4","3","4","3","3","4","5","5","5","5","3","4","5","5","5","5","5","5","6","4","4","4","5","6","5","4","3","4","3","6","4","5","6","6","5","3","5","4","3","5","5","4","6","5","5","7","6","4","3","3","6","4","5","3","5","680051628862078976","庞","460","Female","[""好我"",""坏她"",""坏我"",""好她""]","[""强我"",""弱她"",""弱我"",""强她""]","","","","","","","","match","","","","","","","","","","key","f","16.799950980391884","683","380","f","true","match","img/circle.png","强我","强我","prac_ALT2_ability","practice_ability","","","","","","","",""
"null","<span style='color:GreenYellow; font-size: 70px;'>正确! </span>","null","html-keyboard-response","59","354448","0.0-8.0-1.0-1.0-0.0-1.24","6","5","5","5","4","4","4","4","4","4","4","1","-2","0","1","0","1","1","1","4","4","5","5","4","3","4","3","3","4","5","5","5","5","3","4","5","5","5","5","5","5","6","4","4","4","5","6","5","4","3","4","3","6","4","5","6","6","5","3","5","4","3","5","5","4","6","5","5","7","6","4","3","3","6","4","5","3","5","680051628862078976","庞","460","Female","[""好我"",""坏她"",""坏我"",""好她""]","[""强我"",""弱她"",""弱我"",""强她""]","","","","","","","","","","","","","","","","","","","","","","","","","","","","","","feedback_test","","","","","","","",""
"771","","j","psychophysics","60","356230","0.0-8.0-1.0-1.0-0.0-0.25","6","5","5","5","4","4","4","4","4","4","4","1","-2","0","1","0","1","1","1","4","4","5","5","4","3","4","3","3","4","5","5","5","5","3","4","5","5","5","5","5","5","6","4","4","4","5","6","5","4","3","4","3","6","4","5","6","6","5","3","5","4","3","5","5","4","6","5","5","7","6","4","3","3","6","4","5","3","5","680051628862078976","庞","460","Female","[""好我"",""坏她"",""坏我"",""好她""]","[""强我"",""弱她"",""弱我"",""强她""]","","","","","","","","nonmatch","","","","","","","","","","key","j","16.636759615384598","683","380","j","true","nonmatch","img/square.png","强她","弱我","prac_ALT2_ability","practice_ability","","","","","","","",""
"null","<span style='color:GreenYellow; font-size: 70px;'>正确! </span>","null","html-keyboard-response","61","356752","0.0-8.0-1.0-1.0-0.0-1.25","6","5","5","5","4","4","4","4","4","4","4","1","-2","0","1","0","1","1","1","4","4","5","5","4","3","4","3","3","4","5","5","5","5","3","4","5","5","5","5","5","5","6","4","4","4","5","6","5","4","3","4","3","6","4","5","6","6","5","3","5","4","3","5","5","4","6","5","5","7","6","4","3","3","6","4","5","3","5","680051628862078976","庞","460","Female","[""好我"",""坏她"",""坏我"",""好她""]","[""强我"",""弱她"",""弱我"",""强她""]","","","","","","","","","","","","","","","","","","","","","","","","","","","","","","feedback_test","","","","","","","",""
"848","","j","psychophysics","62","358608","0.0-8.0-1.0-1.0-0.0-0.26","6","5","5","5","4","4","4","4","4","4","4","1","-2","0","1","0","1","1","1","4","4","5","5","4","3","4","3","3","4","5","5","5","5","3","4","5","5","5","5","5","5","6","4","4","4","5","6","5","4","3","4","3","6","4","5","6","6","5","3","5","4","3","5","5","4","6","5","5","7","6","4","3","3","6","4","5","3","5","680051628862078976","庞","460","Female","[""好我"",""坏她"",""坏我"",""好她""]","[""强我"",""弱她"",""弱我"",""强她""]","","","","","","","","nonmatch","","","","","","","","","","key","j","16.789339449541288","683","380","j","true","nonmatch","img/circle.png","弱我","强我","prac_ALT2_ability","practice_ability","","","","","","","",""
"null","<span style='color:GreenYellow; font-size: 70px;'>正确! </span>","null","html-keyboard-response","63","359116","0.0-8.0-1.0-1.0-0.0-1.26","6","5","5","5","4","4","4","4","4","4","4","1","-2","0","1","0","1","1","1","4","4","5","5","4","3","4","3","3","4","5","5","5","5","3","4","5","5","5","5","5","5","6","4","4","4","5","6","5","4","3","4","3","6","4","5","6","6","5","3","5","4","3","5","5","4","6","5","5","7","6","4","3","3","6","4","5","3","5","680051628862078976","庞","460","Female","[""好我"",""坏她"",""坏我"",""好她""]","[""强我"",""弱她"",""弱我"",""强她""]","","","","","","","","","","","","","","","","","","","","","","","","","","","","","","feedback_test","","","","","","","",""
"1108","","j","psychophysics","64","361238","0.0-8.0-1.0-1.0-0.0-0.27","6","5","5","5","4","4","4","4","4","4","4","1","-2","0","1","0","1","1","1","4","4","5","5","4","3","4","3","3","4","5","5","5","5","3","4","5","5","5","5","5","5","6","4","4","4","5","6","5","4","3","4","3","6","4","5","6","6","5","3","5","4","3","5","5","4","6","5","5","7","6","4","3","3","6","4","5","3","5","680051628862078976","庞","460","Female","[""好我"",""坏她"",""坏我"",""好她""]","[""强我"",""弱她"",""弱我"",""强她""]","","","","","","","","nonmatch","","","","","","","","","","key","j","16.635380952381105","683","380","j","true","nonmatch","img/square.png","强我","弱我","prac_ALT2_ability","practice_ability","","","","","","","",""
"null","<span style='color:GreenYellow; font-size: 70px;'>正确! </span>","null","html-keyboard-response","65","361742","0.0-8.0-1.0-1.0-0.0-1.27","6","5","5","5","4","4","4","4","4","4","4","1","-2","0","1","0","1","1","1","4","4","5","5","4","3","4","3","3","4","5","5","5","5","3","4","5","5","5","5","5","5","6","4","4","4","5","6","5","4","3","4","3","6","4","5","6","6","5","3","5","4","3","5","5","4","6","5","5","7","6","4","3","3","6","4","5","3","5","680051628862078976","庞","460","Female","[""好我"",""坏她"",""坏我"",""好她""]","[""强我"",""弱她"",""弱我"",""强她""]","","","","","","","","","","","","","","","","","","","","","","","","","","","","","","feedback_test","","","","","","","",""
"937","","f","psychophysics","66","363695","0.0-8.0-1.0-1.0-0.0-0.28","6","5","5","5","4","4","4","4","4","4","4","1","-2","0","1","0","1","1","1","4","4","5","5","4","3","4","3","3","4","5","5","5","5","3","4","5","5","5","5","5","5","6","4","4","4","5","6","5","4","3","4","3","6","4","5","6","6","5","3","5","4","3","5","5","4","6","5","5","7","6","4","3","3","6","4","5","3","5","680051628862078976","庞","460","Female","[""好我"",""坏她"",""坏我"",""好她""]","[""强我"",""弱她"",""弱我"",""强她""]","","","","","","","","match","","","","","","","","","","key","f","16.782245614034892","683","380","f","true","match","img/pentagon.png","强她","强她","prac_ALT2_ability","practice_ability","","","","","","","",""
"null","<span style='color:GreenYellow; font-size: 70px;'>正确! </span>","null","html-keyboard-response","67","364201","0.0-8.0-1.0-1.0-0.0-1.28","6","5","5","5","4","4","4","4","4","4","4","1","-2","0","1","0","1","1","1","4","4","5","5","4","3","4","3","3","4","5","5","5","5","3","4","5","5","5","5","5","5","6","4","4","4","5","6","5","4","3","4","3","6","4","5","6","6","5","3","5","4","3","5","5","4","6","5","5","7","6","4","3","3","6","4","5","3","5","680051628862078976","庞","460","Female","[""好我"",""坏她"",""坏我"",""好她""]","[""强我"",""弱她"",""弱我"",""强她""]","","","","","","","","","","","","","","","","","","","","","","","","","","","","","","feedback_test","","","","","","","",""
"854","","f","psychophysics","68","366062","0.0-8.0-1.0-1.0-0.0-0.29","6","5","5","5","4","4","4","4","4","4","4","1","-2","0","1","0","1","1","1","4","4","5","5","4","3","4","3","3","4","5","5","5","5","3","4","5","5","5","5","5","5","6","4","4","4","5","6","5","4","3","4","3","6","4","5","6","6","5","3","5","4","3","5","5","4","6","5","5","7","6","4","3","3","6","4","5","3","5","680051628862078976","庞","460","Female","[""好我"",""坏她"",""坏我"",""好她""]","[""强我"",""弱她"",""弱我"",""强她""]","","","","","","","","match","","","","","","","","","","key","f","16.787577981651555","683","380","f","true","match","img/circle.png","强我","强我","prac_ALT2_ability","practice_ability","","","","","","","",""
"null","<span style='color:GreenYellow; font-size: 70px;'>正确! </span>","null","html-keyboard-response","69","366569","0.0-8.0-1.0-1.0-0.0-1.29","6","5","5","5","4","4","4","4","4","4","4","1","-2","0","1","0","1","1","1","4","4","5","5","4","3","4","3","3","4","5","5","5","5","3","4","5","5","5","5","5","5","6","4","4","4","5","6","5","4","3","4","3","6","4","5","6","6","5","3","5","4","3","5","5","4","6","5","5","7","6","4","3","3","6","4","5","3","5","680051628862078976","庞","460","Female","[""好我"",""坏她"",""坏我"",""好她""]","[""强我"",""弱她"",""弱我"",""强她""]","","","","","","","","","","","","","","","","","","","","","","","","","","","","","","feedback_test","","","","","","","",""
"836","","j","psychophysics","70","368421","0.0-8.0-1.0-1.0-0.0-0.30","6","5","5","5","4","4","4","4","4","4","4","1","-2","0","1","0","1","1","1","4","4","5","5","4","3","4","3","3","4","5","5","5","5","3","4","5","5","5","5","5","5","6","4","4","4","5","6","5","4","3","4","3","6","4","5","6","6","5","3","5","4","3","5","5","4","6","5","5","7","6","4","3","3","6","4","5","3","5","680051628862078976","庞","460","Female","[""好我"",""坏她"",""坏我"",""好她""]","[""强我"",""弱她"",""弱我"",""强她""]","","","","","","","","nonmatch","","","","","","","","","","key","j","16.63599074074052","683","380","f","false","match","img/pentagon.png","强她","强她","prac_ALT2_ability","practice_ability","","","","","","","",""
"null","<span style='color:red; font-size: 70px;'>错误! </span>","null","html-keyboard-response","71","368929","0.0-8.0-1.0-1.0-0.0-1.30","6","5","5","5","4","4","4","4","4","4","4","1","-2","0","1","0","1","1","1","4","4","5","5","4","3","4","3","3","4","5","5","5","5","3","4","5","5","5","5","5","5","6","4","4","4","5","6","5","4","3","4","3","6","4","5","6","6","5","3","5","4","3","5","5","4","6","5","5","7","6","4","3","3","6","4","5","3","5","680051628862078976","庞","460","Female","[""好我"",""坏她"",""坏我"",""好她""]","[""强我"",""弱她"",""弱我"",""强她""]","","","","","","","","","","","","","","","","","","","","","","","","","","","","","","feedback_test","","","","","","","",""
"807","","j","psychophysics","72","370752","0.0-8.0-1.0-1.0-0.0-0.31","6","5","5","5","4","4","4","4","4","4","4","1","-2","0","1","0","1","1","1","4","4","5","5","4","3","4","3","3","4","5","5","5","5","3","4","5","5","5","5","5","5","6","4","4","4","5","6","5","4","3","4","3","6","4","5","6","6","5","3","5","4","3","5","5","4","6","5","5","7","6","4","3","3","6","4","5","3","5","680051628862078976","庞","460","Female","[""好我"",""坏她"",""坏我"",""好她""]","[""强我"",""弱她"",""弱我"",""强她""]","","","","","","","","nonmatch","","","","","","","","","","key","j","16.637453703703446","683","380","j","true","nonmatch","img/circle.png","强她","强我","prac_ALT2_ability","practice_ability","","","","","","","",""
"null","<span style='color:GreenYellow; font-size: 70px;'>正确! </span>","null","html-keyboard-response","73","371259","0.0-8.0-1.0-1.0-0.0-1.31","6","5","5","5","4","4","4","4","4","4","4","1","-2","0","1","0","1","1","1","4","4","5","5","4","3","4","3","3","4","5","5","5","5","3","4","5","5","5","5","5","5","6","4","4","4","5","6","5","4","3","4","3","6","4","5","6","6","5","3","5","4","3","5","5","4","6","5","5","7","6","4","3","3","6","4","5","3","5","680051628862078976","庞","460","Female","[""好我"",""坏她"",""坏我"",""好她""]","[""强我"",""弱她"",""弱我"",""强她""]","","","","","","","","","","","","","","","","","","","","","","","","","","","","","","feedback_test","","","","","","","",""
"936","","f","psychophysics","74","373210","0.0-8.0-1.0-1.0-0.0-0.32","6","5","5","5","4","4","4","4","4","4","4","1","-2","0","1","0","1","1","1","4","4","5","5","4","3","4","3","3","4","5","5","5","5","3","4","5","5","5","5","5","5","6","4","4","4","5","6","5","4","3","4","3","6","4","5","6","6","5","3","5","4","3","5","5","4","6","5","5","7","6","4","3","3","6","4","5","3","5","680051628862078976","庞","460","Female","[""好我"",""坏她"",""坏我"",""好她""]","[""强我"",""弱她"",""弱我"",""强她""]","","","","","","","","match","","","","","","","","","","key","f","16.634413793103484","683","380","f","true","match","img/square.png","弱我","弱我","prac_ALT2_ability","practice_ability","","","","","","","",""
"null","<span style='color:GreenYellow; font-size: 70px;'>正确! </span>","null","html-keyboard-response","75","373718","0.0-8.0-1.0-1.0-0.0-1.32","6","5","5","5","4","4","4","4","4","4","4","1","-2","0","1","0","1","1","1","4","4","5","5","4","3","4","3","3","4","5","5","5","5","3","4","5","5","5","5","5","5","6","4","4","4","5","6","5","4","3","4","3","6","4","5","6","6","5","3","5","4","3","5","5","4","6","5","5","7","6","4","3","3","6","4","5","3","5","680051628862078976","庞","460","Female","[""好我"",""坏她"",""坏我"",""好她""]","[""强我"",""弱她"",""弱我"",""强她""]","","","","","","","","","","","","","","","","","","","","","","","","","","","","","","feedback_test","","","","","","","",""
"727","","f","psychophysics","76","375455","0.0-8.0-1.0-1.0-0.0-0.33","6","5","5","5","4","4","4","4","4","4","4","1","-2","0","1","0","1","1","1","4","4","5","5","4","3","4","3","3","4","5","5","5","5","3","4","5","5","5","5","5","5","6","4","4","4","5","6","5","4","3","4","3","6","4","5","6","6","5","3","5","4","3","5","5","4","6","5","5","7","6","4","3","3","6","4","5","3","5","680051628862078976","庞","460","Female","[""好我"",""坏她"",""坏我"",""好她""]","[""强我"",""弱她"",""弱我"",""强她""]","","","","","","","","match","","","","","","","","","","key","f","16.637568627451046","683","380","f","true","match","img/square.png","弱我","弱我","prac_ALT2_ability","practice_ability","","","","","","","",""
"null","<span style='color:GreenYellow; font-size: 70px;'>正确! </span>","null","html-keyboard-response","77","375967","0.0-8.0-1.0-1.0-0.0-1.33","6","5","5","5","4","4","4","4","4","4","4","1","-2","0","1","0","1","1","1","4","4","5","5","4","3","4","3","3","4","5","5","5","5","3","4","5","5","5","5","5","5","6","4","4","4","5","6","5","4","3","4","3","6","4","5","6","6","5","3","5","4","3","5","5","4","6","5","5","7","6","4","3","3","6","4","5","3","5","680051628862078976","庞","460","Female","[""好我"",""坏她"",""坏我"",""好她""]","[""强我"",""弱她"",""弱我"",""强她""]","","","","","","","","","","","","","","","","","","","","","","","","","","","","","","feedback_test","","","","","","","",""
"906","","f","psychophysics","78","377886","0.0-8.0-1.0-1.0-0.0-0.34","6","5","5","5","4","4","4","4","4","4","4","1","-2","0","1","0","1","1","1","4","4","5","5","4","3","4","3","3","4","5","5","5","5","3","4","5","5","5","5","5","5","6","4","4","4","5","6","5","4","3","4","3","6","4","5","6","6","5","3","5","4","3","5","5","4","6","5","5","7","6","4","3","3","6","4","5","3","5","680051628862078976","庞","460","Female","[""好我"",""坏她"",""坏我"",""好她""]","[""强我"",""弱她"",""弱我"",""强她""]","","","","","","","","match","","","","","","","","","","key","f","16.63657894736848","683","380","f","true","match","img/triangle.png","弱她","弱她","prac_ALT2_ability","practice_ability","","","","","","","",""
"null","<span style='color:GreenYellow; font-size: 70px;'>正确! </span>","null","html-keyboard-response","79","378394","0.0-8.0-1.0-1.0-0.0-1.34","6","5","5","5","4","4","4","4","4","4","4","1","-2","0","1","0","1","1","1","4","4","5","5","4","3","4","3","3","4","5","5","5","5","3","4","5","5","5","5","5","5","6","4","4","4","5","6","5","4","3","4","3","6","4","5","6","6","5","3","5","4","3","5","5","4","6","5","5","7","6","4","3","3","6","4","5","3","5","680051628862078976","庞","460","Female","[""好我"",""坏她"",""坏我"",""好她""]","[""强我"",""弱她"",""弱我"",""强她""]","","","","","","","","","","","","","","","","","","","","","","","","","","","","","","feedback_test","","","","","","","",""
"775","","f","psychophysics","80","380175","0.0-8.0-1.0-1.0-0.0-0.35","6","5","5","5","4","4","4","4","4","4","4","1","-2","0","1","0","1","1","1","4","4","5","5","4","3","4","3","3","4","5","5","5","5","3","4","5","5","5","5","5","5","6","4","4","4","5","6","5","4","3","4","3","6","4","5","6","6","5","3","5","4","3","5","5","4","6","5","5","7","6","4","3","3","6","4","5","3","5","680051628862078976","庞","460","Female","[""好我"",""坏她"",""坏我"",""好她""]","[""强我"",""弱她"",""弱我"",""强她""]","","","","","","","","match","","","","","","","","","","key","f","16.797336538461074","683","380","j","false","nonmatch","img/pentagon.png","弱她","强她","prac_ALT2_ability","practice_ability","","","","","","","",""
"null","<span style='color:red; font-size: 70px;'>错误! </span>","null","html-keyboard-response","81","380688","0.0-8.0-1.0-1.0-0.0-1.35","6","5","5","5","4","4","4","4","4","4","4","1","-2","0","1","0","1","1","1","4","4","5","5","4","3","4","3","3","4","5","5","5","5","3","4","5","5","5","5","5","5","6","4","4","4","5","6","5","4","3","4","3","6","4","5","6","6","5","3","5","4","3","5","5","4","6","5","5","7","6","4","3","3","6","4","5","3","5","680051628862078976","庞","460","Female","[""好我"",""坏她"",""坏我"",""好她""]","[""强我"",""弱她"",""弱我"",""强她""]","","","","","","","","","","","","","","","","","","","","","","","","","","","","","","feedback_test","","","","","","","",""
"1110","","f","psychophysics","82","382803","0.0-8.0-1.0-1.0-0.0-0.36","6","5","5","5","4","4","4","4","4","4","4","1","-2","0","1","0","1","1","1","4","4","5","5","4","3","4","3","3","4","5","5","5","5","3","4","5","5","5","5","5","5","6","4","4","4","5","6","5","4","3","4","3","6","4","5","6","6","5","3","5","4","3","5","5","4","6","5","5","7","6","4","3","3","6","4","5","3","5","680051628862078976","庞","460","Female","[""好我"",""坏她"",""坏我"",""好她""]","[""强我"",""弱她"",""弱我"",""强她""]","","","","","","","","match","","","","","","","","","","key","f","16.635031999999658","683","380","f","true","match","img/triangle.png","弱她","弱她","prac_ALT2_ability","practice_ability","","","","","","","",""
"null","<span style='color:GreenYellow; font-size: 70px;'>正确! </span>","null","html-keyboard-response","83","383313","0.0-8.0-1.0-1.0-0.0-1.36","6","5","5","5","4","4","4","4","4","4","4","1","-2","0","1","0","1","1","1","4","4","5","5","4","3","4","3","3","4","5","5","5","5","3","4","5","5","5","5","5","5","6","4","4","4","5","6","5","4","3","4","3","6","4","5","6","6","5","3","5","4","3","5","5","4","6","5","5","7","6","4","3","3","6","4","5","3","5","680051628862078976","庞","460","Female","[""好我"",""坏她"",""坏我"",""好她""]","[""强我"",""弱她"",""弱我"",""强她""]","","","","","","","","","","","","","","","","","","","","","","","","","","","","","","feedback_test","","","","","","","",""
"1007","","f","psychophysics","84","385328","0.0-8.0-1.0-1.0-0.0-0.37","6","5","5","5","4","4","4","4","4","4","4","1","-2","0","1","0","1","1","1","4","4","5","5","4","3","4","3","3","4","5","5","5","5","3","4","5","5","5","5","5","5","6","4","4","4","5","6","5","4","3","4","3","6","4","5","6","6","5","3","5","4","3","5","5","4","6","5","5","7","6","4","3","3","6","4","5","3","5","680051628862078976","庞","460","Female","[""好我"",""坏她"",""坏我"",""好她""]","[""强我"",""弱她"",""弱我"",""强她""]","","","","","","","","match","","","","","","","","","","key","f","16.77591525423745","683","380","f","true","match","img/circle.png","强我","强我","prac_ALT2_ability","practice_ability","","","","","","","",""
"null","<span style='color:GreenYellow; font-size: 70px;'>正确! </span>","null","html-keyboard-response","85","385834","0.0-8.0-1.0-1.0-0.0-1.37","6","5","5","5","4","4","4","4","4","4","4","1","-2","0","1","0","1","1","1","4","4","5","5","4","3","4","3","3","4","5","5","5","5","3","4","5","5","5","5","5","5","6","4","4","4","5","6","5","4","3","4","3","6","4","5","6","6","5","3","5","4","3","5","5","4","6","5","5","7","6","4","3","3","6","4","5","3","5","680051628862078976","庞","460","Female","[""好我"",""坏她"",""坏我"",""好她""]","[""强我"",""弱她"",""弱我"",""强她""]","","","","","","","","","","","","","","","","","","","","","","","","","","","","","","feedback_test","","","","","","","",""
"1061","","f","psychophysics","86","387906","0.0-8.0-1.0-1.0-0.0-0.38","6","5","5","5","4","4","4","4","4","4","4","1","-2","0","1","0","1","1","1","4","4","5","5","4","3","4","3","3","4","5","5","5","5","3","4","5","5","5","5","5","5","6","4","4","4","5","6","5","4","3","4","3","6","4","5","6","6","5","3","5","4","3","5","5","4","6","5","5","7","6","4","3","3","6","4","5","3","5","680051628862078976","庞","460","Female","[""好我"",""坏她"",""坏我"",""好她""]","[""强我"",""弱她"",""弱我"",""强她""]","","","","","","","","match","","","","","","","","","","key","f","16.63634426229477","683","380","f","true","match","img/square.png","弱我","弱我","prac_ALT2_ability","practice_ability","","","","","","","",""
"null","<span style='color:GreenYellow; font-size: 70px;'>正确! </span>","null","html-keyboard-response","87","388415","0.0-8.0-1.0-1.0-0.0-1.38","6","5","5","5","4","4","4","4","4","4","4","1","-2","0","1","0","1","1","1","4","4","5","5","4","3","4","3","3","4","5","5","5","5","3","4","5","5","5","5","5","5","6","4","4","4","5","6","5","4","3","4","3","6","4","5","6","6","5","3","5","4","3","5","5","4","6","5","5","7","6","4","3","3","6","4","5","3","5","680051628862078976","庞","460","Female","[""好我"",""坏她"",""坏我"",""好她""]","[""强我"",""弱她"",""弱我"",""强她""]","","","","","","","","","","","","","","","","","","","","","","","","","","","","","","feedback_test","","","","","","","",""
"964","","j","psychophysics","88","390388","0.0-8.0-1.0-1.0-0.0-0.39","6","5","5","5","4","4","4","4","4","4","4","1","-2","0","1","0","1","1","1","4","4","5","5","4","3","4","3","3","4","5","5","5","5","3","4","5","5","5","5","5","5","6","4","4","4","5","6","5","4","3","4","3","6","4","5","6","6","5","3","5","4","3","5","5","4","6","5","5","7","6","4","3","3","6","4","5","3","5","680051628862078976","庞","460","Female","[""好我"",""坏她"",""坏我"",""好她""]","[""强我"",""弱她"",""弱我"",""强她""]","","","","","","","","nonmatch","","","","","","","","","","key","j","16.77983620689614","683","380","j","true","nonmatch","img/square.png","弱她","弱我","prac_ALT2_ability","practice_ability","","","","","","","",""
"null","<span style='color:GreenYellow; font-size: 70px;'>正确! </span>","null","html-keyboard-response","89","390897","0.0-8.0-1.0-1.0-0.0-1.39","6","5","5","5","4","4","4","4","4","4","4","1","-2","0","1","0","1","1","1","4","4","5","5","4","3","4","3","3","4","5","5","5","5","3","4","5","5","5","5","5","5","6","4","4","4","5","6","5","4","3","4","3","6","4","5","6","6","5","3","5","4","3","5","5","4","6","5","5","7","6","4","3","3","6","4","5","3","5","680051628862078976","庞","460","Female","[""好我"",""坏她"",""坏我"",""好她""]","[""强我"",""弱她"",""弱我"",""强她""]","","","","","","","","","","","","","","","","","","","","","","","","","","","","","","feedback_test","","","","","","","",""
"843","","f","psychophysics","90","392747","0.0-8.0-1.0-1.0-0.0-0.40","6","5","5","5","4","4","4","4","4","4","4","1","-2","0","1","0","1","1","1","4","4","5","5","4","3","4","3","3","4","5","5","5","5","3","4","5","5","5","5","5","5","6","4","4","4","5","6","5","4","3","4","3","6","4","5","6","6","5","3","5","4","3","5","5","4","6","5","5","7","6","4","3","3","6","4","5","3","5","680051628862078976","庞","460","Female","[""好我"",""坏她"",""坏我"",""好她""]","[""强我"",""弱她"",""弱我"",""强她""]","","","","","","","","match","","","","","","","","","","key","f","16.944453703703605","683","380","f","true","match","img/pentagon.png","强她","强她","prac_ALT2_ability","practice_ability","","","","","","","",""
"null","<span style='color:GreenYellow; font-size: 70px;'>正确! </span>","null","html-keyboard-response","91","393259","0.0-8.0-1.0-1.0-0.0-1.40","6","5","5","5","4","4","4","4","4","4","4","1","-2","0","1","0","1","1","1","4","4","5","5","4","3","4","3","3","4","5","5","5","5","3","4","5","5","5","5","5","5","6","4","4","4","5","6","5","4","3","4","3","6","4","5","6","6","5","3","5","4","3","5","5","4","6","5","5","7","6","4","3","3","6","4","5","3","5","680051628862078976","庞","460","Female","[""好我"",""坏她"",""坏我"",""好她""]","[""强我"",""弱她"",""弱我"",""强她""]","","","","","","","","","","","","","","","","","","","","","","","","","","","","","","feedback_test","","","","","","","",""
"886","","j","psychophysics","92","395154","0.0-8.0-1.0-1.0-0.0-0.41","6","5","5","5","4","4","4","4","4","4","4","1","-2","0","1","0","1","1","1","4","4","5","5","4","3","4","3","3","4","5","5","5","5","3","4","5","5","5","5","5","5","6","4","4","4","5","6","5","4","3","4","3","6","4","5","6","6","5","3","5","4","3","5","5","4","6","5","5","7","6","4","3","3","6","4","5","3","5","680051628862078976","庞","460","Female","[""好我"",""坏她"",""坏我"",""好她""]","[""强我"",""弱她"",""弱我"",""强她""]","","","","","","","","nonmatch","","","","","","","","","","key","j","16.784758928571268","683","380","j","true","nonmatch","img/triangle.png","弱我","弱她","prac_ALT2_ability","practice_ability","","","","","","","",""
"null","<span style='color:GreenYellow; font-size: 70px;'>正确! </span>","null","html-keyboard-response","93","395666","0.0-8.0-1.0-1.0-0.0-1.41","6","5","5","5","4","4","4","4","4","4","4","1","-2","0","1","0","1","1","1","4","4","5","5","4","3","4","3","3","4","5","5","5","5","3","4","5","5","5","5","5","5","6","4","4","4","5","6","5","4","3","4","3","6","4","5","6","6","5","3","5","4","3","5","5","4","6","5","5","7","6","4","3","3","6","4","5","3","5","680051628862078976","庞","460","Female","[""好我"",""坏她"",""坏我"",""好她""]","[""强我"",""弱她"",""弱我"",""强她""]","","","","","","","","","","","","","","","","","","","","","","","","","","","","","","feedback_test","","","","","","","",""
"1005","","j","psychophysics","94","397682","0.0-8.0-1.0-1.0-0.0-0.42","6","5","5","5","4","4","4","4","4","4","4","1","-2","0","1","0","1","1","1","4","4","5","5","4","3","4","3","3","4","5","5","5","5","3","4","5","5","5","5","5","5","6","4","4","4","5","6","5","4","3","4","3","6","4","5","6","6","5","3","5","4","3","5","5","4","6","5","5","7","6","4","3","3","6","4","5","3","5","680051628862078976","庞","460","Female","[""好我"",""坏她"",""坏我"",""好她""]","[""强我"",""弱她"",""弱我"",""强她""]","","","","","","","","nonmatch","","","","","","","","","","key","j","16.778033898305246","683","380","j","true","nonmatch","img/triangle.png","强她","弱她","prac_ALT2_ability","practice_ability","","","","","","","",""
"null","<span style='color:GreenYellow; font-size: 70px;'>正确! </span>","null","html-keyboard-response","95","398190","0.0-8.0-1.0-1.0-0.0-1.42","6","5","5","5","4","4","4","4","4","4","4","1","-2","0","1","0","1","1","1","4","4","5","5","4","3","4","3","3","4","5","5","5","5","3","4","5","5","5","5","5","5","6","4","4","4","5","6","5","4","3","4","3","6","4","5","6","6","5","3","5","4","3","5","5","4","6","5","5","7","6","4","3","3","6","4","5","3","5","680051628862078976","庞","460","Female","[""好我"",""坏她"",""坏我"",""好她""]","[""强我"",""弱她"",""弱我"",""强她""]","","","","","","","","","","","","","","","","","","","","","","","","","","","","","","feedback_test","","","","","","","",""
"935","","j","psychophysics","96","400130","0.0-8.0-1.0-1.0-0.0-0.43","6","5","5","5","4","4","4","4","4","4","4","1","-2","0","1","0","1","1","1","4","4","5","5","4","3","4","3","3","4","5","5","5","5","3","4","5","5","5","5","5","5","6","4","4","4","5","6","5","4","3","4","3","6","4","5","6","6","5","3","5","4","3","5","5","4","6","5","5","7","6","4","3","3","6","4","5","3","5","680051628862078976","庞","460","Female","[""好我"",""坏她"",""坏我"",""好她""]","[""强我"",""弱她"",""弱我"",""强她""]","","","","","","","","nonmatch","","","","","","","","","","key","j","16.636868421052657","683","380","j","true","nonmatch","img/pentagon.png","弱我","强她","prac_ALT2_ability","practice_ability","","","","","","","",""
"null","<span style='color:GreenYellow; font-size: 70px;'>正确! </span>","null","html-keyboard-response","97","400640","0.0-8.0-1.0-1.0-0.0-1.43","6","5","5","5","4","4","4","4","4","4","4","1","-2","0","1","0","1","1","1","4","4","5","5","4","3","4","3","3","4","5","5","5","5","3","4","5","5","5","5","5","5","6","4","4","4","5","6","5","4","3","4","3","6","4","5","6","6","5","3","5","4","3","5","5","4","6","5","5","7","6","4","3","3","6","4","5","3","5","680051628862078976","庞","460","Female","[""好我"",""坏她"",""坏我"",""好她""]","[""强我"",""弱她"",""弱我"",""强她""]","","","","","","","","","","","","","","","","","","","","","","","","","","","","","","feedback_test","","","","","","","",""
"879","","f","psychophysics","98","402528","0.0-8.0-1.0-1.0-0.0-0.44","6","5","5","5","4","4","4","4","4","4","4","1","-2","0","1","0","1","1","1","4","4","5","5","4","3","4","3","3","4","5","5","5","5","3","4","5","5","5","5","5","5","6","4","4","4","5","6","5","4","3","4","3","6","4","5","6","6","5","3","5","4","3","5","5","4","6","5","5","7","6","4","3","3","6","4","5","3","5","680051628862078976","庞","460","Female","[""好我"",""坏她"",""坏我"",""好她""]","[""强我"",""弱她"",""弱我"",""强她""]","","","","","","","","match","","","","","","","","","","key","f","16.936118181818166","683","380","f","true","match","img/triangle.png","弱她","弱她","prac_ALT2_ability","practice_ability","","","","","","","",""
"null","<span style='color:GreenYellow; font-size: 70px;'>正确! </span>","null","html-keyboard-response","99","403038","0.0-8.0-1.0-1.0-0.0-1.44","6","5","5","5","4","4","4","4","4","4","4","1","-2","0","1","0","1","1","1","4","4","5","5","4","3","4","3","3","4","5","5","5","5","3","4","5","5","5","5","5","5","6","4","4","4","5","6","5","4","3","4","3","6","4","5","6","6","5","3","5","4","3","5","5","4","6","5","5","7","6","4","3","3","6","4","5","3","5","680051628862078976","庞","460","Female","[""好我"",""坏她"",""坏我"",""好她""]","[""强我"",""弱她"",""弱我"",""强她""]","","","","","","","","","","","","","","","","","","","","","","","","","","","","","","feedback_test","","","","","","","",""
"882","","j","psychophysics","100","404926","0.0-8.0-1.0-1.0-0.0-0.45","6","5","5","5","4","4","4","4","4","4","4","1","-2","0","1","0","1","1","1","4","4","5","5","4","3","4","3","3","4","5","5","5","5","3","4","5","5","5","5","5","5","6","4","4","4","5","6","5","4","3","4","3","6","4","5","6","6","5","3","5","4","3","5","5","4","6","5","5","7","6","4","3","3","6","4","5","3","5","680051628862078976","庞","460","Female","[""好我"",""坏她"",""坏我"",""好她""]","[""强我"",""弱她"",""弱我"",""强她""]","","","","","","","","nonmatch","","","","","","","","","","key","j","16.635026785714476","683","380","j","true","nonmatch","img/circle.png","弱她","强我","prac_ALT2_ability","practice_ability","","","","","","","",""
"null","<span style='color:GreenYellow; font-size: 70px;'>正确! </span>","null","html-keyboard-response","101","405437","0.0-8.0-1.0-1.0-0.0-1.45","6","5","5","5","4","4","4","4","4","4","4","1","-2","0","1","0","1","1","1","4","4","5","5","4","3","4","3","3","4","5","5","5","5","3","4","5","5","5","5","5","5","6","4","4","4","5","6","5","4","3","4","3","6","4","5","6","6","5","3","5","4","3","5","5","4","6","5","5","7","6","4","3","3","6","4","5","3","5","680051628862078976","庞","460","Female","[""好我"",""坏她"",""坏我"",""好她""]","[""强我"",""弱她"",""弱我"",""强她""]","","","","","","","","","","","","","","","","","","","","","","","","","","","","","","feedback_test","","","","","","","",""
"986","","j","psychophysics","102","407431","0.0-8.0-1.0-1.0-0.0-0.46","6","5","5","5","4","4","4","4","4","4","4","1","-2","0","1","0","1","1","1","4","4","5","5","4","3","4","3","3","4","5","5","5","5","3","4","5","5","5","5","5","5","6","4","4","4","5","6","5","4","3","4","3","6","4","5","6","6","5","3","5","4","3","5","5","4","6","5","5","7","6","4","3","3","6","4","5","3","5","680051628862078976","庞","460","Female","[""好我"",""坏她"",""坏我"",""好她""]","[""强我"",""弱她"",""弱我"",""强她""]","","","","","","","","nonmatch","","","","","","","","","","key","j","16.777076271186008","683","380","j","true","nonmatch","img/pentagon.png","强我","强她","prac_ALT2_ability","practice_ability","","","","","","","",""
"null","<span style='color:GreenYellow; font-size: 70px;'>正确! </span>","null","html-keyboard-response","103","407940","0.0-8.0-1.0-1.0-0.0-1.46","6","5","5","5","4","4","4","4","4","4","4","1","-2","0","1","0","1","1","1","4","4","5","5","4","3","4","3","3","4","5","5","5","5","3","4","5","5","5","5","5","5","6","4","4","4","5","6","5","4","3","4","3","6","4","5","6","6","5","3","5","4","3","5","5","4","6","5","5","7","6","4","3","3","6","4","5","3","5","680051628862078976","庞","460","Female","[""好我"",""坏她"",""坏我"",""好她""]","[""强我"",""弱她"",""弱我"",""强她""]","","","","","","","","","","","","","","","","","","","","","","","","","","","","","","feedback_test","","","","","","","",""
"925","","j","psychophysics","104","409874","0.0-8.0-1.0-1.0-0.0-0.47","6","5","5","5","4","4","4","4","4","4","4","1","-2","0","1","0","1","1","1","4","4","5","5","4","3","4","3","3","4","5","5","5","5","3","4","5","5","5","5","5","5","6","4","4","4","5","6","5","4","3","4","3","6","4","5","6","6","5","3","5","4","3","5","5","4","6","5","5","7","6","4","3","3","6","4","5","3","5","680051628862078976","庞","460","Female","[""好我"",""坏她"",""坏我"",""好她""]","[""强我"",""弱她"",""弱我"",""强她""]","","","","","","","","nonmatch","","","","","","","","","","key","j","16.637008771929878","683","380","j","true","nonmatch","img/triangle.png","强我","弱她","prac_ALT2_ability","practice_ability","","","","","","","",""
"null","<span style='color:GreenYellow; font-size: 70px;'>正确! </span>","null","html-keyboard-response","105","410378","0.0-8.0-1.0-1.0-0.0-1.47","6","5","5","5","4","4","4","4","4","4","4","1","-2","0","1","0","1","1","1","4","4","5","5","4","3","4","3","3","4","5","5","5","5","3","4","5","5","5","5","5","5","6","4","4","4","5","6","5","4","3","4","3","6","4","5","6","6","5","3","5","4","3","5","5","4","6","5","5","7","6","4","3","3","6","4","5","3","5","680051628862078976","庞","460","Female","[""好我"",""坏她"",""坏我"",""好她""]","[""强我"",""弱她"",""弱我"",""强她""]","","","","","","","","","","","","","","","","","","","","","","","","","","","","","","feedback_test","","","","","","","",""
"11359","<style>.context{color:white; font-size: 35px; line-height:40px}</style>                          <div><p class='context'>您正确回答了85% 的试次。</p><p class='context'>您的平均反应时为957毫秒。</p><p class='context'>恭喜您完成练习。按空格键进入正式实验。</p><p class='footer' style='color:white;font-size: 35px; line-height:40px;'>请在进入正式实验实验之前将您的<span style='color: lightgreen;'>食指</span>放在电脑键盘的相应键位上进行按键。</p>"," ","html-keyboard-response","106","421751","0.0-8.0-1.0-2.0","6","5","5","5","4","4","4","4","4","4","4","1","-2","0","1","0","1","1","1","4","4","5","5","4","3","4","3","3","4","5","5","5","5","3","4","5","5","5","5","5","5","6","4","4","4","5","6","5","4","3","4","3","6","4","5","6","6","5","3","5","4","3","5","5","4","6","5","5","7","6","4","3","3","6","4","5","3","5","680051628862078976","庞","460","Female","[""好我"",""坏她"",""坏我"",""好她""]","[""强我"",""弱她"",""弱我"",""强她""]","","","","","","","","","","","","","","","","","","","","","","","","","","","","","","","","","","","","","",""
"2561","
  <p style='color: white; font-size: 22px'>请您将手指放在按键上，准备进入正式的匹配任务。</p>
  <p> <div style = ""color: green""><按空格键进入下一阶段的匹配任务></div></p>
  "," ","html-keyboard-response","107","424319","0.0-8.0-1.0-3.0","6","5","5","5","4","4","4","4","4","4","4","1","-2","0","1","0","1","1","1","4","4","5","5","4","3","4","3","3","4","5","5","5","5","3","4","5","5","5","5","5","5","6","4","4","4","5","6","5","4","3","4","3","6","4","5","6","6","5","3","5","4","3","5","5","4","6","5","5","7","6","4","3","3","6","4","5","3","5","680051628862078976","庞","460","Female","[""好我"",""坏她"",""坏我"",""好她""]","[""强我"",""弱她"",""弱我"",""强她""]","","","","","","","","","","","","","","","","","","","","","","","","","","","","","","","","","","","","","",""
"916","","j","psychophysics","108","426250","0.0-8.0-1.0-4.0-0.0-0.0","6","5","5","5","4","4","4","4","4","4","4","1","-2","0","1","0","1","1","1","4","4","5","5","4","3","4","3","3","4","5","5","5","5","3","4","5","5","5","5","5","5","6","4","4","4","5","6","5","4","3","4","3","6","4","5","6","6","5","3","5","4","3","5","5","4","6","5","5","7","6","4","3","3","6","4","5","3","5","680051628862078976","庞","460","Female","[""好我"",""坏她"",""坏我"",""好她""]","[""强我"",""弱她"",""弱我"",""强她""]","","","","","","","","nonmatch","","","","","","","","","","key","j","16.6352105263157","683","380","j","true","nonmatch","img/square.png","强她","弱我","ALT2","ability","","","","","","","",""
"null","<span style='color:GreenYellow; font-size: 70px;'>正确! </span>","null","html-keyboard-response","109","426755","0.0-8.0-1.0-4.0-0.0-1.0","6","5","5","5","4","4","4","4","4","4","4","1","-2","0","1","0","1","1","1","4","4","5","5","4","3","4","3","3","4","5","5","5","5","3","4","5","5","5","5","5","5","6","4","4","4","5","6","5","4","3","4","3","6","4","5","6","6","5","3","5","4","3","5","5","4","6","5","5","7","6","4","3","3","6","4","5","3","5","680051628862078976","庞","460","Female","[""好我"",""坏她"",""坏我"",""好她""]","[""强我"",""弱她"",""弱我"",""强她""]","","","","","","","","","","","","","","","","","","","","","","","","","","","","","","feedback_test","","","","","","","",""
"769","","f","psychophysics","110","428531","0.0-8.0-1.0-4.0-0.0-0.1","6","5","5","5","4","4","4","4","4","4","4","1","-2","0","1","0","1","1","1","4","4","5","5","4","3","4","3","3","4","5","5","5","5","3","4","5","5","5","5","5","5","6","4","4","4","5","6","5","4","3","4","3","6","4","5","6","6","5","3","5","4","3","5","5","4","6","5","5","7","6","4","3","3","6","4","5","3","5","680051628862078976","庞","460","Female","[""好我"",""坏她"",""坏我"",""好她""]","[""强我"",""弱她"",""弱我"",""强她""]","","","","","","","","match","","","","","","","","","","key","f","16.63689523809534","683","380","f","true","match","img/pentagon.png","强她","强她","ALT2","ability","","","","","","","",""
"null","<span style='color:GreenYellow; font-size: 70px;'>正确! </span>","null","html-keyboard-response","111","429037","0.0-8.0-1.0-4.0-0.0-1.1","6","5","5","5","4","4","4","4","4","4","4","1","-2","0","1","0","1","1","1","4","4","5","5","4","3","4","3","3","4","5","5","5","5","3","4","5","5","5","5","5","5","6","4","4","4","5","6","5","4","3","4","3","6","4","5","6","6","5","3","5","4","3","5","5","4","6","5","5","7","6","4","3","3","6","4","5","3","5","680051628862078976","庞","460","Female","[""好我"",""坏她"",""坏我"",""好她""]","[""强我"",""弱她"",""弱我"",""强她""]","","","","","","","","","","","","","","","","","","","","","","","","","","","","","","feedback_test","","","","","","","",""
"729","","j","psychophysics","112","430772","0.0-8.0-1.0-4.0-0.0-0.2","6","5","5","5","4","4","4","4","4","4","4","1","-2","0","1","0","1","1","1","4","4","5","5","4","3","4","3","3","4","5","5","5","5","3","4","5","5","5","5","5","5","6","4","4","4","5","6","5","4","3","4","3","6","4","5","6","6","5","3","5","4","3","5","5","4","6","5","5","7","6","4","3","3","6","4","5","3","5","680051628862078976","庞","460","Female","[""好我"",""坏她"",""坏我"",""好她""]","[""强我"",""弱她"",""弱我"",""强她""]","","","","","","","","nonmatch","","","","","","","","","","key","j","16.79988235294107","683","380","j","true","nonmatch","img/circle.png","弱她","强我","ALT2","ability","","","","","","","",""
"null","<span style='color:GreenYellow; font-size: 70px;'>正确! </span>","null","html-keyboard-response","113","431278","0.0-8.0-1.0-4.0-0.0-1.2","6","5","5","5","4","4","4","4","4","4","4","1","-2","0","1","0","1","1","1","4","4","5","5","4","3","4","3","3","4","5","5","5","5","3","4","5","5","5","5","5","5","6","4","4","4","5","6","5","4","3","4","3","6","4","5","6","6","5","3","5","4","3","5","5","4","6","5","5","7","6","4","3","3","6","4","5","3","5","680051628862078976","庞","460","Female","[""好我"",""坏她"",""坏我"",""好她""]","[""强我"",""弱她"",""弱我"",""强她""]","","","","","","","","","","","","","","","","","","","","","","","","","","","","","","feedback_test","","","","","","","",""
"840","","j","psychophysics","114","433130","0.0-8.0-1.0-4.0-0.0-0.3","6","5","5","5","4","4","4","4","4","4","4","1","-2","0","1","0","1","1","1","4","4","5","5","4","3","4","3","3","4","5","5","5","5","3","4","5","5","5","5","5","5","6","4","4","4","5","6","5","4","3","4","3","6","4","5","6","6","5","3","5","4","3","5","5","4","6","5","5","7","6","4","3","3","6","4","5","3","5","680051628862078976","庞","460","Female","[""好我"",""坏她"",""坏我"",""好她""]","[""强我"",""弱她"",""弱我"",""强她""]","","","","","","","","nonmatch","","","","","","","","","","key","j","16.63720000000004","683","380","f","false","match","img/pentagon.png","强她","强她","ALT2","ability","","","","","","","",""
"null","<span style='color:red; font-size: 70px;'>错误! </span>","null","html-keyboard-response","115","433636","0.0-8.0-1.0-4.0-0.0-1.3","6","5","5","5","4","4","4","4","4","4","4","1","-2","0","1","0","1","1","1","4","4","5","5","4","3","4","3","3","4","5","5","5","5","3","4","5","5","5","5","5","5","6","4","4","4","5","6","5","4","3","4","3","6","4","5","6","6","5","3","5","4","3","5","5","4","6","5","5","7","6","4","3","3","6","4","5","3","5","680051628862078976","庞","460","Female","[""好我"",""坏她"",""坏我"",""好她""]","[""强我"",""弱她"",""弱我"",""强她""]","","","","","","","","","","","","","","","","","","","","","","","","","","","","","","feedback_test","","","","","","","",""
"900","","f","psychophysics","116","435551","0.0-8.0-1.0-4.0-0.0-0.4","6","5","5","5","4","4","4","4","4","4","4","1","-2","0","1","0","1","1","1","4","4","5","5","4","3","4","3","3","4","5","5","5","5","3","4","5","5","5","5","5","5","6","4","4","4","5","6","5","4","3","4","3","6","4","5","6","6","5","3","5","4","3","5","5","4","6","5","5","7","6","4","3","3","6","4","5","3","5","680051628862078976","庞","460","Female","[""好我"",""坏她"",""坏我"",""好她""]","[""强我"",""弱她"",""弱我"",""强她""]","","","","","","","","match","","","","","","","","","","key","f","16.6363982300885","683","380","f","true","match","img/square.png","弱我","弱我","ALT2","ability","","","","","","","",""
"null","<span style='color:GreenYellow; font-size: 70px;'>正确! </span>","null","html-keyboard-response","117","436059","0.0-8.0-1.0-4.0-0.0-1.4","6","5","5","5","4","4","4","4","4","4","4","1","-2","0","1","0","1","1","1","4","4","5","5","4","3","4","3","3","4","5","5","5","5","3","4","5","5","5","5","5","5","6","4","4","4","5","6","5","4","3","4","3","6","4","5","6","6","5","3","5","4","3","5","5","4","6","5","5","7","6","4","3","3","6","4","5","3","5","680051628862078976","庞","460","Female","[""好我"",""坏她"",""坏我"",""好她""]","[""强我"",""弱她"",""弱我"",""强她""]","","","","","","","","","","","","","","","","","","","","","","","","","","","","","","feedback_test","","","","","","","",""
"897","","f","psychophysics","118","437967","0.0-8.0-1.0-4.0-0.0-0.5","6","5","5","5","4","4","4","4","4","4","4","1","-2","0","1","0","1","1","1","4","4","5","5","4","3","4","3","3","4","5","5","5","5","3","4","5","5","5","5","5","5","6","4","4","4","5","6","5","4","3","4","3","6","4","5","6","6","5","3","5","4","3","5","5","4","6","5","5","7","6","4","3","3","6","4","5","3","5","680051628862078976","庞","460","Female","[""好我"",""坏她"",""坏我"",""好她""]","[""强我"",""弱她"",""弱我"",""强她""]","","","","","","","","match","","","","","","","","","","key","f","16.78105309734531","683","380","f","true","match","img/triangle.png","弱她","弱她","ALT2","ability","","","","","","","",""
"null","<span style='color:GreenYellow; font-size: 70px;'>正确! </span>","null","html-keyboard-response","119","438471","0.0-8.0-1.0-4.0-0.0-1.5","6","5","5","5","4","4","4","4","4","4","4","1","-2","0","1","0","1","1","1","4","4","5","5","4","3","4","3","3","4","5","5","5","5","3","4","5","5","5","5","5","5","6","4","4","4","5","6","5","4","3","4","3","6","4","5","6","6","5","3","5","4","3","5","5","4","6","5","5","7","6","4","3","3","6","4","5","3","5","680051628862078976","庞","460","Female","[""好我"",""坏她"",""坏我"",""好她""]","[""强我"",""弱她"",""弱我"",""强她""]","","","","","","","","","","","","","","","","","","","","","","","","","","","","","","feedback_test","","","","","","","",""
"853","","j","psychophysics","120","440332","0.0-8.0-1.0-4.0-0.0-0.6","6","5","5","5","4","4","4","4","4","4","4","1","-2","0","1","0","1","1","1","4","4","5","5","4","3","4","3","3","4","5","5","5","5","3","4","5","5","5","5","5","5","6","4","4","4","5","6","5","4","3","4","3","6","4","5","6","6","5","3","5","4","3","5","5","4","6","5","5","7","6","4","3","3","6","4","5","3","5","680051628862078976","庞","460","Female","[""好我"",""坏她"",""坏我"",""好她""]","[""强我"",""弱她"",""弱我"",""强她""]","","","","","","","","nonmatch","","","","","","","","","","key","j","16.787754545454465","683","380","j","true","nonmatch","img/triangle.png","强她","弱她","ALT2","ability","","","","","","","",""
"null","<span style='color:GreenYellow; font-size: 70px;'>正确! </span>","null","html-keyboard-response","121","440845","0.0-8.0-1.0-4.0-0.0-1.6","6","5","5","5","4","4","4","4","4","4","4","1","-2","0","1","0","1","1","1","4","4","5","5","4","3","4","3","3","4","5","5","5","5","3","4","5","5","5","5","5","5","6","4","4","4","5","6","5","4","3","4","3","6","4","5","6","6","5","3","5","4","3","5","5","4","6","5","5","7","6","4","3","3","6","4","5","3","5","680051628862078976","庞","460","Female","[""好我"",""坏她"",""坏我"",""好她""]","[""强我"",""弱她"",""弱我"",""强她""]","","","","","","","","","","","","","","","","","","","","","","","","","","","","","","feedback_test","","","","","","","",""
"1140","","j","psychophysics","122","442994","0.0-8.0-1.0-4.0-0.0-0.7","6","5","5","5","4","4","4","4","4","4","4","1","-2","0","1","0","1","1","1","4","4","5","5","4","3","4","3","3","4","5","5","5","5","3","4","5","5","5","5","5","5","6","4","4","4","5","6","5","4","3","4","3","6","4","5","6","6","5","3","5","4","3","5","5","4","6","5","5","7","6","4","3","3","6","4","5","3","5","680051628862078976","庞","460","Female","[""好我"",""坏她"",""坏我"",""好她""]","[""强我"",""弱她"",""弱我"",""强她""]","","","","","","","","nonmatch","","","","","","","","","","key","j","16.767102362204426","683","380","j","true","nonmatch","img/pentagon.png","强我","强她","ALT2","ability","","","","","","","",""
"null","<span style='color:GreenYellow; font-size: 70px;'>正确! </span>","null","html-keyboard-response","123","443505","0.0-8.0-1.0-4.0-0.0-1.7","6","5","5","5","4","4","4","4","4","4","4","1","-2","0","1","0","1","1","1","4","4","5","5","4","3","4","3","3","4","5","5","5","5","3","4","5","5","5","5","5","5","6","4","4","4","5","6","5","4","3","4","3","6","4","5","6","6","5","3","5","4","3","5","5","4","6","5","5","7","6","4","3","3","6","4","5","3","5","680051628862078976","庞","460","Female","[""好我"",""坏她"",""坏我"",""好她""]","[""强我"",""弱她"",""弱我"",""强她""]","","","","","","","","","","","","","","","","","","","","","","","","","","","","","","feedback_test","","","","","","","",""
"958","","j","psychophysics","124","445473","0.0-8.0-1.0-4.0-0.0-0.8","6","5","5","5","4","4","4","4","4","4","4","1","-2","0","1","0","1","1","1","4","4","5","5","4","3","4","3","3","4","5","5","5","5","3","4","5","5","5","5","5","5","6","4","4","4","5","6","5","4","3","4","3","6","4","5","6","6","5","3","5","4","3","5","5","4","6","5","5","7","6","4","3","3","6","4","5","3","5","680051628862078976","庞","460","Female","[""好我"",""坏她"",""坏我"",""好她""]","[""强我"",""弱她"",""弱我"",""强她""]","","","","","","","","nonmatch","","","","","","","","","","key","j","16.7799396551724","683","380","j","true","nonmatch","img/pentagon.png","弱她","强她","ALT2","ability","","","","","","","",""
"null","<span style='color:GreenYellow; font-size: 70px;'>正确! </span>","null","html-keyboard-response","125","445983","0.0-8.0-1.0-4.0-0.0-1.8","6","5","5","5","4","4","4","4","4","4","4","1","-2","0","1","0","1","1","1","4","4","5","5","4","3","4","3","3","4","5","5","5","5","3","4","5","5","5","5","5","5","6","4","4","4","5","6","5","4","3","4","3","6","4","5","6","6","5","3","5","4","3","5","5","4","6","5","5","7","6","4","3","3","6","4","5","3","5","680051628862078976","庞","460","Female","[""好我"",""坏她"",""坏我"",""好她""]","[""强我"",""弱她"",""弱我"",""强她""]","","","","","","","","","","","","","","","","","","","","","","","","","","","","","","feedback_test","","","","","","","",""
"840","","f","psychophysics","126","447834","0.0-8.0-1.0-4.0-0.0-0.9","6","5","5","5","4","4","4","4","4","4","4","1","-2","0","1","0","1","1","1","4","4","5","5","4","3","4","3","3","4","5","5","5","5","3","4","5","5","5","5","5","5","6","4","4","4","5","6","5","4","3","4","3","6","4","5","6","6","5","3","5","4","3","5","5","4","6","5","5","7","6","4","3","3","6","4","5","3","5","680051628862078976","庞","460","Female","[""好我"",""坏她"",""坏我"",""好她""]","[""强我"",""弱她"",""弱我"",""强她""]","","","","","","","","match","","","","","","","","","","key","f","16.789559633027306","683","380","f","true","match","img/triangle.png","弱她","弱她","ALT2","ability","","","","","","","",""
"null","<span style='color:GreenYellow; font-size: 70px;'>正确! </span>","null","html-keyboard-response","127","448342","0.0-8.0-1.0-4.0-0.0-1.9","6","5","5","5","4","4","4","4","4","4","4","1","-2","0","1","0","1","1","1","4","4","5","5","4","3","4","3","3","4","5","5","5","5","3","4","5","5","5","5","5","5","6","4","4","4","5","6","5","4","3","4","3","6","4","5","6","6","5","3","5","4","3","5","5","4","6","5","5","7","6","4","3","3","6","4","5","3","5","680051628862078976","庞","460","Female","[""好我"",""坏她"",""坏我"",""好她""]","[""强我"",""弱她"",""弱我"",""强她""]","","","","","","","","","","","","","","","","","","","","","","","","","","","","","","feedback_test","","","","","","","",""
"1026","","j","psychophysics","128","450382","0.0-8.0-1.0-4.0-0.0-0.10","6","5","5","5","4","4","4","4","4","4","4","1","-2","0","1","0","1","1","1","4","4","5","5","4","3","4","3","3","4","5","5","5","5","3","4","5","5","5","5","5","5","6","4","4","4","5","6","5","4","3","4","3","6","4","5","6","6","5","3","5","4","3","5","5","4","6","5","5","7","6","4","3","3","6","4","5","3","5","680051628862078976","庞","460","Female","[""好我"",""坏她"",""坏我"",""好她""]","[""强我"",""弱她"",""弱我"",""强她""]","","","","","","","","nonmatch","","","","","","","","","","key","j","16.77554999999993","683","380","f","false","match","img/triangle.png","弱她","弱她","ALT2","ability","","","","","","","",""
"null","<span style='color:red; font-size: 70px;'>错误! </span>","null","html-keyboard-response","129","450893","0.0-8.0-1.0-4.0-0.0-1.10","6","5","5","5","4","4","4","4","4","4","4","1","-2","0","1","0","1","1","1","4","4","5","5","4","3","4","3","3","4","5","5","5","5","3","4","5","5","5","5","5","5","6","4","4","4","5","6","5","4","3","4","3","6","4","5","6","6","5","3","5","4","3","5","5","4","6","5","5","7","6","4","3","3","6","4","5","3","5","680051628862078976","庞","460","Female","[""好我"",""坏她"",""坏我"",""好她""]","[""强我"",""弱她"",""弱我"",""强她""]","","","","","","","","","","","","","","","","","","","","","","","","","","","","","","feedback_test","","","","","","","",""
"913","","f","psychophysics","130","452822","0.0-8.0-1.0-4.0-0.0-0.11","6","5","5","5","4","4","4","4","4","4","4","1","-2","0","1","0","1","1","1","4","4","5","5","4","3","4","3","3","4","5","5","5","5","3","4","5","5","5","5","5","5","6","4","4","4","5","6","5","4","3","4","3","6","4","5","6","6","5","3","5","4","3","5","5","4","6","5","5","7","6","4","3","3","6","4","5","3","5","680051628862078976","庞","460","Female","[""好我"",""坏她"",""坏我"",""好她""]","[""强我"",""弱她"",""弱我"",""强她""]","","","","","","","","match","","","","","","","","","","key","f","16.782283185840587","683","380","f","true","match","img/square.png","弱我","弱我","ALT2","ability","","","","","","","",""
"null","<span style='color:GreenYellow; font-size: 70px;'>正确! </span>","null","html-keyboard-response","131","453328","0.0-8.0-1.0-4.0-0.0-1.11","6","5","5","5","4","4","4","4","4","4","4","1","-2","0","1","0","1","1","1","4","4","5","5","4","3","4","3","3","4","5","5","5","5","3","4","5","5","5","5","5","5","6","4","4","4","5","6","5","4","3","4","3","6","4","5","6","6","5","3","5","4","3","5","5","4","6","5","5","7","6","4","3","3","6","4","5","3","5","680051628862078976","庞","460","Female","[""好我"",""坏她"",""坏我"",""好她""]","[""强我"",""弱她"",""弱我"",""强她""]","","","","","","","","","","","","","","","","","","","","","","","","","","","","","","feedback_test","","","","","","","",""
"946","","f","psychophysics","132","455281","0.0-8.0-1.0-4.0-0.0-0.12","6","5","5","5","4","4","4","4","4","4","4","1","-2","0","1","0","1","1","1","4","4","5","5","4","3","4","3","3","4","5","5","5","5","3","4","5","5","5","5","5","5","6","4","4","4","5","6","5","4","3","4","3","6","4","5","6","6","5","3","5","4","3","5","5","4","6","5","5","7","6","4","3","3","6","4","5","3","5","680051628862078976","庞","460","Female","[""好我"",""坏她"",""坏我"",""好她""]","[""强我"",""弱她"",""弱我"",""强她""]","","","","","","","","match","","","","","","","","","","key","f","16.63556410256389","683","380","f","true","match","img/pentagon.png","强她","强她","ALT2","ability","","","","","","","",""
"null","<span style='color:GreenYellow; font-size: 70px;'>正确! </span>","null","html-keyboard-response","133","455792","0.0-8.0-1.0-4.0-0.0-1.12","6","5","5","5","4","4","4","4","4","4","4","1","-2","0","1","0","1","1","1","4","4","5","5","4","3","4","3","3","4","5","5","5","5","3","4","5","5","5","5","5","5","6","4","4","4","5","6","5","4","3","4","3","6","4","5","6","6","5","3","5","4","3","5","5","4","6","5","5","7","6","4","3","3","6","4","5","3","5","680051628862078976","庞","460","Female","[""好我"",""坏她"",""坏我"",""好她""]","[""强我"",""弱她"",""弱我"",""强她""]","","","","","","","","","","","","","","","","","","","","","","","","","","","","","","feedback_test","","","","","","","",""
"886","","f","psychophysics","134","457685","0.0-8.0-1.0-4.0-0.0-0.13","6","5","5","5","4","4","4","4","4","4","4","1","-2","0","1","0","1","1","1","4","4","5","5","4","3","4","3","3","4","5","5","5","5","3","4","5","5","5","5","5","5","6","4","4","4","5","6","5","4","3","4","3","6","4","5","6","6","5","3","5","4","3","5","5","4","6","5","5","7","6","4","3","3","6","4","5","3","5","680051628862078976","庞","460","Female","[""好我"",""坏她"",""坏我"",""好她""]","[""强我"",""弱她"",""弱我"",""强她""]","","","","","","","","match","","","","","","","","","","key","f","16.637437499999837","683","380","f","true","match","img/circle.png","强我","强我","ALT2","ability","","","","","","","",""
"null","<span style='color:GreenYellow; font-size: 70px;'>正确! </span>","null","html-keyboard-response","135","458189","0.0-8.0-1.0-4.0-0.0-1.13","6","5","5","5","4","4","4","4","4","4","4","1","-2","0","1","0","1","1","1","4","4","5","5","4","3","4","3","3","4","5","5","5","5","3","4","5","5","5","5","5","5","6","4","4","4","5","6","5","4","3","4","3","6","4","5","6","6","5","3","5","4","3","5","5","4","6","5","5","7","6","4","3","3","6","4","5","3","5","680051628862078976","庞","460","Female","[""好我"",""坏她"",""坏我"",""好她""]","[""强我"",""弱她"",""弱我"",""强她""]","","","","","","","","","","","","","","","","","","","","","","","","","","","","","","feedback_test","","","","","","","",""
"752","","f","psychophysics","136","459946","0.0-8.0-1.0-4.0-0.0-0.14","6","5","5","5","4","4","4","4","4","4","4","1","-2","0","1","0","1","1","1","4","4","5","5","4","3","4","3","3","4","5","5","5","5","3","4","5","5","5","5","5","5","6","4","4","4","5","6","5","4","3","4","3","6","4","5","6","6","5","3","5","4","3","5","5","4","6","5","5","7","6","4","3","3","6","4","5","3","5","680051628862078976","庞","460","Female","[""好我"",""坏她"",""坏我"",""好她""]","[""强我"",""弱她"",""弱我"",""强她""]","","","","","","","","match","","","","","","","","","","key","f","16.63680769230772","683","380","f","true","match","img/circle.png","强我","强我","ALT2","ability","","","","","","","",""
"null","<span style='color:GreenYellow; font-size: 70px;'>正确! </span>","null","html-keyboard-response","137","460454","0.0-8.0-1.0-4.0-0.0-1.14","6","5","5","5","4","4","4","4","4","4","4","1","-2","0","1","0","1","1","1","4","4","5","5","4","3","4","3","3","4","5","5","5","5","3","4","5","5","5","5","5","5","6","4","4","4","5","6","5","4","3","4","3","6","4","5","6","6","5","3","5","4","3","5","5","4","6","5","5","7","6","4","3","3","6","4","5","3","5","680051628862078976","庞","460","Female","[""好我"",""坏她"",""坏我"",""好她""]","[""强我"",""弱她"",""弱我"",""强她""]","","","","","","","","","","","","","","","","","","","","","","","","","","","","","","feedback_test","","","","","","","",""
"950","","f","psychophysics","138","462416","0.0-8.0-1.0-4.0-0.0-0.15","6","5","5","5","4","4","4","4","4","4","4","1","-2","0","1","0","1","1","1","4","4","5","5","4","3","4","3","3","4","5","5","5","5","3","4","5","5","5","5","5","5","6","4","4","4","5","6","5","4","3","4","3","6","4","5","6","6","5","3","5","4","3","5","5","4","6","5","5","7","6","4","3","3","6","4","5","3","5","680051628862078976","庞","460","Female","[""好我"",""坏她"",""坏我"",""好她""]","[""强我"",""弱她"",""弱我"",""强她""]","","","","","","","","match","","","","","","","","","","key","f","16.781026086956263","683","380","f","true","match","img/circle.png","强我","强我","ALT2","ability","","","","","","","",""
"null","<span style='color:GreenYellow; font-size: 70px;'>正确! </span>","null","html-keyboard-response","139","462924","0.0-8.0-1.0-4.0-0.0-1.15","6","5","5","5","4","4","4","4","4","4","4","1","-2","0","1","0","1","1","1","4","4","5","5","4","3","4","3","3","4","5","5","5","5","3","4","5","5","5","5","5","5","6","4","4","4","5","6","5","4","3","4","3","6","4","5","6","6","5","3","5","4","3","5","5","4","6","5","5","7","6","4","3","3","6","4","5","3","5","680051628862078976","庞","460","Female","[""好我"",""坏她"",""坏我"",""好她""]","[""强我"",""弱她"",""弱我"",""强她""]","","","","","","","","","","","","","","","","","","","","","","","","","","","","","","feedback_test","","","","","","","",""
