"rt","stimulus","response","trial_type","trial_index","time_elapsed","internal_node_id","swb_1","swb_2","swb_3","swb_4","swb_5","LOT_1","LOT_2","LOT_3","LOT_4","LOT_5","LOT_6","IPC_1","IPC_2","IPC_3","IPC_4","IPC_5","IPC_6","IPC_7","IPC_8","MorIden_1","MorIden_2","MorIden_3","MorIden_4","MorIden_5","MorIden_6","MorIden_7","MorIden_8","MorIden_9","MorIden_10","moralSeImag_1","moralSeImag_2","moralSeImag_3","moralSeImag_4","moralSeImag_5","moralSeImag_6","moralSeImag_7","moralSeImag_8","moralSeImag_9","sde_1","sde_2","sde_3","sde_4","sde_5","sde_6","sde_7","sde_8","sde_9","sde_10","sde_11","sde_12","sde_13","sde_14","sde_15","sde_16","sde_17","sde_18","sde_19","sde_20","IM_1","IM_2","IM_3","IM_4","IM_5","IM_6","IM_7","IM_8","IM_9","IM_10","IM_11","IM_12","IM_13","IM_14","IM_15","IM_16","IM_17","IM_18","IM_19","IM_20","subj_idx","friend_name","ParticipantID","Sex","Word","Word2","value","success","timeout","failed_images","failed_audio","failed_video","user_agent","responses","item_order","radio_event_ids","radio_event_times","key_event_times","mouse_event_times","straightlining","zigzagging","honeypot","task_id","screen_id","time_stamp","response_type","key_press","avg_frame_time","center_x","center_y","person","word","valence","domain","math","correct_response","correct","status","view_history","identity","duration","Image","condition","question_order"
"96420","
   <p><div style='color:white; font-size: 25px'>您好，欢迎参加本次实验。</div></p>
   <p><div style='color:white; font-size: 25px'>为充分保障您的权利，请确保您已经知晓并同意《参与实验同意书》以及《数据公开知情同意书》。</div></p>
   <p><div style='color:white; font-size: 25px'>如果您未见过上述内容，请咨询实验员。</div></p>
   <p style='color:white; font-size: 25px'>如果您选择继续实验，则表示您已经清楚两份知情同意书的内容并同意。</p>
   <p><div style = ""color: red;font-size:30px;"">请确保您记得day0的实验编号，您将在本次实验输入该编号，若您忘记，请咨询实验员后作答。</div></p>
   <p> <div style = ""color: green""><按空格键至下页></div> </p>
   "," ","html-keyboard-response","0","96422","0.0-0.0","6","6","7","5","5","5","5","5","5","5","5","2","2","1","2","1","2","2","2","5","5","5","5","5","4","4","4","5","5","7","8","7","8","7","8","8","9","8","6","7","4","7","7","7","6","7","7","7","6","7","7","7","6","7","7","7","5","7","7","7","7","7","7","7","7","7","7","7","7","7","7","7","6","7","7","7","7","7","688784182117138432","郭","148","Male","[""好我"",""坏他"",""坏我"",""好他""]","[""强我"",""弱他"",""弱我"",""强他""]","","","","","","","","","","","","","","","","","","","","","","","","","","","","","","","","","","","","","",""
"","","","call-function","1","96422","0.0-1.0-0.0","6","6","7","5","5","5","5","5","5","5","5","2","2","1","2","1","2","2","2","5","5","5","5","5","4","4","4","5","5","7","8","7","8","7","8","8","9","8","6","7","4","7","7","7","6","7","7","7","6","7","7","7","6","7","7","7","5","7","7","7","7","7","7","7","7","7","7","7","7","7","7","7","6","7","7","7","7","7","688784182117138432","郭","148","Male","[""好我"",""坏他"",""坏我"",""好他""]","[""强我"",""弱他"",""弱我"",""强他""]","","","","","","","","","","","","","","","","","","","","","","","","","","","","","","","","","","","","","",""
"62535","","[{""name"":""Sex"",""value"":""0""},{""name"":""friend_name"",""value"":""郭""},{""name"":""ParticipantID"",""value"":""148""}]","survey-html-form","2","158957","0.0-1.0-1.0","6","6","7","5","5","5","5","5","5","5","5","2","2","1","2","1","2","2","2","5","5","5","5","5","4","4","4","5","5","7","8","7","8","7","8","8","9","8","6","7","4","7","7","7","6","7","7","7","6","7","7","7","6","7","7","7","5","7","7","7","7","7","7","7","7","7","7","7","7","7","7","7","6","7","7","7","7","7","688784182117138432","郭","148","Male","[""好我"",""坏他"",""坏我"",""好他""]","[""强我"",""弱他"",""弱我"",""强他""]","","","","","","","","","","","","","","","","","","","","","","","","","","","","","","","","","","","","","",""
"","","","preload","3","159359","0.0-2.0","6","6","7","5","5","5","5","5","5","5","5","2","2","1","2","1","2","2","2","5","5","5","5","5","4","4","4","5","5","7","8","7","8","7","8","8","9","8","6","7","4","7","7","7","6","7","7","7","6","7","7","7","6","7","7","7","5","7","7","7","7","7","7","7","7","7","7","7","7","7","7","7","6","7","7","7","7","7","688784182117138432","郭","148","Male","[""好我"",""坏他"",""坏我"",""好他""]","[""强我"",""弱他"",""弱我"",""强他""]","","true","false","[]","[]","[]","","","","","","","","","","","","","","","","","","","","","","","","","","","","","","","",""
"","","","fullscreen","4","160747","0.0-3.0","6","6","7","5","5","5","5","5","5","5","5","2","2","1","2","1","2","2","2","5","5","5","5","5","4","4","4","5","5","7","8","7","8","7","8","8","9","8","6","7","4","7","7","7","6","7","7","7","6","7","7","7","6","7","7","7","5","7","7","7","7","7","7","7","7","7","7","7","7","7","7","7","6","7","7","7","7","7","688784182117138432","郭","148","Male","[""好我"",""坏他"",""坏我"",""好他""]","[""强我"",""弱他"",""弱我"",""强他""]","","true","","","","","{}","","","","","","","","","","","","","","","","","","","","","","","","","","","","","","",""
"31293.799999952316","","{""Q01"":""6"",""Q02"":""6"",""Q03"":""7"",""Q04"":""5"",""Q05"":""5""}","survey-template","5","192043","0.0-4.0","6","6","7","5","5","5","5","5","5","5","5","2","2","1","2","1","2","2","2","5","5","5","5","5","4","4","4","5","5","7","8","7","8","7","8","8","9","8","6","7","4","7","7","7","6","7","7","7","6","7","7","7","6","7","7","7","5","7","7","7","7","7","7","7","7","7","7","7","7","7","7","7","6","7","7","7","7","7","688784182117138432","郭","148","Male","[""好我"",""坏他"",""坏我"",""好他""]","[""强我"",""弱他"",""弱我"",""强他""]","","","","","","","","{""Q01"":""6"",""Q02"":""6"",""Q03"":""7"",""Q04"":""5"",""Q05"":""5""}","[0,1,2,3,4]","[""Q01"",""Q01"",""Q02"",""Q02"",""Q03"",""Q04"",""Q05""]","[2177.2999999523163,7368.400000095367,9896.5,13144.700000047684,14456.600000143051,15848.5,16472.5]","[]","[2177.2999999523163,6848.5,7368.400000095367,9896.5,13144.700000047684,14456.600000143051,15848.5,16472.5,31292.900000095367]","0.4","0.25","0","","","","","","","","","","","","","","","","","","","","","",""
"25876.599999904633","","{""Q01"":""5"",""Q02"":""5"",""Q03"":""5"",""Q04"":""5"",""Q05"":""5"",""Q06"":""5""}","survey-template","6","217922","0.0-5.0","6","6","7","5","5","5","5","5","5","5","5","2","2","1","2","1","2","2","2","5","5","5","5","5","4","4","4","5","5","7","8","7","8","7","8","8","9","8","6","7","4","7","7","7","6","7","7","7","6","7","7","7","6","7","7","7","5","7","7","7","7","7","7","7","7","7","7","7","7","7","7","7","6","7","7","7","7","7","688784182117138432","郭","148","Male","[""好我"",""坏他"",""坏我"",""好他""]","[""强我"",""弱他"",""弱我"",""强他""]","","","","","","","","{""Q01"":""5"",""Q02"":""5"",""Q03"":""5"",""Q04"":""5"",""Q05"":""5"",""Q06"":""5""}","[0,1,2,3,4,5]","[""Q01"",""Q02"",""Q03"",""Q04"",""Q05"",""Q06""]","[3328.2999999523163,7624,9832.199999809265,13112.099999904633,18568,23315.89999985695]","[]","[2631.899999856949,3328.2999999523163,7624,9832.199999809265,13112.099999904633,18568,23315.89999985695,25876.099999904633]","0.5","0.8","0","","","","","","","","","","","","","","","","","","","","","",""
"44070.5","","{""Q01"":""2"",""Q02"":""2"",""Q03"":""1"",""Q04"":""2"",""Q05"":""1"",""Q06"":""2"",""Q07"":""2"",""Q08"":""2""}","survey-template","7","261995","0.0-6.0","6","6","7","5","5","5","5","5","5","5","5","2","2","1","2","1","2","2","2","5","5","5","5","5","4","4","4","5","5","7","8","7","8","7","8","8","9","8","6","7","4","7","7","7","6","7","7","7","6","7","7","7","6","7","7","7","5","7","7","7","7","7","7","7","7","7","7","7","7","7","7","7","6","7","7","7","7","7","688784182117138432","郭","148","Male","[""好我"",""坏他"",""坏我"",""好他""]","[""强我"",""弱他"",""弱我"",""强他""]","","","","","","","","{""Q01"":""2"",""Q02"":""2"",""Q03"":""1"",""Q04"":""2"",""Q05"":""1"",""Q06"":""2"",""Q07"":""2"",""Q08"":""2""}","[0,1,2,3,4,5,6,7]","[""Q01"",""Q02"",""Q03"",""Q04"",""Q02"",""Q03"",""Q05"",""Q06"",""Q07"",""Q08""]","[2825.300000190735,12309.300000190735,16389.400000095367,18573.300000190735,19397.400000095367,20541.300000190735,23982.10000014305,26710.400000095367,30765.300000190735,36901.200000047684]","[]","[2277.4000000953674,2825.300000190735,11285.400000095367,11905.200000047684,12309.300000190735,16389.400000095367,18573.300000190735,19397.400000095367,20541.300000190735,23726.900000095367,23982.10000014305,26710.400000095367,30069.300000190735,30765.300000190735,36901.200000047684,44069.60000014305]","0.75","0.5714285714285714","0","","","","","","","","","","","","","","","","","","","","","",""
"21029","
    <p><div style='color:white;font-size:35px; line-height:20px;'>词汇评估任务</div></p><br>
    <p><div style='color:white;font-size:25px; line-height:20px;'>请再次回忆该亲密的朋友，你们至少2年前就认识了，并且最近2年经常见面。</div></p>
    <p><div style='color:white;font-size:25px; line-height:20px;'>在本实验中，您将会看到一些形容词。</div></p>
    <p><div style='color:yellow;font-size:25px; line-height:20px;'>您的任务是判断这些形容词是否符合对您自己或您的朋友的描述。</div></p><p style='font-size:35px'>符合按<span style=""color:lightgreen""> f 键</span>，不符合按<span style=""color:red""> j 键</span></p>","0","html-button-response","8","283026","0.0-7.0-0.0","6","6","7","5","5","5","5","5","5","5","5","2","2","1","2","1","2","2","2","5","5","5","5","5","4","4","4","5","5","7","8","7","8","7","8","8","9","8","6","7","4","7","7","7","6","7","7","7","6","7","7","7","6","7","7","7","5","7","7","7","7","7","7","7","7","7","7","7","7","7","7","7","6","7","7","7","7","7","688784182117138432","郭","148","Male","[""好我"",""坏他"",""坏我"",""好他""]","[""强我"",""弱他"",""弱我"",""强他""]","","","","","","","","","","","","","","","","","SRET_EW","EW_instructions","Thu Nov 02 2023 17:44:36 GMT+0800 (中国标准时间)","","","","","","","","","","","","","","","","","","",""
"2352","","f","psychophysics","9","286381","0.0-7.0-1.0-0.0","6","6","7","5","5","5","5","5","5","5","5","2","2","1","2","1","2","2","2","5","5","5","5","5","4","4","4","5","5","7","8","7","8","7","8","8","9","8","6","7","4","7","7","7","6","7","7","7","6","7","7","7","6","7","7","7","5","7","7","7","7","7","7","7","7","7","7","7","7","7","7","7","6","7","7","7","7","7","688784182117138432","郭","148","Male","[""好我"",""坏他"",""坏我"",""好他""]","[""强我"",""弱他"",""弱我"",""强他""]","","","","","","","","yes","","","","","","","","","SRET_EW","EW_practice","","key","f","8.332610421836268","853.3333333333334","476","自己","严谨","Positive","ability","","","","","","","","","",""
"3798","","f","psychophysics","10","291181","0.0-7.0-1.0-0.1","6","6","7","5","5","5","5","5","5","5","5","2","2","1","2","1","2","2","2","5","5","5","5","5","4","4","4","5","5","7","8","7","8","7","8","8","9","8","6","7","4","7","7","7","6","7","7","7","6","7","7","7","6","7","7","7","5","7","7","7","7","7","7","7","7","7","7","7","7","7","7","7","6","7","7","7","7","7","688784182117138432","郭","148","Male","[""好我"",""坏他"",""坏我"",""好他""]","[""强我"",""弱他"",""弱我"",""强他""]","","","","","","","","yes","","","","","","","","","SRET_EW","EW_practice","","key","f","8.332707826086907","853.3333333333334","476","朋友","忠实","Positive","morality","","","","","","","","","",""
"1175","","j","psychophysics","11","293357","0.0-7.0-1.0-0.2","6","6","7","5","5","5","5","5","5","5","5","2","2","1","2","1","2","2","2","5","5","5","5","5","4","4","4","5","5","7","8","7","8","7","8","8","9","8","6","7","4","7","7","7","6","7","7","7","6","7","7","7","6","7","7","7","5","7","7","7","7","7","7","7","7","7","7","7","7","7","7","7","6","7","7","7","7","7","688784182117138432","郭","148","Male","[""好我"",""坏他"",""坏我"",""好他""]","[""强我"",""弱他"",""弱我"",""强他""]","","","","","","","","no","","","","","","","","","SRET_EW","EW_practice","","key","j","8.333726923076812","853.3333333333334","476","自己","刻板","Negative","ability","","","","","","","","","",""
"1991","","j","psychophysics","12","296349","0.0-7.0-1.0-0.3","6","6","7","5","5","5","5","5","5","5","5","2","2","1","2","1","2","2","2","5","5","5","5","5","4","4","4","5","5","7","8","7","8","7","8","8","9","8","6","7","4","7","7","7","6","7","7","7","6","7","7","7","6","7","7","7","5","7","7","7","7","7","7","7","7","7","7","7","7","7","7","7","6","7","7","7","7","7","688784182117138432","郭","148","Male","[""好我"",""坏他"",""坏我"",""好他""]","[""强我"",""弱他"",""弱我"",""强他""]","","","","","","","","no","","","","","","","","","SRET_EW","EW_practice","","key","j","8.332835195530805","853.3333333333334","476","朋友","徇私","Negative","morality","","","","","","","","","",""
"6909","
    <p><div style='color:white;font-size:35px; line-height:20px;'>请您再次阅读实验要求</div></p><br>
    <p><div style='color:white;font-size:25px; line-height:20px;'>请回忆某一个亲密的朋友，你们至少2年前就认识了，并且最近2年经常见面。</div></p>
    <p><div style='color:white;font-size:25px; line-height:20px;'>在本实验中，您将会看到一些形容词。</div></p>
    <p><div style='color:yellow;font-size:25px; line-height:20px;'>您的任务是判断这些形容词是否符合对您自己或您的朋友的描述。</div></p>
    <p><div class='footer' style='font-size:25px; line-height:20px;'>如果对本实验还有不清楚之处，请立即向实验员咨询。</p><p style='font-size:25px; line-height:20px;'>如果您明白了规则：</p><p style='font-size:22px; line-height:20px;'>请按 继续 进入正式实验</p>
    </div>
    <p style='font-size:35px'>符合按<span style=""color:lightgreen""> f 键</span>，不符合按<span style=""color:red""> j 键</span></p>","0","html-button-response","13","303259","0.0-7.0-2.0","6","6","7","5","5","5","5","5","5","5","5","2","2","1","2","1","2","2","2","5","5","5","5","5","4","4","4","5","5","7","8","7","8","7","8","8","9","8","6","7","4","7","7","7","6","7","7","7","6","7","7","7","6","7","7","7","5","7","7","7","7","7","7","7","7","7","7","7","7","7","7","7","6","7","7","7","7","7","688784182117138432","郭","148","Male","[""好我"",""坏他"",""坏我"",""好他""]","[""强我"",""弱他"",""弱我"",""强他""]","","","","","","","","","","","","","","","","","SRET_EW","prac_instructions","Thu Nov 02 2023 17:44:36 GMT+0800 (中国标准时间)","","","","","","","","","","","","","","","","","","",""
"1265","","f","psychophysics","14","305525","0.0-7.0-3.0-0.0","6","6","7","5","5","5","5","5","5","5","5","2","2","1","2","1","2","2","2","5","5","5","5","5","4","4","4","5","5","7","8","7","8","7","8","8","9","8","6","7","4","7","7","7","6","7","7","7","6","7","7","7","6","7","7","7","5","7","7","7","7","7","7","7","7","7","7","7","7","7","7","7","6","7","7","7","7","7","688784182117138432","郭","148","Male","[""好我"",""坏他"",""坏我"",""好他""]","[""强我"",""弱他"",""弱我"",""强他""]","","","","","","","","yes","","","","","","","","","SRET","EW_formal","","key","f","8.36129520295211","853.3333333333334","476","自己","坚贞","Positive","morality","","","","","","","","","",""
"1055","","j","psychophysics","15","307582","0.0-7.0-3.0-0.1","6","6","7","5","5","5","5","5","5","5","5","2","2","1","2","1","2","2","2","5","5","5","5","5","4","4","4","5","5","7","8","7","8","7","8","8","9","8","6","7","4","7","7","7","6","7","7","7","6","7","7","7","6","7","7","7","5","7","7","7","7","7","7","7","7","7","7","7","7","7","7","7","6","7","7","7","7","7","688784182117138432","郭","148","Male","[""好我"",""坏他"",""坏我"",""好他""]","[""强我"",""弱他"",""弱我"",""强他""]","","","","","","","","no","","","","","","","","","SRET","EW_formal","","key","j","8.334142276422854","853.3333333333334","476","朋友","迷糊","Negative","ability","","","","","","","","","",""
"1166","","f","psychophysics","16","309749","0.0-7.0-3.0-0.2","6","6","7","5","5","5","5","5","5","5","5","2","2","1","2","1","2","2","2","5","5","5","5","5","4","4","4","5","5","7","8","7","8","7","8","8","9","8","6","7","4","7","7","7","6","7","7","7","6","7","7","7","6","7","7","7","5","7","7","7","7","7","7","7","7","7","7","7","7","7","7","7","6","7","7","7","7","7","688784182117138432","郭","148","Male","[""好我"",""坏他"",""坏我"",""好他""]","[""强我"",""弱他"",""弱我"",""强他""]","","","","","","","","yes","","","","","","","","","SRET","EW_formal","","key","f","8.332683397683317","853.3333333333334","476","朋友","务实","Positive","ability","","","","","","","","","",""
"975","","j","psychophysics","17","311725","0.0-7.0-3.0-0.3","6","6","7","5","5","5","5","5","5","5","5","2","2","1","2","1","2","2","2","5","5","5","5","5","4","4","4","5","5","7","8","7","8","7","8","8","9","8","6","7","4","7","7","7","6","7","7","7","6","7","7","7","6","7","7","7","5","7","7","7","7","7","7","7","7","7","7","7","7","7","7","7","6","7","7","7","7","7","688784182117138432","郭","148","Male","[""好我"",""坏他"",""坏我"",""好他""]","[""强我"",""弱他"",""弱我"",""强他""]","","","","","","","","no","","","","","","","","","SRET","EW_formal","","key","j","8.331546610169472","853.3333333333334","476","自己","说谎","Negative","morality","","","","","","","","","",""
"2111","","j","psychophysics","18","314838","0.0-7.0-3.0-0.4","6","6","7","5","5","5","5","5","5","5","5","2","2","1","2","1","2","2","2","5","5","5","5","5","4","4","4","5","5","7","8","7","8","7","8","8","9","8","6","7","4","7","7","7","6","7","7","7","6","7","7","7","6","7","7","7","5","7","7","7","7","7","7","7","7","7","7","7","7","7","7","7","6","7","7","7","7","7","688784182117138432","郭","148","Male","[""好我"",""坏他"",""坏我"",""好他""]","[""强我"",""弱他"",""弱我"",""强他""]","","","","","","","","no","","","","","","","","","SRET","EW_formal","","key","j","8.333075067024033","853.3333333333334","476","朋友","逞能","Negative","ability","","","","","","","","","",""
"1086","","f","psychophysics","19","316925","0.0-7.0-3.0-0.5","6","6","7","5","5","5","5","5","5","5","5","2","2","1","2","1","2","2","2","5","5","5","5","5","4","4","4","5","5","7","8","7","8","7","8","8","9","8","6","7","4","7","7","7","6","7","7","7","6","7","7","7","6","7","7","7","5","7","7","7","7","7","7","7","7","7","7","7","7","7","7","7","6","7","7","7","7","7","688784182117138432","郭","148","Male","[""好我"",""坏他"",""坏我"",""好他""]","[""强我"",""弱他"",""弱我"",""强他""]","","","","","","","","yes","","","","","","","","","SRET","EW_formal","","key","f","8.334341365461805","853.3333333333334","476","朋友","仁爱","Positive","morality","","","","","","","","","",""
"2262","","j","psychophysics","20","320189","0.0-7.0-3.0-0.6","6","6","7","5","5","5","5","5","5","5","5","2","2","1","2","1","2","2","2","5","5","5","5","5","4","4","4","5","5","7","8","7","8","7","8","8","9","8","6","7","4","7","7","7","6","7","7","7","6","7","7","7","6","7","7","7","5","7","7","7","7","7","7","7","7","7","7","7","7","7","7","7","6","7","7","7","7","7","688784182117138432","郭","148","Male","[""好我"",""坏他"",""坏我"",""好他""]","[""强我"",""弱他"",""弱我"",""强他""]","","","","","","","","no","","","","","","","","","SRET","EW_formal","","key","j","8.33208439897706","853.3333333333334","476","自己","诡诈","Negative","morality","","","","","","","","","",""
"1959","","f","psychophysics","21","323149","0.0-7.0-3.0-0.7","6","6","7","5","5","5","5","5","5","5","5","2","2","1","2","1","2","2","2","5","5","5","5","5","4","4","4","5","5","7","8","7","8","7","8","8","9","8","6","7","4","7","7","7","6","7","7","7","6","7","7","7","6","7","7","7","5","7","7","7","7","7","7","7","7","7","7","7","7","7","7","7","6","7","7","7","7","7","688784182117138432","郭","148","Male","[""好我"",""坏他"",""坏我"",""好他""]","[""强我"",""弱他"",""弱我"",""强他""]","","","","","","","","yes","","","","","","","","","SRET","EW_formal","","key","f","8.333073446327672","853.3333333333334","476","自己","无私","Positive","morality","","","","","","","","","",""
"1086","","f","psychophysics","22","325237","0.0-7.0-3.0-0.8","6","6","7","5","5","5","5","5","5","5","5","2","2","1","2","1","2","2","2","5","5","5","5","5","4","4","4","5","5","7","8","7","8","7","8","8","9","8","6","7","4","7","7","7","6","7","7","7","6","7","7","7","6","7","7","7","5","7","7","7","7","7","7","7","7","7","7","7","7","7","7","7","6","7","7","7","7","7","688784182117138432","郭","148","Male","[""好我"",""坏他"",""坏我"",""好他""]","[""强我"",""弱他"",""弱我"",""强他""]","","","","","","","","yes","","","","","","","","","SRET","EW_formal","","key","f","8.332559999999823","853.3333333333334","476","朋友","义气","Positive","morality","","","","","","","","","",""
"1032","","j","psychophysics","23","327271","0.0-7.0-3.0-0.9","6","6","7","5","5","5","5","5","5","5","5","2","2","1","2","1","2","2","2","5","5","5","5","5","4","4","4","5","5","7","8","7","8","7","8","8","9","8","6","7","4","7","7","7","6","7","7","7","6","7","7","7","6","7","7","7","5","7","7","7","7","7","7","7","7","7","7","7","7","7","7","7","6","7","7","7","7","7","688784182117138432","郭","148","Male","[""好我"",""坏他"",""坏我"",""好他""]","[""强我"",""弱他"",""弱我"",""强他""]","","","","","","","","no","","","","","","","","","SRET","EW_formal","","key","j","8.333320987654453","853.3333333333334","476","朋友","拜金","Negative","morality","","","","","","","","","",""
"1046","","f","psychophysics","24","329317","0.0-7.0-3.0-0.10","6","6","7","5","5","5","5","5","5","5","5","2","2","1","2","1","2","2","2","5","5","5","5","5","4","4","4","5","5","7","8","7","8","7","8","8","9","8","6","7","4","7","7","7","6","7","7","7","6","7","7","7","6","7","7","7","5","7","7","7","7","7","7","7","7","7","7","7","7","7","7","7","6","7","7","7","7","7","688784182117138432","郭","148","Male","[""好我"",""坏他"",""坏我"",""好他""]","[""强我"",""弱他"",""弱我"",""强他""]","","","","","","","","yes","","","","","","","","","SRET","EW_formal","","key","f","8.334344262295149","853.3333333333334","476","朋友","干练","Positive","ability","","","","","","","","","",""
"1696","","j","psychophysics","25","332013","0.0-7.0-3.0-0.11","6","6","7","5","5","5","5","5","5","5","5","2","2","1","2","1","2","2","2","5","5","5","5","5","4","4","4","5","5","7","8","7","8","7","8","8","9","8","6","7","4","7","7","7","6","7","7","7","6","7","7","7","6","7","7","7","5","7","7","7","7","7","7","7","7","7","7","7","7","7","7","7","6","7","7","7","7","7","688784182117138432","郭","148","Male","[""好我"",""坏他"",""坏我"",""好他""]","[""强我"",""弱他"",""弱我"",""强他""]","","","","","","","","no","","","","","","","","","SRET","EW_formal","","key","j","8.333507739938074","853.3333333333334","476","自己","无助","Negative","ability","","","","","","","","","",""
"887","","f","psychophysics","26","333902","0.0-7.0-3.0-0.12","6","6","7","5","5","5","5","5","5","5","5","2","2","1","2","1","2","2","2","5","5","5","5","5","4","4","4","5","5","7","8","7","8","7","8","8","9","8","6","7","4","7","7","7","6","7","7","7","6","7","7","7","6","7","7","7","5","7","7","7","7","7","7","7","7","7","7","7","7","7","7","7","6","7","7","7","7","7","688784182117138432","郭","148","Male","[""好我"",""坏他"",""坏我"",""好他""]","[""强我"",""弱他"",""弱我"",""强他""]","","","","","","","","yes","","","","","","","","","SRET","EW_formal","","key","f","8.333328888888936","853.3333333333334","476","朋友","能干","Positive","ability","","","","","","","","","",""
"1117","","f","psychophysics","27","336021","0.0-7.0-3.0-0.13","6","6","7","5","5","5","5","5","5","5","5","2","2","1","2","1","2","2","2","5","5","5","5","5","4","4","4","5","5","7","8","7","8","7","8","8","9","8","6","7","4","7","7","7","6","7","7","7","6","7","7","7","6","7","7","7","5","7","7","7","7","7","7","7","7","7","7","7","7","7","7","7","6","7","7","7","7","7","688784182117138432","郭","148","Male","[""好我"",""坏他"",""坏我"",""好他""]","[""强我"",""弱他"",""弱我"",""强他""]","","","","","","","","yes","","","","","","","","","SRET","EW_formal","","key","f","8.333476377952675","853.3333333333334","476","朋友","慷慨","Positive","morality","","","","","","","","","",""
"1735","","j","psychophysics","28","338757","0.0-7.0-3.0-0.14","6","6","7","5","5","5","5","5","5","5","5","2","2","1","2","1","2","2","2","5","5","5","5","5","4","4","4","5","5","7","8","7","8","7","8","8","9","8","6","7","4","7","7","7","6","7","7","7","6","7","7","7","6","7","7","7","5","7","7","7","7","7","7","7","7","7","7","7","7","7","7","7","6","7","7","7","7","7","688784182117138432","郭","148","Male","[""好我"",""坏他"",""坏我"",""好他""]","[""强我"",""弱他"",""弱我"",""强他""]","","","","","","","","no","","","","","","","","","SRET","EW_formal","","key","j","8.333859327217189","853.3333333333334","476","朋友","阴毒","Negative","morality","","","","","","","","","",""
"1205","","f","psychophysics","29","340965","0.0-7.0-3.0-0.15","6","6","7","5","5","5","5","5","5","5","5","2","2","1","2","1","2","2","2","5","5","5","5","5","4","4","4","5","5","7","8","7","8","7","8","8","9","8","6","7","4","7","7","7","6","7","7","7","6","7","7","7","6","7","7","7","5","7","7","7","7","7","7","7","7","7","7","7","7","7","7","7","6","7","7","7","7","7","688784182117138432","郭","148","Male","[""好我"",""坏他"",""坏我"",""好他""]","[""强我"",""弱他"",""弱我"",""强他""]","","","","","","","","yes","","","","","","","","","SRET","EW_formal","","key","f","8.333621212121216","853.3333333333334","476","朋友","中用","Positive","ability","","","","","","","","","",""
"2576","","j","psychophysics","30","344542","0.0-7.0-3.0-0.16","6","6","7","5","5","5","5","5","5","5","5","2","2","1","2","1","2","2","2","5","5","5","5","5","4","4","4","5","5","7","8","7","8","7","8","8","9","8","6","7","4","7","7","7","6","7","7","7","6","7","7","7","6","7","7","7","5","7","7","7","7","7","7","7","7","7","7","7","7","7","7","7","6","7","7","7","7","7","688784182117138432","郭","148","Male","[""好我"",""坏他"",""坏我"",""好他""]","[""强我"",""弱他"",""弱我"",""强他""]","","","","","","","","no","","","","","","","","","SRET","EW_formal","","key","j","8.3330864485981","853.3333333333334","476","朋友","利己","Negative","morality","","","","","","","","","",""
"1222","","j","psychophysics","31","346765","0.0-7.0-3.0-0.17","6","6","7","5","5","5","5","5","5","5","5","2","2","1","2","1","2","2","2","5","5","5","5","5","4","4","4","5","5","7","8","7","8","7","8","8","9","8","6","7","4","7","7","7","6","7","7","7","6","7","7","7","6","7","7","7","5","7","7","7","7","7","7","7","7","7","7","7","7","7","7","7","6","7","7","7","7","7","688784182117138432","郭","148","Male","[""好我"",""坏他"",""坏我"",""好他""]","[""强我"",""弱他"",""弱我"",""强他""]","","","","","","","","no","","","","","","","","","SRET","EW_formal","","key","j","8.333221804511451","853.3333333333334","476","朋友","不端","Negative","morality","","","","","","","","","",""
"1325","","f","psychophysics","32","349093","0.0-7.0-3.0-0.18","6","6","7","5","5","5","5","5","5","5","5","2","2","1","2","1","2","2","2","5","5","5","5","5","4","4","4","5","5","7","8","7","8","7","8","8","9","8","6","7","4","7","7","7","6","7","7","7","6","7","7","7","6","7","7","7","5","7","7","7","7","7","7","7","7","7","7","7","7","7","7","7","6","7","7","7","7","7","688784182117138432","郭","148","Male","[""好我"",""坏他"",""坏我"",""好他""]","[""强我"",""弱他"",""弱我"",""强他""]","","","","","","","","yes","","","","","","","","","SRET","EW_formal","","key","f","8.332724014336977","853.3333333333334","476","朋友","刚正","Positive","morality","","","","","","","","","",""
"2207","","j","psychophysics","33","352301","0.0-7.0-3.0-0.19","6","6","7","5","5","5","5","5","5","5","5","2","2","1","2","1","2","2","2","5","5","5","5","5","4","4","4","5","5","7","8","7","8","7","8","8","9","8","6","7","4","7","7","7","6","7","7","7","6","7","7","7","6","7","7","7","5","7","7","7","7","7","7","7","7","7","7","7","7","7","7","7","6","7","7","7","7","7","688784182117138432","郭","148","Male","[""好我"",""坏他"",""坏我"",""好他""]","[""强我"",""弱他"",""弱我"",""强他""]","","","","","","","","no","","","","","","","","","SRET","EW_formal","","key","j","8.331882812500075","853.3333333333334","476","自己","愚钝","Negative","ability","","","","","","","","","",""
"1735","","f","psychophysics","34","355037","0.0-7.0-3.0-0.20","6","6","7","5","5","5","5","5","5","5","5","2","2","1","2","1","2","2","2","5","5","5","5","5","4","4","4","5","5","7","8","7","8","7","8","8","9","8","6","7","4","7","7","7","6","7","7","7","6","7","7","7","6","7","7","7","5","7","7","7","7","7","7","7","7","7","7","7","7","7","7","7","6","7","7","7","7","7","688784182117138432","郭","148","Male","[""好我"",""坏他"",""坏我"",""好他""]","[""强我"",""弱他"",""弱我"",""强他""]","","","","","","","","yes","","","","","","","","","SRET","EW_formal","","key","f","8.332911314984779","853.3333333333334","476","朋友","坦荡","Positive","morality","","","","","","","","","",""
"983","","j","psychophysics","35","357021","0.0-7.0-3.0-0.21","6","6","7","5","5","5","5","5","5","5","5","2","2","1","2","1","2","2","2","5","5","5","5","5","4","4","4","5","5","7","8","7","8","7","8","8","9","8","6","7","4","7","7","7","6","7","7","7","6","7","7","7","6","7","7","7","5","7","7","7","7","7","7","7","7","7","7","7","7","7","7","7","6","7","7","7","7","7","688784182117138432","郭","148","Male","[""好我"",""坏他"",""坏我"",""好他""]","[""强我"",""弱他"",""弱我"",""强他""]","","","","","","","","no","","","","","","","","","SRET","EW_formal","","key","j","8.334088607594952","853.3333333333334","476","朋友","拖拉","Negative","ability","","","","","","","","","",""
"871","","f","psychophysics","36","358893","0.0-7.0-3.0-0.22","6","6","7","5","5","5","5","5","5","5","5","2","2","1","2","1","2","2","2","5","5","5","5","5","4","4","4","5","5","7","8","7","8","7","8","8","9","8","6","7","4","7","7","7","6","7","7","7","6","7","7","7","6","7","7","7","5","7","7","7","7","7","7","7","7","7","7","7","7","7","7","7","6","7","7","7","7","7","688784182117138432","郭","148","Male","[""好我"",""坏他"",""坏我"",""好他""]","[""强我"",""弱他"",""弱我"",""强他""]","","","","","","","","yes","","","","","","","","","SRET","EW_formal","","key","f","8.332580357142954","853.3333333333334","476","朋友","诚信","Positive","morality","","","","","","","","","",""
"1456","","f","psychophysics","37","361350","0.0-7.0-3.0-0.23","6","6","7","5","5","5","5","5","5","5","5","2","2","1","2","1","2","2","2","5","5","5","5","5","4","4","4","5","5","7","8","7","8","7","8","8","9","8","6","7","4","7","7","7","6","7","7","7","6","7","7","7","6","7","7","7","5","7","7","7","7","7","7","7","7","7","7","7","7","7","7","7","6","7","7","7","7","7","688784182117138432","郭","148","Male","[""好我"",""坏他"",""坏我"",""好他""]","[""强我"",""弱他"",""弱我"",""强他""]","","","","","","","","yes","","","","","","","","","SRET","EW_formal","","key","f","8.33393197278904","853.3333333333334","476","自己","忠诚","Positive","morality","","","","","","","","","",""
"839","","f","psychophysics","38","363190","0.0-7.0-3.0-0.24","6","6","7","5","5","5","5","5","5","5","5","2","2","1","2","1","2","2","2","5","5","5","5","5","4","4","4","5","5","7","8","7","8","7","8","8","9","8","6","7","4","7","7","7","6","7","7","7","6","7","7","7","6","7","7","7","5","7","7","7","7","7","7","7","7","7","7","7","7","7","7","7","6","7","7","7","7","7","688784182117138432","郭","148","Male","[""好我"",""坏他"",""坏我"",""好他""]","[""强我"",""弱他"",""弱我"",""强他""]","","","","","","","","yes","","","","","","","","","SRET","EW_formal","","key","f","8.333579908675816","853.3333333333334","476","朋友","守时","Positive","morality","","","","","","","","","",""
"998","","f","psychophysics","39","365190","0.0-7.0-3.0-0.25","6","6","7","5","5","5","5","5","5","5","5","2","2","1","2","1","2","2","2","5","5","5","5","5","4","4","4","5","5","7","8","7","8","7","8","8","9","8","6","7","4","7","7","7","6","7","7","7","6","7","7","7","6","7","7","7","5","7","7","7","7","7","7","7","7","7","7","7","7","7","7","7","6","7","7","7","7","7","688784182117138432","郭","148","Male","[""好我"",""坏他"",""坏我"",""好他""]","[""强我"",""弱他"",""弱我"",""强他""]","","","","","","","","yes","","","","","","","","","SRET","EW_formal","","key","f","8.332251046025087","853.3333333333334","476","自己","敬业","Positive","morality","","","","","","","","","",""
"1110","","f","psychophysics","40","367301","0.0-7.0-3.0-0.26","6","6","7","5","5","5","5","5","5","5","5","2","2","1","2","1","2","2","2","5","5","5","5","5","4","4","4","5","5","7","8","7","8","7","8","8","9","8","6","7","4","7","7","7","6","7","7","7","6","7","7","7","6","7","7","7","5","7","7","7","7","7","7","7","7","7","7","7","7","7","7","7","6","7","7","7","7","7","688784182117138432","郭","148","Male","[""好我"",""坏他"",""坏我"",""好他""]","[""强我"",""弱他"",""弱我"",""强他""]","","","","","","","","yes","","","","","","","","","SRET","EW_formal","","key","f","8.331683794466278","853.3333333333334","476","朋友","守信","Positive","morality","","","","","","","","","",""
"1238","","j","psychophysics","41","369540","0.0-7.0-3.0-0.27","6","6","7","5","5","5","5","5","5","5","5","2","2","1","2","1","2","2","2","5","5","5","5","5","4","4","4","5","5","7","8","7","8","7","8","8","9","8","6","7","4","7","7","7","6","7","7","7","6","7","7","7","6","7","7","7","5","7","7","7","7","7","7","7","7","7","7","7","7","7","7","7","6","7","7","7","7","7","688784182117138432","郭","148","Male","[""好我"",""坏他"",""坏我"",""好他""]","[""强我"",""弱他"",""弱我"",""强他""]","","","","","","","","no","","","","","","","","","SRET","EW_formal","","key","j","8.33385074626869","853.3333333333334","476","自己","草率","Negative","ability","","","","","","","","","",""
"2087","","j","psychophysics","42","372629","0.0-7.0-3.0-0.28","6","6","7","5","5","5","5","5","5","5","5","2","2","1","2","1","2","2","2","5","5","5","5","5","4","4","4","5","5","7","8","7","8","7","8","8","9","8","6","7","4","7","7","7","6","7","7","7","6","7","7","7","6","7","7","7","5","7","7","7","7","7","7","7","7","7","7","7","7","7","7","7","6","7","7","7","7","7","688784182117138432","郭","148","Male","[""好我"",""坏他"",""坏我"",""好他""]","[""强我"",""弱他"",""弱我"",""强他""]","","","","","","","","no","","","","","","","","","SRET","EW_formal","","key","j","8.33318970189698","853.3333333333334","476","自己","窝囊","Negative","ability","","","","","","","","","",""
"2141","","f","psychophysics","43","375773","0.0-7.0-3.0-0.29","6","6","7","5","5","5","5","5","5","5","5","2","2","1","2","1","2","2","2","5","5","5","5","5","4","4","4","5","5","7","8","7","8","7","8","8","9","8","6","7","4","7","7","7","6","7","7","7","6","7","7","7","6","7","7","7","5","7","7","7","7","7","7","7","7","7","7","7","7","7","7","7","6","7","7","7","7","7","688784182117138432","郭","148","Male","[""好我"",""坏他"",""坏我"",""好他""]","[""强我"",""弱他"",""弱我"",""强他""]","","","","","","","","yes","","","","","","","","","SRET","EW_formal","","key","f","8.333543766578362","853.3333333333334","476","朋友","高洁","Positive","morality","","","","","","","","","",""
"1207","","f","psychophysics","44","377981","0.0-7.0-3.0-0.30","6","6","7","5","5","5","5","5","5","5","5","2","2","1","2","1","2","2","2","5","5","5","5","5","4","4","4","5","5","7","8","7","8","7","8","8","9","8","6","7","4","7","7","7","6","7","7","7","6","7","7","7","6","7","7","7","5","7","7","7","7","7","7","7","7","7","7","7","7","7","7","7","6","7","7","7","7","7","688784182117138432","郭","148","Male","[""好我"",""坏他"",""坏我"",""好他""]","[""强我"",""弱他"",""弱我"",""强他""]","","","","","","","","yes","","","","","","","","","SRET","EW_formal","","key","f","8.333579545454555","853.3333333333334","476","自己","善心","Positive","morality","","","","","","","","","",""
"1198","","f","psychophysics","45","380180","0.0-7.0-3.0-0.31","6","6","7","5","5","5","5","5","5","5","5","2","2","1","2","1","2","2","2","5","5","5","5","5","4","4","4","5","5","7","8","7","8","7","8","8","9","8","6","7","4","7","7","7","6","7","7","7","6","7","7","7","6","7","7","7","5","7","7","7","7","7","7","7","7","7","7","7","7","7","7","7","6","7","7","7","7","7","688784182117138432","郭","148","Male","[""好我"",""坏他"",""坏我"",""好他""]","[""强我"",""弱他"",""弱我"",""强他""]","","","","","","","","yes","","","","","","","","","SRET","EW_formal","","key","f","8.333904942965708","853.3333333333334","476","朋友","独立","Positive","ability","","","","","","","","","",""
"1488","","j","psychophysics","46","382670","0.0-7.0-3.0-0.32","6","6","7","5","5","5","5","5","5","5","5","2","2","1","2","1","2","2","2","5","5","5","5","5","4","4","4","5","5","7","8","7","8","7","8","8","9","8","6","7","4","7","7","7","6","7","7","7","6","7","7","7","6","7","7","7","5","7","7","7","7","7","7","7","7","7","7","7","7","7","7","7","6","7","7","7","7","7","688784182117138432","郭","148","Male","[""好我"",""坏他"",""坏我"",""好他""]","[""强我"",""弱他"",""弱我"",""强他""]","","","","","","","","no","","","","","","","","","SRET","EW_formal","","key","j","8.333696969696994","853.3333333333334","476","自己","外行","Negative","ability","","","","","","","","","",""
"1774","","j","psychophysics","47","385446","0.0-7.0-3.0-0.33","6","6","7","5","5","5","5","5","5","5","5","2","2","1","2","1","2","2","2","5","5","5","5","5","4","4","4","5","5","7","8","7","8","7","8","8","9","8","6","7","4","7","7","7","6","7","7","7","6","7","7","7","6","7","7","7","5","7","7","7","7","7","7","7","7","7","7","7","7","7","7","7","6","7","7","7","7","7","688784182117138432","郭","148","Male","[""好我"",""坏他"",""坏我"",""好他""]","[""强我"",""弱他"",""弱我"",""强他""]","","","","","","","","no","","","","","","","","","SRET","EW_formal","","key","j","8.333615615615564","853.3333333333334","476","朋友","庸碌","Negative","ability","","","","","","","","","",""
"1118","","j","psychophysics","48","387565","0.0-7.0-3.0-0.34","6","6","7","5","5","5","5","5","5","5","5","2","2","1","2","1","2","2","2","5","5","5","5","5","4","4","4","5","5","7","8","7","8","7","8","8","9","8","6","7","4","7","7","7","6","7","7","7","6","7","7","7","6","7","7","7","5","7","7","7","7","7","7","7","7","7","7","7","7","7","7","7","6","7","7","7","7","7","688784182117138432","郭","148","Male","[""好我"",""坏他"",""坏我"",""好他""]","[""强我"",""弱他"",""弱我"",""强他""]","","","","","","","","no","","","","","","","","","SRET","EW_formal","","key","j","8.333280632411094","853.3333333333334","476","自己","黑心","Negative","morality","","","","","","","","","",""
"1343","","j","psychophysics","49","389910","0.0-7.0-3.0-0.35","6","6","7","5","5","5","5","5","5","5","5","2","2","1","2","1","2","2","2","5","5","5","5","5","4","4","4","5","5","7","8","7","8","7","8","8","9","8","6","7","4","7","7","7","6","7","7","7","6","7","7","7","6","7","7","7","5","7","7","7","7","7","7","7","7","7","7","7","7","7","7","7","6","7","7","7","7","7","688784182117138432","郭","148","Male","[""好我"",""坏他"",""坏我"",""好他""]","[""强我"",""弱他"",""弱我"",""强他""]","","","","","","","","no","","","","","","","","","SRET","EW_formal","","key","j","8.334125000000183","853.3333333333334","476","自己","伪善","Negative","morality","","","","","","","","","",""
"926","","j","psychophysics","50","391837","0.0-7.0-3.0-0.36","6","6","7","5","5","5","5","5","5","5","5","2","2","1","2","1","2","2","2","5","5","5","5","5","4","4","4","5","5","7","8","7","8","7","8","8","9","8","6","7","4","7","7","7","6","7","7","7","6","7","7","7","6","7","7","7","5","7","7","7","7","7","7","7","7","7","7","7","7","7","7","7","6","7","7","7","7","7","688784182117138432","郭","148","Male","[""好我"",""坏他"",""坏我"",""好他""]","[""强我"",""弱他"",""弱我"",""强他""]","","","","","","","","no","","","","","","","","","SRET","EW_formal","","key","j","8.333909090908971","853.3333333333334","476","自己","无能","Negative","ability","","","","","","","","","",""
"1198","","f","psychophysics","51","394037","0.0-7.0-3.0-0.37","6","6","7","5","5","5","5","5","5","5","5","2","2","1","2","1","2","2","2","5","5","5","5","5","4","4","4","5","5","7","8","7","8","7","8","8","9","8","6","7","4","7","7","7","6","7","7","7","6","7","7","7","6","7","7","7","5","7","7","7","7","7","7","7","7","7","7","7","7","7","7","7","6","7","7","7","7","7","688784182117138432","郭","148","Male","[""好我"",""坏他"",""坏我"",""好他""]","[""强我"",""弱他"",""弱我"",""强他""]","","","","","","","","yes","","","","","","","","","SRET","EW_formal","","key","f","8.334152091254689","853.3333333333334","476","朋友","肯干","Positive","ability","","","","","","","","","",""
"1055","","f","psychophysics","52","396093","0.0-7.0-3.0-0.38","6","6","7","5","5","5","5","5","5","5","5","2","2","1","2","1","2","2","2","5","5","5","5","5","4","4","4","5","5","7","8","7","8","7","8","8","9","8","6","7","4","7","7","7","6","7","7","7","6","7","7","7","6","7","7","7","5","7","7","7","7","7","7","7","7","7","7","7","7","7","7","7","6","7","7","7","7","7","688784182117138432","郭","148","Male","[""好我"",""坏他"",""坏我"",""好他""]","[""强我"",""弱他"",""弱我"",""强他""]","","","","","","","","yes","","","","","","","","","SRET","EW_formal","","key","f","8.3332081632653","853.3333333333334","476","自己","聪明","Positive","ability","","","","","","","","","",""
"1357","","f","psychophysics","53","398453","0.0-7.0-3.0-0.39","6","6","7","5","5","5","5","5","5","5","5","2","2","1","2","1","2","2","2","5","5","5","5","5","4","4","4","5","5","7","8","7","8","7","8","8","9","8","6","7","4","7","7","7","6","7","7","7","6","7","7","7","6","7","7","7","5","7","7","7","7","7","7","7","7","7","7","7","7","7","7","7","6","7","7","7","7","7","688784182117138432","郭","148","Male","[""好我"",""坏他"",""坏我"",""好他""]","[""强我"",""弱他"",""弱我"",""强他""]","","","","","","","","yes","","","","","","","","","SRET","EW_formal","","key","f","8.332183745582942","853.3333333333334","476","朋友","忠义","Positive","morality","","","","","","","","","",""
"1448","","j","psychophysics","54","400902","0.0-7.0-3.0-0.40","6","6","7","5","5","5","5","5","5","5","5","2","2","1","2","1","2","2","2","5","5","5","5","5","4","4","4","5","5","7","8","7","8","7","8","8","9","8","6","7","4","7","7","7","6","7","7","7","6","7","7","7","6","7","7","7","5","7","7","7","7","7","7","7","7","7","7","7","7","7","7","7","6","7","7","7","7","7","688784182117138432","郭","148","Male","[""好我"",""坏他"",""坏我"",""好他""]","[""强我"",""弱他"",""弱我"",""强他""]","","","","","","","","no","","","","","","","","","SRET","EW_formal","","key","j","8.333423208191025","853.3333333333334","476","朋友","迟钝","Negative","ability","","","","","","","","","",""
"1086","","f","psychophysics","55","402989","0.0-7.0-3.0-0.41","6","6","7","5","5","5","5","5","5","5","5","2","2","1","2","1","2","2","2","5","5","5","5","5","4","4","4","5","5","7","8","7","8","7","8","8","9","8","6","7","4","7","7","7","6","7","7","7","6","7","7","7","6","7","7","7","5","7","7","7","7","7","7","7","7","7","7","7","7","7","7","7","6","7","7","7","7","7","688784182117138432","郭","148","Male","[""好我"",""坏他"",""坏我"",""好他""]","[""强我"",""弱他"",""弱我"",""强他""]","","","","","","","","yes","","","","","","","","","SRET","EW_formal","","key","f","8.33392771084332","853.3333333333334","476","自己","利落","Positive","ability","","","","","","","","","",""
"743","","j","psychophysics","56","404733","0.0-7.0-3.0-0.42","6","6","7","5","5","5","5","5","5","5","5","2","2","1","2","1","2","2","2","5","5","5","5","5","4","4","4","5","5","7","8","7","8","7","8","8","9","8","6","7","4","7","7","7","6","7","7","7","6","7","7","7","6","7","7","7","5","7","7","7","7","7","7","7","7","7","7","7","7","7","7","7","6","7","7","7","7","7","688784182117138432","郭","148","Male","[""好我"",""坏他"",""坏我"",""好他""]","[""强我"",""弱他"",""弱我"",""强他""]","","","","","","","","no","","","","","","","","","SRET","EW_formal","","key","j","8.333961538461434","853.3333333333334","476","朋友","无赖","Negative","morality","","","","","","","","","",""
"806","","j","psychophysics","57","406542","0.0-7.0-3.0-0.43","6","6","7","5","5","5","5","5","5","5","5","2","2","1","2","1","2","2","2","5","5","5","5","5","4","4","4","5","5","7","8","7","8","7","8","8","9","8","6","7","4","7","7","7","6","7","7","7","6","7","7","7","6","7","7","7","5","7","7","7","7","7","7","7","7","7","7","7","7","7","7","7","6","7","7","7","7","7","688784182117138432","郭","148","Male","[""好我"",""坏他"",""坏我"",""好他""]","[""强我"",""弱他"",""弱我"",""强他""]","","","","","","","","no","","","","","","","","","SRET","EW_formal","","key","j","8.332814814814709","853.3333333333334","476","朋友","浅薄","Negative","ability","","","","","","","","","",""
"1791","","j","psychophysics","58","409334","0.0-7.0-3.0-0.44","6","6","7","5","5","5","5","5","5","5","5","2","2","1","2","1","2","2","2","5","5","5","5","5","4","4","4","5","5","7","8","7","8","7","8","8","9","8","6","7","4","7","7","7","6","7","7","7","6","7","7","7","6","7","7","7","5","7","7","7","7","7","7","7","7","7","7","7","7","7","7","7","6","7","7","7","7","7","688784182117138432","郭","148","Male","[""好我"",""坏他"",""坏我"",""好他""]","[""强我"",""弱他"",""弱我"",""强他""]","","","","","","","","no","","","","","","","","","SRET","EW_formal","","key","j","8.332402985074571","853.3333333333334","476","自己","失信","Negative","morality","","","","","","","","","",""
"854","","f","psychophysics","59","411189","0.0-7.0-3.0-0.45","6","6","7","5","5","5","5","5","5","5","5","2","2","1","2","1","2","2","2","5","5","5","5","5","4","4","4","5","5","7","8","7","8","7","8","8","9","8","6","7","4","7","7","7","6","7","7","7","6","7","7","7","6","7","7","7","5","7","7","7","7","7","7","7","7","7","7","7","7","7","7","7","6","7","7","7","7","7","688784182117138432","郭","148","Male","[""好我"",""坏他"",""坏我"",""好他""]","[""强我"",""弱他"",""弱我"",""强他""]","","","","","","","","yes","","","","","","","","","SRET","EW_formal","","key","f","8.332651583710422","853.3333333333334","476","自己","厚道","Positive","morality","","","","","","","","","",""
"1462","","f","psychophysics","60","413652","0.0-7.0-3.0-0.46","6","6","7","5","5","5","5","5","5","5","5","2","2","1","2","1","2","2","2","5","5","5","5","5","4","4","4","5","5","7","8","7","8","7","8","8","9","8","6","7","4","7","7","7","6","7","7","7","6","7","7","7","6","7","7","7","5","7","7","7","7","7","7","7","7","7","7","7","7","7","7","7","6","7","7","7","7","7","688784182117138432","郭","148","Male","[""好我"",""坏他"",""坏我"",""好他""]","[""强我"",""弱他"",""弱我"",""强他""]","","","","","","","","yes","","","","","","","","","SRET","EW_formal","","key","f","8.333393220339065","853.3333333333334","476","朋友","博学","Positive","ability","","","","","","","","","",""
"1000","","j","psychophysics","61","415653","0.0-7.0-3.0-0.47","6","6","7","5","5","5","5","5","5","5","5","2","2","1","2","1","2","2","2","5","5","5","5","5","4","4","4","5","5","7","8","7","8","7","8","8","9","8","6","7","4","7","7","7","6","7","7","7","6","7","7","7","6","7","7","7","5","7","7","7","7","7","7","7","7","7","7","7","7","7","7","7","6","7","7","7","7","7","688784182117138432","郭","148","Male","[""好我"",""坏他"",""坏我"",""好他""]","[""强我"",""弱他"",""弱我"",""强他""]","","","","","","","","no","","","","","","","","","SRET","EW_formal","","key","j","8.333707112970686","853.3333333333334","476","朋友","盲目","Negative","ability","","","","","","","","","",""
"2431","","f","psychophysics","62","419085","0.0-7.0-3.0-0.48","6","6","7","5","5","5","5","5","5","5","5","2","2","1","2","1","2","2","2","5","5","5","5","5","4","4","4","5","5","7","8","7","8","7","8","8","9","8","6","7","4","7","7","7","6","7","7","7","6","7","7","7","6","7","7","7","5","7","7","7","7","7","7","7","7","7","7","7","7","7","7","7","6","7","7","7","7","7","688784182117138432","郭","148","Male","[""好我"",""坏他"",""坏我"",""好他""]","[""强我"",""弱他"",""弱我"",""强他""]","","","","","","","","yes","","","","","","","","","SRET","EW_formal","","key","f","8.332841849148442","853.3333333333334","476","自己","智慧","Positive","ability","","","","","","","","","",""
"1086","","f","psychophysics","63","421174","0.0-7.0-3.0-0.49","6","6","7","5","5","5","5","5","5","5","5","2","2","1","2","1","2","2","2","5","5","5","5","5","4","4","4","5","5","7","8","7","8","7","8","8","9","8","6","7","4","7","7","7","6","7","7","7","6","7","7","7","6","7","7","7","5","7","7","7","7","7","7","7","7","7","7","7","7","7","7","7","6","7","7","7","7","7","688784182117138432","郭","148","Male","[""好我"",""坏他"",""坏我"",""好他""]","[""强我"",""弱他"",""弱我"",""强他""]","","","","","","","","yes","","","","","","","","","SRET","EW_formal","","key","f","8.333180722891564","853.3333333333334","476","自己","骁勇","Positive","ability","","","","","","","","","",""
"686","","f","psychophysics","64","422861","0.0-7.0-3.0-0.50","6","6","7","5","5","5","5","5","5","5","5","2","2","1","2","1","2","2","2","5","5","5","5","5","4","4","4","5","5","7","8","7","8","7","8","8","9","8","6","7","4","7","7","7","6","7","7","7","6","7","7","7","6","7","7","7","5","7","7","7","7","7","7","7","7","7","7","7","7","7","7","7","6","7","7","7","7","7","688784182117138432","郭","148","Male","[""好我"",""坏他"",""坏我"",""好他""]","[""强我"",""弱他"",""弱我"",""强他""]","","","","","","","","yes","","","","","","","","","SRET","EW_formal","","key","f","8.3356287128711","853.3333333333334","476","自己","自律","Positive","ability","","","","","","","","","",""
"663","","j","psychophysics","65","424524","0.0-7.0-3.0-0.51","6","6","7","5","5","5","5","5","5","5","5","2","2","1","2","1","2","2","2","5","5","5","5","5","4","4","4","5","5","7","8","7","8","7","8","8","9","8","6","7","4","7","7","7","6","7","7","7","6","7","7","7","6","7","7","7","5","7","7","7","7","7","7","7","7","7","7","7","7","7","7","7","6","7","7","7","7","7","688784182117138432","郭","148","Male","[""好我"",""坏他"",""坏我"",""好他""]","[""强我"",""弱他"",""弱我"",""强他""]","","","","","","","","no","","","","","","","","","SRET","EW_formal","","key","j","8.33293467336691","853.3333333333334","476","自己","缺德","Negative","morality","","","","","","","","","",""
"984","","j","psychophysics","66","426509","0.0-7.0-3.0-0.52","6","6","7","5","5","5","5","5","5","5","5","2","2","1","2","1","2","2","2","5","5","5","5","5","4","4","4","5","5","7","8","7","8","7","8","8","9","8","6","7","4","7","7","7","6","7","7","7","6","7","7","7","6","7","7","7","5","7","7","7","7","7","7","7","7","7","7","7","7","7","7","7","6","7","7","7","7","7","688784182117138432","郭","148","Male","[""好我"",""坏他"",""坏我"",""好他""]","[""强我"",""弱他"",""弱我"",""强他""]","","","","","","","","no","","","","","","","","","SRET","EW_formal","","key","j","8.333573839662574","853.3333333333334","476","自己","腐败","Negative","morality","","","","","","","","","",""
"3206","","j","psychophysics","67","430716","0.0-7.0-3.0-0.53","6","6","7","5","5","5","5","5","5","5","5","2","2","1","2","1","2","2","2","5","5","5","5","5","4","4","4","5","5","7","8","7","8","7","8","8","9","8","6","7","4","7","7","7","6","7","7","7","6","7","7","7","6","7","7","7","5","7","7","7","7","7","7","7","7","7","7","7","7","7","7","7","6","7","7","7","7","7","688784182117138432","郭","148","Male","[""好我"",""坏他"",""坏我"",""好他""]","[""强我"",""弱他"",""弱我"",""强他""]","","","","","","","","no","","","","","","","","","SRET","EW_formal","","key","j","8.333093253968284","853.3333333333334","476","朋友","新手","Negative","ability","","","","","","","","","",""
"967","","f","psychophysics","68","432685","0.0-7.0-3.0-0.54","6","6","7","5","5","5","5","5","5","5","5","2","2","1","2","1","2","2","2","5","5","5","5","5","4","4","4","5","5","7","8","7","8","7","8","8","9","8","6","7","4","7","7","7","6","7","7","7","6","7","7","7","6","7","7","7","5","7","7","7","7","7","7","7","7","7","7","7","7","7","7","7","6","7","7","7","7","7","688784182117138432","郭","148","Male","[""好我"",""坏他"",""坏我"",""好他""]","[""强我"",""弱他"",""弱我"",""强他""]","","","","","","","","yes","","","","","","","","","SRET","EW_formal","","key","f","8.33328936170202","853.3333333333334","476","自己","侠义","Positive","morality","","","","","","","","","",""
"1686","","j","psychophysics","69","435373","0.0-7.0-3.0-0.55","6","6","7","5","5","5","5","5","5","5","5","2","2","1","2","1","2","2","2","5","5","5","5","5","4","4","4","5","5","7","8","7","8","7","8","8","9","8","6","7","4","7","7","7","6","7","7","7","6","7","7","7","6","7","7","7","5","7","7","7","7","7","7","7","7","7","7","7","7","7","7","7","6","7","7","7","7","7","688784182117138432","郭","148","Male","[""好我"",""坏他"",""坏我"",""好他""]","[""强我"",""弱他"",""弱我"",""强他""]","","","","","","","","no","","","","","","","","","SRET","EW_formal","","key","j","8.333605590062028","853.3333333333334","476","朋友","刻薄","Negative","morality","","","","","","","","","",""
"808","","f","psychophysics","70","437181","0.0-7.0-3.0-0.56","6","6","7","5","5","5","5","5","5","5","5","2","2","1","2","1","2","2","2","5","5","5","5","5","4","4","4","5","5","7","8","7","8","7","8","8","9","8","6","7","4","7","7","7","6","7","7","7","6","7","7","7","6","7","7","7","5","7","7","7","7","7","7","7","7","7","7","7","7","7","7","7","6","7","7","7","7","7","688784182117138432","郭","148","Male","[""好我"",""坏他"",""坏我"",""好他""]","[""强我"",""弱他"",""弱我"",""强他""]","","","","","","","","yes","","","","","","","","","SRET","EW_formal","","key","f","8.332912037036968","853.3333333333334","476","自己","孝顺","Positive","morality","","","","","","","","","",""
"951","","f","psychophysics","71","439133","0.0-7.0-3.0-0.57","6","6","7","5","5","5","5","5","5","5","5","2","2","1","2","1","2","2","2","5","5","5","5","5","4","4","4","5","5","7","8","7","8","7","8","8","9","8","6","7","4","7","7","7","6","7","7","7","6","7","7","7","6","7","7","7","5","7","7","7","7","7","7","7","7","7","7","7","7","7","7","7","6","7","7","7","7","7","688784182117138432","郭","148","Male","[""好我"",""坏他"",""坏我"",""好他""]","[""强我"",""弱他"",""弱我"",""强他""]","","","","","","","","yes","","","","","","","","","SRET","EW_formal","","key","f","8.33290557939931","853.3333333333334","476","自己","果断","Positive","ability","","","","","","","","","",""
"983","","j","psychophysics","72","441116","0.0-7.0-3.0-0.58","6","6","7","5","5","5","5","5","5","5","5","2","2","1","2","1","2","2","2","5","5","5","5","5","4","4","4","5","5","7","8","7","8","7","8","8","9","8","6","7","4","7","7","7","6","7","7","7","6","7","7","7","6","7","7","7","5","7","7","7","7","7","7","7","7","7","7","7","7","7","7","7","6","7","7","7","7","7","688784182117138432","郭","148","Male","[""好我"",""坏他"",""坏我"",""好他""]","[""强我"",""弱他"",""弱我"",""强他""]","","","","","","","","no","","","","","","","","","SRET","EW_formal","","key","j","8.333156118143393","853.3333333333334","476","自己","混账","Negative","morality","","","","","","","","","",""
"1247","","j","psychophysics","73","443364","0.0-7.0-3.0-0.59","6","6","7","5","5","5","5","5","5","5","5","2","2","1","2","1","2","2","2","5","5","5","5","5","4","4","4","5","5","7","8","7","8","7","8","8","9","8","6","7","4","7","7","7","6","7","7","7","6","7","7","7","6","7","7","7","5","7","7","7","7","7","7","7","7","7","7","7","7","7","7","7","6","7","7","7","7","7","688784182117138432","郭","148","Male","[""好我"",""坏他"",""坏我"",""好他""]","[""强我"",""弱他"",""弱我"",""强他""]","","","","","","","","no","","","","","","","","","SRET","EW_formal","","key","j","8.33326765799269","853.3333333333334","476","朋友","低劣","Negative","morality","","","","","","","","","",""
"2031","","f","psychophysics","74","446396","0.0-7.0-3.0-0.60","6","6","7","5","5","5","5","5","5","5","5","2","2","1","2","1","2","2","2","5","5","5","5","5","4","4","4","5","5","7","8","7","8","7","8","8","9","8","6","7","4","7","7","7","6","7","7","7","6","7","7","7","6","7","7","7","5","7","7","7","7","7","7","7","7","7","7","7","7","7","7","7","6","7","7","7","7","7","688784182117138432","郭","148","Male","[""好我"",""坏他"",""坏我"",""好他""]","[""强我"",""弱他"",""弱我"",""强他""]","","","","","","","","yes","","","","","","","","","SRET","EW_formal","","key","f","8.333407713498628","853.3333333333334","476","自己","依靠","Negative","ability","","","","","","","","","",""
"1023","","f","psychophysics","75","448420","0.0-7.0-3.0-0.61","6","6","7","5","5","5","5","5","5","5","5","2","2","1","2","1","2","2","2","5","5","5","5","5","4","4","4","5","5","7","8","7","8","7","8","8","9","8","6","7","4","7","7","7","6","7","7","7","6","7","7","7","6","7","7","7","5","7","7","7","7","7","7","7","7","7","7","7","7","7","7","7","6","7","7","7","7","7","688784182117138432","郭","148","Male","[""好我"",""坏他"",""坏我"",""好他""]","[""强我"",""弱他"",""弱我"",""强他""]","","","","","","","","yes","","","","","","","","","SRET","EW_formal","","key","f","8.332260330578299","853.3333333333334","476","自己","谦逊","Positive","morality","","","","","","","","","",""
"967","","j","psychophysics","76","450388","0.0-7.0-3.0-0.62","6","6","7","5","5","5","5","5","5","5","5","2","2","1","2","1","2","2","2","5","5","5","5","5","4","4","4","5","5","7","8","7","8","7","8","8","9","8","6","7","4","7","7","7","6","7","7","7","6","7","7","7","6","7","7","7","5","7","7","7","7","7","7","7","7","7","7","7","7","7","7","7","6","7","7","7","7","7","688784182117138432","郭","148","Male","[""好我"",""坏他"",""坏我"",""好他""]","[""强我"",""弱他"",""弱我"",""强他""]","","","","","","","","no","","","","","","","","","SRET","EW_formal","","key","j","8.332829787234152","853.3333333333334","476","朋友","奸诈","Negative","morality","","","","","","","","","",""
"960","","f","psychophysics","77","452349","0.0-7.0-3.0-0.63","6","6","7","5","5","5","5","5","5","5","5","2","2","1","2","1","2","2","2","5","5","5","5","5","4","4","4","5","5","7","8","7","8","7","8","8","9","8","6","7","4","7","7","7","6","7","7","7","6","7","7","7","6","7","7","7","5","7","7","7","7","7","7","7","7","7","7","7","7","7","7","7","6","7","7","7","7","7","688784182117138432","郭","148","Male","[""好我"",""坏他"",""坏我"",""好他""]","[""强我"",""弱他"",""弱我"",""强他""]","","","","","","","","yes","","","","","","","","","SRET","EW_formal","","key","f","8.334559829059877","853.3333333333334","476","自己","无敌","Positive","ability","","","","","","","","","",""
"744","","f","psychophysics","78","454093","0.0-7.0-3.0-0.64","6","6","7","5","5","5","5","5","5","5","5","2","2","1","2","1","2","2","2","5","5","5","5","5","4","4","4","5","5","7","8","7","8","7","8","8","9","8","6","7","4","7","7","7","6","7","7","7","6","7","7","7","6","7","7","7","5","7","7","7","7","7","7","7","7","7","7","7","7","7","7","7","6","7","7","7","7","7","688784182117138432","郭","148","Male","[""好我"",""坏他"",""坏我"",""好他""]","[""强我"",""弱他"",""弱我"",""强他""]","","","","","","","","yes","","","","","","","","","SRET","EW_formal","","key","f","8.334283653846237","853.3333333333334","476","自己","正气","Positive","morality","","","","","","","","","",""
"1221","","j","psychophysics","79","456316","0.0-7.0-3.0-0.65","6","6","7","5","5","5","5","5","5","5","5","2","2","1","2","1","2","2","2","5","5","5","5","5","4","4","4","5","5","7","8","7","8","7","8","8","9","8","6","7","4","7","7","7","6","7","7","7","6","7","7","7","6","7","7","7","5","7","7","7","7","7","7","7","7","7","7","7","7","7","7","7","6","7","7","7","7","7","688784182117138432","郭","148","Male","[""好我"",""坏他"",""坏我"",""好他""]","[""强我"",""弱他"",""弱我"",""强他""]","","","","","","","","no","","","","","","","","","SRET","EW_formal","","key","j","8.333763157894802","853.3333333333334","476","朋友","无知","Negative","ability","","","","","","","","","",""
"801","","j","psychophysics","80","458118","0.0-7.0-3.0-0.66","6","6","7","5","5","5","5","5","5","5","5","2","2","1","2","1","2","2","2","5","5","5","5","5","4","4","4","5","5","7","8","7","8","7","8","8","9","8","6","7","4","7","7","7","6","7","7","7","6","7","7","7","6","7","7","7","5","7","7","7","7","7","7","7","7","7","7","7","7","7","7","7","6","7","7","7","7","7","688784182117138432","郭","148","Male","[""好我"",""坏他"",""坏我"",""好他""]","[""强我"",""弱他"",""弱我"",""强他""]","","","","","","","","no","","","","","","","","","SRET","EW_formal","","key","j","8.334381395348803","853.3333333333334","476","自己","下流","Negative","morality","","","","","","","","","",""
"1350","","f","psychophysics","81","460469","0.0-7.0-3.0-0.67","6","6","7","5","5","5","5","5","5","5","5","2","2","1","2","1","2","2","2","5","5","5","5","5","4","4","4","5","5","7","8","7","8","7","8","8","9","8","6","7","4","7","7","7","6","7","7","7","6","7","7","7","6","7","7","7","5","7","7","7","7","7","7","7","7","7","7","7","7","7","7","7","6","7","7","7","7","7","688784182117138432","郭","148","Male","[""好我"",""坏他"",""坏我"",""好他""]","[""强我"",""弱他"",""弱我"",""强他""]","","","","","","","","yes","","","","","","","","","SRET","EW_formal","","key","f","8.332734042553005","853.3333333333334","476","自己","仁厚","Positive","morality","","","","","","","","","",""
"734","","j","psychophysics","82","462204","0.0-7.0-3.0-0.68","6","6","7","5","5","5","5","5","5","5","5","2","2","1","2","1","2","2","2","5","5","5","5","5","4","4","4","5","5","7","8","7","8","7","8","8","9","8","6","7","4","7","7","7","6","7","7","7","6","7","7","7","6","7","7","7","5","7","7","7","7","7","7","7","7","7","7","7","7","7","7","7","6","7","7","7","7","7","688784182117138432","郭","148","Male","[""好我"",""坏他"",""坏我"",""好他""]","[""强我"",""弱他"",""弱我"",""强他""]","","","","","","","","no","","","","","","","","","SRET","EW_formal","","key","j","8.333043478260882","853.3333333333334","476","朋友","废物","Negative","ability","","","","","","","","","",""
"1135","","j","psychophysics","83","464341","0.0-7.0-3.0-0.69","6","6","7","5","5","5","5","5","5","5","5","2","2","1","2","1","2","2","2","5","5","5","5","5","4","4","4","5","5","7","8","7","8","7","8","8","9","8","6","7","4","7","7","7","6","7","7","7","6","7","7","7","6","7","7","7","5","7","7","7","7","7","7","7","7","7","7","7","7","7","7","7","6","7","7","7","7","7","688784182117138432","郭","148","Male","[""好我"",""坏他"",""坏我"",""好他""]","[""强我"",""弱他"",""弱我"",""强他""]","","","","","","","","no","","","","","","","","","SRET","EW_formal","","key","j","8.332615686274663","853.3333333333334","476","自己","不良","Negative","morality","","","","","","","","","",""
"1519","","j","psychophysics","84","466860","0.0-7.0-3.0-0.70","6","6","7","5","5","5","5","5","5","5","5","2","2","1","2","1","2","2","2","5","5","5","5","5","4","4","4","5","5","7","8","7","8","7","8","8","9","8","6","7","4","7","7","7","6","7","7","7","6","7","7","7","6","7","7","7","5","7","7","7","7","7","7","7","7","7","7","7","7","7","7","7","6","7","7","7","7","7","688784182117138432","郭","148","Male","[""好我"",""坏他"",""坏我"",""好他""]","[""强我"",""弱他"",""弱我"",""强他""]","","","","","","","","no","","","","","","","","","SRET","EW_formal","","key","j","8.332728476821181","853.3333333333334","476","自己","毛糙","Negative","ability","","","","","","","","","",""
"1888","","j","psychophysics","85","469749","0.0-7.0-3.0-0.71","6","6","7","5","5","5","5","5","5","5","5","2","2","1","2","1","2","2","2","5","5","5","5","5","4","4","4","5","5","7","8","7","8","7","8","8","9","8","6","7","4","7","7","7","6","7","7","7","6","7","7","7","6","7","7","7","5","7","7","7","7","7","7","7","7","7","7","7","7","7","7","7","6","7","7","7","7","7","688784182117138432","郭","148","Male","[""好我"",""坏他"",""坏我"",""好他""]","[""强我"",""弱他"",""弱我"",""强他""]","","","","","","","","no","","","","","","","","","SRET","EW_formal","","key","j","8.333431884058097","853.3333333333334","476","朋友","无为","Negative","ability","","","","","","","","","",""
"1077","","f","psychophysics","86","471829","0.0-7.0-3.0-0.72","6","6","7","5","5","5","5","5","5","5","5","2","2","1","2","1","2","2","2","5","5","5","5","5","4","4","4","5","5","7","8","7","8","7","8","8","9","8","6","7","4","7","7","7","6","7","7","7","6","7","7","7","6","7","7","7","5","7","7","7","7","7","7","7","7","7","7","7","7","7","7","7","6","7","7","7","7","7","688784182117138432","郭","148","Male","[""好我"",""坏他"",""坏我"",""好他""]","[""强我"",""弱他"",""弱我"",""强他""]","","","","","","","","yes","","","","","","","","","SRET","EW_formal","","key","f","8.333493975903531","853.3333333333334","476","朋友","努力","Positive","ability","","","","","","","","","",""
"998","","f","psychophysics","87","473828","0.0-7.0-3.0-0.73","6","6","7","5","5","5","5","5","5","5","5","2","2","1","2","1","2","2","2","5","5","5","5","5","4","4","4","5","5","7","8","7","8","7","8","8","9","8","6","7","4","7","7","7","6","7","7","7","6","7","7","7","6","7","7","7","5","7","7","7","7","7","7","7","7","7","7","7","7","7","7","7","6","7","7","7","7","7","688784182117138432","郭","148","Male","[""好我"",""坏他"",""坏我"",""好他""]","[""强我"",""弱他"",""弱我"",""强他""]","","","","","","","","yes","","","","","","","","","SRET","EW_formal","","key","f","8.333234309623599","853.3333333333334","476","朋友","稳健","Positive","ability","","","","","","","","","",""
"815","","f","psychophysics","88","475644","0.0-7.0-3.0-0.74","6","6","7","5","5","5","5","5","5","5","5","2","2","1","2","1","2","2","2","5","5","5","5","5","4","4","4","5","5","7","8","7","8","7","8","8","9","8","6","7","4","7","7","7","6","7","7","7","6","7","7","7","6","7","7","7","5","7","7","7","7","7","7","7","7","7","7","7","7","7","7","7","6","7","7","7","7","7","688784182117138432","郭","148","Male","[""好我"",""坏他"",""坏我"",""好他""]","[""强我"",""弱他"",""弱我"",""强他""]","","","","","","","","yes","","","","","","","","","SRET","EW_formal","","key","f","8.332046082949057","853.3333333333334","476","自己","全才","Positive","ability","","","","","","","","","",""
"655","","j","psychophysics","89","477301","0.0-7.0-3.0-0.75","6","6","7","5","5","5","5","5","5","5","5","2","2","1","2","1","2","2","2","5","5","5","5","5","4","4","4","5","5","7","8","7","8","7","8","8","9","8","6","7","4","7","7","7","6","7","7","7","6","7","7","7","6","7","7","7","5","7","7","7","7","7","7","7","7","7","7","7","7","7","7","7","6","7","7","7","7","7","688784182117138432","郭","148","Male","[""好我"",""坏他"",""坏我"",""好他""]","[""强我"",""弱他"",""弱我"",""强他""]","","","","","","","","no","","","","","","","","","SRET","EW_formal","","key","j","8.3329343434345","853.3333333333334","476","朋友","歹毒","Negative","morality","","","","","","","","","",""
"2062","","j","psychophysics","90","480365","0.0-7.0-3.0-0.76","6","6","7","5","5","5","5","5","5","5","5","2","2","1","2","1","2","2","2","5","5","5","5","5","4","4","4","5","5","7","8","7","8","7","8","8","9","8","6","7","4","7","7","7","6","7","7","7","6","7","7","7","6","7","7","7","5","7","7","7","7","7","7","7","7","7","7","7","7","7","7","7","6","7","7","7","7","7","688784182117138432","郭","148","Male","[""好我"",""坏他"",""坏我"",""好他""]","[""强我"",""弱他"",""弱我"",""强他""]","","","","","","","","no","","","","","","","","","SRET","EW_formal","","key","j","8.331797814207556","853.3333333333334","476","自己","驽钝","Negative","ability","","","","","","","","","",""
"845","","f","psychophysics","91","482213","0.0-7.0-3.0-0.77","6","6","7","5","5","5","5","5","5","5","5","2","2","1","2","1","2","2","2","5","5","5","5","5","4","4","4","5","5","7","8","7","8","7","8","8","9","8","6","7","4","7","7","7","6","7","7","7","6","7","7","7","6","7","7","7","5","7","7","7","7","7","7","7","7","7","7","7","7","7","7","7","6","7","7","7","7","7","688784182117138432","郭","148","Male","[""好我"",""坏他"",""坏我"",""好他""]","[""强我"",""弱他"",""弱我"",""强他""]","","","","","","","","yes","","","","","","","","","SRET","EW_formal","","key","f","8.33251583710396","853.3333333333334","476","自己","沉着","Positive","ability","","","","","","","","","",""
"1279","","j","psychophysics","92","484492","0.0-7.0-3.0-0.78","6","6","7","5","5","5","5","5","5","5","5","2","2","1","2","1","2","2","2","5","5","5","5","5","4","4","4","5","5","7","8","7","8","7","8","8","9","8","6","7","4","7","7","7","6","7","7","7","6","7","7","7","6","7","7","7","5","7","7","7","7","7","7","7","7","7","7","7","7","7","7","7","6","7","7","7","7","7","688784182117138432","郭","148","Male","[""好我"",""坏他"",""坏我"",""好他""]","[""强我"",""弱他"",""弱我"",""强他""]","","","","","","","","no","","","","","","","","","SRET","EW_formal","","key","j","8.33342124542137","853.3333333333334","476","自己","势利","Negative","morality","","","","","","","","","",""
"1536","","f","psychophysics","93","487029","0.0-7.0-3.0-0.79","6","6","7","5","5","5","5","5","5","5","5","2","2","1","2","1","2","2","2","5","5","5","5","5","4","4","4","5","5","7","8","7","8","7","8","8","9","8","6","7","4","7","7","7","6","7","7","7","6","7","7","7","6","7","7","7","5","7","7","7","7","7","7","7","7","7","7","7","7","7","7","7","6","7","7","7","7","7","688784182117138432","郭","148","Male","[""好我"",""坏他"",""坏我"",""好他""]","[""强我"",""弱他"",""弱我"",""强他""]","","","","","","","","yes","","","","","","","","","SRET","EW_formal","","key","f","8.333547854785486","853.3333333333334","476","朋友","顶事","Positive","ability","","","","","","","","","",""
"1144","","j","psychophysics","94","489174","0.0-7.0-3.0-0.80","6","6","7","5","5","5","5","5","5","5","5","2","2","1","2","1","2","2","2","5","5","5","5","5","4","4","4","5","5","7","8","7","8","7","8","8","9","8","6","7","4","7","7","7","6","7","7","7","6","7","7","7","6","7","7","7","5","7","7","7","7","7","7","7","7","7","7","7","7","7","7","7","6","7","7","7","7","7","688784182117138432","郭","148","Male","[""好我"",""坏他"",""坏我"",""好他""]","[""强我"",""弱他"",""弱我"",""强他""]","","","","","","","","no","","","","","","","","","SRET","EW_formal","","key","j","8.33267704280164","853.3333333333334","476","朋友","恶劣","Negative","morality","","","","","","","","","",""
"1191","","f","psychophysics","95","491366","0.0-7.0-3.0-0.81","6","6","7","5","5","5","5","5","5","5","5","2","2","1","2","1","2","2","2","5","5","5","5","5","4","4","4","5","5","7","8","7","8","7","8","8","9","8","6","7","4","7","7","7","6","7","7","7","6","7","7","7","6","7","7","7","5","7","7","7","7","7","7","7","7","7","7","7","7","7","7","7","6","7","7","7","7","7","688784182117138432","郭","148","Male","[""好我"",""坏他"",""坏我"",""好他""]","[""强我"",""弱他"",""弱我"",""强他""]","","","","","","","","yes","","","","","","","","","SRET","EW_formal","","key","f","8.33360305343504","853.3333333333334","476","朋友","高明","Positive","ability","","","","","","","","","",""
"966","","f","psychophysics","96","493333","0.0-7.0-3.0-0.82","6","6","7","5","5","5","5","5","5","5","5","2","2","1","2","1","2","2","2","5","5","5","5","5","4","4","4","5","5","7","8","7","8","7","8","8","9","8","6","7","4","7","7","7","6","7","7","7","6","7","7","7","6","7","7","7","5","7","7","7","7","7","7","7","7","7","7","7","7","7","7","7","6","7","7","7","7","7","688784182117138432","郭","148","Male","[""好我"",""坏他"",""坏我"",""好他""]","[""强我"",""弱他"",""弱我"",""强他""]","","","","","","","","yes","","","","","","","","","SRET","EW_formal","","key","f","8.33392765957446","853.3333333333334","476","自己","有力","Positive","ability","","","","","","","","","",""
"750","","j","psychophysics","97","495085","0.0-7.0-3.0-0.83","6","6","7","5","5","5","5","5","5","5","5","2","2","1","2","1","2","2","2","5","5","5","5","5","4","4","4","5","5","7","8","7","8","7","8","8","9","8","6","7","4","7","7","7","6","7","7","7","6","7","7","7","6","7","7","7","5","7","7","7","7","7","7","7","7","7","7","7","7","7","7","7","6","7","7","7","7","7","688784182117138432","郭","148","Male","[""好我"",""坏他"",""坏我"",""好他""]","[""强我"",""弱他"",""弱我"",""强他""]","","","","","","","","no","","","","","","","","","SRET","EW_formal","","key","j","8.333526315789449","853.3333333333334","476","自己","笨蛋","Negative","ability","","","","","","","","","",""
"711","","f","psychophysics","98","496798","0.0-7.0-3.0-0.84","6","6","7","5","5","5","5","5","5","5","5","2","2","1","2","1","2","2","2","5","5","5","5","5","4","4","4","5","5","7","8","7","8","7","8","8","9","8","6","7","4","7","7","7","6","7","7","7","6","7","7","7","6","7","7","7","5","7","7","7","7","7","7","7","7","7","7","7","7","7","7","7","6","7","7","7","7","7","688784182117138432","郭","148","Male","[""好我"",""坏他"",""坏我"",""好他""]","[""强我"",""弱他"",""弱我"",""强他""]","","","","","","","","yes","","","","","","","","","SRET","EW_formal","","key","f","8.334317073170606","853.3333333333334","476","自己","主见","Positive","ability","","","","","","","","","",""
"2519","","j","psychophysics","99","500317","0.0-7.0-3.0-0.85","6","6","7","5","5","5","5","5","5","5","5","2","2","1","2","1","2","2","2","5","5","5","5","5","4","4","4","5","5","7","8","7","8","7","8","8","9","8","6","7","4","7","7","7","6","7","7","7","6","7","7","7","6","7","7","7","5","7","7","7","7","7","7","7","7","7","7","7","7","7","7","7","6","7","7","7","7","7","688784182117138432","郭","148","Male","[""好我"",""坏他"",""坏我"",""好他""]","[""强我"",""弱他"",""弱我"",""强他""]","","","","","","","","no","","","","","","","","","SRET","EW_formal","","key","j","8.333061757719813","853.3333333333334","476","自己","缓慢","Negative","ability","","","","","","","","","",""
"912","","f","psychophysics","100","502230","0.0-7.0-3.0-0.86","6","6","7","5","5","5","5","5","5","5","5","2","2","1","2","1","2","2","2","5","5","5","5","5","4","4","4","5","5","7","8","7","8","7","8","8","9","8","6","7","4","7","7","7","6","7","7","7","6","7","7","7","6","7","7","7","5","7","7","7","7","7","7","7","7","7","7","7","7","7","7","7","6","7","7","7","7","7","688784182117138432","郭","148","Male","[""好我"",""坏他"",""坏我"",""好他""]","[""强我"",""弱他"",""弱我"",""强他""]","","","","","","","","yes","","","","","","","","","SRET","EW_formal","","key","f","8.3331622807018","853.3333333333334","476","朋友","素养","Positive","morality","","","","","","","","","",""
"837","","j","psychophysics","101","504069","0.0-7.0-3.0-0.87","6","6","7","5","5","5","5","5","5","5","5","2","2","1","2","1","2","2","2","5","5","5","5","5","4","4","4","5","5","7","8","7","8","7","8","8","9","8","6","7","4","7","7","7","6","7","7","7","6","7","7","7","6","7","7","7","5","7","7","7","7","7","7","7","7","7","7","7","7","7","7","7","6","7","7","7","7","7","688784182117138432","郭","148","Male","[""好我"",""坏他"",""坏我"",""好他""]","[""强我"",""弱他"",""弱我"",""强他""]","","","","","","","","no","","","","","","","","","SRET","EW_formal","","key","j","8.33174545454544","853.3333333333334","476","朋友","低俗","Negative","morality","","","","","","","","","",""
"6091","
    <p><div style='color:white;font-size:35px; line-height:20px;'>计算任务</div></p><br>
    <p><div style='color:red;font-size:25px; line-height:20px;'>接下来，您将看到一些四则运算题，<b>请从键盘选择 0-9 进行反应。</b></div></p>
    <p><div class='footer' style='color:white;font-size:25px; line-height:20px;'>如果对本实验还有不清楚之处，请立即向实验员咨询。</p><p style='color:white;font-size:25px; line-height:20px;'>如果您明白了规则：</p><p style='color:white;font-size:22px; line-height:20px;'>请按 继续 进入练习</p>
    </div>
    ","0","html-button-response","102","510161","0.0-7.0-4.0","6","6","7","5","5","5","5","5","5","5","5","2","2","1","2","1","2","2","2","5","5","5","5","5","4","4","4","5","5","7","8","7","8","7","8","8","9","8","6","7","4","7","7","7","6","7","7","7","6","7","7","7","6","7","7","7","5","7","7","7","7","7","7","7","7","7","7","7","7","7","7","7","6","7","7","7","7","7","688784182117138432","郭","148","Male","[""好我"",""坏他"",""坏我"",""好他""]","[""强我"",""弱他"",""弱我"",""强他""]","","","","","","","","","","","","","","","","","SRET_math","math_instructions","Thu Nov 02 2023 17:44:36 GMT+0800 (中国标准时间)","","","","","","","","","","","","","","","","","","",""
"4907","","2","psychophysics","103","515069","0.0-7.0-5.0-0.0","6","6","7","5","5","5","5","5","5","5","5","2","2","1","2","1","2","2","2","5","5","5","5","5","4","4","4","5","5","7","8","7","8","7","8","8","9","8","6","7","4","7","7","7","6","7","7","7","6","7","7","7","6","7","7","7","5","7","7","7","7","7","7","7","7","7","7","7","7","7","7","7","6","7","7","7","7","7","688784182117138432","郭","148","Male","[""好我"",""坏他"",""坏我"",""好他""]","[""强我"",""弱他"",""弱我"",""强他""]","","","","","","","","2","","","","","","","","","SRET","SRET_math_calculate","","key","2","8.340884353741501","853.3333333333334","476","","","","","22/11= ?","2","1","","","","","","",""
"2367","","5","psychophysics","104","517437","0.0-7.0-5.0-0.1","6","6","7","5","5","5","5","5","5","5","5","2","2","1","2","1","2","2","2","5","5","5","5","5","4","4","4","5","5","7","8","7","8","7","8","8","9","8","6","7","4","7","7","7","6","7","7","7","6","7","7","7","6","7","7","7","5","7","7","7","7","7","7","7","7","7","7","7","7","7","7","7","6","7","7","7","7","7","688784182117138432","郭","148","Male","[""好我"",""坏他"",""坏我"",""好他""]","[""强我"",""弱他"",""弱我"",""强他""]","","","","","","","","5","","","","","","","","","SRET","SRET_math_calculate","","key","5","8.333720848056638","853.3333333333334","476","","","","","8-3= ? ","5","1","","","","","","",""
"2175","","3","psychophysics","105","519613","0.0-7.0-5.0-0.2","6","6","7","5","5","5","5","5","5","5","5","2","2","1","2","1","2","2","2","5","5","5","5","5","4","4","4","5","5","7","8","7","8","7","8","8","9","8","6","7","4","7","7","7","6","7","7","7","6","7","7","7","6","7","7","7","5","7","7","7","7","7","7","7","7","7","7","7","7","7","7","7","6","7","7","7","7","7","688784182117138432","郭","148","Male","[""好我"",""坏他"",""坏我"",""好他""]","[""强我"",""弱他"",""弱我"",""强他""]","","","","","","","","3","","","","","","","","","SRET","SRET_math_calculate","","key","3","8.333484615384636","853.3333333333334","476","","","","","21/7=  ?","3","1","","","","","","",""
"2566","","5","psychophysics","106","522181","0.0-7.0-5.0-0.3","6","6","7","5","5","5","5","5","5","5","5","2","2","1","2","1","2","2","2","5","5","5","5","5","4","4","4","5","5","7","8","7","8","7","8","8","9","8","6","7","4","7","7","7","6","7","7","7","6","7","7","7","6","7","7","7","5","7","7","7","7","7","7","7","7","7","7","7","7","7","7","7","6","7","7","7","7","7","688784182117138432","郭","148","Male","[""好我"",""坏他"",""坏我"",""好他""]","[""强我"",""弱他"",""弱我"",""强他""]","","","","","","","","5","","","","","","","","","SRET","SRET_math_calculate","","key","5","8.332610389610448","853.3333333333334","476","","","","","17-12= ? ","5","1","","","","","","",""
"2254","","4","psychophysics","107","524437","0.0-7.0-5.0-0.4","6","6","7","5","5","5","5","5","5","5","5","2","2","1","2","1","2","2","2","5","5","5","5","5","4","4","4","5","5","7","8","7","8","7","8","8","9","8","6","7","4","7","7","7","6","7","7","7","6","7","7","7","6","7","7","7","5","7","7","7","7","7","7","7","7","7","7","7","7","7","7","7","6","7","7","7","7","7","688784182117138432","郭","148","Male","[""好我"",""坏他"",""坏我"",""好他""]","[""强我"",""弱他"",""弱我"",""强他""]","","","","","","","","4","","","","","","","","","SRET","SRET_math_calculate","","key","4","8.33366542750927","853.3333333333334","476","","","","","4*1= ?","4","1","","","","","","",""
"2127","","4","psychophysics","108","526565","0.0-7.0-5.0-0.5","6","6","7","5","5","5","5","5","5","5","5","2","2","1","2","1","2","2","2","5","5","5","5","5","4","4","4","5","5","7","8","7","8","7","8","8","9","8","6","7","4","7","7","7","6","7","7","7","6","7","7","7","6","7","7","7","5","7","7","7","7","7","7","7","7","7","7","7","7","7","7","7","6","7","7","7","7","7","688784182117138432","郭","148","Male","[""好我"",""坏他"",""坏我"",""好他""]","[""强我"",""弱他"",""弱我"",""强他""]","","","","","","","","4","","","","","","","","","SRET","SRET_math_calculate","","key","4","8.333717647058815","853.3333333333334","476","","","","","20/5= ?","4","1","","","","","","",""
"3399","","8","psychophysics","109","529965","0.0-7.0-5.0-0.6","6","6","7","5","5","5","5","5","5","5","5","2","2","1","2","1","2","2","2","5","5","5","5","5","4","4","4","5","5","7","8","7","8","7","8","8","9","8","6","7","4","7","7","7","6","7","7","7","6","7","7","7","6","7","7","7","5","7","7","7","7","7","7","7","7","7","7","7","7","7","7","7","6","7","7","7","7","7","688784182117138432","郭","148","Male","[""好我"",""坏他"",""坏我"",""好他""]","[""强我"",""弱他"",""弱我"",""强他""]","","","","","","","","8","","","","","","","","","SRET","SRET_math_calculate","","key","8","8.333309582309598","853.3333333333334","476","","","","","13-5= ?","8","1","","","","","","",""
"3975","","9","psychophysics","110","533941","0.0-7.0-5.0-0.7","6","6","7","5","5","5","5","5","5","5","5","2","2","1","2","1","2","2","2","5","5","5","5","5","4","4","4","5","5","7","8","7","8","7","8","8","9","8","6","7","4","7","7","7","6","7","7","7","6","7","7","7","6","7","7","7","5","7","7","7","7","7","7","7","7","7","7","7","7","7","7","7","6","7","7","7","7","7","688784182117138432","郭","148","Male","[""好我"",""坏他"",""坏我"",""好他""]","[""强我"",""弱他"",""弱我"",""强他""]","","","","","","","","9","","","","","","","","","SRET","SRET_math_calculate","","key","9","8.332777310924374","853.3333333333334","476","","","","","2+7= ?","9","1","","","","","","",""
"2519","","2","psychophysics","111","536461","0.0-7.0-5.0-0.8","6","6","7","5","5","5","5","5","5","5","5","2","2","1","2","1","2","2","2","5","5","5","5","5","4","4","4","5","5","7","8","7","8","7","8","8","9","8","6","7","4","7","7","7","6","7","7","7","6","7","7","7","6","7","7","7","5","7","7","7","7","7","7","7","7","7","7","7","7","7","7","7","6","7","7","7","7","7","688784182117138432","郭","148","Male","[""好我"",""坏他"",""坏我"",""好他""]","[""强我"",""弱他"",""弱我"",""强他""]","","","","","","","","2","","","","","","","","","SRET","SRET_math_calculate","","key","2","8.33383720930228","853.3333333333334","476","","","","","8/4= ?","2","1","","","","","","",""
"2286","","0","psychophysics","112","538749","0.0-7.0-5.0-0.9","6","6","7","5","5","5","5","5","5","5","5","2","2","1","2","1","2","2","2","5","5","5","5","5","4","4","4","5","5","7","8","7","8","7","8","8","9","8","6","7","4","7","7","7","6","7","7","7","6","7","7","7","6","7","7","7","5","7","7","7","7","7","7","7","7","7","7","7","7","7","7","7","6","7","7","7","7","7","688784182117138432","郭","148","Male","[""好我"",""坏他"",""坏我"",""好他""]","[""强我"",""弱他"",""弱我"",""强他""]","","","","","","","","0","","","","","","","","","SRET","SRET_math_calculate","","key","0","8.332795620437908","853.3333333333334","476","","","","","12-12= ?","0","1","","","","","","",""
"2271","","8","psychophysics","113","541021","0.0-7.0-5.0-0.10","6","6","7","5","5","5","5","5","5","5","5","2","2","1","2","1","2","2","2","5","5","5","5","5","4","4","4","5","5","7","8","7","8","7","8","8","9","8","6","7","4","7","7","7","6","7","7","7","6","7","7","7","6","7","7","7","5","7","7","7","7","7","7","7","7","7","7","7","7","7","7","7","6","7","7","7","7","7","688784182117138432","郭","148","Male","[""好我"",""坏他"",""坏我"",""好他""]","[""强我"",""弱他"",""弱我"",""强他""]","","","","","","","","8","","","","","","","","","SRET","SRET_math_calculate","","key","8","8.333246323529131","853.3333333333334","476","","","","","56/7= ?","8","1","","","","","","",""
"2408","","6","psychophysics","114","543430","0.0-7.0-5.0-0.11","6","6","7","5","5","5","5","5","5","5","5","2","2","1","2","1","2","2","2","5","5","5","5","5","4","4","4","5","5","7","8","7","8","7","8","8","9","8","6","7","4","7","7","7","6","7","7","7","6","7","7","7","6","7","7","7","5","7","7","7","7","7","7","7","7","7","7","7","7","7","7","7","6","7","7","7","7","7","688784182117138432","郭","148","Male","[""好我"",""坏他"",""坏我"",""好他""]","[""强我"",""弱他"",""弱我"",""强他""]","","","","","","","","6","","","","","","","","","SRET","SRET_math_calculate","","key","6","8.332923611111458","853.3333333333334","476","","","","","9-3= ?","6","1","","","","","","",""
"2286","","0","psychophysics","115","545717","0.0-7.0-5.0-0.12","6","6","7","5","5","5","5","5","5","5","5","2","2","1","2","1","2","2","2","5","5","5","5","5","4","4","4","5","5","7","8","7","8","7","8","8","9","8","6","7","4","7","7","7","6","7","7","7","6","7","7","7","6","7","7","7","5","7","7","7","7","7","7","7","7","7","7","7","7","7","7","7","6","7","7","7","7","7","688784182117138432","郭","148","Male","[""好我"",""坏他"",""坏我"",""好他""]","[""强我"",""弱他"",""弱我"",""强他""]","","","","","","","","0","","","","","","","","","SRET","SRET_math_calculate","","key","0","8.33383882783853","853.3333333333334","476","","","","","7*0= ?","0","1","","","","","","",""
"2111","","9","psychophysics","116","547829","0.0-7.0-5.0-0.13","6","6","7","5","5","5","5","5","5","5","5","2","2","1","2","1","2","2","2","5","5","5","5","5","4","4","4","5","5","7","8","7","8","7","8","8","9","8","6","7","4","7","7","7","6","7","7","7","6","7","7","7","6","7","7","7","5","7","7","7","7","7","7","7","7","7","7","7","7","7","7","7","6","7","7","7","7","7","688784182117138432","郭","148","Male","[""好我"",""坏他"",""坏我"",""好他""]","[""强我"",""弱他"",""弱我"",""强他""]","","","","","","","","9","","","","","","","","","SRET","SRET_math_calculate","","key","9","8.332569169960529","853.3333333333334","476","","","","","1+8= ?","9","1","","","","","","",""
"2856","","8","psychophysics","117","550686","0.0-7.0-5.0-0.14","6","6","7","5","5","5","5","5","5","5","5","2","2","1","2","1","2","2","2","5","5","5","5","5","4","4","4","5","5","7","8","7","8","7","8","8","9","8","6","7","4","7","7","7","6","7","7","7","6","7","7","7","6","7","7","7","5","7","7","7","7","7","7","7","7","7","7","7","7","7","7","7","6","7","7","7","7","7","688784182117138432","郭","148","Male","[""好我"",""坏他"",""坏我"",""好他""]","[""强我"",""弱他"",""弱我"",""强他""]","","","","","","","","8","","","","","","","","","SRET","SRET_math_calculate","","key","8","8.333593567251569","853.3333333333334","476","","","","","11-3= ?","8","1","","","","","","",""
"2222","","5","psychophysics","118","552910","0.0-7.0-5.0-0.15","6","6","7","5","5","5","5","5","5","5","5","2","2","1","2","1","2","2","2","5","5","5","5","5","4","4","4","5","5","7","8","7","8","7","8","8","9","8","6","7","4","7","7","7","6","7","7","7","6","7","7","7","6","7","7","7","5","7","7","7","7","7","7","7","7","7","7","7","7","7","7","7","6","7","7","7","7","7","688784182117138432","郭","148","Male","[""好我"",""坏他"",""坏我"",""好他""]","[""强我"",""弱他"",""弱我"",""强他""]","","","","","","","","5","","","","","","","","","SRET","SRET_math_calculate","","key","5","8.333279245283086","853.3333333333334","476","","","","","10-5= ?","5","1","","","","","","",""
"2382","","8","psychophysics","119","555294","0.0-7.0-5.0-0.16","6","6","7","5","5","5","5","5","5","5","5","2","2","1","2","1","2","2","2","5","5","5","5","5","4","4","4","5","5","7","8","7","8","7","8","8","9","8","6","7","4","7","7","7","6","7","7","7","6","7","7","7","6","7","7","7","5","7","7","7","7","7","7","7","7","7","7","7","7","7","7","7","6","7","7","7","7","7","688784182117138432","郭","148","Male","[""好我"",""坏他"",""坏我"",""好他""]","[""强我"",""弱他"",""弱我"",""强他""]","","","","","","","","8","","","","","","","","","SRET","SRET_math_calculate","","key","8","8.333010489510624","853.3333333333334","476","","","","","8*1= ?","8","1","","","","","","",""
"2166","","8","psychophysics","120","557461","0.0-7.0-5.0-0.17","6","6","7","5","5","5","5","5","5","5","5","2","2","1","2","1","2","2","2","5","5","5","5","5","4","4","4","5","5","7","8","7","8","7","8","8","9","8","6","7","4","7","7","7","6","7","7","7","6","7","7","7","6","7","7","7","5","7","7","7","7","7","7","7","7","7","7","7","7","7","7","7","6","7","7","7","7","7","688784182117138432","郭","148","Male","[""好我"",""坏他"",""坏我"",""好他""]","[""强我"",""弱他"",""弱我"",""强他""]","","","","","","","","8","","","","","","","","","SRET","SRET_math_calculate","","key","8","8.332563706563558","853.3333333333334","476","","","","","4+4= ?","8","1","","","","","","",""
"2519","","1","psychophysics","121","559981","0.0-7.0-5.0-0.18","6","6","7","5","5","5","5","5","5","5","5","2","2","1","2","1","2","2","2","5","5","5","5","5","4","4","4","5","5","7","8","7","8","7","8","8","9","8","6","7","4","7","7","7","6","7","7","7","6","7","7","7","6","7","7","7","5","7","7","7","7","7","7","7","7","7","7","7","7","7","7","7","6","7","7","7","7","7","688784182117138432","郭","148","Male","[""好我"",""坏他"",""坏我"",""好他""]","[""强我"",""弱他"",""弱我"",""强他""]","","","","","","","","1","","","","","","","","","SRET","SRET_math_calculate","","key","1","8.333428571428454","853.3333333333334","476","","","","","4/4= ?","1","1","","","","","","",""
"2207","","7","psychophysics","122","562189","0.0-7.0-5.0-0.19","6","6","7","5","5","5","5","5","5","5","5","2","2","1","2","1","2","2","2","5","5","5","5","5","4","4","4","5","5","7","8","7","8","7","8","8","9","8","6","7","4","7","7","7","6","7","7","7","6","7","7","7","6","7","7","7","5","7","7","7","7","7","7","7","7","7","7","7","7","7","7","7","6","7","7","7","7","7","688784182117138432","郭","148","Male","[""好我"",""坏他"",""坏我"",""好他""]","[""强我"",""弱他"",""弱我"",""强他""]","","","","","","","","7","","","","","","","","","SRET","SRET_math_calculate","","key","7","8.332602272727385","853.3333333333334","476","","","","","5+2= ?","7","1","","","","","","",""
"1975","","2","psychophysics","123","564165","0.0-7.0-5.0-0.20","6","6","7","5","5","5","5","5","5","5","5","2","2","1","2","1","2","2","2","5","5","5","5","5","4","4","4","5","5","7","8","7","8","7","8","8","9","8","6","7","4","7","7","7","6","7","7","7","6","7","7","7","6","7","7","7","5","7","7","7","7","7","7","7","7","7","7","7","7","7","7","7","6","7","7","7","7","7","688784182117138432","郭","148","Male","[""好我"",""坏他"",""坏我"",""好他""]","[""强我"",""弱他"",""弱我"",""强他""]","","","","","","","","2","","","","","","","","","SRET","SRET_math_calculate","","key","2","8.334343220338608","853.3333333333334","476","","","","","9-7= ?","2","1","","","","","","",""
"2077","","8","psychophysics","124","566245","0.0-7.0-5.0-0.21","6","6","7","5","5","5","5","5","5","5","5","2","2","1","2","1","2","2","2","5","5","5","5","5","4","4","4","5","5","7","8","7","8","7","8","8","9","8","6","7","4","7","7","7","6","7","7","7","6","7","7","7","6","7","7","7","5","7","7","7","7","7","7","7","7","7","7","7","7","7","7","7","6","7","7","7","7","7","688784182117138432","郭","148","Male","[""好我"",""坏他"",""坏我"",""好他""]","[""强我"",""弱他"",""弱我"",""强他""]","","","","","","","","8","","","","","","","","","SRET","SRET_math_calculate","","key","8","8.333196787148655","853.3333333333334","476","","","","","3+5= ?","8","1","","","","","","",""
"2151","","6","psychophysics","125","568397","0.0-7.0-5.0-0.22","6","6","7","5","5","5","5","5","5","5","5","2","2","1","2","1","2","2","2","5","5","5","5","5","4","4","4","5","5","7","8","7","8","7","8","8","9","8","6","7","4","7","7","7","6","7","7","7","6","7","7","7","6","7","7","7","5","7","7","7","7","7","7","7","7","7","7","7","7","7","7","7","6","7","7","7","7","7","688784182117138432","郭","148","Male","[""好我"",""坏他"",""坏我"",""好他""]","[""强我"",""弱他"",""弱我"",""强他""]","","","","","","","","6","","","","","","","","","SRET","SRET_math_calculate","","key","6","8.333665369649722","853.3333333333334","476","","","","","8-2= ?","6","1","","","","","","",""
"2231","","1","psychophysics","126","570629","0.0-7.0-5.0-0.23","6","6","7","5","5","5","5","5","5","5","5","2","2","1","2","1","2","2","2","5","5","5","5","5","4","4","4","5","5","7","8","7","8","7","8","8","9","8","6","7","4","7","7","7","6","7","7","7","6","7","7","7","6","7","7","7","5","7","7","7","7","7","7","7","7","7","7","7","7","7","7","7","6","7","7","7","7","7","688784182117138432","郭","148","Male","[""好我"",""坏他"",""坏我"",""好他""]","[""强我"",""弱他"",""弱我"",""强他""]","","","","","","","","1","","","","","","","","","SRET","SRET_math_calculate","","key","1","8.333823970037212","853.3333333333334","476","","","","","9-8= ?","1","1","","","","","","",""
"2144","","6","psychophysics","127","572774","0.0-7.0-5.0-0.24","6","6","7","5","5","5","5","5","5","5","5","2","2","1","2","1","2","2","2","5","5","5","5","5","4","4","4","5","5","7","8","7","8","7","8","8","9","8","6","7","4","7","7","7","6","7","7","7","6","7","7","7","6","7","7","7","5","7","7","7","7","7","7","7","7","7","7","7","7","7","7","7","6","7","7","7","7","7","688784182117138432","郭","148","Male","[""好我"",""坏他"",""坏我"",""好他""]","[""强我"",""弱他"",""弱我"",""强他""]","","","","","","","","6","","","","","","","","","SRET","SRET_math_calculate","","key","6","8.331667968750025","853.3333333333334","476","","","","","3+3= ?","6","1","","","","","","",""
"2309","","4","psychophysics","128","575085","0.0-7.0-5.0-0.25","6","6","7","5","5","5","5","5","5","5","5","2","2","1","2","1","2","2","2","5","5","5","5","5","4","4","4","5","5","7","8","7","8","7","8","8","9","8","6","7","4","7","7","7","6","7","7","7","6","7","7","7","6","7","7","7","5","7","7","7","7","7","7","7","7","7","7","7","7","7","7","7","6","7","7","7","7","7","688784182117138432","郭","148","Male","[""好我"",""坏他"",""坏我"",""好他""]","[""强我"",""弱他"",""弱我"",""强他""]","","","","","","","","4","","","","","","","","","SRET","SRET_math_calculate","","key","4","8.333758122743685","853.3333333333334","476","","","","","3+1= ?","4","1","","","","","","",""
"1935","","2","psychophysics","129","577021","0.0-7.0-5.0-0.26","6","6","7","5","5","5","5","5","5","5","5","2","2","1","2","1","2","2","2","5","5","5","5","5","4","4","4","5","5","7","8","7","8","7","8","8","9","8","6","7","4","7","7","7","6","7","7","7","6","7","7","7","6","7","7","7","5","7","7","7","7","7","7","7","7","7","7","7","7","7","7","7","6","7","7","7","7","7","688784182117138432","郭","148","Male","[""好我"",""坏他"",""坏我"",""好他""]","[""强我"",""弱他"",""弱我"",""强他""]","","","","","","","","2","","","","","","","","","SRET","SRET_math_calculate","","key","2","8.333173160173112","853.3333333333334","476","","","","","1+1= ?","2","1","","","","","","",""
"3007","","3","psychophysics","130","580029","0.0-7.0-5.0-0.27","6","6","7","5","5","5","5","5","5","5","5","2","2","1","2","1","2","2","2","5","5","5","5","5","4","4","4","5","5","7","8","7","8","7","8","8","9","8","6","7","4","7","7","7","6","7","7","7","6","7","7","7","6","7","7","7","5","7","7","7","7","7","7","7","7","7","7","7","7","7","7","7","6","7","7","7","7","7","688784182117138432","郭","148","Male","[""好我"",""坏他"",""坏我"",""好他""]","[""强我"",""弱他"",""弱我"",""强他""]","","","","","","","","3","","","","","","","","","SRET","SRET_math_calculate","","key","3","8.333483333333344","853.3333333333334","476","","","","","8-5= ?","3","1","","","","","","",""
"2591","","0","psychophysics","131","582621","0.0-7.0-5.0-0.28","6","6","7","5","5","5","5","5","5","5","5","2","2","1","2","1","2","2","2","5","5","5","5","5","4","4","4","5","5","7","8","7","8","7","8","8","9","8","6","7","4","7","7","7","6","7","7","7","6","7","7","7","6","7","7","7","5","7","7","7","7","7","7","7","7","7","7","7","7","7","7","7","6","7","7","7","7","7","688784182117138432","郭","148","Male","[""好我"",""坏他"",""坏我"",""好他""]","[""强我"",""弱他"",""弱我"",""强他""]","","","","","","","","0","","","","","","","","","SRET","SRET_math_calculate","","key","0","8.3326225806452","853.3333333333334","476","","","","","6*0= ?","0","1","","","","","","",""
"1966","","7","psychophysics","132","584589","0.0-7.0-5.0-0.29","6","6","7","5","5","5","5","5","5","5","5","2","2","1","2","1","2","2","2","5","5","5","5","5","4","4","4","5","5","7","8","7","8","7","8","8","9","8","6","7","4","7","7","7","6","7","7","7","6","7","7","7","6","7","7","7","5","7","7","7","7","7","7","7","7","7","7","7","7","7","7","7","6","7","7","7","7","7","688784182117138432","郭","148","Male","[""好我"",""坏他"",""坏我"",""好他""]","[""强我"",""弱他"",""弱我"",""强他""]","","","","","","","","7","","","","","","","","","SRET","SRET_math_calculate","","key","7","8.333599999999786","853.3333333333334","476","","","","","2+5= ?","7","1","","","","","","",""
"2136","","8","psychophysics","133","586733","0.0-7.0-5.0-0.30","6","6","7","5","5","5","5","5","5","5","5","2","2","1","2","1","2","2","2","5","5","5","5","5","4","4","4","5","5","7","8","7","8","7","8","8","9","8","6","7","4","7","7","7","6","7","7","7","6","7","7","7","6","7","7","7","5","7","7","7","7","7","7","7","7","7","7","7","7","7","7","7","6","7","7","7","7","7","688784182117138432","郭","148","Male","[""好我"",""坏他"",""坏我"",""好他""]","[""强我"",""弱他"",""弱我"",""强他""]","","","","","","","","8","","","","","","","","","SRET","SRET_math_calculate","","key","8","8.333350194552876","853.3333333333334","476","","","","","5+3= ?","8","1","","","","","","",""
"2159","","2","psychophysics","134","588893","0.0-7.0-5.0-0.31","6","6","7","5","5","5","5","5","5","5","5","2","2","1","2","1","2","2","2","5","5","5","5","5","4","4","4","5","5","7","8","7","8","7","8","8","9","8","6","7","4","7","7","7","6","7","7","7","6","7","7","7","6","7","7","7","5","7","7","7","7","7","7","7","7","7","7","7","7","7","7","7","6","7","7","7","7","7","688784182117138432","郭","148","Male","[""好我"",""坏他"",""坏我"",""好他""]","[""强我"",""弱他"",""弱我"",""强他""]","","","","","","","","2","","","","","","","","","SRET","SRET_math_calculate","","key","2","8.334174418604894","853.3333333333334","476","","","","","5-3= ?","2","1","","","","","","",""
"5263","","9","psychophysics","135","594157","0.0-7.0-5.0-0.32","6","6","7","5","5","5","5","5","5","5","5","2","2","1","2","1","2","2","2","5","5","5","5","5","4","4","4","5","5","7","8","7","8","7","8","8","9","8","6","7","4","7","7","7","6","7","7","7","6","7","7","7","6","7","7","7","5","7","7","7","7","7","7","7","7","7","7","7","7","7","7","7","6","7","7","7","7","7","688784182117138432","郭","148","Male","[""好我"",""坏他"",""坏我"",""好他""]","[""强我"",""弱他"",""弱我"",""强他""]","","","","","","","","9","","","","","","","","","SRET","SRET_math_calculate","","key","9","8.333080824088746","853.3333333333334","476","","","","","32-23= ?","9","1","","","","","","",""
"2608","","5","psychophysics","136","596766","0.0-7.0-5.0-0.33","6","6","7","5","5","5","5","5","5","5","5","2","2","1","2","1","2","2","2","5","5","5","5","5","4","4","4","5","5","7","8","7","8","7","8","8","9","8","6","7","4","7","7","7","6","7","7","7","6","7","7","7","6","7","7","7","5","7","7","7","7","7","7","7","7","7","7","7","7","7","7","7","6","7","7","7","7","7","688784182117138432","郭","148","Male","[""好我"",""坏他"",""坏我"",""好他""]","[""强我"",""弱他"",""弱我"",""强他""]","","","","","","","","5","","","","","","","","","SRET","SRET_math_calculate","","key","5","8.332240384615337","853.3333333333334","476","","","","","5/1= ?","5","1","","","","","","",""
"2264","","7","psychophysics","137","599030","0.0-7.0-5.0-0.34","6","6","7","5","5","5","5","5","5","5","5","2","2","1","2","1","2","2","2","5","5","5","5","5","4","4","4","5","5","7","8","7","8","7","8","8","9","8","6","7","4","7","7","7","6","7","7","7","6","7","7","7","6","7","7","7","5","7","7","7","7","7","7","7","7","7","7","7","7","7","7","7","6","7","7","7","7","7","688784182117138432","郭","148","Male","[""好我"",""坏他"",""坏我"",""好他""]","[""强我"",""弱他"",""弱我"",""强他""]","","","","","","","","7","","","","","","","","","SRET","SRET_math_calculate","","key","7","8.332583025830276","853.3333333333334","476","","","","","3+4= ?","7","1","","","","","","",""
"2366","","4","psychophysics","138","601397","0.0-7.0-5.0-0.35","6","6","7","5","5","5","5","5","5","5","5","2","2","1","2","1","2","2","2","5","5","5","5","5","4","4","4","5","5","7","8","7","8","7","8","8","9","8","6","7","4","7","7","7","6","7","7","7","6","7","7","7","6","7","7","7","5","7","7","7","7","7","7","7","7","7","7","7","7","7","7","7","6","7","7","7","7","7","688784182117138432","郭","148","Male","[""好我"",""坏他"",""坏我"",""好他""]","[""强我"",""弱他"",""弱我"",""强他""]","","","","","","","","4","","","","","","","","","SRET","SRET_math_calculate","","key","4","8.33351236749103","853.3333333333334","476","","","","","8-4= ?","4","1","","","","","","",""
"2767","","8","psychophysics","139","604165","0.0-7.0-5.0-0.36","6","6","7","5","5","5","5","5","5","5","5","2","2","1","2","1","2","2","2","5","5","5","5","5","4","4","4","5","5","7","8","7","8","7","8","8","9","8","6","7","4","7","7","7","6","7","7","7","6","7","7","7","6","7","7","7","5","7","7","7","7","7","7","7","7","7","7","7","7","7","7","7","6","7","7","7","7","7","688784182117138432","郭","148","Male","[""好我"",""坏他"",""坏我"",""好他""]","[""强我"",""弱他"",""弱我"",""强他""]","","","","","","","","8","","","","","","","","","SRET","SRET_math_calculate","","key","8","8.332903323263166","853.3333333333334","476","","","","","4*2= ?","8","1","","","","","","",""
"2015","","8","psychophysics","140","606181","0.0-7.0-5.0-0.37","6","6","7","5","5","5","5","5","5","5","5","2","2","1","2","1","2","2","2","5","5","5","5","5","4","4","4","5","5","7","8","7","8","7","8","8","9","8","6","7","4","7","7","7","6","7","7","7","6","7","7","7","6","7","7","7","5","7","7","7","7","7","7","7","7","7","7","7","7","7","7","7","6","7","7","7","7","7","688784182117138432","郭","148","Male","[""好我"",""坏他"",""坏我"",""好他""]","[""强我"",""弱他"",""弱我"",""强他""]","","","","","","","","8","","","","","","","","","SRET","SRET_math_calculate","","key","8","8.334004149377574","853.3333333333334","476","","","","","6+2= ?","8","1","","","","","","",""
"1856","","8","psychophysics","141","608038","0.0-7.0-5.0-0.38","6","6","7","5","5","5","5","5","5","5","5","2","2","1","2","1","2","2","2","5","5","5","5","5","4","4","4","5","5","7","8","7","8","7","8","8","9","8","6","7","4","7","7","7","6","7","7","7","6","7","7","7","6","7","7","7","5","7","7","7","7","7","7","7","7","7","7","7","7","7","7","7","6","7","7","7","7","7","688784182117138432","郭","148","Male","[""好我"",""坏他"",""坏我"",""好他""]","[""强我"",""弱他"",""弱我"",""强他""]","","","","","","","","8","","","","","","","","","SRET","SRET_math_calculate","","key","8","8.332671171171183","853.3333333333334","476","","","","","2+6= ?","8","1","","","","","","",""
