"rt","stimulus","response","trial_type","trial_index","time_elapsed","internal_node_id","swb_1","swb_2","swb_3","swb_4","swb_5","LOT_1","LOT_2","LOT_3","LOT_4","LOT_5","LOT_6","IPC_1","IPC_2","IPC_3","IPC_4","IPC_5","IPC_6","IPC_7","IPC_8","MorIden_1","MorIden_2","MorIden_3","MorIden_4","MorIden_5","MorIden_6","MorIden_7","MorIden_8","MorIden_9","MorIden_10","moralSeImag_1","moralSeImag_2","moralSeImag_3","moralSeImag_4","moralSeImag_5","moralSeImag_6","moralSeImag_7","moralSeImag_8","moralSeImag_9","sde_1","sde_2","sde_3","sde_4","sde_5","sde_6","sde_7","sde_8","sde_9","sde_10","sde_11","sde_12","sde_13","sde_14","sde_15","sde_16","sde_17","sde_18","sde_19","sde_20","IM_1","IM_2","IM_3","IM_4","IM_5","IM_6","IM_7","IM_8","IM_9","IM_10","IM_11","IM_12","IM_13","IM_14","IM_15","IM_16","IM_17","IM_18","IM_19","IM_20","subj_idx","friend_name","ParticipantID","Sex","Word","Word2","value","success","timeout","failed_images","failed_audio","failed_video","user_agent","responses","item_order","radio_event_ids","radio_event_times","key_event_times","mouse_event_times","straightlining","zigzagging","honeypot","view_history","response_type","key_press","avg_frame_time","center_x","center_y","correct_response","correct","identity","Image","word","condition","task_id","screen_id","time_stamp","person","valence","domain","math","status","duration","question_order"
"3740","
   <p><div style='color:white; font-size: 25px'>您好，欢迎参加本次实验。</div></p>
   <p><div style='color:white; font-size: 25px'>为充分保障您的权利，请确保您已经知晓并同意《参与实验同意书》以及《数据公开知情同意书》。</div></p>
   <p><div style='color:white; font-size: 25px'>如果您未见过上述内容，请咨询实验员。</div></p>
   <p style='color:white; font-size: 25px'>如果您选择继续实验，则表示您已经清楚两份知情同意书的内容并同意。</p>
   <p><div style = ""color: red;font-size:30px;"">请确保您记得day0的实验编号，您将在本次实验输入该编号，若您忘记，请咨询实验员后作答。</div></p>
   <p> <div style = ""color: green""><按空格键至下页></div> </p>
   "," ","html-keyboard-response","0","3742","0.0-0.0","5","5","5","3","1","5","4","3","5","4","4","0","-1","-2","2","-3","1","0","1","5","5","5","5","5","2","3","4","2","2","1","7","5","8","3","6","4","9","7","2","2","5","2","5","1","5","4","2","2","2","1","6","2","5","5","2","2","3","3","3","6","7","7","3","7","6","6","7","7","7","6","7","4","2","7","5","7","2","7","764077949963210754","郭","60","Male","[""好他"",""好我"",""坏我"",""坏他""]","[""强他"",""强我"",""弱我"",""弱他""]","","","","","","","","","","","","","","","","","","","","","","","","","","","","","","","","","","","","","",""
"","","","call-function","1","3744","0.0-1.0-0.0","5","5","5","3","1","5","4","3","5","4","4","0","-1","-2","2","-3","1","0","1","5","5","5","5","5","2","3","4","2","2","1","7","5","8","3","6","4","9","7","2","2","5","2","5","1","5","4","2","2","2","1","6","2","5","5","2","2","3","3","3","6","7","7","3","7","6","6","7","7","7","6","7","4","2","7","5","7","2","7","764077949963210754","郭","60","Male","[""好他"",""好我"",""坏我"",""坏他""]","[""强他"",""强我"",""弱我"",""弱他""]","","","","","","","","","","","","","","","","","","","","","","","","","","","","","","","","","","","","","",""
"39113","","[{""name"":""Sex"",""value"":""0""},{""name"":""friend_name"",""value"":""郭""},{""name"":""ParticipantID"",""value"":""60""}]","survey-html-form","2","42857","0.0-1.0-1.0","5","5","5","3","1","5","4","3","5","4","4","0","-1","-2","2","-3","1","0","1","5","5","5","5","5","2","3","4","2","2","1","7","5","8","3","6","4","9","7","2","2","5","2","5","1","5","4","2","2","2","1","6","2","5","5","2","2","3","3","3","6","7","7","3","7","6","6","7","7","7","6","7","4","2","7","5","7","2","7","764077949963210754","郭","60","Male","[""好他"",""好我"",""坏我"",""坏他""]","[""强他"",""强我"",""弱我"",""弱他""]","","","","","","","","","","","","","","","","","","","","","","","","","","","","","","","","","","","","","",""
"","","","preload","3","43414","0.0-2.0","5","5","5","3","1","5","4","3","5","4","4","0","-1","-2","2","-3","1","0","1","5","5","5","5","5","2","3","4","2","2","1","7","5","8","3","6","4","9","7","2","2","5","2","5","1","5","4","2","2","2","1","6","2","5","5","2","2","3","3","3","6","7","7","3","7","6","6","7","7","7","6","7","4","2","7","5","7","2","7","764077949963210754","郭","60","Male","[""好他"",""好我"",""坏我"",""坏他""]","[""强他"",""强我"",""弱我"",""弱他""]","","true","false","[]","[]","[]","","","","","","","","","","","","","","","","","","","","","","","","","","","","","","","",""
"","","","fullscreen","4","45134","0.0-3.0","5","5","5","3","1","5","4","3","5","4","4","0","-1","-2","2","-3","1","0","1","5","5","5","5","5","2","3","4","2","2","1","7","5","8","3","6","4","9","7","2","2","5","2","5","1","5","4","2","2","2","1","6","2","5","5","2","2","3","3","3","6","7","7","3","7","6","6","7","7","7","6","7","4","2","7","5","7","2","7","764077949963210754","郭","60","Male","[""好他"",""好我"",""坏我"",""坏他""]","[""强他"",""强我"",""弱我"",""弱他""]","","true","","","","","{}","","","","","","","","","","","","","","","","","","","","","","","","","","","","","","",""
"15654.300000011921","","{""Q01"":""5"",""Q02"":""5"",""Q03"":""5"",""Q04"":""3"",""Q05"":""1""}","survey-template","5","60791","0.0-4.0","5","5","5","3","1","5","4","3","5","4","4","0","-1","-2","2","-3","1","0","1","5","5","5","5","5","2","3","4","2","2","1","7","5","8","3","6","4","9","7","2","2","5","2","5","1","5","4","2","2","2","1","6","2","5","5","2","2","3","3","3","6","7","7","3","7","6","6","7","7","7","6","7","4","2","7","5","7","2","7","764077949963210754","郭","60","Male","[""好他"",""好我"",""坏我"",""坏他""]","[""强他"",""强我"",""弱我"",""弱他""]","","","","","","","","{""Q01"":""5"",""Q02"":""5"",""Q03"":""5"",""Q04"":""3"",""Q05"":""1""}","[0,1,2,3,4]","[""Q05"",""Q04"",""Q03"",""Q02"",""Q01""]","[7344.300000011921,11621.5,12250.59999999404,13571.90000000596,14878.5]","[]","[5883.5999999940395,6266.4000000059605,6511.200000017881,6832.200000017881,7118.5999999940395,7344.300000011921,9931.40000000596,10435.5,11081.300000011921,11367,11621.5,12250.59999999404,13571.90000000596,14550.5,14878.5,15653.59999999404]","0.6","0","0","","","","","","","","","","","","","","","","","","","","","",""
"33984.30000001192","","{""Q01"":""5"",""Q02"":""4"",""Q03"":""3"",""Q04"":""5"",""Q05"":""4"",""Q06"":""4""}","survey-template","6","94778","0.0-5.0","5","5","5","3","1","5","4","3","5","4","4","0","-1","-2","2","-3","1","0","1","5","5","5","5","5","2","3","4","2","2","1","7","5","8","3","6","4","9","7","2","2","5","2","5","1","5","4","2","2","2","1","6","2","5","5","2","2","3","3","3","6","7","7","3","7","6","6","7","7","7","6","7","4","2","7","5","7","2","7","764077949963210754","郭","60","Male","[""好他"",""好我"",""坏我"",""坏他""]","[""强他"",""强我"",""弱我"",""弱他""]","","","","","","","","{""Q01"":""5"",""Q02"":""4"",""Q03"":""3"",""Q04"":""5"",""Q05"":""4"",""Q06"":""4""}","[0,1,2,3,4,5]","[""Q01"",""Q01"",""Q03"",""Q05"",""Q06"",""Q04"",""Q02"",""Q02""]","[2331.4000000059605,4138.300000011921,5773,10531.09999999404,13620.5,19468.19999998808,31910,32357.19999998808]","[]","[1996.300000011921,2331.4000000059605,2801.699999988079,3130.300000011921,4138.300000011921,5773,10000.199999988079,10531.09999999404,13620.5,18091.80000001192,18319.19999998808,18617.90000000596,19101.80000001192,19468.19999998808,29893.30000001192,31567.59999999404,31910,32357.19999998808,33332.69999998808,33983.69999998808]","0.3333333333333333","0.4","0","","","","","","","","","","","","","","","","","","","","","",""
"37031.70000001788","","{""Q01"":""0"",""Q02"":""-1"",""Q03"":""-2"",""Q04"":""2"",""Q05"":""-3"",""Q06"":""1"",""Q07"":""0"",""Q08"":""1""}","survey-template","7","131813","0.0-6.0","5","5","5","3","1","5","4","3","5","4","4","0","-1","-2","2","-3","1","0","1","5","5","5","5","5","2","3","4","2","2","1","7","5","8","3","6","4","9","7","2","2","5","2","5","1","5","4","2","2","2","1","6","2","5","5","2","2","3","3","3","6","7","7","3","7","6","6","7","7","7","6","7","4","2","7","5","7","2","7","764077949963210754","郭","60","Male","[""好他"",""好我"",""坏我"",""坏他""]","[""强他"",""强我"",""弱我"",""弱他""]","","","","","","","","{""Q01"":""0"",""Q02"":""-1"",""Q03"":""-2"",""Q04"":""2"",""Q05"":""-3"",""Q06"":""1"",""Q07"":""0"",""Q08"":""1""}","[0,1,2,3,4,5,6,7]","[""Q01"",""Q02"",""Q02"",""Q02"",""Q03"",""Q04"",""Q05"",""Q06"",""Q06"",""Q08"",""Q07""]","[4441,8177.700000017881,13046.200000017881,16884.70000001788,18437.70000001788,20734.09999999404,24029.70000001788,25938.20000001788,26627.59999999404,28953.70000001788,35351.09999999404]","[]","[4441,8177.700000017881,10424.5,10938.5,12591.700000017881,13046.200000017881,15499.200000017881,15948,16168.200000017881,16884.70000001788,18437.70000001788,20734.09999999404,22473.09999999404,22995,23685,24029.70000001788,25938.20000001788,26627.59999999404,28953.70000001788,35105.59999999404,35351.09999999404,37030.30000001192]","0.25","0.7142857142857143","0","","","","","","","","","","","","","","","","","","","","","",""
"116596","","","instructions","8","248411","0.0-7.0","5","5","5","3","1","5","4","3","5","4","4","0","-1","-2","2","-3","1","0","1","5","5","5","5","5","2","3","4","2","2","1","7","5","8","3","6","4","9","7","2","2","5","2","5","1","5","4","2","2","2","1","6","2","5","5","2","2","3","3","3","6","7","7","3","7","6","6","7","7","7","6","7","4","2","7","5","7","2","7","764077949963210754","郭","60","Male","[""好他"",""好我"",""坏我"",""坏他""]","[""强他"",""强我"",""弱我"",""弱他""]","","","","","","","","","","","","","","","","","[{""page_index"":0,""viewing_time"":116595}]","","","","","","","","","","","","","","","","","","","","",""
"113311","","","instructions","9","361723","0.0-8.0-1.0-0.0","5","5","5","3","1","5","4","3","5","4","4","0","-1","-2","2","-3","1","0","1","5","5","5","5","5","2","3","4","2","2","1","7","5","8","3","6","4","9","7","2","2","5","2","5","1","5","4","2","2","2","1","6","2","5","5","2","2","3","3","3","6","7","7","3","7","6","6","7","7","7","6","7","4","2","7","5","7","2","7","764077949963210754","郭","60","Male","[""好他"",""好我"",""坏我"",""坏他""]","[""强他"",""强我"",""弱我"",""弱他""]","","","","","","","","","","","","","","","","","[{""page_index"":0,""viewing_time"":87199},{""page_index"":1,""viewing_time"":22241},{""page_index"":2,""viewing_time"":2496},{""page_index"":3,""viewing_time"":1376}]","","","","","","","","","","","","","","","","","","","","",""
"912","","f","psychophysics","10","363639","0.0-8.0-1.0-1.0-0.0-0.0","5","5","5","3","1","5","4","3","5","4","4","0","-1","-2","2","-3","1","0","1","5","5","5","5","5","2","3","4","2","2","1","7","5","8","3","6","4","9","7","2","2","5","2","5","1","5","4","2","2","2","1","6","2","5","5","2","2","3","3","3","6","7","7","3","7","6","6","7","7","7","6","7","4","2","7","5","7","2","7","764077949963210754","郭","60","Male","[""好他"",""好我"",""坏我"",""坏他""]","[""强他"",""强我"",""弱我"",""弱他""]","","","","","","","","match","","","","","","","","","","key","f","16.667842105262825","764","390.8","f","true","match","img/hexagon.png","强我","强我","prac_ALT2_ability","practice_ability","","","","","","","",""
"null","<span style='color:GreenYellow; font-size: 70px;'>正确! </span>","null","html-keyboard-response","11","364142","0.0-8.0-1.0-1.0-0.0-1.0","5","5","5","3","1","5","4","3","5","4","4","0","-1","-2","2","-3","1","0","1","5","5","5","5","5","2","3","4","2","2","1","7","5","8","3","6","4","9","7","2","2","5","2","5","1","5","4","2","2","2","1","6","2","5","5","2","2","3","3","3","6","7","7","3","7","6","6","7","7","7","6","7","4","2","7","5","7","2","7","764077949963210754","郭","60","Male","[""好他"",""好我"",""坏我"",""坏他""]","[""强他"",""强我"",""弱我"",""弱他""]","","","","","","","","","","","","","","","","","","","","","","","","","","","","","","feedback_test","","","","","","","",""
"853","","j","psychophysics","12","365996","0.0-8.0-1.0-1.0-0.0-0.1","5","5","5","3","1","5","4","3","5","4","4","0","-1","-2","2","-3","1","0","1","5","5","5","5","5","2","3","4","2","2","1","7","5","8","3","6","4","9","7","2","2","5","2","5","1","5","4","2","2","2","1","6","2","5","5","2","2","3","3","3","6","7","7","3","7","6","6","7","7","7","6","7","4","2","7","5","7","2","7","764077949963210754","郭","60","Male","[""好他"",""好我"",""坏我"",""坏他""]","[""强他"",""强我"",""弱我"",""弱他""]","","","","","","","","nonmatch","","","","","","","","","","key","j","16.66764545454538","764","390.8","j","true","nonmatch","img/square.png","弱他","弱我","prac_ALT2_ability","practice_ability","","","","","","","",""
"null","<span style='color:GreenYellow; font-size: 70px;'>正确! </span>","null","html-keyboard-response","13","366497","0.0-8.0-1.0-1.0-0.0-1.1","5","5","5","3","1","5","4","3","5","4","4","0","-1","-2","2","-3","1","0","1","5","5","5","5","5","2","3","4","2","2","1","7","5","8","3","6","4","9","7","2","2","5","2","5","1","5","4","2","2","2","1","6","2","5","5","2","2","3","3","3","6","7","7","3","7","6","6","7","7","7","6","7","4","2","7","5","7","2","7","764077949963210754","郭","60","Male","[""好他"",""好我"",""坏我"",""坏他""]","[""强他"",""强我"",""弱我"",""弱他""]","","","","","","","","","","","","","","","","","","","","","","","","","","","","","","feedback_test","","","","","","","",""
"994","","j","psychophysics","14","368492","0.0-8.0-1.0-1.0-0.0-0.2","5","5","5","3","1","5","4","3","5","4","4","0","-1","-2","2","-3","1","0","1","5","5","5","5","5","2","3","4","2","2","1","7","5","8","3","6","4","9","7","2","2","5","2","5","1","5","4","2","2","2","1","6","2","5","5","2","2","3","3","3","6","7","7","3","7","6","6","7","7","7","6","7","4","2","7","5","7","2","7","764077949963210754","郭","60","Male","[""好他"",""好我"",""坏我"",""坏他""]","[""强他"",""强我"",""弱我"",""弱他""]","","","","","","","","nonmatch","","","","","","","","","","key","j","16.667142857142974","764","390.8","f","false","match","img/diamond.png","弱他","弱他","prac_ALT2_ability","practice_ability","","","","","","","",""
"null","<span style='color:red; font-size: 70px;'>错误! </span>","null","html-keyboard-response","15","368993","0.0-8.0-1.0-1.0-0.0-1.2","5","5","5","3","1","5","4","3","5","4","4","0","-1","-2","2","-3","1","0","1","5","5","5","5","5","2","3","4","2","2","1","7","5","8","3","6","4","9","7","2","2","5","2","5","1","5","4","2","2","2","1","6","2","5","5","2","2","3","3","3","6","7","7","3","7","6","6","7","7","7","6","7","4","2","7","5","7","2","7","764077949963210754","郭","60","Male","[""好他"",""好我"",""坏我"",""坏他""]","[""强他"",""强我"",""弱我"",""弱他""]","","","","","","","","","","","","","","","","","","","","","","","","","","","","","","feedback_test","","","","","","","",""
"995","","f","psychophysics","16","370991","0.0-8.0-1.0-1.0-0.0-0.3","5","5","5","3","1","5","4","3","5","4","4","0","-1","-2","2","-3","1","0","1","5","5","5","5","5","2","3","4","2","2","1","7","5","8","3","6","4","9","7","2","2","5","2","5","1","5","4","2","2","2","1","6","2","5","5","2","2","3","3","3","6","7","7","3","7","6","6","7","7","7","6","7","4","2","7","5","7","2","7","764077949963210754","郭","60","Male","[""好他"",""好我"",""坏我"",""坏他""]","[""强他"",""强我"",""弱我"",""弱他""]","","","","","","","","match","","","","","","","","","","key","f","16.66768907563039","764","390.8","j","false","nonmatch","img/diamond.png","强他","弱他","prac_ALT2_ability","practice_ability","","","","","","","",""
"null","<span style='color:red; font-size: 70px;'>错误! </span>","null","html-keyboard-response","17","371492","0.0-8.0-1.0-1.0-0.0-1.3","5","5","5","3","1","5","4","3","5","4","4","0","-1","-2","2","-3","1","0","1","5","5","5","5","5","2","3","4","2","2","1","7","5","8","3","6","4","9","7","2","2","5","2","5","1","5","4","2","2","2","1","6","2","5","5","2","2","3","3","3","6","7","7","3","7","6","6","7","7","7","6","7","4","2","7","5","7","2","7","764077949963210754","郭","60","Male","[""好他"",""好我"",""坏我"",""坏他""]","[""强他"",""强我"",""弱我"",""弱他""]","","","","","","","","","","","","","","","","","","","","","","","","","","","","","","feedback_test","","","","","","","",""
"null","","null","psychophysics","18","373694","0.0-8.0-1.0-1.0-0.0-0.4","5","5","5","3","1","5","4","3","5","4","4","0","-1","-2","2","-3","1","0","1","5","5","5","5","5","2","3","4","2","2","1","7","5","8","3","6","4","9","7","2","2","5","2","5","1","5","4","2","2","2","1","6","2","5","5","2","2","3","3","3","6","7","7","3","7","6","6","7","7","7","6","7","4","2","7","5","7","2","7","764077949963210754","郭","60","Male","[""好他"",""好我"",""坏我"",""坏他""]","[""强他"",""强我"",""弱我"",""弱他""]","","","","","","","","null","","","","","","","","","","key","null","16.666778625954183","764","390.8","f","false","match","img/diamond.png","弱他","弱他","prac_ALT2_ability","practice_ability","","","","","","","",""
"null","<span class='add_' style='color:yellow; font-size: 70px;'> 太慢! </span>","null","html-keyboard-response","19","374195","0.0-8.0-1.0-1.0-0.0-1.4","5","5","5","3","1","5","4","3","5","4","4","0","-1","-2","2","-3","1","0","1","5","5","5","5","5","2","3","4","2","2","1","7","5","8","3","6","4","9","7","2","2","5","2","5","1","5","4","2","2","2","1","6","2","5","5","2","2","3","3","3","6","7","7","3","7","6","6","7","7","7","6","7","4","2","7","5","7","2","7","764077949963210754","郭","60","Male","[""好他"",""好我"",""坏我"",""坏他""]","[""强他"",""强我"",""弱我"",""弱他""]","","","","","","","","","","","","","","","","","","","","","","","","","","","","","","feedback_test","","","","","","","",""
"null","","null","psychophysics","20","376398","0.0-8.0-1.0-1.0-0.0-0.5","5","5","5","3","1","5","4","3","5","4","4","0","-1","-2","2","-3","1","0","1","5","5","5","5","5","2","3","4","2","2","1","7","5","8","3","6","4","9","7","2","2","5","2","5","1","5","4","2","2","2","1","6","2","5","5","2","2","3","3","3","6","7","7","3","7","6","6","7","7","7","6","7","4","2","7","5","7","2","7","764077949963210754","郭","60","Male","[""好他"",""好我"",""坏我"",""坏他""]","[""强他"",""强我"",""弱我"",""弱他""]","","","","","","","","null","","","","","","","","","","key","null","16.667961832060822","764","390.8","f","false","match","img/hexagon.png","强我","强我","prac_ALT2_ability","practice_ability","","","","","","","",""
"null","<span class='add_' style='color:yellow; font-size: 70px;'> 太慢! </span>","null","html-keyboard-response","21","376900","0.0-8.0-1.0-1.0-0.0-1.5","5","5","5","3","1","5","4","3","5","4","4","0","-1","-2","2","-3","1","0","1","5","5","5","5","5","2","3","4","2","2","1","7","5","8","3","6","4","9","7","2","2","5","2","5","1","5","4","2","2","2","1","6","2","5","5","2","2","3","3","3","6","7","7","3","7","6","6","7","7","7","6","7","4","2","7","5","7","2","7","764077949963210754","郭","60","Male","[""好他"",""好我"",""坏我"",""坏他""]","[""强他"",""强我"",""弱我"",""弱他""]","","","","","","","","","","","","","","","","","","","","","","","","","","","","","","feedback_test","","","","","","","",""
"531","","j","psychophysics","22","378434","0.0-8.0-1.0-1.0-0.0-0.6","5","5","5","3","1","5","4","3","5","4","4","0","-1","-2","2","-3","1","0","1","5","5","5","5","5","2","3","4","2","2","1","7","5","8","3","6","4","9","7","2","2","5","2","5","1","5","4","2","2","2","1","6","2","5","5","2","2","3","3","3","6","7","7","3","7","6","6","7","7","7","6","7","4","2","7","5","7","2","7","764077949963210754","郭","60","Male","[""好他"",""好我"",""坏我"",""坏他""]","[""强他"",""强我"",""弱我"",""弱他""]","","","","","","","","nonmatch","","","","","","","","","","key","j","16.66629670329704","764","390.8","j","true","nonmatch","img/hexagon.png","弱我","强我","prac_ALT2_ability","practice_ability","","","","","","","",""
"null","<span style='color:GreenYellow; font-size: 70px;'>正确! </span>","null","html-keyboard-response","23","378935","0.0-8.0-1.0-1.0-0.0-1.6","5","5","5","3","1","5","4","3","5","4","4","0","-1","-2","2","-3","1","0","1","5","5","5","5","5","2","3","4","2","2","1","7","5","8","3","6","4","9","7","2","2","5","2","5","1","5","4","2","2","2","1","6","2","5","5","2","2","3","3","3","6","7","7","3","7","6","6","7","7","7","6","7","4","2","7","5","7","2","7","764077949963210754","郭","60","Male","[""好他"",""好我"",""坏我"",""坏他""]","[""强他"",""强我"",""弱我"",""弱他""]","","","","","","","","","","","","","","","","","","","","","","","","","","","","","","feedback_test","","","","","","","",""
"null","","null","psychophysics","24","381137","0.0-8.0-1.0-1.0-0.0-0.7","5","5","5","3","1","5","4","3","5","4","4","0","-1","-2","2","-3","1","0","1","5","5","5","5","5","2","3","4","2","2","1","7","5","8","3","6","4","9","7","2","2","5","2","5","1","5","4","2","2","2","1","6","2","5","5","2","2","3","3","3","6","7","7","3","7","6","6","7","7","7","6","7","4","2","7","5","7","2","7","764077949963210754","郭","60","Male","[""好他"",""好我"",""坏我"",""坏他""]","[""强他"",""强我"",""弱我"",""弱他""]","","","","","","","","null","","","","","","","","","","key","null","16.66546564885479","764","390.8","j","false","nonmatch","img/square.png","强我","弱我","prac_ALT2_ability","practice_ability","","","","","","","",""
"null","<span class='add_' style='color:yellow; font-size: 70px;'> 太慢! </span>","null","html-keyboard-response","25","381639","0.0-8.0-1.0-1.0-0.0-1.7","5","5","5","3","1","5","4","3","5","4","4","0","-1","-2","2","-3","1","0","1","5","5","5","5","5","2","3","4","2","2","1","7","5","8","3","6","4","9","7","2","2","5","2","5","1","5","4","2","2","2","1","6","2","5","5","2","2","3","3","3","6","7","7","3","7","6","6","7","7","7","6","7","4","2","7","5","7","2","7","764077949963210754","郭","60","Male","[""好他"",""好我"",""坏我"",""坏他""]","[""强他"",""强我"",""弱我"",""弱他""]","","","","","","","","","","","","","","","","","","","","","","","","","","","","","","feedback_test","","","","","","","",""
"731","","f","psychophysics","26","383371","0.0-8.0-1.0-1.0-0.0-0.8","5","5","5","3","1","5","4","3","5","4","4","0","-1","-2","2","-3","1","0","1","5","5","5","5","5","2","3","4","2","2","1","7","5","8","3","6","4","9","7","2","2","5","2","5","1","5","4","2","2","2","1","6","2","5","5","2","2","3","3","3","6","7","7","3","7","6","6","7","7","7","6","7","4","2","7","5","7","2","7","764077949963210754","郭","60","Male","[""好他"",""好我"",""坏我"",""坏他""]","[""强他"",""强我"",""弱我"",""弱他""]","","","","","","","","match","","","","","","","","","","key","f","16.669475728155394","764","390.8","j","false","nonmatch","img/square.png","强他","弱我","prac_ALT2_ability","practice_ability","","","","","","","",""
"null","<span style='color:red; font-size: 70px;'>错误! </span>","null","html-keyboard-response","27","383871","0.0-8.0-1.0-1.0-0.0-1.8","5","5","5","3","1","5","4","3","5","4","4","0","-1","-2","2","-3","1","0","1","5","5","5","5","5","2","3","4","2","2","1","7","5","8","3","6","4","9","7","2","2","5","2","5","1","5","4","2","2","2","1","6","2","5","5","2","2","3","3","3","6","7","7","3","7","6","6","7","7","7","6","7","4","2","7","5","7","2","7","764077949963210754","郭","60","Male","[""好他"",""好我"",""坏我"",""坏他""]","[""强他"",""强我"",""弱我"",""弱他""]","","","","","","","","","","","","","","","","","","","","","","","","","","","","","","feedback_test","","","","","","","",""
"464","","j","psychophysics","28","385336","0.0-8.0-1.0-1.0-0.0-0.9","5","5","5","3","1","5","4","3","5","4","4","0","-1","-2","2","-3","1","0","1","5","5","5","5","5","2","3","4","2","2","1","7","5","8","3","6","4","9","7","2","2","5","2","5","1","5","4","2","2","2","1","6","2","5","5","2","2","3","3","3","6","7","7","3","7","6","6","7","7","7","6","7","4","2","7","5","7","2","7","764077949963210754","郭","60","Male","[""好他"",""好我"",""坏我"",""坏他""]","[""强他"",""强我"",""弱我"",""弱他""]","","","","","","","","nonmatch","","","","","","","","","","key","j","16.66805747126419","764","390.8","f","false","match","img/square.png","弱我","弱我","prac_ALT2_ability","practice_ability","","","","","","","",""
"null","<span style='color:red; font-size: 70px;'>错误! </span>","null","html-keyboard-response","29","385837","0.0-8.0-1.0-1.0-0.0-1.9","5","5","5","3","1","5","4","3","5","4","4","0","-1","-2","2","-3","1","0","1","5","5","5","5","5","2","3","4","2","2","1","7","5","8","3","6","4","9","7","2","2","5","2","5","1","5","4","2","2","2","1","6","2","5","5","2","2","3","3","3","6","7","7","3","7","6","6","7","7","7","6","7","4","2","7","5","7","2","7","764077949963210754","郭","60","Male","[""好他"",""好我"",""坏我"",""坏他""]","[""强他"",""强我"",""弱我"",""弱他""]","","","","","","","","","","","","","","","","","","","","","","","","","","","","","","feedback_test","","","","","","","",""
"743","","f","psychophysics","30","387581","0.0-8.0-1.0-1.0-0.0-0.10","5","5","5","3","1","5","4","3","5","4","4","0","-1","-2","2","-3","1","0","1","5","5","5","5","5","2","3","4","2","2","1","7","5","8","3","6","4","9","7","2","2","5","2","5","1","5","4","2","2","2","1","6","2","5","5","2","2","3","3","3","6","7","7","3","7","6","6","7","7","7","6","7","4","2","7","5","7","2","7","764077949963210754","郭","60","Male","[""好他"",""好我"",""坏我"",""坏他""]","[""强他"",""强我"",""弱我"",""弱他""]","","","","","","","","match","","","","","","","","","","key","f","16.669097087378795","764","390.8","f","true","match","img/square.png","弱我","弱我","prac_ALT2_ability","practice_ability","","","","","","","",""
"null","<span style='color:GreenYellow; font-size: 70px;'>正确! </span>","null","html-keyboard-response","31","388082","0.0-8.0-1.0-1.0-0.0-1.10","5","5","5","3","1","5","4","3","5","4","4","0","-1","-2","2","-3","1","0","1","5","5","5","5","5","2","3","4","2","2","1","7","5","8","3","6","4","9","7","2","2","5","2","5","1","5","4","2","2","2","1","6","2","5","5","2","2","3","3","3","6","7","7","3","7","6","6","7","7","7","6","7","4","2","7","5","7","2","7","764077949963210754","郭","60","Male","[""好他"",""好我"",""坏我"",""坏他""]","[""强他"",""强我"",""弱我"",""弱他""]","","","","","","","","","","","","","","","","","","","","","","","","","","","","","","feedback_test","","","","","","","",""
"949","","j","psychophysics","32","390034","0.0-8.0-1.0-1.0-0.0-0.11","5","5","5","3","1","5","4","3","5","4","4","0","-1","-2","2","-3","1","0","1","5","5","5","5","5","2","3","4","2","2","1","7","5","8","3","6","4","9","7","2","2","5","2","5","1","5","4","2","2","2","1","6","2","5","5","2","2","3","3","3","6","7","7","3","7","6","6","7","7","7","6","7","4","2","7","5","7","2","7","764077949963210754","郭","60","Male","[""好他"",""好我"",""坏我"",""坏他""]","[""强他"",""强我"",""弱我"",""弱他""]","","","","","","","","nonmatch","","","","","","","","","","key","j","16.66434482758632","764","390.8","j","true","nonmatch","img/hexagon.png","弱他","强我","prac_ALT2_ability","practice_ability","","","","","","","",""
"null","<span style='color:GreenYellow; font-size: 70px;'>正确! </span>","null","html-keyboard-response","33","390535","0.0-8.0-1.0-1.0-0.0-1.11","5","5","5","3","1","5","4","3","5","4","4","0","-1","-2","2","-3","1","0","1","5","5","5","5","5","2","3","4","2","2","1","7","5","8","3","6","4","9","7","2","2","5","2","5","1","5","4","2","2","2","1","6","2","5","5","2","2","3","3","3","6","7","7","3","7","6","6","7","7","7","6","7","4","2","7","5","7","2","7","764077949963210754","郭","60","Male","[""好他"",""好我"",""坏我"",""坏他""]","[""强他"",""强我"",""弱我"",""弱他""]","","","","","","","","","","","","","","","","","","","","","","","","","","","","","","feedback_test","","","","","","","",""
"1132","","f","psychophysics","34","392668","0.0-8.0-1.0-1.0-0.0-0.12","5","5","5","3","1","5","4","3","5","4","4","0","-1","-2","2","-3","1","0","1","5","5","5","5","5","2","3","4","2","2","1","7","5","8","3","6","4","9","7","2","2","5","2","5","1","5","4","2","2","2","1","6","2","5","5","2","2","3","3","3","6","7","7","3","7","6","6","7","7","7","6","7","4","2","7","5","7","2","7","764077949963210754","郭","60","Male","[""好他"",""好我"",""坏我"",""坏他""]","[""强他"",""强我"",""弱我"",""弱他""]","","","","","","","","match","","","","","","","","","","key","f","16.66567716535454","764","390.8","f","true","match","img/circle.png","强他","强他","prac_ALT2_ability","practice_ability","","","","","","","",""
"null","<span style='color:GreenYellow; font-size: 70px;'>正确! </span>","null","html-keyboard-response","35","393169","0.0-8.0-1.0-1.0-0.0-1.12","5","5","5","3","1","5","4","3","5","4","4","0","-1","-2","2","-3","1","0","1","5","5","5","5","5","2","3","4","2","2","1","7","5","8","3","6","4","9","7","2","2","5","2","5","1","5","4","2","2","2","1","6","2","5","5","2","2","3","3","3","6","7","7","3","7","6","6","7","7","7","6","7","4","2","7","5","7","2","7","764077949963210754","郭","60","Male","[""好他"",""好我"",""坏我"",""坏他""]","[""强他"",""强我"",""弱我"",""弱他""]","","","","","","","","","","","","","","","","","","","","","","","","","","","","","","feedback_test","","","","","","","",""
"null","","null","psychophysics","36","395372","0.0-8.0-1.0-1.0-0.0-0.13","5","5","5","3","1","5","4","3","5","4","4","0","-1","-2","2","-3","1","0","1","5","5","5","5","5","2","3","4","2","2","1","7","5","8","3","6","4","9","7","2","2","5","2","5","1","5","4","2","2","2","1","6","2","5","5","2","2","3","3","3","6","7","7","3","7","6","6","7","7","7","6","7","4","2","7","5","7","2","7","764077949963210754","郭","60","Male","[""好他"",""好我"",""坏我"",""坏他""]","[""强他"",""强我"",""弱我"",""弱他""]","","","","","","","","null","","","","","","","","","","key","null","16.666923664121903","764","390.8","j","false","nonmatch","img/hexagon.png","强他","强我","prac_ALT2_ability","practice_ability","","","","","","","",""
"null","<span class='add_' style='color:yellow; font-size: 70px;'> 太慢! </span>","null","html-keyboard-response","37","395873","0.0-8.0-1.0-1.0-0.0-1.13","5","5","5","3","1","5","4","3","5","4","4","0","-1","-2","2","-3","1","0","1","5","5","5","5","5","2","3","4","2","2","1","7","5","8","3","6","4","9","7","2","2","5","2","5","1","5","4","2","2","2","1","6","2","5","5","2","2","3","3","3","6","7","7","3","7","6","6","7","7","7","6","7","4","2","7","5","7","2","7","764077949963210754","郭","60","Male","[""好他"",""好我"",""坏我"",""坏他""]","[""强他"",""强我"",""弱我"",""弱他""]","","","","","","","","","","","","","","","","","","","","","","","","","","","","","","feedback_test","","","","","","","",""
"null","","null","psychophysics","38","398075","0.0-8.0-1.0-1.0-0.0-0.14","5","5","5","3","1","5","4","3","5","4","4","0","-1","-2","2","-3","1","0","1","5","5","5","5","5","2","3","4","2","2","1","7","5","8","3","6","4","9","7","2","2","5","2","5","1","5","4","2","2","2","1","6","2","5","5","2","2","3","3","3","6","7","7","3","7","6","6","7","7","7","6","7","4","2","7","5","7","2","7","764077949963210754","郭","60","Male","[""好他"",""好我"",""坏我"",""坏他""]","[""强他"",""强我"",""弱我"",""弱他""]","","","","","","","","null","","","","","","","","","","key","null","16.668083969465872","764","390.8","j","false","nonmatch","img/diamond.png","弱我","弱他","prac_ALT2_ability","practice_ability","","","","","","","",""
"null","<span class='add_' style='color:yellow; font-size: 70px;'> 太慢! </span>","null","html-keyboard-response","39","398576","0.0-8.0-1.0-1.0-0.0-1.14","5","5","5","3","1","5","4","3","5","4","4","0","-1","-2","2","-3","1","0","1","5","5","5","5","5","2","3","4","2","2","1","7","5","8","3","6","4","9","7","2","2","5","2","5","1","5","4","2","2","2","1","6","2","5","5","2","2","3","3","3","6","7","7","3","7","6","6","7","7","7","6","7","4","2","7","5","7","2","7","764077949963210754","郭","60","Male","[""好他"",""好我"",""坏我"",""坏他""]","[""强他"",""强我"",""弱我"",""弱他""]","","","","","","","","","","","","","","","","","","","","","","","","","","","","","","feedback_test","","","","","","","",""
"1100","","j","psychophysics","40","400678","0.0-8.0-1.0-1.0-0.0-0.15","5","5","5","3","1","5","4","3","5","4","4","0","-1","-2","2","-3","1","0","1","5","5","5","5","5","2","3","4","2","2","1","7","5","8","3","6","4","9","7","2","2","5","2","5","1","5","4","2","2","2","1","6","2","5","5","2","2","3","3","3","6","7","7","3","7","6","6","7","7","7","6","7","4","2","7","5","7","2","7","764077949963210754","郭","60","Male","[""好他"",""好我"",""坏我"",""坏他""]","[""强他"",""强我"",""弱我"",""弱他""]","","","","","","","","nonmatch","","","","","","","","","","key","j","16.669271999999882","764","390.8","j","true","nonmatch","img/circle.png","弱我","强他","prac_ALT2_ability","practice_ability","","","","","","","",""
"null","<span style='color:GreenYellow; font-size: 70px;'>正确! </span>","null","html-keyboard-response","41","401179","0.0-8.0-1.0-1.0-0.0-1.15","5","5","5","3","1","5","4","3","5","4","4","0","-1","-2","2","-3","1","0","1","5","5","5","5","5","2","3","4","2","2","1","7","5","8","3","6","4","9","7","2","2","5","2","5","1","5","4","2","2","2","1","6","2","5","5","2","2","3","3","3","6","7","7","3","7","6","6","7","7","7","6","7","4","2","7","5","7","2","7","764077949963210754","郭","60","Male","[""好他"",""好我"",""坏我"",""坏他""]","[""强他"",""强我"",""弱我"",""弱他""]","","","","","","","","","","","","","","","","","","","","","","","","","","","","","","feedback_test","","","","","","","",""
"921","","j","psychophysics","42","403101","0.0-8.0-1.0-1.0-0.0-0.16","5","5","5","3","1","5","4","3","5","4","4","0","-1","-2","2","-3","1","0","1","5","5","5","5","5","2","3","4","2","2","1","7","5","8","3","6","4","9","7","2","2","5","2","5","1","5","4","2","2","2","1","6","2","5","5","2","2","3","3","3","6","7","7","3","7","6","6","7","7","7","6","7","4","2","7","5","7","2","7","764077949963210754","郭","60","Male","[""好他"",""好我"",""坏我"",""坏他""]","[""强他"",""强我"",""弱我"",""弱他""]","","","","","","","","nonmatch","","","","","","","","","","key","j","16.66799130434798","764","390.8","j","true","nonmatch","img/diamond.png","强我","弱他","prac_ALT2_ability","practice_ability","","","","","","","",""
"null","<span style='color:GreenYellow; font-size: 70px;'>正确! </span>","null","html-keyboard-response","43","403602","0.0-8.0-1.0-1.0-0.0-1.16","5","5","5","3","1","5","4","3","5","4","4","0","-1","-2","2","-3","1","0","1","5","5","5","5","5","2","3","4","2","2","1","7","5","8","3","6","4","9","7","2","2","5","2","5","1","5","4","2","2","2","1","6","2","5","5","2","2","3","3","3","6","7","7","3","7","6","6","7","7","7","6","7","4","2","7","5","7","2","7","764077949963210754","郭","60","Male","[""好他"",""好我"",""坏我"",""坏他""]","[""强他"",""强我"",""弱我"",""弱他""]","","","","","","","","","","","","","","","","","","","","","","","","","","","","","","feedback_test","","","","","","","",""
"null","","null","psychophysics","44","405806","0.0-8.0-1.0-1.0-0.0-0.17","5","5","5","3","1","5","4","3","5","4","4","0","-1","-2","2","-3","1","0","1","5","5","5","5","5","2","3","4","2","2","1","7","5","8","3","6","4","9","7","2","2","5","2","5","1","5","4","2","2","2","1","6","2","5","5","2","2","3","3","3","6","7","7","3","7","6","6","7","7","7","6","7","4","2","7","5","7","2","7","764077949963210754","郭","60","Male","[""好他"",""好我"",""坏我"",""坏他""]","[""强他"",""强我"",""弱我"",""弱他""]","","","","","","","","null","","","","","","","","","","key","null","16.66776335877873","764","390.8","f","false","match","img/circle.png","强他","强他","prac_ALT2_ability","practice_ability","","","","","","","",""
"null","<span class='add_' style='color:yellow; font-size: 70px;'> 太慢! </span>","null","html-keyboard-response","45","406309","0.0-8.0-1.0-1.0-0.0-1.17","5","5","5","3","1","5","4","3","5","4","4","0","-1","-2","2","-3","1","0","1","5","5","5","5","5","2","3","4","2","2","1","7","5","8","3","6","4","9","7","2","2","5","2","5","1","5","4","2","2","2","1","6","2","5","5","2","2","3","3","3","6","7","7","3","7","6","6","7","7","7","6","7","4","2","7","5","7","2","7","764077949963210754","郭","60","Male","[""好他"",""好我"",""坏我"",""坏他""]","[""强他"",""强我"",""弱我"",""弱他""]","","","","","","","","","","","","","","","","","","","","","","","","","","","","","","feedback_test","","","","","","","",""
"649","","f","psychophysics","46","407960","0.0-8.0-1.0-1.0-0.0-0.18","5","5","5","3","1","5","4","3","5","4","4","0","-1","-2","2","-3","1","0","1","5","5","5","5","5","2","3","4","2","2","1","7","5","8","3","6","4","9","7","2","2","5","2","5","1","5","4","2","2","2","1","6","2","5","5","2","2","3","3","3","6","7","7","3","7","6","6","7","7","7","6","7","4","2","7","5","7","2","7","764077949963210754","郭","60","Male","[""好他"",""好我"",""坏我"",""坏他""]","[""强他"",""强我"",""弱我"",""弱他""]","","","","","","","","match","","","","","","","","","","key","f","16.66658163265318","764","390.8","f","true","match","img/circle.png","强他","强他","prac_ALT2_ability","practice_ability","","","","","","","",""
"null","<span style='color:GreenYellow; font-size: 70px;'>正确! </span>","null","html-keyboard-response","47","408461","0.0-8.0-1.0-1.0-0.0-1.18","5","5","5","3","1","5","4","3","5","4","4","0","-1","-2","2","-3","1","0","1","5","5","5","5","5","2","3","4","2","2","1","7","5","8","3","6","4","9","7","2","2","5","2","5","1","5","4","2","2","2","1","6","2","5","5","2","2","3","3","3","6","7","7","3","7","6","6","7","7","7","6","7","4","2","7","5","7","2","7","764077949963210754","郭","60","Male","[""好他"",""好我"",""坏我"",""坏他""]","[""强他"",""强我"",""弱我"",""弱他""]","","","","","","","","","","","","","","","","","","","","","","","","","","","","","","feedback_test","","","","","","","",""
"1029","","j","psychophysics","48","410492","0.0-8.0-1.0-1.0-0.0-0.19","5","5","5","3","1","5","4","3","5","4","4","0","-1","-2","2","-3","1","0","1","5","5","5","5","5","2","3","4","2","2","1","7","5","8","3","6","4","9","7","2","2","5","2","5","1","5","4","2","2","2","1","6","2","5","5","2","2","3","3","3","6","7","7","3","7","6","6","7","7","7","6","7","4","2","7","5","7","2","7","764077949963210754","郭","60","Male","[""好他"",""好我"",""坏我"",""坏他""]","[""强他"",""强我"",""弱我"",""弱他""]","","","","","","","","nonmatch","","","","","","","","","","key","j","16.669024999999966","764","390.8","j","true","nonmatch","img/circle.png","强我","强他","prac_ALT2_ability","practice_ability","","","","","","","",""
"null","<span style='color:GreenYellow; font-size: 70px;'>正确! </span>","null","html-keyboard-response","49","410999","0.0-8.0-1.0-1.0-0.0-1.19","5","5","5","3","1","5","4","3","5","4","4","0","-1","-2","2","-3","1","0","1","5","5","5","5","5","2","3","4","2","2","1","7","5","8","3","6","4","9","7","2","2","5","2","5","1","5","4","2","2","2","1","6","2","5","5","2","2","3","3","3","6","7","7","3","7","6","6","7","7","7","6","7","4","2","7","5","7","2","7","764077949963210754","郭","60","Male","[""好他"",""好我"",""坏我"",""坏他""]","[""强他"",""强我"",""弱我"",""弱他""]","","","","","","","","","","","","","","","","","","","","","","","","","","","","","","feedback_test","","","","","","","",""
"null","","null","psychophysics","50","413205","0.0-8.0-1.0-1.0-0.0-0.20","5","5","5","3","1","5","4","3","5","4","4","0","-1","-2","2","-3","1","0","1","5","5","5","5","5","2","3","4","2","2","1","7","5","8","3","6","4","9","7","2","2","5","2","5","1","5","4","2","2","2","1","6","2","5","5","2","2","3","3","3","6","7","7","3","7","6","6","7","7","7","6","7","4","2","7","5","7","2","7","764077949963210754","郭","60","Male","[""好他"",""好我"",""坏我"",""坏他""]","[""强他"",""强我"",""弱我"",""弱他""]","","","","","","","","null","","","","","","","","","","key","null","16.666190839694718","764","390.8","f","false","match","img/square.png","弱我","弱我","prac_ALT2_ability","practice_ability","","","","","","","",""
"null","<span class='add_' style='color:yellow; font-size: 70px;'> 太慢! </span>","null","html-keyboard-response","51","413708","0.0-8.0-1.0-1.0-0.0-1.20","5","5","5","3","1","5","4","3","5","4","4","0","-1","-2","2","-3","1","0","1","5","5","5","5","5","2","3","4","2","2","1","7","5","8","3","6","4","9","7","2","2","5","2","5","1","5","4","2","2","2","1","6","2","5","5","2","2","3","3","3","6","7","7","3","7","6","6","7","7","7","6","7","4","2","7","5","7","2","7","764077949963210754","郭","60","Male","[""好他"",""好我"",""坏我"",""坏他""]","[""强他"",""强我"",""弱我"",""弱他""]","","","","","","","","","","","","","","","","","","","","","","","","","","","","","","feedback_test","","","","","","","",""
"883","","f","psychophysics","52","415593","0.0-8.0-1.0-1.0-0.0-0.21","5","5","5","3","1","5","4","3","5","4","4","0","-1","-2","2","-3","1","0","1","5","5","5","5","5","2","3","4","2","2","1","7","5","8","3","6","4","9","7","2","2","5","2","5","1","5","4","2","2","2","1","6","2","5","5","2","2","3","3","3","6","7","7","3","7","6","6","7","7","7","6","7","4","2","7","5","7","2","7","764077949963210754","郭","60","Male","[""好他"",""好我"",""坏我"",""坏他""]","[""强他"",""强我"",""弱我"",""弱他""]","","","","","","","","match","","","","","","","","","","key","f","16.66958035714301","764","390.8","f","true","match","img/diamond.png","弱他","弱他","prac_ALT2_ability","practice_ability","","","","","","","",""
"null","<span style='color:GreenYellow; font-size: 70px;'>正确! </span>","null","html-keyboard-response","53","416104","0.0-8.0-1.0-1.0-0.0-1.21","5","5","5","3","1","5","4","3","5","4","4","0","-1","-2","2","-3","1","0","1","5","5","5","5","5","2","3","4","2","2","1","7","5","8","3","6","4","9","7","2","2","5","2","5","1","5","4","2","2","2","1","6","2","5","5","2","2","3","3","3","6","7","7","3","7","6","6","7","7","7","6","7","4","2","7","5","7","2","7","764077949963210754","郭","60","Male","[""好他"",""好我"",""坏我"",""坏他""]","[""强他"",""强我"",""弱我"",""弱他""]","","","","","","","","","","","","","","","","","","","","","","","","","","","","","","feedback_test","","","","","","","",""
"805","","j","psychophysics","54","417912","0.0-8.0-1.0-1.0-0.0-0.22","5","5","5","3","1","5","4","3","5","4","4","0","-1","-2","2","-3","1","0","1","5","5","5","5","5","2","3","4","2","2","1","7","5","8","3","6","4","9","7","2","2","5","2","5","1","5","4","2","2","2","1","6","2","5","5","2","2","3","3","3","6","7","7","3","7","6","6","7","7","7","6","7","4","2","7","5","7","2","7","764077949963210754","郭","60","Male","[""好他"",""好我"",""坏我"",""坏他""]","[""强他"",""强我"",""弱我"",""弱他""]","","","","","","","","nonmatch","","","","","","","","","","key","j","16.66985046728971","764","390.8","j","true","nonmatch","img/circle.png","弱他","强他","prac_ALT2_ability","practice_ability","","","","","","","",""
"null","<span style='color:GreenYellow; font-size: 70px;'>正确! </span>","null","html-keyboard-response","55","418413","0.0-8.0-1.0-1.0-0.0-1.22","5","5","5","3","1","5","4","3","5","4","4","0","-1","-2","2","-3","1","0","1","5","5","5","5","5","2","3","4","2","2","1","7","5","8","3","6","4","9","7","2","2","5","2","5","1","5","4","2","2","2","1","6","2","5","5","2","2","3","3","3","6","7","7","3","7","6","6","7","7","7","6","7","4","2","7","5","7","2","7","764077949963210754","郭","60","Male","[""好他"",""好我"",""坏我"",""坏他""]","[""强他"",""强我"",""弱我"",""弱他""]","","","","","","","","","","","","","","","","","","","","","","","","","","","","","","feedback_test","","","","","","","",""
"1057","","f","psychophysics","56","420471","0.0-8.0-1.0-1.0-0.0-0.23","5","5","5","3","1","5","4","3","5","4","4","0","-1","-2","2","-3","1","0","1","5","5","5","5","5","2","3","4","2","2","1","7","5","8","3","6","4","9","7","2","2","5","2","5","1","5","4","2","2","2","1","6","2","5","5","2","2","3","3","3","6","7","7","3","7","6","6","7","7","7","6","7","4","2","7","5","7","2","7","764077949963210754","郭","60","Male","[""好他"",""好我"",""坏我"",""坏他""]","[""强他"",""强我"",""弱我"",""弱他""]","","","","","","","","match","","","","","","","","","","key","f","16.666617886178912","764","390.8","f","true","match","img/hexagon.png","强我","强我","prac_ALT2_ability","practice_ability","","","","","","","",""
"null","<span style='color:GreenYellow; font-size: 70px;'>正确! </span>","null","html-keyboard-response","57","420972","0.0-8.0-1.0-1.0-0.0-1.23","5","5","5","3","1","5","4","3","5","4","4","0","-1","-2","2","-3","1","0","1","5","5","5","5","5","2","3","4","2","2","1","7","5","8","3","6","4","9","7","2","2","5","2","5","1","5","4","2","2","2","1","6","2","5","5","2","2","3","3","3","6","7","7","3","7","6","6","7","7","7","6","7","4","2","7","5","7","2","7","764077949963210754","郭","60","Male","[""好他"",""好我"",""坏我"",""坏他""]","[""强他"",""强我"",""弱我"",""弱他""]","","","","","","","","","","","","","","","","","","","","","","","","","","","","","","feedback_test","","","","","","","",""
"null","","null","psychophysics","58","423175","0.0-8.0-1.0-1.0-0.0-0.24","5","5","5","3","1","5","4","3","5","4","4","0","-1","-2","2","-3","1","0","1","5","5","5","5","5","2","3","4","2","2","1","7","5","8","3","6","4","9","7","2","2","5","2","5","1","5","4","2","2","2","1","6","2","5","5","2","2","3","3","3","6","7","7","3","7","6","6","7","7","7","6","7","4","2","7","5","7","2","7","764077949963210754","郭","60","Male","[""好他"",""好我"",""坏我"",""坏他""]","[""强他"",""强我"",""弱我"",""弱他""]","","","","","","","","null","","","","","","","","","","key","null","16.66655384615386","764","390.8","j","false","nonmatch","img/diamond.png","弱我","弱他","prac_ALT2_ability","practice_ability","","","","","","","",""
"null","<span class='add_' style='color:yellow; font-size: 70px;'> 太慢! </span>","null","html-keyboard-response","59","423676","0.0-8.0-1.0-1.0-0.0-1.24","5","5","5","3","1","5","4","3","5","4","4","0","-1","-2","2","-3","1","0","1","5","5","5","5","5","2","3","4","2","2","1","7","5","8","3","6","4","9","7","2","2","5","2","5","1","5","4","2","2","2","1","6","2","5","5","2","2","3","3","3","6","7","7","3","7","6","6","7","7","7","6","7","4","2","7","5","7","2","7","764077949963210754","郭","60","Male","[""好他"",""好我"",""坏我"",""坏他""]","[""强他"",""强我"",""弱我"",""弱他""]","","","","","","","","","","","","","","","","","","","","","","","","","","","","","","feedback_test","","","","","","","",""
"971","","j","psychophysics","60","425647","0.0-8.0-1.0-1.0-0.0-0.25","5","5","5","3","1","5","4","3","5","4","4","0","-1","-2","2","-3","1","0","1","5","5","5","5","5","2","3","4","2","2","1","7","5","8","3","6","4","9","7","2","2","5","2","5","1","5","4","2","2","2","1","6","2","5","5","2","2","3","3","3","6","7","7","3","7","6","6","7","7","7","6","7","4","2","7","5","7","2","7","764077949963210754","郭","60","Male","[""好他"",""好我"",""坏我"",""坏他""]","[""强他"",""强我"",""弱我"",""弱他""]","","","","","","","","nonmatch","","","","","","","","","","key","j","16.66503418803426","764","390.8","j","true","nonmatch","img/hexagon.png","弱他","强我","prac_ALT2_ability","practice_ability","","","","","","","",""
"null","<span style='color:GreenYellow; font-size: 70px;'>正确! </span>","null","html-keyboard-response","61","426156","0.0-8.0-1.0-1.0-0.0-1.25","5","5","5","3","1","5","4","3","5","4","4","0","-1","-2","2","-3","1","0","1","5","5","5","5","5","2","3","4","2","2","1","7","5","8","3","6","4","9","7","2","2","5","2","5","1","5","4","2","2","2","1","6","2","5","5","2","2","3","3","3","6","7","7","3","7","6","6","7","7","7","6","7","4","2","7","5","7","2","7","764077949963210754","郭","60","Male","[""好他"",""好我"",""坏我"",""坏他""]","[""强他"",""强我"",""弱我"",""弱他""]","","","","","","","","","","","","","","","","","","","","","","","","","","","","","","feedback_test","","","","","","","",""
"868","","f","psychophysics","62","428025","0.0-8.0-1.0-1.0-0.0-0.26","5","5","5","3","1","5","4","3","5","4","4","0","-1","-2","2","-3","1","0","1","5","5","5","5","5","2","3","4","2","2","1","7","5","8","3","6","4","9","7","2","2","5","2","5","1","5","4","2","2","2","1","6","2","5","5","2","2","3","3","3","6","7","7","3","7","6","6","7","7","7","6","7","4","2","7","5","7","2","7","764077949963210754","郭","60","Male","[""好他"",""好我"",""坏我"",""坏他""]","[""强他"",""强我"",""弱我"",""弱他""]","","","","","","","","match","","","","","","","","","","key","f","16.666702702702317","764","390.8","f","true","match","img/circle.png","强他","强他","prac_ALT2_ability","practice_ability","","","","","","","",""
"null","<span style='color:GreenYellow; font-size: 70px;'>正确! </span>","null","html-keyboard-response","63","428527","0.0-8.0-1.0-1.0-0.0-1.26","5","5","5","3","1","5","4","3","5","4","4","0","-1","-2","2","-3","1","0","1","5","5","5","5","5","2","3","4","2","2","1","7","5","8","3","6","4","9","7","2","2","5","2","5","1","5","4","2","2","2","1","6","2","5","5","2","2","3","3","3","6","7","7","3","7","6","6","7","7","7","6","7","4","2","7","5","7","2","7","764077949963210754","郭","60","Male","[""好他"",""好我"",""坏我"",""坏他""]","[""强他"",""强我"",""弱我"",""弱他""]","","","","","","","","","","","","","","","","","","","","","","","","","","","","","","feedback_test","","","","","","","",""
"859","","f","psychophysics","64","430388","0.0-8.0-1.0-1.0-0.0-0.27","5","5","5","3","1","5","4","3","5","4","4","0","-1","-2","2","-3","1","0","1","5","5","5","5","5","2","3","4","2","2","1","7","5","8","3","6","4","9","7","2","2","5","2","5","1","5","4","2","2","2","1","6","2","5","5","2","2","3","3","3","6","7","7","3","7","6","6","7","7","7","6","7","4","2","7","5","7","2","7","764077949963210754","郭","60","Male","[""好他"",""好我"",""坏我"",""坏他""]","[""强他"",""强我"",""弱我"",""弱他""]","","","","","","","","match","","","","","","","","","","key","f","16.670423423423568","764","390.8","f","true","match","img/hexagon.png","强我","强我","prac_ALT2_ability","practice_ability","","","","","","","",""
"null","<span style='color:GreenYellow; font-size: 70px;'>正确! </span>","null","html-keyboard-response","65","430890","0.0-8.0-1.0-1.0-0.0-1.27","5","5","5","3","1","5","4","3","5","4","4","0","-1","-2","2","-3","1","0","1","5","5","5","5","5","2","3","4","2","2","1","7","5","8","3","6","4","9","7","2","2","5","2","5","1","5","4","2","2","2","1","6","2","5","5","2","2","3","3","3","6","7","7","3","7","6","6","7","7","7","6","7","4","2","7","5","7","2","7","764077949963210754","郭","60","Male","[""好他"",""好我"",""坏我"",""坏他""]","[""强他"",""强我"",""弱我"",""弱他""]","","","","","","","","","","","","","","","","","","","","","","","","","","","","","","feedback_test","","","","","","","",""
"886","","f","psychophysics","66","432776","0.0-8.0-1.0-1.0-0.0-0.28","5","5","5","3","1","5","4","3","5","4","4","0","-1","-2","2","-3","1","0","1","5","5","5","5","5","2","3","4","2","2","1","7","5","8","3","6","4","9","7","2","2","5","2","5","1","5","4","2","2","2","1","6","2","5","5","2","2","3","3","3","6","7","7","3","7","6","6","7","7","7","6","7","4","2","7","5","7","2","7","764077949963210754","郭","60","Male","[""好他"",""好我"",""坏我"",""坏他""]","[""强他"",""强我"",""弱我"",""弱他""]","","","","","","","","match","","","","","","","","","","key","f","16.668151785714663","764","390.8","f","true","match","img/diamond.png","弱他","弱他","prac_ALT2_ability","practice_ability","","","","","","","",""
"null","<span style='color:GreenYellow; font-size: 70px;'>正确! </span>","null","html-keyboard-response","67","433279","0.0-8.0-1.0-1.0-0.0-1.28","5","5","5","3","1","5","4","3","5","4","4","0","-1","-2","2","-3","1","0","1","5","5","5","5","5","2","3","4","2","2","1","7","5","8","3","6","4","9","7","2","2","5","2","5","1","5","4","2","2","2","1","6","2","5","5","2","2","3","3","3","6","7","7","3","7","6","6","7","7","7","6","7","4","2","7","5","7","2","7","764077949963210754","郭","60","Male","[""好他"",""好我"",""坏我"",""坏他""]","[""强他"",""强我"",""弱我"",""弱他""]","","","","","","","","","","","","","","","","","","","","","","","","","","","","","","feedback_test","","","","","","","",""
"922","","f","psychophysics","68","435202","0.0-8.0-1.0-1.0-0.0-0.29","5","5","5","3","1","5","4","3","5","4","4","0","-1","-2","2","-3","1","0","1","5","5","5","5","5","2","3","4","2","2","1","7","5","8","3","6","4","9","7","2","2","5","2","5","1","5","4","2","2","2","1","6","2","5","5","2","2","3","3","3","6","7","7","3","7","6","6","7","7","7","6","7","4","2","7","5","7","2","7","764077949963210754","郭","60","Male","[""好他"",""好我"",""坏我"",""坏他""]","[""强他"",""强我"",""弱我"",""弱他""]","","","","","","","","match","","","","","","","","","","key","f","16.666173913043863","764","390.8","j","false","nonmatch","img/circle.png","强我","强他","prac_ALT2_ability","practice_ability","","","","","","","",""
"null","<span style='color:red; font-size: 70px;'>错误! </span>","null","html-keyboard-response","69","435703","0.0-8.0-1.0-1.0-0.0-1.29","5","5","5","3","1","5","4","3","5","4","4","0","-1","-2","2","-3","1","0","1","5","5","5","5","5","2","3","4","2","2","1","7","5","8","3","6","4","9","7","2","2","5","2","5","1","5","4","2","2","2","1","6","2","5","5","2","2","3","3","3","6","7","7","3","7","6","6","7","7","7","6","7","4","2","7","5","7","2","7","764077949963210754","郭","60","Male","[""好他"",""好我"",""坏我"",""坏他""]","[""强他"",""强我"",""弱我"",""弱他""]","","","","","","","","","","","","","","","","","","","","","","","","","","","","","","feedback_test","","","","","","","",""
"1050","","f","psychophysics","70","437756","0.0-8.0-1.0-1.0-0.0-0.30","5","5","5","3","1","5","4","3","5","4","4","0","-1","-2","2","-3","1","0","1","5","5","5","5","5","2","3","4","2","2","1","7","5","8","3","6","4","9","7","2","2","5","2","5","1","5","4","2","2","2","1","6","2","5","5","2","2","3","3","3","6","7","7","3","7","6","6","7","7","7","6","7","4","2","7","5","7","2","7","764077949963210754","郭","60","Male","[""好他"",""好我"",""坏我"",""坏他""]","[""强他"",""强我"",""弱我"",""弱他""]","","","","","","","","match","","","","","","","","","","key","f","16.667795081967373","764","390.8","f","true","match","img/circle.png","强他","强他","prac_ALT2_ability","practice_ability","","","","","","","",""
"null","<span style='color:GreenYellow; font-size: 70px;'>正确! </span>","null","html-keyboard-response","71","438256","0.0-8.0-1.0-1.0-0.0-1.30","5","5","5","3","1","5","4","3","5","4","4","0","-1","-2","2","-3","1","0","1","5","5","5","5","5","2","3","4","2","2","1","7","5","8","3","6","4","9","7","2","2","5","2","5","1","5","4","2","2","2","1","6","2","5","5","2","2","3","3","3","6","7","7","3","7","6","6","7","7","7","6","7","4","2","7","5","7","2","7","764077949963210754","郭","60","Male","[""好他"",""好我"",""坏我"",""坏他""]","[""强他"",""强我"",""弱我"",""弱他""]","","","","","","","","","","","","","","","","","","","","","","","","","","","","","","feedback_test","","","","","","","",""
"null","","null","psychophysics","72","440459","0.0-8.0-1.0-1.0-0.0-0.31","5","5","5","3","1","5","4","3","5","4","4","0","-1","-2","2","-3","1","0","1","5","5","5","5","5","2","3","4","2","2","1","7","5","8","3","6","4","9","7","2","2","5","2","5","1","5","4","2","2","2","1","6","2","5","5","2","2","3","3","3","6","7","7","3","7","6","6","7","7","7","6","7","4","2","7","5","7","2","7","764077949963210754","郭","60","Male","[""好他"",""好我"",""坏我"",""坏他""]","[""强他"",""强我"",""弱我"",""弱他""]","","","","","","","","null","","","","","","","","","","key","null","16.669167938931466","764","390.8","f","false","match","img/circle.png","强他","强他","prac_ALT2_ability","practice_ability","","","","","","","",""
"null","<span class='add_' style='color:yellow; font-size: 70px;'> 太慢! </span>","null","html-keyboard-response","73","440969","0.0-8.0-1.0-1.0-0.0-1.31","5","5","5","3","1","5","4","3","5","4","4","0","-1","-2","2","-3","1","0","1","5","5","5","5","5","2","3","4","2","2","1","7","5","8","3","6","4","9","7","2","2","5","2","5","1","5","4","2","2","2","1","6","2","5","5","2","2","3","3","3","6","7","7","3","7","6","6","7","7","7","6","7","4","2","7","5","7","2","7","764077949963210754","郭","60","Male","[""好他"",""好我"",""坏我"",""坏他""]","[""强他"",""强我"",""弱我"",""弱他""]","","","","","","","","","","","","","","","","","","","","","","","","","","","","","","feedback_test","","","","","","","",""
"949","","j","psychophysics","74","442920","0.0-8.0-1.0-1.0-0.0-0.32","5","5","5","3","1","5","4","3","5","4","4","0","-1","-2","2","-3","1","0","1","5","5","5","5","5","2","3","4","2","2","1","7","5","8","3","6","4","9","7","2","2","5","2","5","1","5","4","2","2","2","1","6","2","5","5","2","2","3","3","3","6","7","7","3","7","6","6","7","7","7","6","7","4","2","7","5","7","2","7","764077949963210754","郭","60","Male","[""好他"",""好我"",""坏我"",""坏他""]","[""强他"",""强我"",""弱我"",""弱他""]","","","","","","","","nonmatch","","","","","","","","","","key","j","16.669051724138313","764","390.8","j","true","nonmatch","img/circle.png","弱他","强他","prac_ALT2_ability","practice_ability","","","","","","","",""
"null","<span style='color:GreenYellow; font-size: 70px;'>正确! </span>","null","html-keyboard-response","75","443421","0.0-8.0-1.0-1.0-0.0-1.32","5","5","5","3","1","5","4","3","5","4","4","0","-1","-2","2","-3","1","0","1","5","5","5","5","5","2","3","4","2","2","1","7","5","8","3","6","4","9","7","2","2","5","2","5","1","5","4","2","2","2","1","6","2","5","5","2","2","3","3","3","6","7","7","3","7","6","6","7","7","7","6","7","4","2","7","5","7","2","7","764077949963210754","郭","60","Male","[""好他"",""好我"",""坏我"",""坏他""]","[""强他"",""强我"",""弱我"",""弱他""]","","","","","","","","","","","","","","","","","","","","","","","","","","","","","","feedback_test","","","","","","","",""
"906","","f","psychophysics","76","445329","0.0-8.0-1.0-1.0-0.0-0.33","5","5","5","3","1","5","4","3","5","4","4","0","-1","-2","2","-3","1","0","1","5","5","5","5","5","2","3","4","2","2","1","7","5","8","3","6","4","9","7","2","2","5","2","5","1","5","4","2","2","2","1","6","2","5","5","2","2","3","3","3","6","7","7","3","7","6","6","7","7","7","6","7","4","2","7","5","7","2","7","764077949963210754","郭","60","Male","[""好他"",""好我"",""坏我"",""坏他""]","[""强他"",""强我"",""弱我"",""弱他""]","","","","","","","","match","","","","","","","","","","key","f","16.66964601769897","764","390.8","f","true","match","img/hexagon.png","强我","强我","prac_ALT2_ability","practice_ability","","","","","","","",""
"null","<span style='color:GreenYellow; font-size: 70px;'>正确! </span>","null","html-keyboard-response","77","445831","0.0-8.0-1.0-1.0-0.0-1.33","5","5","5","3","1","5","4","3","5","4","4","0","-1","-2","2","-3","1","0","1","5","5","5","5","5","2","3","4","2","2","1","7","5","8","3","6","4","9","7","2","2","5","2","5","1","5","4","2","2","2","1","6","2","5","5","2","2","3","3","3","6","7","7","3","7","6","6","7","7","7","6","7","4","2","7","5","7","2","7","764077949963210754","郭","60","Male","[""好他"",""好我"",""坏我"",""坏他""]","[""强他"",""强我"",""弱我"",""弱他""]","","","","","","","","","","","","","","","","","","","","","","","","","","","","","","feedback_test","","","","","","","",""
"1027","","j","psychophysics","78","447859","0.0-8.0-1.0-1.0-0.0-0.34","5","5","5","3","1","5","4","3","5","4","4","0","-1","-2","2","-3","1","0","1","5","5","5","5","5","2","3","4","2","2","1","7","5","8","3","6","4","9","7","2","2","5","2","5","1","5","4","2","2","2","1","6","2","5","5","2","2","3","3","3","6","7","7","3","7","6","6","7","7","7","6","7","4","2","7","5","7","2","7","764077949963210754","郭","60","Male","[""好他"",""好我"",""坏我"",""坏他""]","[""强他"",""强我"",""弱我"",""弱他""]","","","","","","","","nonmatch","","","","","","","","","","key","j","16.667404958678116","764","390.8","f","false","match","img/hexagon.png","强我","强我","prac_ALT2_ability","practice_ability","","","","","","","",""
"null","<span style='color:red; font-size: 70px;'>错误! </span>","null","html-keyboard-response","79","448361","0.0-8.0-1.0-1.0-0.0-1.34","5","5","5","3","1","5","4","3","5","4","4","0","-1","-2","2","-3","1","0","1","5","5","5","5","5","2","3","4","2","2","1","7","5","8","3","6","4","9","7","2","2","5","2","5","1","5","4","2","2","2","1","6","2","5","5","2","2","3","3","3","6","7","7","3","7","6","6","7","7","7","6","7","4","2","7","5","7","2","7","764077949963210754","郭","60","Male","[""好他"",""好我"",""坏我"",""坏他""]","[""强他"",""强我"",""弱我"",""弱他""]","","","","","","","","","","","","","","","","","","","","","","","","","","","","","","feedback_test","","","","","","","",""
"866","","f","psychophysics","80","450228","0.0-8.0-1.0-1.0-0.0-0.35","5","5","5","3","1","5","4","3","5","4","4","0","-1","-2","2","-3","1","0","1","5","5","5","5","5","2","3","4","2","2","1","7","5","8","3","6","4","9","7","2","2","5","2","5","1","5","4","2","2","2","1","6","2","5","5","2","2","3","3","3","6","7","7","3","7","6","6","7","7","7","6","7","4","2","7","5","7","2","7","764077949963210754","郭","60","Male","[""好他"",""好我"",""坏我"",""坏他""]","[""强他"",""强我"",""弱我"",""弱他""]","","","","","","","","match","","","","","","","","","","key","f","16.668180180180226","764","390.8","j","false","nonmatch","img/hexagon.png","强他","强我","prac_ALT2_ability","practice_ability","","","","","","","",""
"null","<span style='color:red; font-size: 70px;'>错误! </span>","null","html-keyboard-response","81","450740","0.0-8.0-1.0-1.0-0.0-1.35","5","5","5","3","1","5","4","3","5","4","4","0","-1","-2","2","-3","1","0","1","5","5","5","5","5","2","3","4","2","2","1","7","5","8","3","6","4","9","7","2","2","5","2","5","1","5","4","2","2","2","1","6","2","5","5","2","2","3","3","3","6","7","7","3","7","6","6","7","7","7","6","7","4","2","7","5","7","2","7","764077949963210754","郭","60","Male","[""好他"",""好我"",""坏我"",""坏他""]","[""强他"",""强我"",""弱我"",""弱他""]","","","","","","","","","","","","","","","","","","","","","","","","","","","","","","feedback_test","","","","","","","",""
"839","","j","psychophysics","82","452580","0.0-8.0-1.0-1.0-0.0-0.36","5","5","5","3","1","5","4","3","5","4","4","0","-1","-2","2","-3","1","0","1","5","5","5","5","5","2","3","4","2","2","1","7","5","8","3","6","4","9","7","2","2","5","2","5","1","5","4","2","2","2","1","6","2","5","5","2","2","3","3","3","6","7","7","3","7","6","6","7","7","7","6","7","4","2","7","5","7","2","7","764077949963210754","郭","60","Male","[""好他"",""好我"",""坏我"",""坏他""]","[""强他"",""强我"",""弱我"",""弱他""]","","","","","","","","nonmatch","","","","","","","","","","key","j","16.668645454545253","764","390.8","j","true","nonmatch","img/diamond.png","强我","弱他","prac_ALT2_ability","practice_ability","","","","","","","",""
"null","<span style='color:GreenYellow; font-size: 70px;'>正确! </span>","null","html-keyboard-response","83","453084","0.0-8.0-1.0-1.0-0.0-1.36","5","5","5","3","1","5","4","3","5","4","4","0","-1","-2","2","-3","1","0","1","5","5","5","5","5","2","3","4","2","2","1","7","5","8","3","6","4","9","7","2","2","5","2","5","1","5","4","2","2","2","1","6","2","5","5","2","2","3","3","3","6","7","7","3","7","6","6","7","7","7","6","7","4","2","7","5","7","2","7","764077949963210754","郭","60","Male","[""好他"",""好我"",""坏我"",""坏他""]","[""强他"",""强我"",""弱我"",""弱他""]","","","","","","","","","","","","","","","","","","","","","","","","","","","","","","feedback_test","","","","","","","",""
"910","","f","psychophysics","84","454996","0.0-8.0-1.0-1.0-0.0-0.37","5","5","5","3","1","5","4","3","5","4","4","0","-1","-2","2","-3","1","0","1","5","5","5","5","5","2","3","4","2","2","1","7","5","8","3","6","4","9","7","2","2","5","2","5","1","5","4","2","2","2","1","6","2","5","5","2","2","3","3","3","6","7","7","3","7","6","6","7","7","7","6","7","4","2","7","5","7","2","7","764077949963210754","郭","60","Male","[""好他"",""好我"",""坏我"",""坏他""]","[""强他"",""强我"",""弱我"",""弱他""]","","","","","","","","match","","","","","","","","","","key","f","16.663814159292023","764","390.8","j","false","nonmatch","img/square.png","强他","弱我","prac_ALT2_ability","practice_ability","","","","","","","",""
"null","<span style='color:red; font-size: 70px;'>错误! </span>","null","html-keyboard-response","85","455497","0.0-8.0-1.0-1.0-0.0-1.37","5","5","5","3","1","5","4","3","5","4","4","0","-1","-2","2","-3","1","0","1","5","5","5","5","5","2","3","4","2","2","1","7","5","8","3","6","4","9","7","2","2","5","2","5","1","5","4","2","2","2","1","6","2","5","5","2","2","3","3","3","6","7","7","3","7","6","6","7","7","7","6","7","4","2","7","5","7","2","7","764077949963210754","郭","60","Male","[""好他"",""好我"",""坏我"",""坏他""]","[""强他"",""强我"",""弱我"",""弱他""]","","","","","","","","","","","","","","","","","","","","","","","","","","","","","","feedback_test","","","","","","","",""
"null","","null","psychophysics","86","457702","0.0-8.0-1.0-1.0-0.0-0.38","5","5","5","3","1","5","4","3","5","4","4","0","-1","-2","2","-3","1","0","1","5","5","5","5","5","2","3","4","2","2","1","7","5","8","3","6","4","9","7","2","2","5","2","5","1","5","4","2","2","2","1","6","2","5","5","2","2","3","3","3","6","7","7","3","7","6","6","7","7","7","6","7","4","2","7","5","7","2","7","764077949963210754","郭","60","Male","[""好他"",""好我"",""坏我"",""坏他""]","[""强他"",""强我"",""弱我"",""弱他""]","","","","","","","","null","","","","","","","","","","key","null","16.665442748091678","764","390.8","j","false","nonmatch","img/diamond.png","强他","弱他","prac_ALT2_ability","practice_ability","","","","","","","",""
"null","<span class='add_' style='color:yellow; font-size: 70px;'> 太慢! </span>","null","html-keyboard-response","87","458203","0.0-8.0-1.0-1.0-0.0-1.38","5","5","5","3","1","5","4","3","5","4","4","0","-1","-2","2","-3","1","0","1","5","5","5","5","5","2","3","4","2","2","1","7","5","8","3","6","4","9","7","2","2","5","2","5","1","5","4","2","2","2","1","6","2","5","5","2","2","3","3","3","6","7","7","3","7","6","6","7","7","7","6","7","4","2","7","5","7","2","7","764077949963210754","郭","60","Male","[""好他"",""好我"",""坏我"",""坏他""]","[""强他"",""强我"",""弱我"",""弱他""]","","","","","","","","","","","","","","","","","","","","","","","","","","","","","","feedback_test","","","","","","","",""
"897","","f","psychophysics","88","460101","0.0-8.0-1.0-1.0-0.0-0.39","5","5","5","3","1","5","4","3","5","4","4","0","-1","-2","2","-3","1","0","1","5","5","5","5","5","2","3","4","2","2","1","7","5","8","3","6","4","9","7","2","2","5","2","5","1","5","4","2","2","2","1","6","2","5","5","2","2","3","3","3","6","7","7","3","7","6","6","7","7","7","6","7","4","2","7","5","7","2","7","764077949963210754","郭","60","Male","[""好他"",""好我"",""坏我"",""坏他""]","[""强他"",""强我"",""弱我"",""弱他""]","","","","","","","","match","","","","","","","","","","key","f","16.666911504425077","764","390.8","j","false","nonmatch","img/square.png","强我","弱我","prac_ALT2_ability","practice_ability","","","","","","","",""
"null","<span style='color:red; font-size: 70px;'>错误! </span>","null","html-keyboard-response","89","460601","0.0-8.0-1.0-1.0-0.0-1.39","5","5","5","3","1","5","4","3","5","4","4","0","-1","-2","2","-3","1","0","1","5","5","5","5","5","2","3","4","2","2","1","7","5","8","3","6","4","9","7","2","2","5","2","5","1","5","4","2","2","2","1","6","2","5","5","2","2","3","3","3","6","7","7","3","7","6","6","7","7","7","6","7","4","2","7","5","7","2","7","764077949963210754","郭","60","Male","[""好他"",""好我"",""坏我"",""坏他""]","[""强他"",""强我"",""弱我"",""弱他""]","","","","","","","","","","","","","","","","","","","","","","","","","","","","","","feedback_test","","","","","","","",""
"927","","j","psychophysics","90","462530","0.0-8.0-1.0-1.0-0.0-0.40","5","5","5","3","1","5","4","3","5","4","4","0","-1","-2","2","-3","1","0","1","5","5","5","5","5","2","3","4","2","2","1","7","5","8","3","6","4","9","7","2","2","5","2","5","1","5","4","2","2","2","1","6","2","5","5","2","2","3","3","3","6","7","7","3","7","6","6","7","7","7","6","7","4","2","7","5","7","2","7","764077949963210754","郭","60","Male","[""好他"",""好我"",""坏我"",""坏他""]","[""强他"",""强我"",""弱我"",""弱他""]","","","","","","","","nonmatch","","","","","","","","","","key","j","16.6629298245616","764","390.8","f","false","match","img/square.png","弱我","弱我","prac_ALT2_ability","practice_ability","","","","","","","",""
"null","<span style='color:red; font-size: 70px;'>错误! </span>","null","html-keyboard-response","91","463031","0.0-8.0-1.0-1.0-0.0-1.40","5","5","5","3","1","5","4","3","5","4","4","0","-1","-2","2","-3","1","0","1","5","5","5","5","5","2","3","4","2","2","1","7","5","8","3","6","4","9","7","2","2","5","2","5","1","5","4","2","2","2","1","6","2","5","5","2","2","3","3","3","6","7","7","3","7","6","6","7","7","7","6","7","4","2","7","5","7","2","7","764077949963210754","郭","60","Male","[""好他"",""好我"",""坏我"",""坏他""]","[""强他"",""强我"",""弱我"",""弱他""]","","","","","","","","","","","","","","","","","","","","","","","","","","","","","","feedback_test","","","","","","","",""
"1123","","j","psychophysics","92","465155","0.0-8.0-1.0-1.0-0.0-0.41","5","5","5","3","1","5","4","3","5","4","4","0","-1","-2","2","-3","1","0","1","5","5","5","5","5","2","3","4","2","2","1","7","5","8","3","6","4","9","7","2","2","5","2","5","1","5","4","2","2","2","1","6","2","5","5","2","2","3","3","3","6","7","7","3","7","6","6","7","7","7","6","7","4","2","7","5","7","2","7","764077949963210754","郭","60","Male","[""好他"",""好我"",""坏我"",""坏他""]","[""强他"",""强我"",""弱我"",""弱他""]","","","","","","","","nonmatch","","","","","","","","","","key","j","16.667842519684974","764","390.8","j","true","nonmatch","img/square.png","弱他","弱我","prac_ALT2_ability","practice_ability","","","","","","","",""
"null","<span style='color:GreenYellow; font-size: 70px;'>正确! </span>","null","html-keyboard-response","93","465657","0.0-8.0-1.0-1.0-0.0-1.41","5","5","5","3","1","5","4","3","5","4","4","0","-1","-2","2","-3","1","0","1","5","5","5","5","5","2","3","4","2","2","1","7","5","8","3","6","4","9","7","2","2","5","2","5","1","5","4","2","2","2","1","6","2","5","5","2","2","3","3","3","6","7","7","3","7","6","6","7","7","7","6","7","4","2","7","5","7","2","7","764077949963210754","郭","60","Male","[""好他"",""好我"",""坏我"",""坏他""]","[""强他"",""强我"",""弱我"",""弱他""]","","","","","","","","","","","","","","","","","","","","","","","","","","","","","","feedback_test","","","","","","","",""
"877","","j","psychophysics","94","467535","0.0-8.0-1.0-1.0-0.0-0.42","5","5","5","3","1","5","4","3","5","4","4","0","-1","-2","2","-3","1","0","1","5","5","5","5","5","2","3","4","2","2","1","7","5","8","3","6","4","9","7","2","2","5","2","5","1","5","4","2","2","2","1","6","2","5","5","2","2","3","3","3","6","7","7","3","7","6","6","7","7","7","6","7","4","2","7","5","7","2","7","764077949963210754","郭","60","Male","[""好他"",""好我"",""坏我"",""坏他""]","[""强他"",""强我"",""弱我"",""弱他""]","","","","","","","","nonmatch","","","","","","","","","","key","j","16.66737499999986","764","390.8","j","true","nonmatch","img/circle.png","弱我","强他","prac_ALT2_ability","practice_ability","","","","","","","",""
"null","<span style='color:GreenYellow; font-size: 70px;'>正确! </span>","null","html-keyboard-response","95","468042","0.0-8.0-1.0-1.0-0.0-1.42","5","5","5","3","1","5","4","3","5","4","4","0","-1","-2","2","-3","1","0","1","5","5","5","5","5","2","3","4","2","2","1","7","5","8","3","6","4","9","7","2","2","5","2","5","1","5","4","2","2","2","1","6","2","5","5","2","2","3","3","3","6","7","7","3","7","6","6","7","7","7","6","7","4","2","7","5","7","2","7","764077949963210754","郭","60","Male","[""好他"",""好我"",""坏我"",""坏他""]","[""强他"",""强我"",""弱我"",""弱他""]","","","","","","","","","","","","","","","","","","","","","","","","","","","","","","feedback_test","","","","","","","",""
"948","","j","psychophysics","96","469991","0.0-8.0-1.0-1.0-0.0-0.43","5","5","5","3","1","5","4","3","5","4","4","0","-1","-2","2","-3","1","0","1","5","5","5","5","5","2","3","4","2","2","1","7","5","8","3","6","4","9","7","2","2","5","2","5","1","5","4","2","2","2","1","6","2","5","5","2","2","3","3","3","6","7","7","3","7","6","6","7","7","7","6","7","4","2","7","5","7","2","7","764077949963210754","郭","60","Male","[""好他"",""好我"",""坏我"",""坏他""]","[""强他"",""强我"",""弱我"",""弱他""]","","","","","","","","nonmatch","","","","","","","","","","key","j","16.669931034482754","764","390.8","f","false","match","img/square.png","弱我","弱我","prac_ALT2_ability","practice_ability","","","","","","","",""
"null","<span style='color:red; font-size: 70px;'>错误! </span>","null","html-keyboard-response","97","470493","0.0-8.0-1.0-1.0-0.0-1.43","5","5","5","3","1","5","4","3","5","4","4","0","-1","-2","2","-3","1","0","1","5","5","5","5","5","2","3","4","2","2","1","7","5","8","3","6","4","9","7","2","2","5","2","5","1","5","4","2","2","2","1","6","2","5","5","2","2","3","3","3","6","7","7","3","7","6","6","7","7","7","6","7","4","2","7","5","7","2","7","764077949963210754","郭","60","Male","[""好他"",""好我"",""坏我"",""坏他""]","[""强他"",""强我"",""弱我"",""弱他""]","","","","","","","","","","","","","","","","","","","","","","","","","","","","","","feedback_test","","","","","","","",""
"1200","","f","psychophysics","98","472694","0.0-8.0-1.0-1.0-0.0-0.44","5","5","5","3","1","5","4","3","5","4","4","0","-1","-2","2","-3","1","0","1","5","5","5","5","5","2","3","4","2","2","1","7","5","8","3","6","4","9","7","2","2","5","2","5","1","5","4","2","2","2","1","6","2","5","5","2","2","3","3","3","6","7","7","3","7","6","6","7","7","7","6","7","4","2","7","5","7","2","7","764077949963210754","郭","60","Male","[""好他"",""好我"",""坏我"",""坏他""]","[""强他"",""强我"",""弱我"",""弱他""]","","","","","","","","match","","","","","","","","","","key","f","16.66740458015306","764","390.8","j","false","nonmatch","img/hexagon.png","弱我","强我","prac_ALT2_ability","practice_ability","","","","","","","",""
"null","<span style='color:red; font-size: 70px;'>错误! </span>","null","html-keyboard-response","99","473195","0.0-8.0-1.0-1.0-0.0-1.44","5","5","5","3","1","5","4","3","5","4","4","0","-1","-2","2","-3","1","0","1","5","5","5","5","5","2","3","4","2","2","1","7","5","8","3","6","4","9","7","2","2","5","2","5","1","5","4","2","2","2","1","6","2","5","5","2","2","3","3","3","6","7","7","3","7","6","6","7","7","7","6","7","4","2","7","5","7","2","7","764077949963210754","郭","60","Male","[""好他"",""好我"",""坏我"",""坏他""]","[""强他"",""强我"",""弱我"",""弱他""]","","","","","","","","","","","","","","","","","","","","","","","","","","","","","","feedback_test","","","","","","","",""
"null","","null","psychophysics","100","475396","0.0-8.0-1.0-1.0-0.0-0.45","5","5","5","3","1","5","4","3","5","4","4","0","-1","-2","2","-3","1","0","1","5","5","5","5","5","2","3","4","2","2","1","7","5","8","3","6","4","9","7","2","2","5","2","5","1","5","4","2","2","2","1","6","2","5","5","2","2","3","3","3","6","7","7","3","7","6","6","7","7","7","6","7","4","2","7","5","7","2","7","764077949963210754","郭","60","Male","[""好他"",""好我"",""坏我"",""坏他""]","[""强他"",""强我"",""弱我"",""弱他""]","","","","","","","","null","","","","","","","","","","key","null","16.66685496183212","764","390.8","f","false","match","img/square.png","弱我","弱我","prac_ALT2_ability","practice_ability","","","","","","","",""
"null","<span class='add_' style='color:yellow; font-size: 70px;'> 太慢! </span>","null","html-keyboard-response","101","475897","0.0-8.0-1.0-1.0-0.0-1.45","5","5","5","3","1","5","4","3","5","4","4","0","-1","-2","2","-3","1","0","1","5","5","5","5","5","2","3","4","2","2","1","7","5","8","3","6","4","9","7","2","2","5","2","5","1","5","4","2","2","2","1","6","2","5","5","2","2","3","3","3","6","7","7","3","7","6","6","7","7","7","6","7","4","2","7","5","7","2","7","764077949963210754","郭","60","Male","[""好他"",""好我"",""坏我"",""坏他""]","[""强他"",""强我"",""弱我"",""弱他""]","","","","","","","","","","","","","","","","","","","","","","","","","","","","","","feedback_test","","","","","","","",""
"823","","j","psychophysics","102","477721","0.0-8.0-1.0-1.0-0.0-0.46","5","5","5","3","1","5","4","3","5","4","4","0","-1","-2","2","-3","1","0","1","5","5","5","5","5","2","3","4","2","2","1","7","5","8","3","6","4","9","7","2","2","5","2","5","1","5","4","2","2","2","1","6","2","5","5","2","2","3","3","3","6","7","7","3","7","6","6","7","7","7","6","7","4","2","7","5","7","2","7","764077949963210754","郭","60","Male","[""好他"",""好我"",""坏我"",""坏他""]","[""强他"",""强我"",""弱我"",""弱他""]","","","","","","","","nonmatch","","","","","","","","","","key","j","16.66901834862341","764","390.8","f","false","match","img/diamond.png","弱他","弱他","prac_ALT2_ability","practice_ability","","","","","","","",""
"null","<span style='color:red; font-size: 70px;'>错误! </span>","null","html-keyboard-response","103","478222","0.0-8.0-1.0-1.0-0.0-1.46","5","5","5","3","1","5","4","3","5","4","4","0","-1","-2","2","-3","1","0","1","5","5","5","5","5","2","3","4","2","2","1","7","5","8","3","6","4","9","7","2","2","5","2","5","1","5","4","2","2","2","1","6","2","5","5","2","2","3","3","3","6","7","7","3","7","6","6","7","7","7","6","7","4","2","7","5","7","2","7","764077949963210754","郭","60","Male","[""好他"",""好我"",""坏我"",""坏他""]","[""强他"",""强我"",""弱我"",""弱他""]","","","","","","","","","","","","","","","","","","","","","","","","","","","","","","feedback_test","","","","","","","",""
"711","","f","psychophysics","104","479934","0.0-8.0-1.0-1.0-0.0-0.47","5","5","5","3","1","5","4","3","5","4","4","0","-1","-2","2","-3","1","0","1","5","5","5","5","5","2","3","4","2","2","1","7","5","8","3","6","4","9","7","2","2","5","2","5","1","5","4","2","2","2","1","6","2","5","5","2","2","3","3","3","6","7","7","3","7","6","6","7","7","7","6","7","4","2","7","5","7","2","7","764077949963210754","郭","60","Male","[""好他"",""好我"",""坏我"",""坏他""]","[""强他"",""强我"",""弱我"",""弱他""]","","","","","","","","match","","","","","","","","","","key","f","16.66570588235296","764","390.8","f","true","match","img/diamond.png","弱他","弱他","prac_ALT2_ability","practice_ability","","","","","","","",""
"null","<span style='color:GreenYellow; font-size: 70px;'>正确! </span>","null","html-keyboard-response","105","480436","0.0-8.0-1.0-1.0-0.0-1.47","5","5","5","3","1","5","4","3","5","4","4","0","-1","-2","2","-3","1","0","1","5","5","5","5","5","2","3","4","2","2","1","7","5","8","3","6","4","9","7","2","2","5","2","5","1","5","4","2","2","2","1","6","2","5","5","2","2","3","3","3","6","7","7","3","7","6","6","7","7","7","6","7","4","2","7","5","7","2","7","764077949963210754","郭","60","Male","[""好他"",""好我"",""坏我"",""坏他""]","[""强他"",""强我"",""弱我"",""弱他""]","","","","","","","","","","","","","","","","","","","","","","","","","","","","","","feedback_test","","","","","","","",""
"19525","<style>.context{color:white; font-size: 35px; line-height:40px}</style>                          <div><p class='context'>您正确回答了50% 的试次。</p><p class='context'>您的平均反应时为900毫秒。</p><p class='context'>恭喜您完成练习。按空格键继续。</p></div>"," ","html-keyboard-response","106","499962","0.0-8.0-1.0-1.0-1.0-0.0","5","5","5","3","1","5","4","3","5","4","4","0","-1","-2","2","-3","1","0","1","5","5","5","5","5","2","3","4","2","2","1","7","5","8","3","6","4","9","7","2","2","5","2","5","1","5","4","2","2","2","1","6","2","5","5","2","2","3","3","3","6","7","7","3","7","6","6","7","7","7","6","7","4","2","7","5","7","2","7","764077949963210754","郭","60","Male","[""好他"",""好我"",""坏我"",""坏他""]","[""强他"",""强我"",""弱我"",""弱他""]","","","","","","","","","","","","","","","","","","","","","","","","","","","","","","","","","","","","","",""
"46012","","","instructions","107","545975","0.0-8.0-1.0-1.0-1.0-1.0","5","5","5","3","1","5","4","3","5","4","4","0","-1","-2","2","-3","1","0","1","5","5","5","5","5","2","3","4","2","2","1","7","5","8","3","6","4","9","7","2","2","5","2","5","1","5","4","2","2","2","1","6","2","5","5","2","2","3","3","3","6","7","7","3","7","6","6","7","7","7","6","7","4","2","7","5","7","2","7","764077949963210754","郭","60","Male","[""好他"",""好我"",""坏我"",""坏他""]","[""强他"",""强我"",""弱我"",""弱他""]","","","","","","","","","","","","","","","","","[{""page_index"":0,""viewing_time"":3111},{""page_index"":1,""viewing_time"":41785},{""page_index"":2,""viewing_time"":1115}]","","","","","","","","","","","","","","","","","","","","",""
"836","","j","psychophysics","108","547812","0.0-8.0-1.0-1.1-0.1-0.48","5","5","5","3","1","5","4","3","5","4","4","0","-1","-2","2","-3","1","0","1","5","5","5","5","5","2","3","4","2","2","1","7","5","8","3","6","4","9","7","2","2","5","2","5","1","5","4","2","2","2","1","6","2","5","5","2","2","3","3","3","6","7","7","3","7","6","6","7","7","7","6","7","4","2","7","5","7","2","7","764077949963210754","郭","60","Male","[""好他"",""好我"",""坏我"",""坏他""]","[""强他"",""强我"",""弱我"",""弱他""]","","","","","","","","nonmatch","","","","","","","","","","key","j","16.667642201834205","764","390.8","f","false","match","img/hexagon.png","强我","强我","prac_ALT2_ability","practice_ability","","","","","","","",""
"null","<span style='color:red; font-size: 70px;'>错误! </span>","null","html-keyboard-response","109","548315","0.0-8.0-1.0-1.1-0.1-1.48","5","5","5","3","1","5","4","3","5","4","4","0","-1","-2","2","-3","1","0","1","5","5","5","5","5","2","3","4","2","2","1","7","5","8","3","6","4","9","7","2","2","5","2","5","1","5","4","2","2","2","1","6","2","5","5","2","2","3","3","3","6","7","7","3","7","6","6","7","7","7","6","7","4","2","7","5","7","2","7","764077949963210754","郭","60","Male","[""好他"",""好我"",""坏我"",""坏他""]","[""强他"",""强我"",""弱我"",""弱他""]","","","","","","","","","","","","","","","","","","","","","","","","","","","","","","feedback_test","","","","","","","",""
"929","","f","psychophysics","110","550244","0.0-8.0-1.0-1.1-0.1-0.49","5","5","5","3","1","5","4","3","5","4","4","0","-1","-2","2","-3","1","0","1","5","5","5","5","5","2","3","4","2","2","1","7","5","8","3","6","4","9","7","2","2","5","2","5","1","5","4","2","2","2","1","6","2","5","5","2","2","3","3","3","6","7","7","3","7","6","6","7","7","7","6","7","4","2","7","5","7","2","7","764077949963210754","郭","60","Male","[""好他"",""好我"",""坏我"",""坏他""]","[""强他"",""强我"",""弱我"",""弱他""]","","","","","","","","match","","","","","","","","","","key","f","16.667491228069515","764","390.8","f","true","match","img/square.png","弱我","弱我","prac_ALT2_ability","practice_ability","","","","","","","",""
"null","<span style='color:GreenYellow; font-size: 70px;'>正确! </span>","null","html-keyboard-response","111","550745","0.0-8.0-1.0-1.1-0.1-1.49","5","5","5","3","1","5","4","3","5","4","4","0","-1","-2","2","-3","1","0","1","5","5","5","5","5","2","3","4","2","2","1","7","5","8","3","6","4","9","7","2","2","5","2","5","1","5","4","2","2","2","1","6","2","5","5","2","2","3","3","3","6","7","7","3","7","6","6","7","7","7","6","7","4","2","7","5","7","2","7","764077949963210754","郭","60","Male","[""好他"",""好我"",""坏我"",""坏他""]","[""强他"",""强我"",""弱我"",""弱他""]","","","","","","","","","","","","","","","","","","","","","","","","","","","","","","feedback_test","","","","","","","",""
"778","","j","psychophysics","112","552524","0.0-8.0-1.0-1.1-0.1-0.50","5","5","5","3","1","5","4","3","5","4","4","0","-1","-2","2","-3","1","0","1","5","5","5","5","5","2","3","4","2","2","1","7","5","8","3","6","4","9","7","2","2","5","2","5","1","5","4","2","2","2","1","6","2","5","5","2","2","3","3","3","6","7","7","3","7","6","6","7","7","7","6","7","4","2","7","5","7","2","7","764077949963210754","郭","60","Male","[""好他"",""好我"",""坏我"",""坏他""]","[""强他"",""强我"",""弱我"",""弱他""]","","","","","","","","nonmatch","","","","","","","","","","key","j","16.66934905660378","764","390.8","j","true","nonmatch","img/circle.png","弱我","强他","prac_ALT2_ability","practice_ability","","","","","","","",""
"null","<span style='color:GreenYellow; font-size: 70px;'>正确! </span>","null","html-keyboard-response","113","553029","0.0-8.0-1.0-1.1-0.1-1.50","5","5","5","3","1","5","4","3","5","4","4","0","-1","-2","2","-3","1","0","1","5","5","5","5","5","2","3","4","2","2","1","7","5","8","3","6","4","9","7","2","2","5","2","5","1","5","4","2","2","2","1","6","2","5","5","2","2","3","3","3","6","7","7","3","7","6","6","7","7","7","6","7","4","2","7","5","7","2","7","764077949963210754","郭","60","Male","[""好他"",""好我"",""坏我"",""坏他""]","[""强他"",""强我"",""弱我"",""弱他""]","","","","","","","","","","","","","","","","","","","","","","","","","","","","","","feedback_test","","","","","","","",""
"733","","f","psychophysics","114","554764","0.0-8.0-1.0-1.1-0.1-0.51","5","5","5","3","1","5","4","3","5","4","4","0","-1","-2","2","-3","1","0","1","5","5","5","5","5","2","3","4","2","2","1","7","5","8","3","6","4","9","7","2","2","5","2","5","1","5","4","2","2","2","1","6","2","5","5","2","2","3","3","3","6","7","7","3","7","6","6","7","7","7","6","7","4","2","7","5","7","2","7","764077949963210754","郭","60","Male","[""好他"",""好我"",""坏我"",""坏他""]","[""强他"",""强我"",""弱我"",""弱他""]","","","","","","","","match","","","","","","","","","","key","f","16.669543689320278","764","390.8","j","false","nonmatch","img/circle.png","强我","强他","prac_ALT2_ability","practice_ability","","","","","","","",""
"null","<span style='color:red; font-size: 70px;'>错误! </span>","null","html-keyboard-response","115","555266","0.0-8.0-1.0-1.1-0.1-1.51","5","5","5","3","1","5","4","3","5","4","4","0","-1","-2","2","-3","1","0","1","5","5","5","5","5","2","3","4","2","2","1","7","5","8","3","6","4","9","7","2","2","5","2","5","1","5","4","2","2","2","1","6","2","5","5","2","2","3","3","3","6","7","7","3","7","6","6","7","7","7","6","7","4","2","7","5","7","2","7","764077949963210754","郭","60","Male","[""好他"",""好我"",""坏我"",""坏他""]","[""强他"",""强我"",""弱我"",""弱他""]","","","","","","","","","","","","","","","","","","","","","","","","","","","","","","feedback_test","","","","","","","",""
"884","","f","psychophysics","116","557151","0.0-8.0-1.0-1.1-0.1-0.52","5","5","5","3","1","5","4","3","5","4","4","0","-1","-2","2","-3","1","0","1","5","5","5","5","5","2","3","4","2","2","1","7","5","8","3","6","4","9","7","2","2","5","2","5","1","5","4","2","2","2","1","6","2","5","5","2","2","3","3","3","6","7","7","3","7","6","6","7","7","7","6","7","4","2","7","5","7","2","7","764077949963210754","郭","60","Male","[""好他"",""好我"",""坏我"",""坏他""]","[""强他"",""强我"",""弱我"",""弱他""]","","","","","","","","match","","","","","","","","","","key","f","16.666392857142323","764","390.8","f","true","match","img/hexagon.png","强我","强我","prac_ALT2_ability","practice_ability","","","","","","","",""
"null","<span style='color:GreenYellow; font-size: 70px;'>正确! </span>","null","html-keyboard-response","117","557652","0.0-8.0-1.0-1.1-0.1-1.52","5","5","5","3","1","5","4","3","5","4","4","0","-1","-2","2","-3","1","0","1","5","5","5","5","5","2","3","4","2","2","1","7","5","8","3","6","4","9","7","2","2","5","2","5","1","5","4","2","2","2","1","6","2","5","5","2","2","3","3","3","6","7","7","3","7","6","6","7","7","7","6","7","4","2","7","5","7","2","7","764077949963210754","郭","60","Male","[""好他"",""好我"",""坏我"",""坏他""]","[""强他"",""强我"",""弱我"",""弱他""]","","","","","","","","","","","","","","","","","","","","","","","","","","","","","","feedback_test","","","","","","","",""
"1011","","j","psychophysics","118","559665","0.0-8.0-1.0-1.1-0.1-0.53","5","5","5","3","1","5","4","3","5","4","4","0","-1","-2","2","-3","1","0","1","5","5","5","5","5","2","3","4","2","2","1","7","5","8","3","6","4","9","7","2","2","5","2","5","1","5","4","2","2","2","1","6","2","5","5","2","2","3","3","3","6","7","7","3","7","6","6","7","7","7","6","7","4","2","7","5","7","2","7","764077949963210754","郭","60","Male","[""好他"",""好我"",""坏我"",""坏他""]","[""强他"",""强我"",""弱我"",""弱他""]","","","","","","","","nonmatch","","","","","","","","","","key","j","16.668890756302506","764","390.8","j","true","nonmatch","img/hexagon.png","强他","强我","prac_ALT2_ability","practice_ability","","","","","","","",""
"null","<span style='color:GreenYellow; font-size: 70px;'>正确! </span>","null","html-keyboard-response","119","560167","0.0-8.0-1.0-1.1-0.1-1.53","5","5","5","3","1","5","4","3","5","4","4","0","-1","-2","2","-3","1","0","1","5","5","5","5","5","2","3","4","2","2","1","7","5","8","3","6","4","9","7","2","2","5","2","5","1","5","4","2","2","2","1","6","2","5","5","2","2","3","3","3","6","7","7","3","7","6","6","7","7","7","6","7","4","2","7","5","7","2","7","764077949963210754","郭","60","Male","[""好他"",""好我"",""坏我"",""坏他""]","[""强他"",""强我"",""弱我"",""弱他""]","","","","","","","","","","","","","","","","","","","","","","","","","","","","","","feedback_test","","","","","","","",""
"1153","","j","psychophysics","120","562323","0.0-8.0-1.0-1.1-0.1-0.54","5","5","5","3","1","5","4","3","5","4","4","0","-1","-2","2","-3","1","0","1","5","5","5","5","5","2","3","4","2","2","1","7","5","8","3","6","4","9","7","2","2","5","2","5","1","5","4","2","2","2","1","6","2","5","5","2","2","3","3","3","6","7","7","3","7","6","6","7","7","7","6","7","4","2","7","5","7","2","7","764077949963210754","郭","60","Male","[""好他"",""好我"",""坏我"",""坏他""]","[""强他"",""强我"",""弱我"",""弱他""]","","","","","","","","nonmatch","","","","","","","","","","key","j","16.66931250000016","764","390.8","j","true","nonmatch","img/diamond.png","强他","弱他","prac_ALT2_ability","practice_ability","","","","","","","",""
"null","<span style='color:GreenYellow; font-size: 70px;'>正确! </span>","null","html-keyboard-response","121","562838","0.0-8.0-1.0-1.1-0.1-1.54","5","5","5","3","1","5","4","3","5","4","4","0","-1","-2","2","-3","1","0","1","5","5","5","5","5","2","3","4","2","2","1","7","5","8","3","6","4","9","7","2","2","5","2","5","1","5","4","2","2","2","1","6","2","5","5","2","2","3","3","3","6","7","7","3","7","6","6","7","7","7","6","7","4","2","7","5","7","2","7","764077949963210754","郭","60","Male","[""好他"",""好我"",""坏我"",""坏他""]","[""强他"",""强我"",""弱我"",""弱他""]","","","","","","","","","","","","","","","","","","","","","","","","","","","","","","feedback_test","","","","","","","",""
"863","","j","psychophysics","122","564703","0.0-8.0-1.0-1.1-0.1-0.55","5","5","5","3","1","5","4","3","5","4","4","0","-1","-2","2","-3","1","0","1","5","5","5","5","5","2","3","4","2","2","1","7","5","8","3","6","4","9","7","2","2","5","2","5","1","5","4","2","2","2","1","6","2","5","5","2","2","3","3","3","6","7","7","3","7","6","6","7","7","7","6","7","4","2","7","5","7","2","7","764077949963210754","郭","60","Male","[""好他"",""好我"",""坏我"",""坏他""]","[""强他"",""强我"",""弱我"",""弱他""]","","","","","","","","nonmatch","","","","","","","","","","key","j","16.666747747747404","764","390.8","j","true","nonmatch","img/hexagon.png","弱我","强我","prac_ALT2_ability","practice_ability","","","","","","","",""
"null","<span style='color:GreenYellow; font-size: 70px;'>正确! </span>","null","html-keyboard-response","123","565206","0.0-8.0-1.0-1.1-0.1-1.55","5","5","5","3","1","5","4","3","5","4","4","0","-1","-2","2","-3","1","0","1","5","5","5","5","5","2","3","4","2","2","1","7","5","8","3","6","4","9","7","2","2","5","2","5","1","5","4","2","2","2","1","6","2","5","5","2","2","3","3","3","6","7","7","3","7","6","6","7","7","7","6","7","4","2","7","5","7","2","7","764077949963210754","郭","60","Male","[""好他"",""好我"",""坏我"",""坏他""]","[""强他"",""强我"",""弱我"",""弱他""]","","","","","","","","","","","","","","","","","","","","","","","","","","","","","","feedback_test","","","","","","","",""
"683","","f","psychophysics","124","566892","0.0-8.0-1.0-1.1-0.1-0.56","5","5","5","3","1","5","4","3","5","4","4","0","-1","-2","2","-3","1","0","1","5","5","5","5","5","2","3","4","2","2","1","7","5","8","3","6","4","9","7","2","2","5","2","5","1","5","4","2","2","2","1","6","2","5","5","2","2","3","3","3","6","7","7","3","7","6","6","7","7","7","6","7","4","2","7","5","7","2","7","764077949963210754","郭","60","Male","[""好他"",""好我"",""坏我"",""坏他""]","[""强他"",""强我"",""弱我"",""弱他""]","","","","","","","","match","","","","","","","","","","key","f","16.66755000000005","764","390.8","j","false","nonmatch","img/diamond.png","强我","弱他","prac_ALT2_ability","practice_ability","","","","","","","",""
"null","<span style='color:red; font-size: 70px;'>错误! </span>","null","html-keyboard-response","125","567395","0.0-8.0-1.0-1.1-0.1-1.56","5","5","5","3","1","5","4","3","5","4","4","0","-1","-2","2","-3","1","0","1","5","5","5","5","5","2","3","4","2","2","1","7","5","8","3","6","4","9","7","2","2","5","2","5","1","5","4","2","2","2","1","6","2","5","5","2","2","3","3","3","6","7","7","3","7","6","6","7","7","7","6","7","4","2","7","5","7","2","7","764077949963210754","郭","60","Male","[""好他"",""好我"",""坏我"",""坏他""]","[""强他"",""强我"",""弱我"",""弱他""]","","","","","","","","","","","","","","","","","","","","","","","","","","","","","","feedback_test","","","","","","","",""
"960","","f","psychophysics","126","569357","0.0-8.0-1.0-1.1-0.1-0.57","5","5","5","3","1","5","4","3","5","4","4","0","-1","-2","2","-3","1","0","1","5","5","5","5","5","2","3","4","2","2","1","7","5","8","3","6","4","9","7","2","2","5","2","5","1","5","4","2","2","2","1","6","2","5","5","2","2","3","3","3","6","7","7","3","7","6","6","7","7","7","6","7","4","2","7","5","7","2","7","764077949963210754","郭","60","Male","[""好他"",""好我"",""坏我"",""坏他""]","[""强他"",""强我"",""弱我"",""弱他""]","","","","","","","","match","","","","","","","","","","key","f","16.66779487179473","764","390.8","f","true","match","img/circle.png","强他","强他","prac_ALT2_ability","practice_ability","","","","","","","",""
"null","<span style='color:GreenYellow; font-size: 70px;'>正确! </span>","null","html-keyboard-response","127","569858","0.0-8.0-1.0-1.1-0.1-1.57","5","5","5","3","1","5","4","3","5","4","4","0","-1","-2","2","-3","1","0","1","5","5","5","5","5","2","3","4","2","2","1","7","5","8","3","6","4","9","7","2","2","5","2","5","1","5","4","2","2","2","1","6","2","5","5","2","2","3","3","3","6","7","7","3","7","6","6","7","7","7","6","7","4","2","7","5","7","2","7","764077949963210754","郭","60","Male","[""好他"",""好我"",""坏我"",""坏他""]","[""强他"",""强我"",""弱我"",""弱他""]","","","","","","","","","","","","","","","","","","","","","","","","","","","","","","feedback_test","","","","","","","",""
"703","","j","psychophysics","128","571563","0.0-8.0-1.0-1.1-0.1-0.58","5","5","5","3","1","5","4","3","5","4","4","0","-1","-2","2","-3","1","0","1","5","5","5","5","5","2","3","4","2","2","1","7","5","8","3","6","4","9","7","2","2","5","2","5","1","5","4","2","2","2","1","6","2","5","5","2","2","3","3","3","6","7","7","3","7","6","6","7","7","7","6","7","4","2","7","5","7","2","7","764077949963210754","郭","60","Male","[""好他"",""好我"",""坏我"",""坏他""]","[""强他"",""强我"",""弱我"",""弱他""]","","","","","","","","nonmatch","","","","","","","","","","key","j","16.66885148514855","764","390.8","j","true","nonmatch","img/square.png","强他","弱我","prac_ALT2_ability","practice_ability","","","","","","","",""
"null","<span style='color:GreenYellow; font-size: 70px;'>正确! </span>","null","html-keyboard-response","129","572064","0.0-8.0-1.0-1.1-0.1-1.58","5","5","5","3","1","5","4","3","5","4","4","0","-1","-2","2","-3","1","0","1","5","5","5","5","5","2","3","4","2","2","1","7","5","8","3","6","4","9","7","2","2","5","2","5","1","5","4","2","2","2","1","6","2","5","5","2","2","3","3","3","6","7","7","3","7","6","6","7","7","7","6","7","4","2","7","5","7","2","7","764077949963210754","郭","60","Male","[""好他"",""好我"",""坏我"",""坏他""]","[""强他"",""强我"",""弱我"",""弱他""]","","","","","","","","","","","","","","","","","","","","","","","","","","","","","","feedback_test","","","","","","","",""
"1006","","f","psychophysics","130","574073","0.0-8.0-1.0-1.1-0.1-0.59","5","5","5","3","1","5","4","3","5","4","4","0","-1","-2","2","-3","1","0","1","5","5","5","5","5","2","3","4","2","2","1","7","5","8","3","6","4","9","7","2","2","5","2","5","1","5","4","2","2","2","1","6","2","5","5","2","2","3","3","3","6","7","7","3","7","6","6","7","7","7","6","7","4","2","7","5","7","2","7","764077949963210754","郭","60","Male","[""好他"",""好我"",""坏我"",""坏他""]","[""强他"",""强我"",""弱我"",""弱他""]","","","","","","","","match","","","","","","","","","","key","f","16.664117647059058","764","390.8","j","false","nonmatch","img/circle.png","弱他","强他","prac_ALT2_ability","practice_ability","","","","","","","",""
"null","<span style='color:red; font-size: 70px;'>错误! </span>","null","html-keyboard-response","131","574574","0.0-8.0-1.0-1.1-0.1-1.59","5","5","5","3","1","5","4","3","5","4","4","0","-1","-2","2","-3","1","0","1","5","5","5","5","5","2","3","4","2","2","1","7","5","8","3","6","4","9","7","2","2","5","2","5","1","5","4","2","2","2","1","6","2","5","5","2","2","3","3","3","6","7","7","3","7","6","6","7","7","7","6","7","4","2","7","5","7","2","7","764077949963210754","郭","60","Male","[""好他"",""好我"",""坏我"",""坏他""]","[""强他"",""强我"",""弱我"",""弱他""]","","","","","","","","","","","","","","","","","","","","","","","","","","","","","","feedback_test","","","","","","","",""
"973","","f","psychophysics","132","576549","0.0-8.0-1.0-1.1-0.1-0.60","5","5","5","3","1","5","4","3","5","4","4","0","-1","-2","2","-3","1","0","1","5","5","5","5","5","2","3","4","2","2","1","7","5","8","3","6","4","9","7","2","2","5","2","5","1","5","4","2","2","2","1","6","2","5","5","2","2","3","3","3","6","7","7","3","7","6","6","7","7","7","6","7","4","2","7","5","7","2","7","764077949963210754","郭","60","Male","[""好他"",""好我"",""坏我"",""坏他""]","[""强他"",""强我"",""弱我"",""弱他""]","","","","","","","","match","","","","","","","","","","key","f","16.666478632478658","764","390.8","f","true","match","img/square.png","弱我","弱我","prac_ALT2_ability","practice_ability","","","","","","","",""
"null","<span style='color:GreenYellow; font-size: 70px;'>正确! </span>","null","html-keyboard-response","133","577051","0.0-8.0-1.0-1.1-0.1-1.60","5","5","5","3","1","5","4","3","5","4","4","0","-1","-2","2","-3","1","0","1","5","5","5","5","5","2","3","4","2","2","1","7","5","8","3","6","4","9","7","2","2","5","2","5","1","5","4","2","2","2","1","6","2","5","5","2","2","3","3","3","6","7","7","3","7","6","6","7","7","7","6","7","4","2","7","5","7","2","7","764077949963210754","郭","60","Male","[""好他"",""好我"",""坏我"",""坏他""]","[""强他"",""强我"",""弱我"",""弱他""]","","","","","","","","","","","","","","","","","","","","","","","","","","","","","","feedback_test","","","","","","","",""
"833","","f","psychophysics","134","578885","0.0-8.0-1.0-1.1-0.1-0.61","5","5","5","3","1","5","4","3","5","4","4","0","-1","-2","2","-3","1","0","1","5","5","5","5","5","2","3","4","2","2","1","7","5","8","3","6","4","9","7","2","2","5","2","5","1","5","4","2","2","2","1","6","2","5","5","2","2","3","3","3","6","7","7","3","7","6","6","7","7","7","6","7","4","2","7","5","7","2","7","764077949963210754","郭","60","Male","[""好他"",""好我"",""坏我"",""坏他""]","[""强他"",""强我"",""弱我"",""弱他""]","","","","","","","","match","","","","","","","","","","key","f","16.666082568807365","764","390.8","f","true","match","img/circle.png","强他","强他","prac_ALT2_ability","practice_ability","","","","","","","",""
"null","<span style='color:GreenYellow; font-size: 70px;'>正确! </span>","null","html-keyboard-response","135","579387","0.0-8.0-1.0-1.1-0.1-1.61","5","5","5","3","1","5","4","3","5","4","4","0","-1","-2","2","-3","1","0","1","5","5","5","5","5","2","3","4","2","2","1","7","5","8","3","6","4","9","7","2","2","5","2","5","1","5","4","2","2","2","1","6","2","5","5","2","2","3","3","3","6","7","7","3","7","6","6","7","7","7","6","7","4","2","7","5","7","2","7","764077949963210754","郭","60","Male","[""好他"",""好我"",""坏我"",""坏他""]","[""强他"",""强我"",""弱我"",""弱他""]","","","","","","","","","","","","","","","","","","","","","","","","","","","","","","feedback_test","","","","","","","",""
"924","","f","psychophysics","136","581312","0.0-8.0-1.0-1.1-0.1-0.62","5","5","5","3","1","5","4","3","5","4","4","0","-1","-2","2","-3","1","0","1","5","5","5","5","5","2","3","4","2","2","1","7","5","8","3","6","4","9","7","2","2","5","2","5","1","5","4","2","2","2","1","6","2","5","5","2","2","3","3","3","6","7","7","3","7","6","6","7","7","7","6","7","4","2","7","5","7","2","7","764077949963210754","郭","60","Male","[""好他"",""好我"",""坏我"",""坏他""]","[""强他"",""强我"",""弱我"",""弱他""]","","","","","","","","match","","","","","","","","","","key","f","16.669780701755244","764","390.8","f","true","match","img/square.png","弱我","弱我","prac_ALT2_ability","practice_ability","","","","","","","",""
"null","<span style='color:GreenYellow; font-size: 70px;'>正确! </span>","null","html-keyboard-response","137","581814","0.0-8.0-1.0-1.1-0.1-1.62","5","5","5","3","1","5","4","3","5","4","4","0","-1","-2","2","-3","1","0","1","5","5","5","5","5","2","3","4","2","2","1","7","5","8","3","6","4","9","7","2","2","5","2","5","1","5","4","2","2","2","1","6","2","5","5","2","2","3","3","3","6","7","7","3","7","6","6","7","7","7","6","7","4","2","7","5","7","2","7","764077949963210754","郭","60","Male","[""好他"",""好我"",""坏我"",""坏他""]","[""强他"",""强我"",""弱我"",""弱他""]","","","","","","","","","","","","","","","","","","","","","","","","","","","","","","feedback_test","","","","","","","",""
"837","","j","psychophysics","138","583652","0.0-8.0-1.0-1.1-0.1-0.63","5","5","5","3","1","5","4","3","5","4","4","0","-1","-2","2","-3","1","0","1","5","5","5","5","5","2","3","4","2","2","1","7","5","8","3","6","4","9","7","2","2","5","2","5","1","5","4","2","2","2","1","6","2","5","5","2","2","3","3","3","6","7","7","3","7","6","6","7","7","7","6","7","4","2","7","5","7","2","7","764077949963210754","郭","60","Male","[""好他"",""好我"",""坏我"",""坏他""]","[""强他"",""强我"",""弱我"",""弱他""]","","","","","","","","nonmatch","","","","","","","","","","key","j","16.666201834861667","764","390.8","f","false","match","img/diamond.png","弱他","弱他","prac_ALT2_ability","practice_ability","","","","","","","",""
