"rt","stimulus","response","trial_type","trial_index","time_elapsed","internal_node_id","swb_1","swb_2","swb_3","swb_4","swb_5","LOT_1","LOT_2","LOT_3","LOT_4","LOT_5","LOT_6","IPC_1","IPC_2","IPC_3","IPC_4","IPC_5","IPC_6","IPC_7","IPC_8","MorIden_1","MorIden_2","MorIden_3","MorIden_4","MorIden_5","MorIden_6","MorIden_7","MorIden_8","MorIden_9","MorIden_10","moralSeImag_1","moralSeImag_2","moralSeImag_3","moralSeImag_4","moralSeImag_5","moralSeImag_6","moralSeImag_7","moralSeImag_8","moralSeImag_9","sde_1","sde_2","sde_3","sde_4","sde_5","sde_6","sde_7","sde_8","sde_9","sde_10","sde_11","sde_12","sde_13","sde_14","sde_15","sde_16","sde_17","sde_18","sde_19","sde_20","IM_1","IM_2","IM_3","IM_4","IM_5","IM_6","IM_7","IM_8","IM_9","IM_10","IM_11","IM_12","IM_13","IM_14","IM_15","IM_16","IM_17","IM_18","IM_19","IM_20","subj_idx","friend_name","ParticipantID","Sex","Word","Word2","value","success","timeout","failed_images","failed_audio","failed_video","user_agent","responses","item_order","radio_event_ids","radio_event_times","key_event_times","mouse_event_times","straightlining","zigzagging","honeypot","task_id","screen_id","time_stamp","response_type","key_press","avg_frame_time","center_x","center_y","person","word","valence","domain","math","correct_response","correct","status","view_history","identity","duration","Image","condition","question_order"
"7052","
   <p><div style='color:white; font-size: 25px'>您好，欢迎参加本次实验。</div></p>
   <p><div style='color:white; font-size: 25px'>为充分保障您的权利，请确保您已经知晓并同意《参与实验同意书》以及《数据公开知情同意书》。</div></p>
   <p><div style='color:white; font-size: 25px'>如果您未见过上述内容，请咨询实验员。</div></p>
   <p style='color:white; font-size: 25px'>如果您选择继续实验，则表示您已经清楚两份知情同意书的内容并同意。</p>
   <p><div style = ""color: red;font-size:30px;"">请确保您记得day0的实验编号，您将在本次实验输入该编号，若您忘记，请咨询实验员后作答。</div></p>
   <p> <div style = ""color: green""><按空格键至下页></div> </p>
   "," ","html-keyboard-response","0","7054","0.0-0.0","5","6","6","4","3","5","2","5","5","4","5","1","0","1","0","1","2","1","0","5","5","5","5","4","4","5","4","5","4","8","7","6","7","5","6","8","7","8","5","2","3","6","5","2","6","1","5","2","3","3","6","3","5","6","5","3","6","5","3","7","3","6","3","7","5","5","6","7","7","5","2","5","2","7","2","7","3","6","763807579603472386","刘","403","Male","[""坏他"",""好我"",""好他"",""坏我""]","[""弱他"",""强我"",""强他"",""弱我""]","","","","","","","","","","","","","","","","","","","","","","","","","","","","","","","","","","","","","",""
"","","","call-function","1","7054","0.0-1.0-0.0","5","6","6","4","3","5","2","5","5","4","5","1","0","1","0","1","2","1","0","5","5","5","5","4","4","5","4","5","4","8","7","6","7","5","6","8","7","8","5","2","3","6","5","2","6","1","5","2","3","3","6","3","5","6","5","3","6","5","3","7","3","6","3","7","5","5","6","7","7","5","2","5","2","7","2","7","3","6","763807579603472386","刘","403","Male","[""坏他"",""好我"",""好他"",""坏我""]","[""弱他"",""强我"",""强他"",""弱我""]","","","","","","","","","","","","","","","","","","","","","","","","","","","","","","","","","","","","","",""
"29782","","[{""name"":""Sex"",""value"":""0""},{""name"":""friend_name"",""value"":""刘""},{""name"":""ParticipantID"",""value"":""403""}]","survey-html-form","2","36837","0.0-1.0-1.0","5","6","6","4","3","5","2","5","5","4","5","1","0","1","0","1","2","1","0","5","5","5","5","4","4","5","4","5","4","8","7","6","7","5","6","8","7","8","5","2","3","6","5","2","6","1","5","2","3","3","6","3","5","6","5","3","6","5","3","7","3","6","3","7","5","5","6","7","7","5","2","5","2","7","2","7","3","6","763807579603472386","刘","403","Male","[""坏他"",""好我"",""好他"",""坏我""]","[""弱他"",""强我"",""强他"",""弱我""]","","","","","","","","","","","","","","","","","","","","","","","","","","","","","","","","","","","","","",""
"","","","preload","3","37526","0.0-2.0","5","6","6","4","3","5","2","5","5","4","5","1","0","1","0","1","2","1","0","5","5","5","5","4","4","5","4","5","4","8","7","6","7","5","6","8","7","8","5","2","3","6","5","2","6","1","5","2","3","3","6","3","5","6","5","3","6","5","3","7","3","6","3","7","5","5","6","7","7","5","2","5","2","7","2","7","3","6","763807579603472386","刘","403","Male","[""坏他"",""好我"",""好他"",""坏我""]","[""弱他"",""强我"",""强他"",""弱我""]","","true","false","[]","[]","[]","","","","","","","","","","","","","","","","","","","","","","","","","","","","","","","",""
"","","","fullscreen","4","39622","0.0-3.0","5","6","6","4","3","5","2","5","5","4","5","1","0","1","0","1","2","1","0","5","5","5","5","4","4","5","4","5","4","8","7","6","7","5","6","8","7","8","5","2","3","6","5","2","6","1","5","2","3","3","6","3","5","6","5","3","6","5","3","7","3","6","3","7","5","5","6","7","7","5","2","5","2","7","2","7","3","6","763807579603472386","刘","403","Male","[""坏他"",""好我"",""好他"",""坏我""]","[""弱他"",""强我"",""强他"",""弱我""]","","true","","","","","{}","","","","","","","","","","","","","","","","","","","","","","","","","","","","","","",""
"15389.09999999404","","{""Q01"":""5"",""Q02"":""6"",""Q03"":""6"",""Q04"":""4"",""Q05"":""3""}","survey-template","5","55013","0.0-4.0","5","6","6","4","3","5","2","5","5","4","5","1","0","1","0","1","2","1","0","5","5","5","5","4","4","5","4","5","4","8","7","6","7","5","6","8","7","8","5","2","3","6","5","2","6","1","5","2","3","3","6","3","5","6","5","3","6","5","3","7","3","6","3","7","5","5","6","7","7","5","2","5","2","7","2","7","3","6","763807579603472386","刘","403","Male","[""坏他"",""好我"",""好他"",""坏我""]","[""弱他"",""强我"",""强他"",""弱我""]","","","","","","","","{""Q01"":""5"",""Q02"":""6"",""Q03"":""6"",""Q04"":""4"",""Q05"":""3""}","[0,1,2,3,4]","[""Q01"",""Q02"",""Q03"",""Q04"",""Q05""]","[6916.5999999940395,8548.700000017881,9436.200000017881,12316.700000017881,13820.700000017881]","[]","[6916.5999999940395,8156.300000011921,8548.700000017881,9436.200000017881,12316.700000017881,13820.700000017881,15388.40000000596]","0.4","0.5","0","","","","","","","","","","","","","","","","","","","","","",""
"22405.29999998212","","{""Q01"":""5"",""Q02"":""2"",""Q03"":""5"",""Q04"":""5"",""Q05"":""4"",""Q06"":""5""}","survey-template","6","77421","0.0-5.0","5","6","6","4","3","5","2","5","5","4","5","1","0","1","0","1","2","1","0","5","5","5","5","4","4","5","4","5","4","8","7","6","7","5","6","8","7","8","5","2","3","6","5","2","6","1","5","2","3","3","6","3","5","6","5","3","6","5","3","7","3","6","3","7","5","5","6","7","7","5","2","5","2","7","2","7","3","6","763807579603472386","刘","403","Male","[""坏他"",""好我"",""好他"",""坏我""]","[""弱他"",""强我"",""强他"",""弱我""]","","","","","","","","{""Q01"":""5"",""Q02"":""2"",""Q03"":""5"",""Q04"":""5"",""Q05"":""4"",""Q06"":""5""}","[0,1,2,3,4,5]","[""Q01"",""Q02"",""Q03"",""Q04"",""Q05"",""Q06""]","[2484.7999999821186,11828.5,14868.59999999404,16268.699999988079,16916.5,21412.59999999404]","[]","[2484.7999999821186,11532.90000000596,11828.5,13244.299999982119,14028.299999982119,14868.59999999404,15716.299999982119,16268.699999988079,16916.5,21092.5,21412.59999999404,22404.79999998212]","0.5","0.8","0","","","","","","","","","","","","","","","","","","","","","",""
"18957.5","","{""Q01"":""1"",""Q02"":""0"",""Q03"":""1"",""Q04"":""0"",""Q05"":""1"",""Q06"":""2"",""Q07"":""1"",""Q08"":""0""}","survey-template","7","96381","0.0-6.0","5","6","6","4","3","5","2","5","5","4","5","1","0","1","0","1","2","1","0","5","5","5","5","4","4","5","4","5","4","8","7","6","7","5","6","8","7","8","5","2","3","6","5","2","6","1","5","2","3","3","6","3","5","6","5","3","6","5","3","7","3","6","3","7","5","5","6","7","7","5","2","5","2","7","2","7","3","6","763807579603472386","刘","403","Male","[""坏他"",""好我"",""好他"",""坏我""]","[""弱他"",""强我"",""强他"",""弱我""]","","","","","","","","{""Q01"":""1"",""Q02"":""0"",""Q03"":""1"",""Q04"":""0"",""Q05"":""1"",""Q06"":""2"",""Q07"":""1"",""Q08"":""0""}","[0,1,2,3,4,5,6,7]","[""Q01"",""Q02"",""Q03"",""Q04"",""Q05"",""Q06"",""Q07"",""Q08""]","[2029.0999999940395,4469.399999976158,6117.399999976158,9781.699999988079,11165.399999976158,12469.5,15549.5,18101.399999976158]","[]","[2029.0999999940395,4469.399999976158,6117.399999976158,9781.699999988079,11165.399999976158,12469.5,15549.5,17333.399999976158,17685.29999998212,18101.399999976158,18956.899999976158]","0.5","1","0","","","","","","","","","","","","","","","","","","","","","",""
"4918","
    <p><div style='color:white;font-size:35px; line-height:20px;'>词汇评估任务</div></p><br>
    <p><div style='color:white;font-size:25px; line-height:20px;'>请再次回忆该亲密的朋友，你们至少2年前就认识了，并且最近2年经常见面。</div></p>
    <p><div style='color:white;font-size:25px; line-height:20px;'>在本实验中，您将会看到一些形容词。</div></p>
    <p><div style='color:yellow;font-size:25px; line-height:20px;'>您的任务是判断这些形容词是否符合对您自己或您的朋友的描述。</div></p><p style='font-size:35px'>符合按<span style=""color:lightgreen""> j 键</span>，不符合按<span style=""color:red""> f 键</span></p>","0","html-button-response","8","101300","0.0-7.0-0.0","5","6","6","4","3","5","2","5","5","4","5","1","0","1","0","1","2","1","0","5","5","5","5","4","4","5","4","5","4","8","7","6","7","5","6","8","7","8","5","2","3","6","5","2","6","1","5","2","3","3","6","3","5","6","5","3","6","5","3","7","3","6","3","7","5","5","6","7","7","5","2","5","2","7","2","7","3","6","763807579603472386","刘","403","Male","[""坏他"",""好我"",""好他"",""坏我""]","[""弱他"",""强我"",""强他"",""弱我""]","","","","","","","","","","","","","","","","","SRET_EW","EW_instructions","Fri Nov 03 2023 08:52:17 GMT+0800 (中国标准时间)","","","","","","","","","","","","","","","","","","",""
"1249","","f","psychophysics","9","103552","0.0-7.0-1.0-0.0","5","6","6","4","3","5","2","5","5","4","5","1","0","1","0","1","2","1","0","5","5","5","5","4","4","5","4","5","4","8","7","6","7","5","6","8","7","8","5","2","3","6","5","2","6","1","5","2","3","3","6","3","5","6","5","3","6","5","3","7","3","6","3","7","5","5","6","7","7","5","2","5","2","7","2","7","3","6","763807579603472386","刘","403","Male","[""坏他"",""好我"",""好他"",""坏我""]","[""弱他"",""强我"",""强他"",""弱我""]","","","","","","","","no","","","","","","","","","SRET_EW","EW_practice","","key","f","6.944333333333311","768","428","朋友","徇私","Negative","morality","","","","","","","","","",""
"1873","","j","psychophysics","10","106426","0.0-7.0-1.0-0.1","5","6","6","4","3","5","2","5","5","4","5","1","0","1","0","1","2","1","0","5","5","5","5","4","4","5","4","5","4","8","7","6","7","5","6","8","7","8","5","2","3","6","5","2","6","1","5","2","3","3","6","3","5","6","5","3","6","5","3","7","3","6","3","7","5","5","6","7","7","5","2","5","2","7","2","7","3","6","763807579603472386","刘","403","Male","[""坏他"",""好我"",""好他"",""坏我""]","[""弱他"",""强我"",""强他"",""弱我""]","","","","","","","","yes","","","","","","","","","SRET_EW","EW_practice","","key","j","6.944348668280845","768","428","自己","严谨","Positive","ability","","","","","","","","","",""
"967","","f","psychophysics","11","108395","0.0-7.0-1.0-0.2","5","6","6","4","3","5","2","5","5","4","5","1","0","1","0","1","2","1","0","5","5","5","5","4","4","5","4","5","4","8","7","6","7","5","6","8","7","8","5","2","3","6","5","2","6","1","5","2","3","3","6","3","5","6","5","3","6","5","3","7","3","6","3","7","5","5","6","7","7","5","2","5","2","7","2","7","3","6","763807579603472386","刘","403","Male","[""坏他"",""好我"",""好他"",""坏我""]","[""弱他"",""强我"",""强他"",""弱我""]","","","","","","","","no","","","","","","","","","SRET_EW","EW_practice","","key","f","6.944544169611348","768","428","自己","刻板","Negative","ability","","","","","","","","","",""
"940","","j","psychophysics","12","110340","0.0-7.0-1.0-0.3","5","6","6","4","3","5","2","5","5","4","5","1","0","1","0","1","2","1","0","5","5","5","5","4","4","5","4","5","4","8","7","6","7","5","6","8","7","8","5","2","3","6","5","2","6","1","5","2","3","3","6","3","5","6","5","3","6","5","3","7","3","6","3","7","5","5","6","7","7","5","2","5","2","7","2","7","3","6","763807579603472386","刘","403","Male","[""坏他"",""好我"",""好他"",""坏我""]","[""弱他"",""强我"",""强他"",""弱我""]","","","","","","","","yes","","","","","","","","","SRET_EW","EW_practice","","key","j","6.9442795698924655","768","428","朋友","忠实","Positive","morality","","","","","","","","","",""
"3376","
    <p><div style='color:white;font-size:35px; line-height:20px;'>请您再次阅读实验要求</div></p><br>
    <p><div style='color:white;font-size:25px; line-height:20px;'>请回忆某一个亲密的朋友，你们至少2年前就认识了，并且最近2年经常见面。</div></p>
    <p><div style='color:white;font-size:25px; line-height:20px;'>在本实验中，您将会看到一些形容词。</div></p>
    <p><div style='color:yellow;font-size:25px; line-height:20px;'>您的任务是判断这些形容词是否符合对您自己或您的朋友的描述。</div></p>
    <p><div class='footer' style='font-size:25px; line-height:20px;'>如果对本实验还有不清楚之处，请立即向实验员咨询。</p><p style='font-size:25px; line-height:20px;'>如果您明白了规则：</p><p style='font-size:22px; line-height:20px;'>请按 继续 进入正式实验</p>
    </div>
    <p style='font-size:35px'>符合按<span style=""color:lightgreen""> j 键</span>，不符合按<span style=""color:red""> f 键</span></p>","0","html-button-response","13","113717","0.0-7.0-2.0","5","6","6","4","3","5","2","5","5","4","5","1","0","1","0","1","2","1","0","5","5","5","5","4","4","5","4","5","4","8","7","6","7","5","6","8","7","8","5","2","3","6","5","2","6","1","5","2","3","3","6","3","5","6","5","3","6","5","3","7","3","6","3","7","5","5","6","7","7","5","2","5","2","7","2","7","3","6","763807579603472386","刘","403","Male","[""坏他"",""好我"",""好他"",""坏我""]","[""弱他"",""强我"",""强他"",""弱我""]","","","","","","","","","","","","","","","","","SRET_EW","prac_instructions","Fri Nov 03 2023 08:52:17 GMT+0800 (中国标准时间)","","","","","","","","","","","","","","","","","","",""
"1176","","f","psychophysics","14","115895","0.0-7.0-3.0-0.0","5","6","6","4","3","5","2","5","5","4","5","1","0","1","0","1","2","1","0","5","5","5","5","4","4","5","4","5","4","8","7","6","7","5","6","8","7","8","5","2","3","6","5","2","6","1","5","2","3","3","6","3","5","6","5","3","6","5","3","7","3","6","3","7","5","5","6","7","7","5","2","5","2","7","2","7","3","6","763807579603472386","刘","403","Male","[""坏他"",""好我"",""好他"",""坏我""]","[""弱他"",""强我"",""强他"",""弱我""]","","","","","","","","no","","","","","","","","","SRET","EW_formal","","key","f","6.944388535031849","768","428","自己","说谎","Negative","morality","","","","","","","","","",""
"1449","","f","psychophysics","15","118346","0.0-7.0-3.0-0.1","5","6","6","4","3","5","2","5","5","4","5","1","0","1","0","1","2","1","0","5","5","5","5","4","4","5","4","5","4","8","7","6","7","5","6","8","7","8","5","2","3","6","5","2","6","1","5","2","3","3","6","3","5","6","5","3","6","5","3","7","3","6","3","7","5","5","6","7","7","5","2","5","2","7","2","7","3","6","763807579603472386","刘","403","Male","[""坏他"",""好我"",""好他"",""坏我""]","[""弱他"",""强我"",""强他"",""弱我""]","","","","","","","","no","","","","","","","","","SRET","EW_formal","","key","f","6.9442585227272335","768","428","朋友","迷糊","Negative","ability","","","","","","","","","",""
"1029","","j","psychophysics","16","120380","0.0-7.0-3.0-0.2","5","6","6","4","3","5","2","5","5","4","5","1","0","1","0","1","2","1","0","5","5","5","5","4","4","5","4","5","4","8","7","6","7","5","6","8","7","8","5","2","3","6","5","2","6","1","5","2","3","3","6","3","5","6","5","3","6","5","3","7","3","6","3","7","5","5","6","7","7","5","2","5","2","7","2","7","3","6","763807579603472386","刘","403","Male","[""坏他"",""好我"",""好他"",""坏我""]","[""弱他"",""强我"",""强他"",""弱我""]","","","","","","","","yes","","","","","","","","","SRET","EW_formal","","key","j","6.944383561643768","768","428","自己","坚贞","Positive","morality","","","","","","","","","",""
"1709","","j","psychophysics","17","123095","0.0-7.0-3.0-0.3","5","6","6","4","3","5","2","5","5","4","5","1","0","1","0","1","2","1","0","5","5","5","5","4","4","5","4","5","4","8","7","6","7","5","6","8","7","8","5","2","3","6","5","2","6","1","5","2","3","3","6","3","5","6","5","3","6","5","3","7","3","6","3","7","5","5","6","7","7","5","2","5","2","7","2","7","3","6","763807579603472386","刘","403","Male","[""坏他"",""好我"",""好他"",""坏我""]","[""弱他"",""强我"",""强他"",""弱我""]","","","","","","","","yes","","","","","","","","","SRET","EW_formal","","key","j","6.9619974293059235","768","428","朋友","务实","Positive","ability","","","","","","","","","",""
"1006","","j","psychophysics","18","125105","0.0-7.0-3.0-0.4","5","6","6","4","3","5","2","5","5","4","5","1","0","1","0","1","2","1","0","5","5","5","5","4","4","5","4","5","4","8","7","6","7","5","6","8","7","8","5","2","3","6","5","2","6","1","5","2","3","3","6","3","5","6","5","3","6","5","3","7","3","6","3","7","5","5","6","7","7","5","2","5","2","7","2","7","3","6","763807579603472386","刘","403","Male","[""坏他"",""好我"",""好他"",""坏我""]","[""弱他"",""强我"",""强他"",""弱我""]","","","","","","","","yes","","","","","","","","","SRET","EW_formal","","key","j","6.944270833333273","768","428","自己","仗义","Positive","morality","","","","","","","","","",""
"774","","f","psychophysics","19","126903","0.0-7.0-3.0-0.5","5","6","6","4","3","5","2","5","5","4","5","1","0","1","0","1","2","1","0","5","5","5","5","4","4","5","4","5","4","8","7","6","7","5","6","8","7","8","5","2","3","6","5","2","6","1","5","2","3","3","6","3","5","6","5","3","6","5","3","7","3","6","3","7","5","5","6","7","7","5","2","5","2","7","2","7","3","6","763807579603472386","刘","403","Male","[""坏他"",""好我"",""好他"",""坏我""]","[""弱他"",""强我"",""强他"",""弱我""]","","","","","","","","no","","","","","","","","","SRET","EW_formal","","key","f","6.944240310077525","768","428","朋友","缺德","Negative","morality","","","","","","","","","",""
"784","","f","psychophysics","20","128690","0.0-7.0-3.0-0.6","5","6","6","4","3","5","2","5","5","4","5","1","0","1","0","1","2","1","0","5","5","5","5","4","4","5","4","5","4","8","7","6","7","5","6","8","7","8","5","2","3","6","5","2","6","1","5","2","3","3","6","3","5","6","5","3","6","5","3","7","3","6","3","7","5","5","6","7","7","5","2","5","2","7","2","7","3","6","763807579603472386","刘","403","Male","[""坏他"",""好我"",""好他"",""坏我""]","[""弱他"",""强我"",""强他"",""弱我""]","","","","","","","","no","","","","","","","","","SRET","EW_formal","","key","f","6.944496093750104","768","428","自己","恶劣","Negative","morality","","","","","","","","","",""
"834","","f","psychophysics","21","130536","0.0-7.0-3.0-0.7","5","6","6","4","3","5","2","5","5","4","5","1","0","1","0","1","2","1","0","5","5","5","5","4","4","5","4","5","4","8","7","6","7","5","6","8","7","8","5","2","3","6","5","2","6","1","5","2","3","3","6","3","5","6","5","3","6","5","3","7","3","6","3","7","5","5","6","7","7","5","2","5","2","7","2","7","3","6","763807579603472386","刘","403","Male","[""坏他"",""好我"",""好他"",""坏我""]","[""弱他"",""强我"",""强他"",""弱我""]","","","","","","","","no","","","","","","","","","SRET","EW_formal","","key","f","6.9444188679244485","768","428","朋友","卑鄙","Negative","morality","","","","","","","","","",""
"1588","","j","psychophysics","22","133127","0.0-7.0-3.0-0.8","5","6","6","4","3","5","2","5","5","4","5","1","0","1","0","1","2","1","0","5","5","5","5","4","4","5","4","5","4","8","7","6","7","5","6","8","7","8","5","2","3","6","5","2","6","1","5","2","3","3","6","3","5","6","5","3","6","5","3","7","3","6","3","7","5","5","6","7","7","5","2","5","2","7","2","7","3","6","763807579603472386","刘","403","Male","[""坏他"",""好我"",""好他"",""坏我""]","[""弱他"",""强我"",""强他"",""弱我""]","","","","","","","","yes","","","","","","","","","SRET","EW_formal","","key","j","6.944293010752693","768","428","自己","无助","Negative","ability","","","","","","","","","",""
"968","","f","psychophysics","23","135096","0.0-7.0-3.0-0.9","5","6","6","4","3","5","2","5","5","4","5","1","0","1","0","1","2","1","0","5","5","5","5","4","4","5","4","5","4","8","7","6","7","5","6","8","7","8","5","2","3","6","5","2","6","1","5","2","3","3","6","3","5","6","5","3","6","5","3","7","3","6","3","7","5","5","6","7","7","5","2","5","2","7","2","7","3","6","763807579603472386","刘","403","Male","[""坏他"",""好我"",""好他"",""坏我""]","[""弱他"",""强我"",""强他"",""弱我""]","","","","","","","","no","","","","","","","","","SRET","EW_formal","","key","f","6.9446607773851845","768","428","自己","失信","Negative","morality","","","","","","","","","",""
"779","","j","psychophysics","24","136877","0.0-7.0-3.0-0.10","5","6","6","4","3","5","2","5","5","4","5","1","0","1","0","1","2","1","0","5","5","5","5","4","4","5","4","5","4","8","7","6","7","5","6","8","7","8","5","2","3","6","5","2","6","1","5","2","3","3","6","3","5","6","5","3","6","5","3","7","3","6","3","7","5","5","6","7","7","5","2","5","2","7","2","7","3","6","763807579603472386","刘","403","Male","[""坏他"",""好我"",""好他"",""坏我""]","[""弱他"",""强我"",""强他"",""弱我""]","","","","","","","","yes","","","","","","","","","SRET","EW_formal","","key","j","6.9444078431372285","768","428","朋友","敏捷","Positive","ability","","","","","","","","","",""
"703","","j","psychophysics","25","138581","0.0-7.0-3.0-0.11","5","6","6","4","3","5","2","5","5","4","5","1","0","1","0","1","2","1","0","5","5","5","5","4","4","5","4","5","4","8","7","6","7","5","6","8","7","8","5","2","3","6","5","2","6","1","5","2","3","3","6","3","5","6","5","3","6","5","3","7","3","6","3","7","5","5","6","7","7","5","2","5","2","7","2","7","3","6","763807579603472386","刘","403","Male","[""坏他"",""好我"",""好他"",""坏我""]","[""弱他"",""强我"",""强他"",""弱我""]","","","","","","","","yes","","","","","","","","","SRET","EW_formal","","key","j","6.9445673469387526","768","428","自己","独立","Positive","ability","","","","","","","","","",""
"587","","f","psychophysics","26","140174","0.0-7.0-3.0-0.12","5","6","6","4","3","5","2","5","5","4","5","1","0","1","0","1","2","1","0","5","5","5","5","4","4","5","4","5","4","8","7","6","7","5","6","8","7","8","5","2","3","6","5","2","6","1","5","2","3","3","6","3","5","6","5","3","6","5","3","7","3","6","3","7","5","5","6","7","7","5","2","5","2","7","2","7","3","6","763807579603472386","刘","403","Male","[""坏他"",""好我"",""好他"",""坏我""]","[""弱他"",""强我"",""强他"",""弱我""]","","","","","","","","no","","","","","","","","","SRET","EW_formal","","key","f","6.944385964912311","768","428","自己","无能","Negative","ability","","","","","","","","","",""
"738","","j","psychophysics","27","141914","0.0-7.0-3.0-0.13","5","6","6","4","3","5","2","5","5","4","5","1","0","1","0","1","2","1","0","5","5","5","5","4","4","5","4","5","4","8","7","6","7","5","6","8","7","8","5","2","3","6","5","2","6","1","5","2","3","3","6","3","5","6","5","3","6","5","3","7","3","6","3","7","5","5","6","7","7","5","2","5","2","7","2","7","3","6","763807579603472386","刘","403","Male","[""坏他"",""好我"",""好他"",""坏我""]","[""弱他"",""强我"",""强他"",""弱我""]","","","","","","","","yes","","","","","","","","","SRET","EW_formal","","key","j","6.944476000000024","768","428","自己","娴熟","Positive","ability","","","","","","","","","",""
"1577","","f","psychophysics","28","144495","0.0-7.0-3.0-0.14","5","6","6","4","3","5","2","5","5","4","5","1","0","1","0","1","2","1","0","5","5","5","5","4","4","5","4","5","4","8","7","6","7","5","6","8","7","8","5","2","3","6","5","2","6","1","5","2","3","3","6","3","5","6","5","3","6","5","3","7","3","6","3","7","5","5","6","7","7","5","2","5","2","7","2","7","3","6","763807579603472386","刘","403","Male","[""坏他"",""好我"",""好他"",""坏我""]","[""弱他"",""强我"",""强他"",""弱我""]","","","","","","","","no","","","","","","","","","SRET","EW_formal","","key","f","6.94425945945943","768","428","朋友","扎实","Positive","ability","","","","","","","","","",""
"803","","f","psychophysics","29","146300","0.0-7.0-3.0-0.15","5","6","6","4","3","5","2","5","5","4","5","1","0","1","0","1","2","1","0","5","5","5","5","4","4","5","4","5","4","8","7","6","7","5","6","8","7","8","5","2","3","6","5","2","6","1","5","2","3","3","6","3","5","6","5","3","6","5","3","7","3","6","3","7","5","5","6","7","7","5","2","5","2","7","2","7","3","6","763807579603472386","刘","403","Male","[""坏他"",""好我"",""好他"",""坏我""]","[""弱他"",""强我"",""强他"",""弱我""]","","","","","","","","no","","","","","","","","","SRET","EW_formal","","key","f","6.944633204633218","768","428","朋友","无为","Negative","ability","","","","","","","","","",""
"610","","j","psychophysics","30","147910","0.0-7.0-3.0-0.16","5","6","6","4","3","5","2","5","5","4","5","1","0","1","0","1","2","1","0","5","5","5","5","4","4","5","4","5","4","8","7","6","7","5","6","8","7","8","5","2","3","6","5","2","6","1","5","2","3","3","6","3","5","6","5","3","6","5","3","7","3","6","3","7","5","5","6","7","7","5","2","5","2","7","2","7","3","6","763807579603472386","刘","403","Male","[""坏他"",""好我"",""好他"",""坏我""]","[""弱他"",""强我"",""强他"",""弱我""]","","","","","","","","yes","","","","","","","","","SRET","EW_formal","","key","j","6.944575757575821","768","428","自己","骁勇","Positive","ability","","","","","","","","","",""
"1013","","j","psychophysics","31","149926","0.0-7.0-3.0-0.17","5","6","6","4","3","5","2","5","5","4","5","1","0","1","0","1","2","1","0","5","5","5","5","4","4","5","4","5","4","8","7","6","7","5","6","8","7","8","5","2","3","6","5","2","6","1","5","2","3","3","6","3","5","6","5","3","6","5","3","7","3","6","3","7","5","5","6","7","7","5","2","5","2","7","2","7","3","6","763807579603472386","刘","403","Male","[""坏他"",""好我"",""好他"",""坏我""]","[""弱他"",""强我"",""强他"",""弱我""]","","","","","","","","yes","","","","","","","","","SRET","EW_formal","","key","j","6.944349480968913","768","428","自己","自律","Positive","ability","","","","","","","","","",""
"952","","j","psychophysics","32","151879","0.0-7.0-3.0-0.18","5","6","6","4","3","5","2","5","5","4","5","1","0","1","0","1","2","1","0","5","5","5","5","4","4","5","4","5","4","8","7","6","7","5","6","8","7","8","5","2","3","6","5","2","6","1","5","2","3","3","6","3","5","6","5","3","6","5","3","7","3","6","3","7","5","5","6","7","7","5","2","5","2","7","2","7","3","6","763807579603472386","刘","403","Male","[""坏他"",""好我"",""好他"",""坏我""]","[""弱他"",""强我"",""强他"",""弱我""]","","","","","","","","yes","","","","","","","","","SRET","EW_formal","","key","j","6.944316725978657","768","428","朋友","逞强","Negative","ability","","","","","","","","","",""
"861","","f","psychophysics","33","153742","0.0-7.0-3.0-0.19","5","6","6","4","3","5","2","5","5","4","5","1","0","1","0","1","2","1","0","5","5","5","5","4","4","5","4","5","4","8","7","6","7","5","6","8","7","8","5","2","3","6","5","2","6","1","5","2","3","3","6","3","5","6","5","3","6","5","3","7","3","6","3","7","5","5","6","7","7","5","2","5","2","7","2","7","3","6","763807579603472386","刘","403","Male","[""坏他"",""好我"",""好他"",""坏我""]","[""弱他"",""强我"",""强他"",""弱我""]","","","","","","","","no","","","","","","","","","SRET","EW_formal","","key","f","6.944235955056197","768","428","自己","守信","Positive","morality","","","","","","","","","",""
"712","","f","psychophysics","34","155458","0.0-7.0-3.0-0.20","5","6","6","4","3","5","2","5","5","4","5","1","0","1","0","1","2","1","0","5","5","5","5","4","4","5","4","5","4","8","7","6","7","5","6","8","7","8","5","2","3","6","5","2","6","1","5","2","3","3","6","3","5","6","5","3","6","5","3","7","3","6","3","7","5","5","6","7","7","5","2","5","2","7","2","7","3","6","763807579603472386","刘","403","Male","[""坏他"",""好我"",""好他"",""坏我""]","[""弱他"",""强我"",""强他"",""弱我""]","","","","","","","","no","","","","","","","","","SRET","EW_formal","","key","f","6.9444918699187035","768","428","朋友","罪恶","Negative","morality","","","","","","","","","",""
"684","","j","psychophysics","35","157145","0.0-7.0-3.0-0.21","5","6","6","4","3","5","2","5","5","4","5","1","0","1","0","1","2","1","0","5","5","5","5","4","4","5","4","5","4","8","7","6","7","5","6","8","7","8","5","2","3","6","5","2","6","1","5","2","3","3","6","3","5","6","5","3","6","5","3","7","3","6","3","7","5","5","6","7","7","5","2","5","2","7","2","7","3","6","763807579603472386","刘","403","Male","[""坏他"",""好我"",""好他"",""坏我""]","[""弱他"",""强我"",""强他"",""弱我""]","","","","","","","","yes","","","","","","","","","SRET","EW_formal","","key","j","6.944458677685985","768","428","朋友","有力","Positive","ability","","","","","","","","","",""
"1029","","f","psychophysics","36","159179","0.0-7.0-3.0-0.22","5","6","6","4","3","5","2","5","5","4","5","1","0","1","0","1","2","1","0","5","5","5","5","4","4","5","4","5","4","8","7","6","7","5","6","8","7","8","5","2","3","6","5","2","6","1","5","2","3","3","6","3","5","6","5","3","6","5","3","7","3","6","3","7","5","5","6","7","7","5","2","5","2","7","2","7","3","6","763807579603472386","刘","403","Male","[""坏他"",""好我"",""好他"",""坏我""]","[""弱他"",""强我"",""强他"",""弱我""]","","","","","","","","no","","","","","","","","","SRET","EW_formal","","key","f","6.94455479452054","768","428","自己","浅薄","Negative","ability","","","","","","","","","",""
"970","","j","psychophysics","37","161148","0.0-7.0-3.0-0.23","5","6","6","4","3","5","2","5","5","4","5","1","0","1","0","1","2","1","0","5","5","5","5","4","4","5","4","5","4","8","7","6","7","5","6","8","7","8","5","2","3","6","5","2","6","1","5","2","3","3","6","3","5","6","5","3","6","5","3","7","3","6","3","7","5","5","6","7","7","5","2","5","2","7","2","7","3","6","763807579603472386","刘","403","Male","[""坏他"",""好我"",""好他"",""坏我""]","[""弱他"",""强我"",""强他"",""弱我""]","","","","","","","","yes","","","","","","","","","SRET","EW_formal","","key","j","6.944420494699675","768","428","自己","拖拉","Negative","ability","","","","","","","","","",""
"631","","j","psychophysics","38","162782","0.0-7.0-3.0-0.24","5","6","6","4","3","5","2","5","5","4","5","1","0","1","0","1","2","1","0","5","5","5","5","4","4","5","4","5","4","8","7","6","7","5","6","8","7","8","5","2","3","6","5","2","6","1","5","2","3","3","6","3","5","6","5","3","6","5","3","7","3","6","3","7","5","5","6","7","7","5","2","5","2","7","2","7","3","6","763807579603472386","刘","403","Male","[""坏他"",""好我"",""好他"",""坏我""]","[""弱他"",""强我"",""强他"",""弱我""]","","","","","","","","yes","","","","","","","","","SRET","EW_formal","","key","j","6.944534188034098","768","428","朋友","周到","Positive","ability","","","","","","","","","",""
"628","","j","psychophysics","39","164410","0.0-7.0-3.0-0.25","5","6","6","4","3","5","2","5","5","4","5","1","0","1","0","1","2","1","0","5","5","5","5","4","4","5","4","5","4","8","7","6","7","5","6","8","7","8","5","2","3","6","5","2","6","1","5","2","3","3","6","3","5","6","5","3","6","5","3","7","3","6","3","7","5","5","6","7","7","5","2","5","2","7","2","7","3","6","763807579603472386","刘","403","Male","[""坏他"",""好我"",""好他"",""坏我""]","[""弱他"",""强我"",""强他"",""弱我""]","","","","","","","","yes","","","","","","","","","SRET","EW_formal","","key","j","6.944329059829052","768","428","朋友","专注","Positive","ability","","","","","","","","","",""
"605","","j","psychophysics","40","166021","0.0-7.0-3.0-0.26","5","6","6","4","3","5","2","5","5","4","5","1","0","1","0","1","2","1","0","5","5","5","5","4","4","5","4","5","4","8","7","6","7","5","6","8","7","8","5","2","3","6","5","2","6","1","5","2","3","3","6","3","5","6","5","3","6","5","3","7","3","6","3","7","5","5","6","7","7","5","2","5","2","7","2","7","3","6","763807579603472386","刘","403","Male","[""坏他"",""好我"",""好他"",""坏我""]","[""弱他"",""强我"",""强他"",""弱我""]","","","","","","","","yes","","","","","","","","","SRET","EW_formal","","key","j","6.944515151515108","768","428","朋友","博识","Positive","ability","","","","","","","","","",""
"995","","j","psychophysics","41","168042","0.0-7.0-3.0-0.27","5","6","6","4","3","5","2","5","5","4","5","1","0","1","0","1","2","1","0","5","5","5","5","4","4","5","4","5","4","8","7","6","7","5","6","8","7","8","5","2","3","6","5","2","6","1","5","2","3","3","6","3","5","6","5","3","6","5","3","7","3","6","3","7","5","5","6","7","7","5","2","5","2","7","2","7","3","6","763807579603472386","刘","403","Male","[""坏他"",""好我"",""好他"",""坏我""]","[""弱他"",""强我"",""强他"",""弱我""]","","","","","","","","yes","","","","","","","","","SRET","EW_formal","","key","j","6.9444758620690195","768","428","朋友","善心","Positive","morality","","","","","","","","","",""
"677","","f","psychophysics","42","169723","0.0-7.0-3.0-0.28","5","6","6","4","3","5","2","5","5","4","5","1","0","1","0","1","2","1","0","5","5","5","5","4","4","5","4","5","4","8","7","6","7","5","6","8","7","8","5","2","3","6","5","2","6","1","5","2","3","3","6","3","5","6","5","3","6","5","3","7","3","6","3","7","5","5","6","7","7","5","2","5","2","7","2","7","3","6","763807579603472386","刘","403","Male","[""坏他"",""好我"",""好他"",""坏我""]","[""弱他"",""强我"",""强他"",""弱我""]","","","","","","","","no","","","","","","","","","SRET","EW_formal","","key","f","6.944041493775916","768","428","朋友","下流","Negative","morality","","","","","","","","","",""
"788","","f","psychophysics","43","171515","0.0-7.0-3.0-0.29","5","6","6","4","3","5","2","5","5","4","5","1","0","1","0","1","2","1","0","5","5","5","5","4","4","5","4","5","4","8","7","6","7","5","6","8","7","8","5","2","3","6","5","2","6","1","5","2","3","3","6","3","5","6","5","3","6","5","3","7","3","6","3","7","5","5","6","7","7","5","2","5","2","7","2","7","3","6","763807579603472386","刘","403","Male","[""坏他"",""好我"",""好他"",""坏我""]","[""弱他"",""强我"",""强他"",""弱我""]","","","","","","","","no","","","","","","","","","SRET","EW_formal","","key","f","6.944587548638097","768","428","朋友","逞能","Negative","ability","","","","","","","","","",""
"724","","f","psychophysics","44","173243","0.0-7.0-3.0-0.30","5","6","6","4","3","5","2","5","5","4","5","1","0","1","0","1","2","1","0","5","5","5","5","4","4","5","4","5","4","8","7","6","7","5","6","8","7","8","5","2","3","6","5","2","6","1","5","2","3","3","6","3","5","6","5","3","6","5","3","7","3","6","3","7","5","5","6","7","7","5","2","5","2","7","2","7","3","6","763807579603472386","刘","403","Male","[""坏他"",""好我"",""好他"",""坏我""]","[""弱他"",""强我"",""强他"",""弱我""]","","","","","","","","no","","","","","","","","","SRET","EW_formal","","key","f","6.944209677419313","768","428","自己","黑心","Negative","morality","","","","","","","","","",""
"586","","j","psychophysics","45","174830","0.0-7.0-3.0-0.31","5","6","6","4","3","5","2","5","5","4","5","1","0","1","0","1","2","1","0","5","5","5","5","4","4","5","4","5","4","8","7","6","7","5","6","8","7","8","5","2","3","6","5","2","6","1","5","2","3","3","6","3","5","6","5","3","6","5","3","7","3","6","3","7","5","5","6","7","7","5","2","5","2","7","2","7","3","6","763807579603472386","刘","403","Male","[""坏他"",""好我"",""好他"",""坏我""]","[""弱他"",""强我"",""强他"",""弱我""]","","","","","","","","yes","","","","","","","","","SRET","EW_formal","","key","j","6.9445462555066575","768","428","朋友","无私","Positive","morality","","","","","","","","","",""
"639","","j","psychophysics","46","176470","0.0-7.0-3.0-0.32","5","6","6","4","3","5","2","5","5","4","5","1","0","1","0","1","2","1","0","5","5","5","5","4","4","5","4","5","4","8","7","6","7","5","6","8","7","8","5","2","3","6","5","2","6","1","5","2","3","3","6","3","5","6","5","3","6","5","3","7","3","6","3","7","5","5","6","7","7","5","2","5","2","7","2","7","3","6","763807579603472386","刘","403","Male","[""坏他"",""好我"",""好他"",""坏我""]","[""弱他"",""强我"",""强他"",""弱我""]","","","","","","","","yes","","","","","","","","","SRET","EW_formal","","key","j","6.943885593220391","768","428","朋友","能干","Positive","ability","","","","","","","","","",""
"946","","j","psychophysics","47","178421","0.0-7.0-3.0-0.33","5","6","6","4","3","5","2","5","5","4","5","1","0","1","0","1","2","1","0","5","5","5","5","4","4","5","4","5","4","8","7","6","7","5","6","8","7","8","5","2","3","6","5","2","6","1","5","2","3","3","6","3","5","6","5","3","6","5","3","7","3","6","3","7","5","5","6","7","7","5","2","5","2","7","2","7","3","6","763807579603472386","刘","403","Male","[""坏他"",""好我"",""好他"",""坏我""]","[""弱他"",""强我"",""强他"",""弱我""]","","","","","","","","yes","","","","","","","","","SRET","EW_formal","","key","j","6.944222222222307","768","428","朋友","侠义","Positive","morality","","","","","","","","","",""
"837","","f","psychophysics","48","180260","0.0-7.0-3.0-0.34","5","6","6","4","3","5","2","5","5","4","5","1","0","1","0","1","2","1","0","5","5","5","5","4","4","5","4","5","4","8","7","6","7","5","6","8","7","8","5","2","3","6","5","2","6","1","5","2","3","3","6","3","5","6","5","3","6","5","3","7","3","6","3","7","5","5","6","7","7","5","2","5","2","7","2","7","3","6","763807579603472386","刘","403","Male","[""坏他"",""好我"",""好他"",""坏我""]","[""弱他"",""强我"",""强他"",""弱我""]","","","","","","","","no","","","","","","","","","SRET","EW_formal","","key","f","6.944484848484783","768","428","朋友","狡狯","Negative","morality","","","","","","","","","",""
"662","","j","psychophysics","49","181923","0.0-7.0-3.0-0.35","5","6","6","4","3","5","2","5","5","4","5","1","0","1","0","1","2","1","0","5","5","5","5","4","4","5","4","5","4","8","7","6","7","5","6","8","7","8","5","2","3","6","5","2","6","1","5","2","3","3","6","3","5","6","5","3","6","5","3","7","3","6","3","7","5","5","6","7","7","5","2","5","2","7","2","7","3","6","763807579603472386","刘","403","Male","[""坏他"",""好我"",""好他"",""坏我""]","[""弱他"",""强我"",""强他"",""弱我""]","","","","","","","","yes","","","","","","","","","SRET","EW_formal","","key","j","6.944447698744762","768","428","自己","依靠","Negative","ability","","","","","","","","","",""
"851","","j","psychophysics","50","183775","0.0-7.0-3.0-0.36","5","6","6","4","3","5","2","5","5","4","5","1","0","1","0","1","2","1","0","5","5","5","5","4","4","5","4","5","4","8","7","6","7","5","6","8","7","8","5","2","3","6","5","2","6","1","5","2","3","3","6","3","5","6","5","3","6","5","3","7","3","6","3","7","5","5","6","7","7","5","2","5","2","7","2","7","3","6","763807579603472386","刘","403","Male","[""坏他"",""好我"",""好他"",""坏我""]","[""弱他"",""强我"",""强他"",""弱我""]","","","","","","","","yes","","","","","","","","","SRET","EW_formal","","key","j","6.944177358490546","768","428","自己","沉着","Positive","ability","","","","","","","","","",""
"809","","f","psychophysics","51","185585","0.0-7.0-3.0-0.37","5","6","6","4","3","5","2","5","5","4","5","1","0","1","0","1","2","1","0","5","5","5","5","4","4","5","4","5","4","8","7","6","7","5","6","8","7","8","5","2","3","6","5","2","6","1","5","2","3","3","6","3","5","6","5","3","6","5","3","7","3","6","3","7","5","5","6","7","7","5","2","5","2","7","2","7","3","6","763807579603472386","刘","403","Male","[""坏他"",""好我"",""好他"",""坏我""]","[""弱他"",""强我"",""强他"",""弱我""]","","","","","","","","no","","","","","","","","","SRET","EW_formal","","key","f","6.944515384615358","768","428","自己","短浅","Negative","ability","","","","","","","","","",""
"690","","j","psychophysics","52","187278","0.0-7.0-3.0-0.38","5","6","6","4","3","5","2","5","5","4","5","1","0","1","0","1","2","1","0","5","5","5","5","4","4","5","4","5","4","8","7","6","7","5","6","8","7","8","5","2","3","6","5","2","6","1","5","2","3","3","6","3","5","6","5","3","6","5","3","7","3","6","3","7","5","5","6","7","7","5","2","5","2","7","2","7","3","6","763807579603472386","刘","403","Male","[""坏他"",""好我"",""好他"",""坏我""]","[""弱他"",""强我"",""强他"",""弱我""]","","","","","","","","yes","","","","","","","","","SRET","EW_formal","","key","j","6.944271604938327","768","428","朋友","宽容","Positive","morality","","","","","","","","","",""
"882","","j","psychophysics","53","189164","0.0-7.0-3.0-0.39","5","6","6","4","3","5","2","5","5","4","5","1","0","1","0","1","2","1","0","5","5","5","5","4","4","5","4","5","4","8","7","6","7","5","6","8","7","8","5","2","3","6","5","2","6","1","5","2","3","3","6","3","5","6","5","3","6","5","3","7","3","6","3","7","5","5","6","7","7","5","2","5","2","7","2","7","3","6","763807579603472386","刘","403","Male","[""坏他"",""好我"",""好他"",""坏我""]","[""弱他"",""强我"",""强他"",""弱我""]","","","","","","","","yes","","","","","","","","","SRET","EW_formal","","key","j","6.94446296296298","768","428","自己","稳健","Positive","ability","","","","","","","","","",""
"702","","j","psychophysics","54","190869","0.0-7.0-3.0-0.40","5","6","6","4","3","5","2","5","5","4","5","1","0","1","0","1","2","1","0","5","5","5","5","4","4","5","4","5","4","8","7","6","7","5","6","8","7","8","5","2","3","6","5","2","6","1","5","2","3","3","6","3","5","6","5","3","6","5","3","7","3","6","3","7","5","5","6","7","7","5","2","5","2","7","2","7","3","6","763807579603472386","刘","403","Male","[""坏他"",""好我"",""好他"",""坏我""]","[""弱他"",""强我"",""强他"",""弱我""]","","","","","","","","yes","","","","","","","","","SRET","EW_formal","","key","j","6.944775510204086","768","428","朋友","独断","Negative","ability","","","","","","","","","",""
"1441","","j","psychophysics","55","193313","0.0-7.0-3.0-0.41","5","6","6","4","3","5","2","5","5","4","5","1","0","1","0","1","2","1","0","5","5","5","5","4","4","5","4","5","4","8","7","6","7","5","6","8","7","8","5","2","3","6","5","2","6","1","5","2","3","3","6","3","5","6","5","3","6","5","3","7","3","6","3","7","5","5","6","7","7","5","2","5","2","7","2","7","3","6","763807579603472386","刘","403","Male","[""坏他"",""好我"",""好他"",""坏我""]","[""弱他"",""强我"",""强他"",""弱我""]","","","","","","","","yes","","","","","","","","","SRET","EW_formal","","key","j","6.944504273504296","768","428","自己","学霸","Positive","ability","","","","","","","","","",""
"891","","f","psychophysics","56","195235","0.0-7.0-3.0-0.42","5","6","6","4","3","5","2","5","5","4","5","1","0","1","0","1","2","1","0","5","5","5","5","4","4","5","4","5","4","8","7","6","7","5","6","8","7","8","5","2","3","6","5","2","6","1","5","2","3","3","6","3","5","6","5","3","6","5","3","7","3","6","3","7","5","5","6","7","7","5","2","5","2","7","2","7","3","6","763807579603472386","刘","403","Male","[""坏他"",""好我"",""好他"",""坏我""]","[""弱他"",""强我"",""强他"",""弱我""]","","","","","","","","no","","","","","","","","","SRET","EW_formal","","key","f","6.944228260869526","768","428","自己","义气","Positive","morality","","","","","","","","","",""
"935","","j","psychophysics","57","197175","0.0-7.0-3.0-0.43","5","6","6","4","3","5","2","5","5","4","5","1","0","1","0","1","2","1","0","5","5","5","5","4","4","5","4","5","4","8","7","6","7","5","6","8","7","8","5","2","3","6","5","2","6","1","5","2","3","3","6","3","5","6","5","3","6","5","3","7","3","6","3","7","5","5","6","7","7","5","2","5","2","7","2","7","3","6","763807579603472386","刘","403","Male","[""坏他"",""好我"",""好他"",""坏我""]","[""弱他"",""强我"",""强他"",""弱我""]","","","","","","","","yes","","","","","","","","","SRET","EW_formal","","key","j","6.944456834532404","768","428","朋友","高洁","Positive","morality","","","","","","","","","",""
"1012","","j","psychophysics","58","199191","0.0-7.0-3.0-0.44","5","6","6","4","3","5","2","5","5","4","5","1","0","1","0","1","2","1","0","5","5","5","5","4","4","5","4","5","4","8","7","6","7","5","6","8","7","8","5","2","3","6","5","2","6","1","5","2","3","3","6","3","5","6","5","3","6","5","3","7","3","6","3","7","5","5","6","7","7","5","2","5","2","7","2","7","3","6","763807579603472386","刘","403","Male","[""坏他"",""好我"",""好他"",""坏我""]","[""弱他"",""强我"",""强他"",""弱我""]","","","","","","","","yes","","","","","","","","","SRET","EW_formal","","key","j","6.944193771626308","768","428","自己","利落","Positive","ability","","","","","","","","","",""
"597","","f","psychophysics","59","200789","0.0-7.0-3.0-0.45","5","6","6","4","3","5","2","5","5","4","5","1","0","1","0","1","2","1","0","5","5","5","5","4","4","5","4","5","4","8","7","6","7","5","6","8","7","8","5","2","3","6","5","2","6","1","5","2","3","3","6","3","5","6","5","3","6","5","3","7","3","6","3","7","5","5","6","7","7","5","2","5","2","7","2","7","3","6","763807579603472386","刘","403","Male","[""坏他"",""好我"",""好他"",""坏我""]","[""弱他"",""强我"",""强他"",""弱我""]","","","","","","","","no","","","","","","","","","SRET","EW_formal","","key","f","6.944765217391313","768","428","自己","差生","Negative","ability","","","","","","","","","",""
"1034","","j","psychophysics","60","202829","0.0-7.0-3.0-0.46","5","6","6","4","3","5","2","5","5","4","5","1","0","1","0","1","2","1","0","5","5","5","5","4","4","5","4","5","4","8","7","6","7","5","6","8","7","8","5","2","3","6","5","2","6","1","5","2","3","3","6","3","5","6","5","3","6","5","3","7","3","6","3","7","5","5","6","7","7","5","2","5","2","7","2","7","3","6","763807579603472386","刘","403","Male","[""坏他"",""好我"",""好他"",""坏我""]","[""弱他"",""强我"",""强他"",""弱我""]","","","","","","","","yes","","","","","","","","","SRET","EW_formal","","key","j","6.944160958904133","768","428","朋友","廉正","Positive","morality","","","","","","","","","",""
"713","","f","psychophysics","61","204544","0.0-7.0-3.0-0.47","5","6","6","4","3","5","2","5","5","4","5","1","0","1","0","1","2","1","0","5","5","5","5","4","4","5","4","5","4","8","7","6","7","5","6","8","7","8","5","2","3","6","5","2","6","1","5","2","3","3","6","3","5","6","5","3","6","5","3","7","3","6","3","7","5","5","6","7","7","5","2","5","2","7","2","7","3","6","763807579603472386","刘","403","Male","[""坏他"",""好我"",""好他"",""坏我""]","[""弱他"",""强我"",""强他"",""弱我""]","","","","","","","","no","","","","","","","","","SRET","EW_formal","","key","f","6.944532520325128","768","428","朋友","奸险","Negative","morality","","","","","","","","","",""
"932","","j","psychophysics","62","206478","0.0-7.0-3.0-0.48","5","6","6","4","3","5","2","5","5","4","5","1","0","1","0","1","2","1","0","5","5","5","5","4","4","5","4","5","4","8","7","6","7","5","6","8","7","8","5","2","3","6","5","2","6","1","5","2","3","3","6","3","5","6","5","3","6","5","3","7","3","6","3","7","5","5","6","7","7","5","2","5","2","7","2","7","3","6","763807579603472386","刘","403","Male","[""坏他"",""好我"",""好他"",""坏我""]","[""弱他"",""强我"",""强他"",""弱我""]","","","","","","","","yes","","","","","","","","","SRET","EW_formal","","key","j","6.944571942446097","768","428","朋友","背叛","Negative","morality","","","","","","","","","",""
"752","","f","psychophysics","63","208247","0.0-7.0-3.0-0.49","5","6","6","4","3","5","2","5","5","4","5","1","0","1","0","1","2","1","0","5","5","5","5","4","4","5","4","5","4","8","7","6","7","5","6","8","7","8","5","2","3","6","5","2","6","1","5","2","3","3","6","3","5","6","5","3","6","5","3","7","3","6","3","7","5","5","6","7","7","5","2","5","2","7","2","7","3","6","763807579603472386","刘","403","Male","[""坏他"",""好我"",""好他"",""坏我""]","[""弱他"",""强我"",""强他"",""弱我""]","","","","","","","","no","","","","","","","","","SRET","EW_formal","","key","f","6.9442716535433116","768","428","朋友","愚蠢","Negative","ability","","","","","","","","","",""
"681","","j","psychophysics","64","209934","0.0-7.0-3.0-0.50","5","6","6","4","3","5","2","5","5","4","5","1","0","1","0","1","2","1","0","5","5","5","5","4","4","5","4","5","4","8","7","6","7","5","6","8","7","8","5","2","3","6","5","2","6","1","5","2","3","3","6","3","5","6","5","3","6","5","3","7","3","6","3","7","5","5","6","7","7","5","2","5","2","7","2","7","3","6","763807579603472386","刘","403","Male","[""坏他"",""好我"",""好他"",""坏我""]","[""弱他"",""强我"",""强他"",""弱我""]","","","","","","","","yes","","","","","","","","","SRET","EW_formal","","key","j","6.944228215767669","768","428","自己","不良","Negative","morality","","","","","","","","","",""
"1204","","j","psychophysics","65","212138","0.0-7.0-3.0-0.51","5","6","6","4","3","5","2","5","5","4","5","1","0","1","0","1","2","1","0","5","5","5","5","4","4","5","4","5","4","8","7","6","7","5","6","8","7","8","5","2","3","6","5","2","6","1","5","2","3","3","6","3","5","6","5","3","6","5","3","7","3","6","3","7","5","5","6","7","7","5","2","5","2","7","2","7","3","6","763807579603472386","刘","403","Male","[""坏他"",""好我"",""好他"",""坏我""]","[""弱他"",""强我"",""强他"",""弱我""]","","","","","","","","yes","","","","","","","","","SRET","EW_formal","","key","j","6.944447949526858","768","428","自己","刻薄","Negative","morality","","","","","","","","","",""
"736","","f","psychophysics","66","213890","0.0-7.0-3.0-0.52","5","6","6","4","3","5","2","5","5","4","5","1","0","1","0","1","2","1","0","5","5","5","5","4","4","5","4","5","4","8","7","6","7","5","6","8","7","8","5","2","3","6","5","2","6","1","5","2","3","3","6","3","5","6","5","3","6","5","3","7","3","6","3","7","5","5","6","7","7","5","2","5","2","7","2","7","3","6","763807579603472386","刘","403","Male","[""坏他"",""好我"",""好他"",""坏我""]","[""弱他"",""强我"",""强他"",""弱我""]","","","","","","","","no","","","","","","","","","SRET","EW_formal","","key","f","6.944557768924313","768","428","朋友","坦荡","Positive","morality","","","","","","","","","",""
"925","","f","psychophysics","67","215818","0.0-7.0-3.0-0.53","5","6","6","4","3","5","2","5","5","4","5","1","0","1","0","1","2","1","0","5","5","5","5","4","4","5","4","5","4","8","7","6","7","5","6","8","7","8","5","2","3","6","5","2","6","1","5","2","3","3","6","3","5","6","5","3","6","5","3","7","3","6","3","7","5","5","6","7","7","5","2","5","2","7","2","7","3","6","763807579603472386","刘","403","Male","[""坏他"",""好我"",""好他"",""坏我""]","[""弱他"",""强我"",""强他"",""弱我""]","","","","","","","","no","","","","","","","","","SRET","EW_formal","","key","f","6.944332129963852","768","428","朋友","愚钝","Negative","ability","","","","","","","","","",""
"583","","j","psychophysics","68","217406","0.0-7.0-3.0-0.54","5","6","6","4","3","5","2","5","5","4","5","1","0","1","0","1","2","1","0","5","5","5","5","4","4","5","4","5","4","8","7","6","7","5","6","8","7","8","5","2","3","6","5","2","6","1","5","2","3","3","6","3","5","6","5","3","6","5","3","7","3","6","3","7","5","5","6","7","7","5","2","5","2","7","2","7","3","6","763807579603472386","刘","403","Male","[""坏他"",""好我"",""好他"",""坏我""]","[""弱他"",""强我"",""强他"",""弱我""]","","","","","","","","yes","","","","","","","","","SRET","EW_formal","","key","j","6.943991189427409","768","428","朋友","精干","Positive","ability","","","","","","","","","",""
"851","","f","psychophysics","69","219263","0.0-7.0-3.0-0.55","5","6","6","4","3","5","2","5","5","4","5","1","0","1","0","1","2","1","0","5","5","5","5","4","4","5","4","5","4","8","7","6","7","5","6","8","7","8","5","2","3","6","5","2","6","1","5","2","3","3","6","3","5","6","5","3","6","5","3","7","3","6","3","7","5","5","6","7","7","5","2","5","2","7","2","7","3","6","763807579603472386","刘","403","Male","[""坏他"",""好我"",""好他"",""坏我""]","[""弱他"",""强我"",""强他"",""弱我""]","","","","","","","","no","","","","","","","","","SRET","EW_formal","","key","f","6.944740601503785","768","428","朋友","谦逊","Positive","morality","","","","","","","","","",""
"601","","j","psychophysics","70","220868","0.0-7.0-3.0-0.56","5","6","6","4","3","5","2","5","5","4","5","1","0","1","0","1","2","1","0","5","5","5","5","4","4","5","4","5","4","8","7","6","7","5","6","8","7","8","5","2","3","6","5","2","6","1","5","2","3","3","6","3","5","6","5","3","6","5","3","7","3","6","3","7","5","5","6","7","7","5","2","5","2","7","2","7","3","6","763807579603472386","刘","403","Male","[""坏他"",""好我"",""好他"",""坏我""]","[""弱他"",""强我"",""强他"",""弱我""]","","","","","","","","yes","","","","","","","","","SRET","EW_formal","","key","j","6.944673913043579","768","428","朋友","爱国","Positive","morality","","","","","","","","","",""
"950","","j","psychophysics","71","222820","0.0-7.0-3.0-0.57","5","6","6","4","3","5","2","5","5","4","5","1","0","1","0","1","2","1","0","5","5","5","5","4","4","5","4","5","4","8","7","6","7","5","6","8","7","8","5","2","3","6","5","2","6","1","5","2","3","3","6","3","5","6","5","3","6","5","3","7","3","6","3","7","5","5","6","7","7","5","2","5","2","7","2","7","3","6","763807579603472386","刘","403","Male","[""坏他"",""好我"",""好他"",""坏我""]","[""弱他"",""强我"",""强他"",""弱我""]","","","","","","","","yes","","","","","","","","","SRET","EW_formal","","key","j","6.944310714285738","768","428","自己","忠义","Positive","morality","","","","","","","","","",""
"733","","j","psychophysics","72","224554","0.0-7.0-3.0-0.58","5","6","6","4","3","5","2","5","5","4","5","1","0","1","0","1","2","1","0","5","5","5","5","4","4","5","4","5","4","8","7","6","7","5","6","8","7","8","5","2","3","6","5","2","6","1","5","2","3","3","6","3","5","6","5","3","6","5","3","7","3","6","3","7","5","5","6","7","7","5","2","5","2","7","2","7","3","6","763807579603472386","刘","403","Male","[""坏他"",""好我"",""好他"",""坏我""]","[""弱他"",""强我"",""强他"",""弱我""]","","","","","","","","yes","","","","","","","","","SRET","EW_formal","","key","j","6.9444016064256555","768","428","自己","不仁","Negative","morality","","","","","","","","","",""
"1248","","j","psychophysics","73","226805","0.0-7.0-3.0-0.59","5","6","6","4","3","5","2","5","5","4","5","1","0","1","0","1","2","1","0","5","5","5","5","4","4","5","4","5","4","8","7","6","7","5","6","8","7","8","5","2","3","6","5","2","6","1","5","2","3","3","6","3","5","6","5","3","6","5","3","7","3","6","3","7","5","5","6","7","7","5","2","5","2","7","2","7","3","6","763807579603472386","刘","403","Male","[""坏他"",""好我"",""好他"",""坏我""]","[""弱他"",""强我"",""强他"",""弱我""]","","","","","","","","yes","","","","","","","","","SRET","EW_formal","","key","j","6.944154798761608","768","428","自己","正气","Positive","morality","","","","","","","","","",""
"875","","j","psychophysics","74","228681","0.0-7.0-3.0-0.60","5","6","6","4","3","5","2","5","5","4","5","1","0","1","0","1","2","1","0","5","5","5","5","4","4","5","4","5","4","8","7","6","7","5","6","8","7","8","5","2","3","6","5","2","6","1","5","2","3","3","6","3","5","6","5","3","6","5","3","7","3","6","3","7","5","5","6","7","7","5","2","5","2","7","2","7","3","6","763807579603472386","刘","403","Male","[""坏他"",""好我"",""好他"",""坏我""]","[""弱他"",""强我"",""强他"",""弱我""]","","","","","","","","yes","","","","","","","","","SRET","EW_formal","","key","j","6.944315985130033","768","428","自己","忠良","Positive","morality","","","","","","","","","",""
"1251","","j","psychophysics","75","230933","0.0-7.0-3.0-0.61","5","6","6","4","3","5","2","5","5","4","5","1","0","1","0","1","2","1","0","5","5","5","5","4","4","5","4","5","4","8","7","6","7","5","6","8","7","8","5","2","3","6","5","2","6","1","5","2","3","3","6","3","5","6","5","3","6","5","3","7","3","6","3","7","5","5","6","7","7","5","2","5","2","7","2","7","3","6","763807579603472386","刘","403","Male","[""坏他"",""好我"",""好他"",""坏我""]","[""弱他"",""强我"",""强他"",""弱我""]","","","","","","","","yes","","","","","","","","","SRET","EW_formal","","key","j","6.944669753086432","768","428","朋友","思辨","Positive","ability","","","","","","","","","",""
"927","","f","psychophysics","76","232862","0.0-7.0-3.0-0.62","5","6","6","4","3","5","2","5","5","4","5","1","0","1","0","1","2","1","0","5","5","5","5","4","4","5","4","5","4","8","7","6","7","5","6","8","7","8","5","2","3","6","5","2","6","1","5","2","3","3","6","3","5","6","5","3","6","5","3","7","3","6","3","7","5","5","6","7","7","5","2","5","2","7","2","7","3","6","763807579603472386","刘","403","Male","[""坏他"",""好我"",""好他"",""坏我""]","[""弱他"",""强我"",""强他"",""弱我""]","","","","","","","","no","","","","","","","","","SRET","EW_formal","","key","f","6.9443550724637415","768","428","朋友","笨蛋","Negative","ability","","","","","","","","","",""
"830","","j","psychophysics","77","234720","0.0-7.0-3.0-0.63","5","6","6","4","3","5","2","5","5","4","5","1","0","1","0","1","2","1","0","5","5","5","5","4","4","5","4","5","4","8","7","6","7","5","6","8","7","8","5","2","3","6","5","2","6","1","5","2","3","3","6","3","5","6","5","3","6","5","3","7","3","6","3","7","5","5","6","7","7","5","2","5","2","7","2","7","3","6","763807579603472386","刘","403","Male","[""坏他"",""好我"",""好他"",""坏我""]","[""弱他"",""强我"",""强他"",""弱我""]","","","","","","","","yes","","","","","","","","","SRET","EW_formal","","key","j","6.944558052434512","768","428","朋友","自私","Negative","morality","","","","","","","","","",""
"743","","f","psychophysics","78","236466","0.0-7.0-3.0-0.64","5","6","6","4","3","5","2","5","5","4","5","1","0","1","0","1","2","1","0","5","5","5","5","4","4","5","4","5","4","8","7","6","7","5","6","8","7","8","5","2","3","6","5","2","6","1","5","2","3","3","6","3","5","6","5","3","6","5","3","7","3","6","3","7","5","5","6","7","7","5","2","5","2","7","2","7","3","6","763807579603472386","刘","403","Male","[""坏他"",""好我"",""好他"",""坏我""]","[""弱他"",""强我"",""强他"",""弱我""]","","","","","","","","no","","","","","","","","","SRET","EW_formal","","key","f","6.944423999999999","768","428","朋友","阴毒","Negative","morality","","","","","","","","","",""
"786","","f","psychophysics","79","238253","0.0-7.0-3.0-0.65","5","6","6","4","3","5","2","5","5","4","5","1","0","1","0","1","2","1","0","5","5","5","5","4","4","5","4","5","4","8","7","6","7","5","6","8","7","8","5","2","3","6","5","2","6","1","5","2","3","3","6","3","5","6","5","3","6","5","3","7","3","6","3","7","5","5","6","7","7","5","2","5","2","7","2","7","3","6","763807579603472386","刘","403","Male","[""坏他"",""好我"",""好他"",""坏我""]","[""弱他"",""强我"",""强他"",""弱我""]","","","","","","","","no","","","","","","","","","SRET","EW_formal","","key","f","6.944163424124604","768","428","朋友","虚伪","Negative","morality","","","","","","","","","",""
"788","","f","psychophysics","80","240046","0.0-7.0-3.0-0.66","5","6","6","4","3","5","2","5","5","4","5","1","0","1","0","1","2","1","0","5","5","5","5","4","4","5","4","5","4","8","7","6","7","5","6","8","7","8","5","2","3","6","5","2","6","1","5","2","3","3","6","3","5","6","5","3","6","5","3","7","3","6","3","7","5","5","6","7","7","5","2","5","2","7","2","7","3","6","763807579603472386","刘","403","Male","[""坏他"",""好我"",""好他"",""坏我""]","[""弱他"",""强我"",""强他"",""弱我""]","","","","","","","","no","","","","","","","","","SRET","EW_formal","","key","f","6.944229571984497","768","428","自己","诡诈","Negative","morality","","","","","","","","","",""
"677","","j","psychophysics","81","241727","0.0-7.0-3.0-0.67","5","6","6","4","3","5","2","5","5","4","5","1","0","1","0","1","2","1","0","5","5","5","5","4","4","5","4","5","4","8","7","6","7","5","6","8","7","8","5","2","3","6","5","2","6","1","5","2","3","3","6","3","5","6","5","3","6","5","3","7","3","6","3","7","5","5","6","7","7","5","2","5","2","7","2","7","3","6","763807579603472386","刘","403","Male","[""坏他"",""好我"",""好他"",""坏我""]","[""弱他"",""强我"",""强他"",""弱我""]","","","","","","","","yes","","","","","","","","","SRET","EW_formal","","key","j","6.973487500000071","768","428","自己","利己","Negative","morality","","","","","","","","","",""
"725","","f","psychophysics","82","243467","0.0-7.0-3.0-0.68","5","6","6","4","3","5","2","5","5","4","5","1","0","1","0","1","2","1","0","5","5","5","5","4","4","5","4","5","4","8","7","6","7","5","6","8","7","8","5","2","3","6","5","2","6","1","5","2","3","3","6","3","5","6","5","3","6","5","3","7","3","6","3","7","5","5","6","7","7","5","2","5","2","7","2","7","3","6","763807579603472386","刘","403","Male","[""坏他"",""好我"",""好他"",""坏我""]","[""弱他"",""强我"",""强他"",""弱我""]","","","","","","","","no","","","","","","","","","SRET","EW_formal","","key","f","6.944604000000051","768","428","自己","贪腐","Negative","morality","","","","","","","","","",""
"659","","j","psychophysics","83","245132","0.0-7.0-3.0-0.69","5","6","6","4","3","5","2","5","5","4","5","1","0","1","0","1","2","1","0","5","5","5","5","4","4","5","4","5","4","8","7","6","7","5","6","8","7","8","5","2","3","6","5","2","6","1","5","2","3","3","6","3","5","6","5","3","6","5","3","7","3","6","3","7","5","5","6","7","7","5","2","5","2","7","2","7","3","6","763807579603472386","刘","403","Male","[""坏他"",""好我"",""好他"",""坏我""]","[""弱他"",""强我"",""强他"",""弱我""]","","","","","","","","yes","","","","","","","","","SRET","EW_formal","","key","j","6.944315126050433","768","428","朋友","窝囊","Negative","ability","","","","","","","","","",""
"656","","f","psychophysics","84","246800","0.0-7.0-3.0-0.70","5","6","6","4","3","5","2","5","5","4","5","1","0","1","0","1","2","1","0","5","5","5","5","4","4","5","4","5","4","8","7","6","7","5","6","8","7","8","5","2","3","6","5","2","6","1","5","2","3","3","6","3","5","6","5","3","6","5","3","7","3","6","3","7","5","5","6","7","7","5","2","5","2","7","2","7","3","6","763807579603472386","刘","403","Male","[""坏他"",""好我"",""好他"",""坏我""]","[""弱他"",""强我"",""强他"",""弱我""]","","","","","","","","no","","","","","","","","","SRET","EW_formal","","key","f","6.9447583333333265","768","428","朋友","昏庸","Negative","ability","","","","","","","","","",""
"778","","j","psychophysics","85","248583","0.0-7.0-3.0-0.71","5","6","6","4","3","5","2","5","5","4","5","1","0","1","0","1","2","1","0","5","5","5","5","4","4","5","4","5","4","8","7","6","7","5","6","8","7","8","5","2","3","6","5","2","6","1","5","2","3","3","6","3","5","6","5","3","6","5","3","7","3","6","3","7","5","5","6","7","7","5","2","5","2","7","2","7","3","6","763807579603472386","刘","403","Male","[""坏他"",""好我"",""好他"",""坏我""]","[""弱他"",""强我"",""强他"",""弱我""]","","","","","","","","yes","","","","","","","","","SRET","EW_formal","","key","j","6.9441411764705645","768","428","自己","业余","Negative","ability","","","","","","","","","",""
"910","","f","psychophysics","86","250494","0.0-7.0-3.0-0.72","5","6","6","4","3","5","2","5","5","4","5","1","0","1","0","1","2","1","0","5","5","5","5","4","4","5","4","5","4","8","7","6","7","5","6","8","7","8","5","2","3","6","5","2","6","1","5","2","3","3","6","3","5","6","5","3","6","5","3","7","3","6","3","7","5","5","6","7","7","5","2","5","2","7","2","7","3","6","763807579603472386","刘","403","Male","[""坏他"",""好我"",""好他"",""坏我""]","[""弱他"",""强我"",""强他"",""弱我""]","","","","","","","","no","","","","","","","","","SRET","EW_formal","","key","f","6.944496350365021","768","428","朋友","才尽","Negative","ability","","","","","","","","","",""
"1409","","j","psychophysics","87","252904","0.0-7.0-3.0-0.73","5","6","6","4","3","5","2","5","5","4","5","1","0","1","0","1","2","1","0","5","5","5","5","4","4","5","4","5","4","8","7","6","7","5","6","8","7","8","5","2","3","6","5","2","6","1","5","2","3","3","6","3","5","6","5","3","6","5","3","7","3","6","3","7","5","5","6","7","7","5","2","5","2","7","2","7","3","6","763807579603472386","刘","403","Male","[""坏他"",""好我"",""好他"",""坏我""]","[""弱他"",""强我"",""强他"",""弱我""]","","","","","","","","yes","","","","","","","","","SRET","EW_formal","","key","j","6.944057636887743","768","428","自己","懂行","Positive","ability","","","","","","","","","",""
"918","","f","psychophysics","88","254827","0.0-7.0-3.0-0.74","5","6","6","4","3","5","2","5","5","4","5","1","0","1","0","1","2","1","0","5","5","5","5","4","4","5","4","5","4","8","7","6","7","5","6","8","7","8","5","2","3","6","5","2","6","1","5","2","3","3","6","3","5","6","5","3","6","5","3","7","3","6","3","7","5","5","6","7","7","5","2","5","2","7","2","7","3","6","763807579603472386","刘","403","Male","[""坏他"",""好我"",""好他"",""坏我""]","[""弱他"",""强我"",""强他"",""弱我""]","","","","","","","","no","","","","","","","","","SRET","EW_formal","","key","f","6.944454545454673","768","428","自己","礼貌","Positive","morality","","","","","","","","","",""
"717","","j","psychophysics","89","256572","0.0-7.0-3.0-0.75","5","6","6","4","3","5","2","5","5","4","5","1","0","1","0","1","2","1","0","5","5","5","5","4","4","5","4","5","4","8","7","6","7","5","6","8","7","8","5","2","3","6","5","2","6","1","5","2","3","3","6","3","5","6","5","3","6","5","3","7","3","6","3","7","5","5","6","7","7","5","2","5","2","7","2","7","3","6","763807579603472386","刘","403","Male","[""坏他"",""好我"",""好他"",""坏我""]","[""弱他"",""强我"",""强他"",""弱我""]","","","","","","","","yes","","","","","","","","","SRET","EW_formal","","key","j","6.944549800796793","768","428","自己","热心","Positive","morality","","","","","","","","","",""
"865","","j","psychophysics","90","258442","0.0-7.0-3.0-0.76","5","6","6","4","3","5","2","5","5","4","5","1","0","1","0","1","2","1","0","5","5","5","5","4","4","5","4","5","4","8","7","6","7","5","6","8","7","8","5","2","3","6","5","2","6","1","5","2","3","3","6","3","5","6","5","3","6","5","3","7","3","6","3","7","5","5","6","7","7","5","2","5","2","7","2","7","3","6","763807579603472386","刘","403","Male","[""坏他"",""好我"",""好他"",""坏我""]","[""弱他"",""强我"",""强他"",""弱我""]","","","","","","","","yes","","","","","","","","","SRET","EW_formal","","key","j","6.944227611940136","768","428","自己","全才","Positive","ability","","","","","","","","","",""
"908","","j","psychophysics","91","260353","0.0-7.0-3.0-0.77","5","6","6","4","3","5","2","5","5","4","5","1","0","1","0","1","2","1","0","5","5","5","5","4","4","5","4","5","4","8","7","6","7","5","6","8","7","8","5","2","3","6","5","2","6","1","5","2","3","3","6","3","5","6","5","3","6","5","3","7","3","6","3","7","5","5","6","7","7","5","2","5","2","7","2","7","3","6","763807579603472386","刘","403","Male","[""坏他"",""好我"",""好他"",""坏我""]","[""弱他"",""强我"",""强他"",""弱我""]","","","","","","","","yes","","","","","","","","","SRET","EW_formal","","key","j","6.944211678832249","768","428","朋友","好心","Positive","morality","","","","","","","","","",""
"979","","j","psychophysics","92","262334","0.0-7.0-3.0-0.78","5","6","6","4","3","5","2","5","5","4","5","1","0","1","0","1","2","1","0","5","5","5","5","4","4","5","4","5","4","8","7","6","7","5","6","8","7","8","5","2","3","6","5","2","6","1","5","2","3","3","6","3","5","6","5","3","6","5","3","7","3","6","3","7","5","5","6","7","7","5","2","5","2","7","2","7","3","6","763807579603472386","刘","403","Male","[""坏他"",""好我"",""好他"",""坏我""]","[""弱他"",""强我"",""强他"",""弱我""]","","","","","","","","yes","","","","","","","","","SRET","EW_formal","","key","j","6.9444471830985846","768","428","自己","迂拙","Negative","ability","","","","","","","","","",""
"857","","j","psychophysics","93","264192","0.0-7.0-3.0-0.79","5","6","6","4","3","5","2","5","5","4","5","1","0","1","0","1","2","1","0","5","5","5","5","4","4","5","4","5","4","8","7","6","7","5","6","8","7","8","5","2","3","6","5","2","6","1","5","2","3","3","6","3","5","6","5","3","6","5","3","7","3","6","3","7","5","5","6","7","7","5","2","5","2","7","2","7","3","6","763807579603472386","刘","403","Male","[""坏他"",""好我"",""好他"",""坏我""]","[""弱他"",""强我"",""强他"",""弱我""]","","","","","","","","yes","","","","","","","","","SRET","EW_formal","","key","j","6.944329588014976","768","428","自己","厚道","Positive","morality","","","","","","","","","",""
"636","","j","psychophysics","94","265832","0.0-7.0-3.0-0.80","5","6","6","4","3","5","2","5","5","4","5","1","0","1","0","1","2","1","0","5","5","5","5","4","4","5","4","5","4","8","7","6","7","5","6","8","7","8","5","2","3","6","5","2","6","1","5","2","3","3","6","3","5","6","5","3","6","5","3","7","3","6","3","7","5","5","6","7","7","5","2","5","2","7","2","7","3","6","763807579603472386","刘","403","Male","[""坏他"",""好我"",""好他"",""坏我""]","[""弱他"",""强我"",""强他"",""弱我""]","","","","","","","","yes","","","","","","","","","SRET","EW_formal","","key","j","6.944199999999949","768","428","自己","高尚","Positive","morality","","","","","","","","","",""
"1016","","f","psychophysics","95","267848","0.0-7.0-3.0-0.81","5","6","6","4","3","5","2","5","5","4","5","1","0","1","0","1","2","1","0","5","5","5","5","4","4","5","4","5","4","8","7","6","7","5","6","8","7","8","5","2","3","6","5","2","6","1","5","2","3","3","6","3","5","6","5","3","6","5","3","7","3","6","3","7","5","5","6","7","7","5","2","5","2","7","2","7","3","6","763807579603472386","刘","403","Male","[""坏他"",""好我"",""好他"",""坏我""]","[""弱他"",""强我"",""强他"",""弱我""]","","","","","","","","no","","","","","","","","","SRET","EW_formal","","key","f","6.944241379310401","768","428","朋友","高明","Positive","ability","","","","","","","","","",""
"998","","f","psychophysics","96","269853","0.0-7.0-3.0-0.82","5","6","6","4","3","5","2","5","5","4","5","1","0","1","0","1","2","1","0","5","5","5","5","4","4","5","4","5","4","8","7","6","7","5","6","8","7","8","5","2","3","6","5","2","6","1","5","2","3","3","6","3","5","6","5","3","6","5","3","7","3","6","3","7","5","5","6","7","7","5","2","5","2","7","2","7","3","6","763807579603472386","刘","403","Male","[""坏他"",""好我"",""好他"",""坏我""]","[""弱他"",""强我"",""强他"",""弱我""]","","","","","","","","no","","","","","","","","","SRET","EW_formal","","key","f","6.944383275261326","768","428","自己","歹毒","Negative","morality","","","","","","","","","",""
"638","","j","psychophysics","97","271493","0.0-7.0-3.0-0.83","5","6","6","4","3","5","2","5","5","4","5","1","0","1","0","1","2","1","0","5","5","5","5","4","4","5","4","5","4","8","7","6","7","5","6","8","7","8","5","2","3","6","5","2","6","1","5","2","3","3","6","3","5","6","5","3","6","5","3","7","3","6","3","7","5","5","6","7","7","5","2","5","2","7","2","7","3","6","763807579603472386","刘","403","Male","[""坏他"",""好我"",""好他"",""坏我""]","[""弱他"",""强我"",""强他"",""弱我""]","","","","","","","","yes","","","","","","","","","SRET","EW_formal","","key","j","6.944502127659507","768","428","自己","犹豫","Negative","ability","","","","","","","","","",""
"709","","j","psychophysics","98","273203","0.0-7.0-3.0-0.84","5","6","6","4","3","5","2","5","5","4","5","1","0","1","0","1","2","1","0","5","5","5","5","4","4","5","4","5","4","8","7","6","7","5","6","8","7","8","5","2","3","6","5","2","6","1","5","2","3","3","6","3","5","6","5","3","6","5","3","7","3","6","3","7","5","5","6","7","7","5","2","5","2","7","2","7","3","6","763807579603472386","刘","403","Male","[""坏他"",""好我"",""好他"",""坏我""]","[""弱他"",""强我"",""强他"",""弱我""]","","","","","","","","yes","","","","","","","","","SRET","EW_formal","","key","j","6.944113821138361","768","428","朋友","素养","Positive","morality","","","","","","","","","",""
"836","","j","psychophysics","99","275043","0.0-7.0-3.0-0.85","5","6","6","4","3","5","2","5","5","4","5","1","0","1","0","1","2","1","0","5","5","5","5","4","4","5","4","5","4","8","7","6","7","5","6","8","7","8","5","2","3","6","5","2","6","1","5","2","3","3","6","3","5","6","5","3","6","5","3","7","3","6","3","7","5","5","6","7","7","5","2","5","2","7","2","7","3","6","763807579603472386","刘","403","Male","[""坏他"",""好我"",""好他"",""坏我""]","[""弱他"",""强我"",""强他"",""弱我""]","","","","","","","","yes","","","","","","","","","SRET","EW_formal","","key","j","6.944280303030224","768","428","自己","主见","Positive","ability","","","","","","","","","",""
"889","","j","psychophysics","100","276936","0.0-7.0-3.0-0.86","5","6","6","4","3","5","2","5","5","4","5","1","0","1","0","1","2","1","0","5","5","5","5","4","4","5","4","5","4","8","7","6","7","5","6","8","7","8","5","2","3","6","5","2","6","1","5","2","3","3","6","3","5","6","5","3","6","5","3","7","3","6","3","7","5","5","6","7","7","5","2","5","2","7","2","7","3","6","763807579603472386","刘","403","Male","[""坏他"",""好我"",""好他"",""坏我""]","[""弱他"",""强我"",""强他"",""弱我""]","","","","","","","","yes","","","","","","","","","SRET","EW_formal","","key","j","6.9440036900369435","768","428","朋友","低俗","Negative","morality","","","","","","","","","",""
"733","","j","psychophysics","101","278671","0.0-7.0-3.0-0.87","5","6","6","4","3","5","2","5","5","4","5","1","0","1","0","1","2","1","0","5","5","5","5","4","4","5","4","5","4","8","7","6","7","5","6","8","7","8","5","2","3","6","5","2","6","1","5","2","3","3","6","3","5","6","5","3","6","5","3","7","3","6","3","7","5","5","6","7","7","5","2","5","2","7","2","7","3","6","763807579603472386","刘","403","Male","[""坏他"",""好我"",""好他"",""坏我""]","[""弱他"",""强我"",""强他"",""弱我""]","","","","","","","","yes","","","","","","","","","SRET","EW_formal","","key","j","6.944200803212968","768","428","自己","缓慢","Negative","ability","","","","","","","","","",""
"2837","
    <p><div style='color:white;font-size:35px; line-height:20px;'>计算任务</div></p><br>
    <p><div style='color:red;font-size:25px; line-height:20px;'>接下来，您将看到一些四则运算题，<b>请从键盘选择 0-9 进行反应。</b></div></p>
    <p><div class='footer' style='color:white;font-size:25px; line-height:20px;'>如果对本实验还有不清楚之处，请立即向实验员咨询。</p><p style='color:white;font-size:25px; line-height:20px;'>如果您明白了规则：</p><p style='color:white;font-size:22px; line-height:20px;'>请按 继续 进入练习</p>
    </div>
    ","0","html-button-response","102","281508","0.0-7.0-4.0","5","6","6","4","3","5","2","5","5","4","5","1","0","1","0","1","2","1","0","5","5","5","5","4","4","5","4","5","4","8","7","6","7","5","6","8","7","8","5","2","3","6","5","2","6","1","5","2","3","3","6","3","5","6","5","3","6","5","3","7","3","6","3","7","5","5","6","7","7","5","2","5","2","7","2","7","3","6","763807579603472386","刘","403","Male","[""坏他"",""好我"",""好他"",""坏我""]","[""弱他"",""强我"",""强他"",""弱我""]","","","","","","","","","","","","","","","","","SRET_math","math_instructions","Fri Nov 03 2023 08:52:17 GMT+0800 (中国标准时间)","","","","","","","","","","","","","","","","","","",""
"3157","","8","psychophysics","103","284666","0.0-7.0-5.0-0.0","5","6","6","4","3","5","2","5","5","4","5","1","0","1","0","1","2","1","0","5","5","5","5","4","4","5","4","5","4","8","7","6","7","5","6","8","7","8","5","2","3","6","5","2","6","1","5","2","3","3","6","3","5","6","5","3","6","5","3","7","3","6","3","7","5","5","6","7","7","5","2","5","2","7","2","7","3","6","763807579603472386","刘","403","Male","[""坏他"",""好我"",""好他"",""坏我""]","[""弱他"",""强我"",""强他"",""弱我""]","","","","","","","","8","","","","","","","","","SRET","SRET_math_calculate","","key","8","6.944259911894312","768","428","","","","","2*4= ?","8","1","","","","","","",""
"2312","","0","psychophysics","104","286980","0.0-7.0-5.0-0.1","5","6","6","4","3","5","2","5","5","4","5","1","0","1","0","1","2","1","0","5","5","5","5","4","4","5","4","5","4","8","7","6","7","5","6","8","7","8","5","2","3","6","5","2","6","1","5","2","3","3","6","3","5","6","5","3","6","5","3","7","3","6","3","7","5","5","6","7","7","5","2","5","2","7","2","7","3","6","763807579603472386","刘","403","Male","[""坏他"",""好我"",""好他"",""坏我""]","[""弱他"",""强我"",""强他"",""弱我""]","","","","","","","","0","","","","","","","","","SRET","SRET_math_calculate","","key","0","6.944582582582676","768","428","","","","","1-1= ?","0","1","","","","","","",""
"1925","","9","psychophysics","105","288907","0.0-7.0-5.0-0.2","5","6","6","4","3","5","2","5","5","4","5","1","0","1","0","1","2","1","0","5","5","5","5","4","4","5","4","5","4","8","7","6","7","5","6","8","7","8","5","2","3","6","5","2","6","1","5","2","3","3","6","3","5","6","5","3","6","5","3","7","3","6","3","7","5","5","6","7","7","5","2","5","2","7","2","7","3","6","763807579603472386","刘","403","Male","[""坏他"",""好我"",""好他"",""坏我""]","[""弱他"",""强我"",""强他"",""弱我""]","","","","","","","","9","","","","","","","","","SRET","SRET_math_calculate","","key","9","6.944054347826118","768","428","","","","","7+2= ?","9","1","","","","","","",""
"1875","","5","psychophysics","106","290783","0.0-7.0-5.0-0.3","5","6","6","4","3","5","2","5","5","4","5","1","0","1","0","1","2","1","0","5","5","5","5","4","4","5","4","5","4","8","7","6","7","5","6","8","7","8","5","2","3","6","5","2","6","1","5","2","3","3","6","3","5","6","5","3","6","5","3","7","3","6","3","7","5","5","6","7","7","5","2","5","2","7","2","7","3","6","763807579603472386","刘","403","Male","[""坏他"",""好我"",""好他"",""坏我""]","[""弱他"",""强我"",""强他"",""弱我""]","","","","","","","","5","","","","","","","","","SRET","SRET_math_calculate","","key","5","6.944505576208341","768","428","","","","","10-5= ?","5","1","","","","","","",""
"2203","","7","psychophysics","107","292987","0.0-7.0-5.0-0.4","5","6","6","4","3","5","2","5","5","4","5","1","0","1","0","1","2","1","0","5","5","5","5","4","4","5","4","5","4","8","7","6","7","5","6","8","7","8","5","2","3","6","5","2","6","1","5","2","3","3","6","3","5","6","5","3","6","5","3","7","3","6","3","7","5","5","6","7","7","5","2","5","2","7","2","7","3","6","763807579603472386","刘","403","Male","[""坏他"",""好我"",""好他"",""坏我""]","[""弱他"",""强我"",""强他"",""弱我""]","","","","","","","","7","","","","","","","","","SRET","SRET_math_calculate","","key","7","6.944217665615081","768","428","","","","","13-5= ?","8","0","","","","","","",""
"1883","","2","psychophysics","108","294870","0.0-7.0-5.0-0.5","5","6","6","4","3","5","2","5","5","4","5","1","0","1","0","1","2","1","0","5","5","5","5","4","4","5","4","5","4","8","7","6","7","5","6","8","7","8","5","2","3","6","5","2","6","1","5","2","3","3","6","3","5","6","5","3","6","5","3","7","3","6","3","7","5","5","6","7","7","5","2","5","2","7","2","7","3","6","763807579603472386","刘","403","Male","[""坏他"",""好我"",""好他"",""坏我""]","[""弱他"",""强我"",""强他"",""弱我""]","","","","","","","","2","","","","","","","","","SRET","SRET_math_calculate","","key","2","6.944255555555638","768","428","","","","","8-6= ?","2","1","","","","","","",""
"1812","","6","psychophysics","109","296683","0.0-7.0-5.0-0.6","5","6","6","4","3","5","2","5","5","4","5","1","0","1","0","1","2","1","0","5","5","5","5","4","4","5","4","5","4","8","7","6","7","5","6","8","7","8","5","2","3","6","5","2","6","1","5","2","3","3","6","3","5","6","5","3","6","5","3","7","3","6","3","7","5","5","6","7","7","5","2","5","2","7","2","7","3","6","763807579603472386","刘","403","Male","[""坏他"",""好我"",""好他"",""坏我""]","[""弱他"",""强我"",""强他"",""弱我""]","","","","","","","","6","","","","","","","","","SRET","SRET_math_calculate","","key","6","6.944549999999939","768","428","","","","","3+3= ?","6","1","","","","","","",""
"1900","","7","psychophysics","110","298585","0.0-7.0-5.0-0.7","5","6","6","4","3","5","2","5","5","4","5","1","0","1","0","1","2","1","0","5","5","5","5","4","4","5","4","5","4","8","7","6","7","5","6","8","7","8","5","2","3","6","5","2","6","1","5","2","3","3","6","3","5","6","5","3","6","5","3","7","3","6","3","7","5","5","6","7","7","5","2","5","2","7","2","7","3","6","763807579603472386","刘","403","Male","[""坏他"",""好我"",""好他"",""坏我""]","[""弱他"",""强我"",""强他"",""弱我""]","","","","","","","","7","","","","","","","","","SRET","SRET_math_calculate","","key","7","6.9442710622711425","768","428","","","","","9-2= ?","7","1","","","","","","",""
"2159","","1","psychophysics","111","300745","0.0-7.0-5.0-0.8","5","6","6","4","3","5","2","5","5","4","5","1","0","1","0","1","2","1","0","5","5","5","5","4","4","5","4","5","4","8","7","6","7","5","6","8","7","8","5","2","3","6","5","2","6","1","5","2","3","3","6","3","5","6","5","3","6","5","3","7","3","6","3","7","5","5","6","7","7","5","2","5","2","7","2","7","3","6","763807579603472386","刘","403","Male","[""坏他"",""好我"",""好他"",""坏我""]","[""弱他"",""强我"",""强他"",""弱我""]","","","","","","","","1","","","","","","","","","SRET","SRET_math_calculate","","key","1","6.944177419354861","768","428","","","","","4/4= ?","1","1","","","","","","",""
"2141","","0","psychophysics","112","302886","0.0-7.0-5.0-0.9","5","6","6","4","3","5","2","5","5","4","5","1","0","1","0","1","2","1","0","5","5","5","5","4","4","5","4","5","4","8","7","6","7","5","6","8","7","8","5","2","3","6","5","2","6","1","5","2","3","3","6","3","5","6","5","3","6","5","3","7","3","6","3","7","5","5","6","7","7","5","2","5","2","7","2","7","3","6","763807579603472386","刘","403","Male","[""坏他"",""好我"",""好他"",""坏我""]","[""弱他"",""强我"",""强他"",""弱我""]","","","","","","","","0","","","","","","","","","SRET","SRET_math_calculate","","key","0","6.943954397394118","768","428","","","","","5*0= ?","0","1","","","","","","",""
"2426","","9","psychophysics","113","305313","0.0-7.0-5.0-0.10","5","6","6","4","3","5","2","5","5","4","5","1","0","1","0","1","2","1","0","5","5","5","5","4","4","5","4","5","4","8","7","6","7","5","6","8","7","8","5","2","3","6","5","2","6","1","5","2","3","3","6","3","5","6","5","3","6","5","3","7","3","6","3","7","5","5","6","7","7","5","2","5","2","7","2","7","3","6","763807579603472386","刘","403","Male","[""坏他"",""好我"",""好他"",""坏我""]","[""弱他"",""强我"",""强他"",""弱我""]","","","","","","","","9","","","","","","","","","SRET","SRET_math_calculate","","key","9","6.944618911174844","768","428","","","","","81/9= ?","9","1","","","","","","",""
"1888","","3","psychophysics","114","307202","0.0-7.0-5.0-0.11","5","6","6","4","3","5","2","5","5","4","5","1","0","1","0","1","2","1","0","5","5","5","5","4","4","5","4","5","4","8","7","6","7","5","6","8","7","8","5","2","3","6","5","2","6","1","5","2","3","3","6","3","5","6","5","3","6","5","3","7","3","6","3","7","5","5","6","7","7","5","2","5","2","7","2","7","3","6","763807579603472386","刘","403","Male","[""坏他"",""好我"",""好他"",""坏我""]","[""弱他"",""强我"",""强他"",""弱我""]","","","","","","","","3","","","","","","","","","SRET","SRET_math_calculate","","key","3","6.944051660516564","768","428","","","","","8-5= ?","3","1","","","","","","",""
"1840","","8","psychophysics","115","309042","0.0-7.0-5.0-0.12","5","6","6","4","3","5","2","5","5","4","5","1","0","1","0","1","2","1","0","5","5","5","5","4","4","5","4","5","4","8","7","6","7","5","6","8","7","8","5","2","3","6","5","2","6","1","5","2","3","3","6","3","5","6","5","3","6","5","3","7","3","6","3","7","5","5","6","7","7","5","2","5","2","7","2","7","3","6","763807579603472386","刘","403","Male","[""坏他"",""好我"",""好他"",""坏我""]","[""弱他"",""强我"",""强他"",""弱我""]","","","","","","","","8","","","","","","","","","SRET","SRET_math_calculate","","key","8","6.944568181818106","768","428","","","","","2+6= ?","8","1","","","","","","",""
"1890","","7","psychophysics","116","310933","0.0-7.0-5.0-0.13","5","6","6","4","3","5","2","5","5","4","5","1","0","1","0","1","2","1","0","5","5","5","5","4","4","5","4","5","4","8","7","6","7","5","6","8","7","8","5","2","3","6","5","2","6","1","5","2","3","3","6","3","5","6","5","3","6","5","3","7","3","6","3","7","5","5","6","7","7","5","2","5","2","7","2","7","3","6","763807579603472386","刘","403","Male","[""坏他"",""好我"",""好他"",""坏我""]","[""弱他"",""强我"",""强他"",""弱我""]","","","","","","","","7","","","","","","","","","SRET","SRET_math_calculate","","key","7","6.943988929889285","768","428","","","","","7*1=  ?","7","1","","","","","","",""
"1854","","6","psychophysics","117","312788","0.0-7.0-5.0-0.14","5","6","6","4","3","5","2","5","5","4","5","1","0","1","0","1","2","1","0","5","5","5","5","4","4","5","4","5","4","8","7","6","7","5","6","8","7","8","5","2","3","6","5","2","6","1","5","2","3","3","6","3","5","6","5","3","6","5","3","7","3","6","3","7","5","5","6","7","7","5","2","5","2","7","2","7","3","6","763807579603472386","刘","403","Male","[""坏他"",""好我"",""好他"",""坏我""]","[""弱他"",""强我"",""强他"",""弱我""]","","","","","","","","6","","","","","","","","","SRET","SRET_math_calculate","","key","6","6.944499999999867","768","428","","","","","2*3= ?","6","1","","","","","","",""
"1989","","7","psychophysics","118","314777","0.0-7.0-5.0-0.15","5","6","6","4","3","5","2","5","5","4","5","1","0","1","0","1","2","1","0","5","5","5","5","4","4","5","4","5","4","8","7","6","7","5","6","8","7","8","5","2","3","6","5","2","6","1","5","2","3","3","6","3","5","6","5","3","6","5","3","7","3","6","3","7","5","5","6","7","7","5","2","5","2","7","2","7","3","6","763807579603472386","刘","403","Male","[""坏他"",""好我"",""好他"",""坏我""]","[""弱他"",""强我"",""强他"",""弱我""]","","","","","","","","7","","","","","","","","","SRET","SRET_math_calculate","","key","7","6.944199300699394","768","428","","","","","3+4= ?","7","1","","","","","","",""
"2537","","3","psychophysics","119","317315","0.0-7.0-5.0-0.16","5","6","6","4","3","5","2","5","5","4","5","1","0","1","0","1","2","1","0","5","5","5","5","4","4","5","4","5","4","8","7","6","7","5","6","8","7","8","5","2","3","6","5","2","6","1","5","2","3","3","6","3","5","6","5","3","6","5","3","7","3","6","3","7","5","5","6","7","7","5","2","5","2","7","2","7","3","6","763807579603472386","刘","403","Male","[""坏他"",""好我"",""好他"",""坏我""]","[""弱他"",""强我"",""强他"",""弱我""]","","","","","","","","3","","","","","","","","","SRET","SRET_math_calculate","","key","3","6.944074175824285","768","428","","","","","21/7=  ?","3","1","","","","","","",""
"1823","","4","psychophysics","120","319139","0.0-7.0-5.0-0.17","5","6","6","4","3","5","2","5","5","4","5","1","0","1","0","1","2","1","0","5","5","5","5","4","4","5","4","5","4","8","7","6","7","5","6","8","7","8","5","2","3","6","5","2","6","1","5","2","3","3","6","3","5","6","5","3","6","5","3","7","3","6","3","7","5","5","6","7","7","5","2","5","2","7","2","7","3","6","763807579603472386","刘","403","Male","[""坏他"",""好我"",""好他"",""坏我""]","[""弱他"",""强我"",""强他"",""弱我""]","","","","","","","","4","","","","","","","","","SRET","SRET_math_calculate","","key","4","6.9444809160306376","768","428","","","","","2+2= ?","4","1","","","","","","",""
"1915","","9","psychophysics","121","321055","0.0-7.0-5.0-0.18","5","6","6","4","3","5","2","5","5","4","5","1","0","1","0","1","2","1","0","5","5","5","5","4","4","5","4","5","4","8","7","6","7","5","6","8","7","8","5","2","3","6","5","2","6","1","5","2","3","3","6","3","5","6","5","3","6","5","3","7","3","6","3","7","5","5","6","7","7","5","2","5","2","7","2","7","3","6","763807579603472386","刘","403","Male","[""坏他"",""好我"",""好他"",""坏我""]","[""弱他"",""强我"",""强他"",""弱我""]","","","","","","","","9","","","","","","","","","SRET","SRET_math_calculate","","key","9","6.944131386861244","768","428","","","","","6+3= ?","9","1","","","","","","",""
"1948","","2","psychophysics","122","323005","0.0-7.0-5.0-0.19","5","6","6","4","3","5","2","5","5","4","5","1","0","1","0","1","2","1","0","5","5","5","5","4","4","5","4","5","4","8","7","6","7","5","6","8","7","8","5","2","3","6","5","2","6","1","5","2","3","3","6","3","5","6","5","3","6","5","3","7","3","6","3","7","5","5","6","7","7","5","2","5","2","7","2","7","3","6","763807579603472386","刘","403","Male","[""坏他"",""好我"",""好他"",""坏我""]","[""弱他"",""强我"",""强他"",""弱我""]","","","","","","","","2","","","","","","","","","SRET","SRET_math_calculate","","key","2","6.944292857142864","768","428","","","","","5-3= ?","2","1","","","","","","",""
"1849","","1","psychophysics","123","324855","0.0-7.0-5.0-0.20","5","6","6","4","3","5","2","5","5","4","5","1","0","1","0","1","2","1","0","5","5","5","5","4","4","5","4","5","4","8","7","6","7","5","6","8","7","8","5","2","3","6","5","2","6","1","5","2","3","3","6","3","5","6","5","3","6","5","3","7","3","6","3","7","5","5","6","7","7","5","2","5","2","7","2","7","3","6","763807579603472386","刘","403","Male","[""坏他"",""好我"",""好他"",""坏我""]","[""弱他"",""强我"",""强他"",""弱我""]","","","","","","","","1","","","","","","","","","SRET","SRET_math_calculate","","key","1","6.94462030075199","768","428","","","","","10-9= ?","1","1","","","","","","",""
"1869","","8","psychophysics","124","326725","0.0-7.0-5.0-0.21","5","6","6","4","3","5","2","5","5","4","5","1","0","1","0","1","2","1","0","5","5","5","5","4","4","5","4","5","4","8","7","6","7","5","6","8","7","8","5","2","3","6","5","2","6","1","5","2","3","3","6","3","5","6","5","3","6","5","3","7","3","6","3","7","5","5","6","7","7","5","2","5","2","7","2","7","3","6","763807579603472386","刘","403","Male","[""坏他"",""好我"",""好他"",""坏我""]","[""弱他"",""强我"",""强他"",""弱我""]","","","","","","","","8","","","","","","","","","SRET","SRET_math_calculate","","key","8","6.944451492537358","768","428","","","","","1+7= ?","8","1","","","","","","",""
"1957","","3","psychophysics","125","328683","0.0-7.0-5.0-0.22","5","6","6","4","3","5","2","5","5","4","5","1","0","1","0","1","2","1","0","5","5","5","5","4","4","5","4","5","4","8","7","6","7","5","6","8","7","8","5","2","3","6","5","2","6","1","5","2","3","3","6","3","5","6","5","3","6","5","3","7","3","6","3","7","5","5","6","7","7","5","2","5","2","7","2","7","3","6","763807579603472386","刘","403","Male","[""坏他"",""好我"",""好他"",""坏我""]","[""弱他"",""强我"",""强他"",""弱我""]","","","","","","","","3","","","","","","","","","SRET","SRET_math_calculate","","key","3","6.943914590747505","768","428","","","","","3*1= ?","3","1","","","","","","",""
"1768","","8","psychophysics","126","330452","0.0-7.0-5.0-0.23","5","6","6","4","3","5","2","5","5","4","5","1","0","1","0","1","2","1","0","5","5","5","5","4","4","5","4","5","4","8","7","6","7","5","6","8","7","8","5","2","3","6","5","2","6","1","5","2","3","3","6","3","5","6","5","3","6","5","3","7","3","6","3","7","5","5","6","7","7","5","2","5","2","7","2","7","3","6","763807579603472386","刘","403","Male","[""坏他"",""好我"",""好他"",""坏我""]","[""弱他"",""强我"",""强他"",""弱我""]","","","","","","","","8","","","","","","","","","SRET","SRET_math_calculate","","key","8","6.944539370078742","768","428","","","","","7+1= ?","8","1","","","","","","",""
"1837","","6","psychophysics","127","332289","0.0-7.0-5.0-0.24","5","6","6","4","3","5","2","5","5","4","5","1","0","1","0","1","2","1","0","5","5","5","5","4","4","5","4","5","4","8","7","6","7","5","6","8","7","8","5","2","3","6","5","2","6","1","5","2","3","3","6","3","5","6","5","3","6","5","3","7","3","6","3","7","5","5","6","7","7","5","2","5","2","7","2","7","3","6","763807579603472386","刘","403","Male","[""坏他"",""好我"",""好他"",""坏我""]","[""弱他"",""强我"",""强他"",""弱我""]","","","","","","","","6","","","","","","","","","SRET","SRET_math_calculate","","key","6","6.944346007604388","768","428","","","","","2+4= ?","6","1","","","","","","",""
"2133","","5","psychophysics","128","334424","0.0-7.0-5.0-0.25","5","6","6","4","3","5","2","5","5","4","5","1","0","1","0","1","2","1","0","5","5","5","5","4","4","5","4","5","4","8","7","6","7","5","6","8","7","8","5","2","3","6","5","2","6","1","5","2","3","3","6","3","5","6","5","3","6","5","3","7","3","6","3","7","5","5","6","7","7","5","2","5","2","7","2","7","3","6","763807579603472386","刘","403","Male","[""坏他"",""好我"",""好他"",""坏我""]","[""弱他"",""强我"",""强他"",""弱我""]","","","","","","","","5","","","","","","","","","SRET","SRET_math_calculate","","key","5","6.944469055374561","768","428","","","","","17-12= ? ","5","1","","","","","","",""
"3391","","8","psychophysics","129","337816","0.0-7.0-5.0-0.26","5","6","6","4","3","5","2","5","5","4","5","1","0","1","0","1","2","1","0","5","5","5","5","4","4","5","4","5","4","8","7","6","7","5","6","8","7","8","5","2","3","6","5","2","6","1","5","2","3","3","6","3","5","6","5","3","6","5","3","7","3","6","3","7","5","5","6","7","7","5","2","5","2","7","2","7","3","6","763807579603472386","刘","403","Male","[""坏他"",""好我"",""好他"",""坏我""]","[""弱他"",""强我"",""强他"",""弱我""]","","","","","","","","8","","","","","","","","","SRET","SRET_math_calculate","","key","8","6.944238193018445","768","428","","","","","56/7= ?","8","1","","","","","","",""
"1838","","6","psychophysics","130","339651","0.0-7.0-5.0-0.27","5","6","6","4","3","5","2","5","5","4","5","1","0","1","0","1","2","1","0","5","5","5","5","4","4","5","4","5","4","8","7","6","7","5","6","8","7","8","5","2","3","6","5","2","6","1","5","2","3","3","6","3","5","6","5","3","6","5","3","7","3","6","3","7","5","5","6","7","7","5","2","5","2","7","2","7","3","6","763807579603472386","刘","403","Male","[""坏他"",""好我"",""好他"",""坏我""]","[""弱他"",""强我"",""强他"",""弱我""]","","","","","","","","6","","","","","","","","","SRET","SRET_math_calculate","","key","6","6.94424242424253","768","428","","","","","4+2= ?","6","1","","","","","","",""
"1872","","5","psychophysics","131","341525","0.0-7.0-5.0-0.28","5","6","6","4","3","5","2","5","5","4","5","1","0","1","0","1","2","1","0","5","5","5","5","4","4","5","4","5","4","8","7","6","7","5","6","8","7","8","5","2","3","6","5","2","6","1","5","2","3","3","6","3","5","6","5","3","6","5","3","7","3","6","3","7","5","5","6","7","7","5","2","5","2","7","2","7","3","6","763807579603472386","刘","403","Male","[""坏他"",""好我"",""好他"",""坏我""]","[""弱他"",""强我"",""强他"",""弱我""]","","","","","","","","5","","","","","","","","","SRET","SRET_math_calculate","","key","5","6.944126394052157","768","428","","","","","14-9= ?","5","1","","","","","","",""
"1868","","1","psychophysics","132","343394","0.0-7.0-5.0-0.29","5","6","6","4","3","5","2","5","5","4","5","1","0","1","0","1","2","1","0","5","5","5","5","4","4","5","4","5","4","8","7","6","7","5","6","8","7","8","5","2","3","6","5","2","6","1","5","2","3","3","6","3","5","6","5","3","6","5","3","7","3","6","3","7","5","5","6","7","7","5","2","5","2","7","2","7","3","6","763807579603472386","刘","403","Male","[""坏他"",""好我"",""好他"",""坏我""]","[""弱他"",""强我"",""强他"",""弱我""]","","","","","","","","1","","","","","","","","","SRET","SRET_math_calculate","","key","1","6.944059701492652","768","428","","","","","12/12= ?","1","1","","","","","","",""
"1874","","7","psychophysics","133","345269","0.0-7.0-5.0-0.30","5","6","6","4","3","5","2","5","5","4","5","1","0","1","0","1","2","1","0","5","5","5","5","4","4","5","4","5","4","8","7","6","7","5","6","8","7","8","5","2","3","6","5","2","6","1","5","2","3","3","6","3","5","6","5","3","6","5","3","7","3","6","3","7","5","5","6","7","7","5","2","5","2","7","2","7","3","6","763807579603472386","刘","403","Male","[""坏他"",""好我"",""好他"",""坏我""]","[""弱他"",""强我"",""强他"",""弱我""]","","","","","","","","7","","","","","","","","","SRET","SRET_math_calculate","","key","7","6.944423791821518","768","428","","","","","1+6= ?","7","1","","","","","","",""
"1812","","3","psychophysics","134","347081","0.0-7.0-5.0-0.31","5","6","6","4","3","5","2","5","5","4","5","1","0","1","0","1","2","1","0","5","5","5","5","4","4","5","4","5","4","8","7","6","7","5","6","8","7","8","5","2","3","6","5","2","6","1","5","2","3","3","6","3","5","6","5","3","6","5","3","7","3","6","3","7","5","5","6","7","7","5","2","5","2","7","2","7","3","6","763807579603472386","刘","403","Male","[""坏他"",""好我"",""好他"",""坏我""]","[""弱他"",""强我"",""强他"",""弱我""]","","","","","","","","3","","","","","","","","","SRET","SRET_math_calculate","","key","3","6.944407692307812","768","428","","","","","1+2= ?","3","1","","","","","","",""
"1845","","9","psychophysics","135","348927","0.0-7.0-5.0-0.32","5","6","6","4","3","5","2","5","5","4","5","1","0","1","0","1","2","1","0","5","5","5","5","4","4","5","4","5","4","8","7","6","7","5","6","8","7","8","5","2","3","6","5","2","6","1","5","2","3","3","6","3","5","6","5","3","6","5","3","7","3","6","3","7","5","5","6","7","7","5","2","5","2","7","2","7","3","6","763807579603472386","刘","403","Male","[""坏他"",""好我"",""好他"",""坏我""]","[""弱他"",""强我"",""强他"",""弱我""]","","","","","","","","9","","","","","","","","","SRET","SRET_math_calculate","","key","9","6.9445207547170185","768","428","","","","","4+5= ?","9","1","","","","","","",""
"1909","","0","psychophysics","136","350837","0.0-7.0-5.0-0.33","5","6","6","4","3","5","2","5","5","4","5","1","0","1","0","1","2","1","0","5","5","5","5","4","4","5","4","5","4","8","7","6","7","5","6","8","7","8","5","2","3","6","5","2","6","1","5","2","3","3","6","3","5","6","5","3","6","5","3","7","3","6","3","7","5","5","6","7","7","5","2","5","2","7","2","7","3","6","763807579603472386","刘","403","Male","[""坏他"",""好我"",""好他"",""坏我""]","[""弱他"",""强我"",""强他"",""弱我""]","","","","","","","","0","","","","","","","","","SRET","SRET_math_calculate","","key","0","6.944164233576646","768","428","","","","","6*0= ?","0","1","","","","","","",""
"1801","","9","psychophysics","137","352639","0.0-7.0-5.0-0.34","5","6","6","4","3","5","2","5","5","4","5","1","0","1","0","1","2","1","0","5","5","5","5","4","4","5","4","5","4","8","7","6","7","5","6","8","7","8","5","2","3","6","5","2","6","1","5","2","3","3","6","3","5","6","5","3","6","5","3","7","3","6","3","7","5","5","6","7","7","5","2","5","2","7","2","7","3","6","763807579603472386","刘","403","Male","[""坏他"",""好我"",""好他"",""坏我""]","[""弱他"",""强我"",""强他"",""弱我""]","","","","","","","","9","","","","","","","","","SRET","SRET_math_calculate","","key","9","6.943763565891396","768","428","","","","","5+4= ?","9","1","","","","","","",""
"1840","","2","psychophysics","138","354479","0.0-7.0-5.0-0.35","5","6","6","4","3","5","2","5","5","4","5","1","0","1","0","1","2","1","0","5","5","5","5","4","4","5","4","5","4","8","7","6","7","5","6","8","7","8","5","2","3","6","5","2","6","1","5","2","3","3","6","3","5","6","5","3","6","5","3","7","3","6","3","7","5","5","6","7","7","5","2","5","2","7","2","7","3","6","763807579603472386","刘","403","Male","[""坏他"",""好我"",""好他"",""坏我""]","[""弱他"",""强我"",""强他"",""弱我""]","","","","","","","","2","","","","","","","","","SRET","SRET_math_calculate","","key","2","6.944647727272902","768","428","","","","","19-17= ?","2","1","","","","","","",""
"1783","","9","psychophysics","139","356263","0.0-7.0-5.0-0.36","5","6","6","4","3","5","2","5","5","4","5","1","0","1","0","1","2","1","0","5","5","5","5","4","4","5","4","5","4","8","7","6","7","5","6","8","7","8","5","2","3","6","5","2","6","1","5","2","3","3","6","3","5","6","5","3","6","5","3","7","3","6","3","7","5","5","6","7","7","5","2","5","2","7","2","7","3","6","763807579603472386","刘","403","Male","[""坏他"",""好我"",""好他"",""坏我""]","[""弱他"",""强我"",""强他"",""弱我""]","","","","","","","","9","","","","","","","","","SRET","SRET_math_calculate","","key","9","6.944269531249802","768","428","","","","","1+8= ?","9","1","","","","","","",""
"1882","","8","psychophysics","140","358146","0.0-7.0-5.0-0.37","5","6","6","4","3","5","2","5","5","4","5","1","0","1","0","1","2","1","0","5","5","5","5","4","4","5","4","5","4","8","7","6","7","5","6","8","7","8","5","2","3","6","5","2","6","1","5","2","3","3","6","3","5","6","5","3","6","5","3","7","3","6","3","7","5","5","6","7","7","5","2","5","2","7","2","7","3","6","763807579603472386","刘","403","Male","[""坏他"",""好我"",""好他"",""坏我""]","[""弱他"",""强我"",""强他"",""弱我""]","","","","","","","","8","","","","","","","","","SRET","SRET_math_calculate","","key","8","6.944507407407595","768","428","","","","","3+5= ?","8","1","","","","","","",""
"1773","","6","psychophysics","141","359920","0.0-7.0-5.0-0.38","5","6","6","4","3","5","2","5","5","4","5","1","0","1","0","1","2","1","0","5","5","5","5","4","4","5","4","5","4","8","7","6","7","5","6","8","7","8","5","2","3","6","5","2","6","1","5","2","3","3","6","3","5","6","5","3","6","5","3","7","3","6","3","7","5","5","6","7","7","5","2","5","2","7","2","7","3","6","763807579603472386","刘","403","Male","[""坏他"",""好我"",""好他"",""坏我""]","[""弱他"",""强我"",""强他"",""弱我""]","","","","","","","","6","","","","","","","","","SRET","SRET_math_calculate","","key","6","6.944478431372565","768","428","","","","","5+1= ?","6","1","","","","","","",""
"2254","","2","psychophysics","142","362175","0.0-7.0-5.0-0.39","5","6","6","4","3","5","2","5","5","4","5","1","0","1","0","1","2","1","0","5","5","5","5","4","4","5","4","5","4","8","7","6","7","5","6","8","7","8","5","2","3","6","5","2","6","1","5","2","3","3","6","3","5","6","5","3","6","5","3","7","3","6","3","7","5","5","6","7","7","5","2","5","2","7","2","7","3","6","763807579603472386","刘","403","Male","[""坏他"",""好我"",""好他"",""坏我""]","[""弱他"",""强我"",""强他"",""弱我""]","","","","","","","","2","","","","","","","","","SRET","SRET_math_calculate","","key","2","6.9443869969040595","768","428","","","","","18/9= ?","2","1","","","","","","",""
"1893","","5","psychophysics","143","364070","0.0-7.0-5.0-0.40","5","6","6","4","3","5","2","5","5","4","5","1","0","1","0","1","2","1","0","5","5","5","5","4","4","5","4","5","4","8","7","6","7","5","6","8","7","8","5","2","3","6","5","2","6","1","5","2","3","3","6","3","5","6","5","3","6","5","3","7","3","6","3","7","5","5","6","7","7","5","2","5","2","7","2","7","3","6","763807579603472386","刘","403","Male","[""坏他"",""好我"",""好他"",""坏我""]","[""弱他"",""强我"",""强他"",""弱我""]","","","","","","","","5","","","","","","","","","SRET","SRET_math_calculate","","key","5","6.9441580882352465","768","428","","","","","16-11= ?","5","1","","","","","","",""
"1985","","4","psychophysics","144","366056","0.0-7.0-5.0-0.41","5","6","6","4","3","5","2","5","5","4","5","1","0","1","0","1","2","1","0","5","5","5","5","4","4","5","4","5","4","8","7","6","7","5","6","8","7","8","5","2","3","6","5","2","6","1","5","2","3","3","6","3","5","6","5","3","6","5","3","7","3","6","3","7","5","5","6","7","7","5","2","5","2","7","2","7","3","6","763807579603472386","刘","403","Male","[""坏他"",""好我"",""好他"",""坏我""]","[""弱他"",""强我"",""强他"",""弱我""]","","","","","","","","4","","","","","","","","","SRET","SRET_math_calculate","","key","4","6.944382456140266","768","428","","","","","4*1= ?","4","1","","","","","","",""
