"rt","stimulus","response","trial_type","trial_index","time_elapsed","internal_node_id","swb_1","swb_2","swb_3","swb_4","swb_5","LOT_1","LOT_2","LOT_3","LOT_4","LOT_5","LOT_6","IPC_1","IPC_2","IPC_3","IPC_4","IPC_5","IPC_6","IPC_7","IPC_8","MorIden_1","MorIden_2","MorIden_3","MorIden_4","MorIden_5","MorIden_6","MorIden_7","MorIden_8","MorIden_9","MorIden_10","moralSeImag_1","moralSeImag_2","moralSeImag_3","moralSeImag_4","moralSeImag_5","moralSeImag_6","moralSeImag_7","moralSeImag_8","moralSeImag_9","sde_1","sde_2","sde_3","sde_4","sde_5","sde_6","sde_7","sde_8","sde_9","sde_10","sde_11","sde_12","sde_13","sde_14","sde_15","sde_16","sde_17","sde_18","sde_19","sde_20","IM_1","IM_2","IM_3","IM_4","IM_5","IM_6","IM_7","IM_8","IM_9","IM_10","IM_11","IM_12","IM_13","IM_14","IM_15","IM_16","IM_17","IM_18","IM_19","IM_20","subj_idx","friend_name","ParticipantID","Sex","Word","Word2","value","success","timeout","failed_images","failed_audio","failed_video","user_agent","responses","item_order","radio_event_ids","radio_event_times","key_event_times","mouse_event_times","straightlining","zigzagging","honeypot","view_history","response_type","key_press","avg_frame_time","center_x","center_y","correct_response","correct","identity","Image","word","condition","task_id","screen_id","time_stamp","person","valence","domain","math","status","duration","question_order"
"27277","
   <p><div style='color:white; font-size: 25px'>您好，欢迎参加本次实验。</div></p>
   <p><div style='color:white; font-size: 25px'>为充分保障您的权利，请确保您已经知晓并同意《参与实验同意书》以及《数据公开知情同意书》。</div></p>
   <p><div style='color:white; font-size: 25px'>如果您未见过上述内容，请咨询实验员。</div></p>
   <p style='color:white; font-size: 25px'>如果您选择继续实验，则表示您已经清楚两份知情同意书的内容并同意。</p>
   <p><div style = ""color: red;font-size:30px;"">请确保您记得day0的实验编号，您将在本次实验输入该编号，若您忘记，请咨询实验员后作答。</div></p>
   <p> <div style = ""color: green""><按空格键至下页></div> </p>
   "," ","html-keyboard-response","0","27280","0.0-0.0","3","2","3","3","1","4","4","3","5","5","5","1","-1","0","2","0","-1","0","1","5","4","5","4","4","3","3","4","4","4","4","5","4","7","4","8","4","7","8","4","5","5","6","4","5","3","7","5","5","5","4","3","3","4","4","4","6","2","6","3","3","4","3","3","5","6","4","7","7","7","2","6","6","5","7","7","7","1","6","724701248414023680","王","584","Female","[""坏我"",""好她"",""好我"",""坏她""]","[""弱我"",""强她"",""强我"",""弱她""]","","","","","","","","","","","","","","","","","","","","","","","","","","","","","","","","","","","","","",""
"","","","call-function","1","27282","0.0-1.0-0.0","3","2","3","3","1","4","4","3","5","5","5","1","-1","0","2","0","-1","0","1","5","4","5","4","4","3","3","4","4","4","4","5","4","7","4","8","4","7","8","4","5","5","6","4","5","3","7","5","5","5","4","3","3","4","4","4","6","2","6","3","3","4","3","3","5","6","4","7","7","7","2","6","6","5","7","7","7","1","6","724701248414023680","王","584","Female","[""坏我"",""好她"",""好我"",""坏她""]","[""弱我"",""强她"",""强我"",""弱她""]","","","","","","","","","","","","","","","","","","","","","","","","","","","","","","","","","","","","","",""
"27130","","[{""name"":""Sex"",""value"":""1""},{""name"":""friend_name"",""value"":""王""},{""name"":""ParticipantID"",""value"":""584""}]","survey-html-form","2","54415","0.0-1.0-1.0","3","2","3","3","1","4","4","3","5","5","5","1","-1","0","2","0","-1","0","1","5","4","5","4","4","3","3","4","4","4","4","5","4","7","4","8","4","7","8","4","5","5","6","4","5","3","7","5","5","5","4","3","3","4","4","4","6","2","6","3","3","4","3","3","5","6","4","7","7","7","2","6","6","5","7","7","7","1","6","724701248414023680","王","584","Female","[""坏我"",""好她"",""好我"",""坏她""]","[""弱我"",""强她"",""强我"",""弱她""]","","","","","","","","","","","","","","","","","","","","","","","","","","","","","","","","","","","","","",""
"","","","preload","3","55686","0.0-2.0","3","2","3","3","1","4","4","3","5","5","5","1","-1","0","2","0","-1","0","1","5","4","5","4","4","3","3","4","4","4","4","5","4","7","4","8","4","7","8","4","5","5","6","4","5","3","7","5","5","5","4","3","3","4","4","4","6","2","6","3","3","4","3","3","5","6","4","7","7","7","2","6","6","5","7","7","7","1","6","724701248414023680","王","584","Female","[""坏我"",""好她"",""好我"",""坏她""]","[""弱我"",""强她"",""强我"",""弱她""]","","true","false","[]","[]","[]","","","","","","","","","","","","","","","","","","","","","","","","","","","","","","","",""
"","","","fullscreen","4","68346","0.0-3.0","3","2","3","3","1","4","4","3","5","5","5","1","-1","0","2","0","-1","0","1","5","4","5","4","4","3","3","4","4","4","4","5","4","7","4","8","4","7","8","4","5","5","6","4","5","3","7","5","5","5","4","3","3","4","4","4","6","2","6","3","3","4","3","3","5","6","4","7","7","7","2","6","6","5","7","7","7","1","6","724701248414023680","王","584","Female","[""坏我"",""好她"",""好我"",""坏她""]","[""弱我"",""强她"",""强我"",""弱她""]","","true","","","","","{}","","","","","","","","","","","","","","","","","","","","","","","","","","","","","","",""
"55520.39999999851","","{""Q01"":""3"",""Q02"":""2"",""Q03"":""3"",""Q04"":""3"",""Q05"":""1""}","survey-template","5","123871","0.0-4.0","3","2","3","3","1","4","4","3","5","5","5","1","-1","0","2","0","-1","0","1","5","4","5","4","4","3","3","4","4","4","4","5","4","7","4","8","4","7","8","4","5","5","6","4","5","3","7","5","5","5","4","3","3","4","4","4","6","2","6","3","3","4","3","3","5","6","4","7","7","7","2","6","6","5","7","7","7","1","6","724701248414023680","王","584","Female","[""坏我"",""好她"",""好我"",""坏她""]","[""弱我"",""强她"",""强我"",""弱她""]","","","","","","","","{""Q01"":""3"",""Q02"":""2"",""Q03"":""3"",""Q04"":""3"",""Q05"":""1""}","[0,1,2,3,4]","[""Q01"",""Q02"",""Q01"",""Q02"",""Q02"",""Q03"",""Q04"",""Q05""]","[4314.89999999851,10240.29999999702,18613.69999999553,23393.69999999553,27094.39999999851,34953,48003.10000000149,54455]","[]","[4314.89999999851,10240.29999999702,18613.69999999553,22735.60000000149,23393.69999999553,27094.39999999851,34953,48003.10000000149,53072.79999999702,54455,55518.79999999702]","0.6","0.5","0","","","","","","","","","","","","","","","","","","","","","",""
"28985","","{""Q01"":""4"",""Q02"":""4"",""Q03"":""3"",""Q04"":""5"",""Q05"":""5"",""Q06"":""5""}","survey-template","6","152863","0.0-5.0","3","2","3","3","1","4","4","3","5","5","5","1","-1","0","2","0","-1","0","1","5","4","5","4","4","3","3","4","4","4","4","5","4","7","4","8","4","7","8","4","5","5","6","4","5","3","7","5","5","5","4","3","3","4","4","4","6","2","6","3","3","4","3","3","5","6","4","7","7","7","2","6","6","5","7","7","7","1","6","724701248414023680","王","584","Female","[""坏我"",""好她"",""好我"",""坏她""]","[""弱我"",""强她"",""强我"",""弱她""]","","","","","","","","{""Q01"":""4"",""Q02"":""4"",""Q03"":""3"",""Q04"":""5"",""Q05"":""5"",""Q06"":""5""}","[0,1,2,3,4,5]","[""Q01"",""Q02"",""Q03"",""Q04"",""Q05"",""Q06""]","[5220.39999999851,13202.60000000149,15610.19999999553,21845.10000000149,23887.29999999702,28240.10000000149]","[]","[4671.39999999851,5220.39999999851,13202.60000000149,15610.19999999553,21845.10000000149,23887.29999999702,28240.10000000149,28983.89999999851]","0.3333333333333333","0.4","0","","","","","","","","","","","","","","","","","","","","","",""
"40851.89999999851","","{""Q01"":""1"",""Q02"":""-1"",""Q03"":""0"",""Q04"":""2"",""Q05"":""0"",""Q06"":""-1"",""Q07"":""0"",""Q08"":""1""}","survey-template","7","193723","0.0-6.0","3","2","3","3","1","4","4","3","5","5","5","1","-1","0","2","0","-1","0","1","5","4","5","4","4","3","3","4","4","4","4","5","4","7","4","8","4","7","8","4","5","5","6","4","5","3","7","5","5","5","4","3","3","4","4","4","6","2","6","3","3","4","3","3","5","6","4","7","7","7","2","6","6","5","7","7","7","1","6","724701248414023680","王","584","Female","[""坏我"",""好她"",""好我"",""坏她""]","[""弱我"",""强她"",""强我"",""弱她""]","","","","","","","","{""Q01"":""1"",""Q02"":""-1"",""Q03"":""0"",""Q04"":""2"",""Q05"":""0"",""Q06"":""-1"",""Q07"":""0"",""Q08"":""1""}","[0,1,2,3,4,5,6,7]","[""Q01"",""Q02"",""Q02"",""Q03"",""Q04"",""Q05"",""Q06"",""Q07"",""Q08""]","[7461,12762.89999999851,13774,18387.79999999702,23452.70000000298,27734.79999999702,29479.79999999702,37284.39999999851,39972.5]","[]","[7461,12762.89999999851,13774,18387.79999999702,23452.70000000298,27734.79999999702,29479.79999999702,37284.39999999851,39972.5,40850.29999999702]","0.375","0.5714285714285714","0","","","","","","","","","","","","","","","","","","","","","",""
"32325","","","instructions","8","226054","0.0-7.0","3","2","3","3","1","4","4","3","5","5","5","1","-1","0","2","0","-1","0","1","5","4","5","4","4","3","3","4","4","4","4","5","4","7","4","8","4","7","8","4","5","5","6","4","5","3","7","5","5","5","4","3","3","4","4","4","6","2","6","3","3","4","3","3","5","6","4","7","7","7","2","6","6","5","7","7","7","1","6","724701248414023680","王","584","Female","[""坏我"",""好她"",""好我"",""坏她""]","[""弱我"",""强她"",""强我"",""弱她""]","","","","","","","","","","","","","","","","","[{""page_index"":0,""viewing_time"":32324}]","","","","","","","","","","","","","","","","","","","","",""
"411854","","","instructions","9","637916","0.0-8.0-0.0-0.0","3","2","3","3","1","4","4","3","5","5","5","1","-1","0","2","0","-1","0","1","5","4","5","4","4","3","3","4","4","4","4","5","4","7","4","8","4","7","8","4","5","5","6","4","5","3","7","5","5","5","4","3","3","4","4","4","6","2","6","3","3","4","3","3","5","6","4","7","7","7","2","6","6","5","7","7","7","1","6","724701248414023680","王","584","Female","[""坏我"",""好她"",""好我"",""坏她""]","[""弱我"",""强她"",""强我"",""弱她""]","","","","","","","","","","","","","","","","","[{""page_index"":0,""viewing_time"":13363},{""page_index"":1,""viewing_time"":393203},{""page_index"":2,""viewing_time"":3540},{""page_index"":3,""viewing_time"":1747}]","","","","","","","","","","","","","","","","","","","","",""
"null","","null","psychophysics","10","640177","0.0-8.0-0.0-1.0-0.0-0.0","3","2","3","3","1","4","4","3","5","5","5","1","-1","0","2","0","-1","0","1","5","4","5","4","4","3","3","4","4","4","4","5","4","7","4","8","4","7","8","4","5","5","6","4","5","3","7","5","5","5","4","3","3","4","4","4","6","2","6","3","3","4","3","3","5","6","4","7","7","7","2","6","6","5","7","7","7","1","6","724701248414023680","王","584","Female","[""坏我"",""好她"",""好我"",""坏她""]","[""弱我"",""强她"",""强我"",""弱她""]","","","","","","","","null","","","","","","","","","","key","null","24.462955555555205","775.757530919998","432.42421743079575","j","false","nonmatch","img/circle.png","坏我","坏她","prac_ALT2_moral","practice_moral","","","","","","","",""
"null","<span class='add_' style='color:yellow; font-size: 70px;'> 太慢! </span>","null","html-keyboard-response","11","640683","0.0-8.0-0.0-1.0-0.0-1.0","3","2","3","3","1","4","4","3","5","5","5","1","-1","0","2","0","-1","0","1","5","4","5","4","4","3","3","4","4","4","4","5","4","7","4","8","4","7","8","4","5","5","6","4","5","3","7","5","5","5","4","3","3","4","4","4","6","2","6","3","3","4","3","3","5","6","4","7","7","7","2","6","6","5","7","7","7","1","6","724701248414023680","王","584","Female","[""坏我"",""好她"",""好我"",""坏她""]","[""弱我"",""强她"",""强我"",""弱她""]","","","","","","","","","","","","","","","","","","","","","","","","","","","","","","feedback_test","","","","","","","",""
"1206","","f","psychophysics","12","642909","0.0-8.0-0.0-1.0-0.0-0.1","3","2","3","3","1","4","4","3","5","5","5","1","-1","0","2","0","-1","0","1","5","4","5","4","4","3","3","4","4","4","4","5","4","7","4","8","4","7","8","4","5","5","6","4","5","3","7","5","5","5","4","3","3","4","4","4","6","2","6","3","3","4","3","3","5","6","4","7","7","7","2","6","6","5","7","7","7","1","6","724701248414023680","王","584","Female","[""坏我"",""好她"",""好我"",""坏她""]","[""弱我"",""强她"",""强我"",""弱她""]","","","","","","","","match","","","","","","","","","","key","f","24.092533333334398","775.757530919998","432.42421743079575","f","true","match","img/circle.png","坏她","坏她","prac_ALT2_moral","practice_moral","","","","","","","",""
"null","<span class='add_' style='color:yellow; font-size: 70px;'> 太慢! </span>","null","html-keyboard-response","13","643411","0.0-8.0-0.0-1.0-0.0-1.1","3","2","3","3","1","4","4","3","5","5","5","1","-1","0","2","0","-1","0","1","5","4","5","4","4","3","3","4","4","4","4","5","4","7","4","8","4","7","8","4","5","5","6","4","5","3","7","5","5","5","4","3","3","4","4","4","6","2","6","3","3","4","3","3","5","6","4","7","7","7","2","6","6","5","7","7","7","1","6","724701248414023680","王","584","Female","[""坏我"",""好她"",""好我"",""坏她""]","[""弱我"",""强她"",""强我"",""弱她""]","","","","","","","","","","","","","","","","","","","","","","","","","","","","","","feedback_test","","","","","","","",""
"897","","f","psychophysics","14","645351","0.0-8.0-0.0-1.0-0.0-0.2","3","2","3","3","1","4","4","3","5","5","5","1","-1","0","2","0","-1","0","1","5","4","5","4","4","3","3","4","4","4","4","5","4","7","4","8","4","7","8","4","5","5","6","4","5","3","7","5","5","5","4","3","3","4","4","4","6","2","6","3","3","4","3","3","5","6","4","7","7","7","2","6","6","5","7","7","7","1","6","724701248414023680","王","584","Female","[""坏我"",""好她"",""好我"",""坏她""]","[""弱我"",""强她"",""强我"",""弱她""]","","","","","","","","match","","","","","","","","","","key","f","24.3759871794878","775.757530919998","432.42421743079575","f","true","match","img/trapezoid.png","好我","好我","prac_ALT2_moral","practice_moral","","","","","","","",""
"null","<span style='color:GreenYellow; font-size: 70px;'>正确! </span>","null","html-keyboard-response","15","645859","0.0-8.0-0.0-1.0-0.0-1.2","3","2","3","3","1","4","4","3","5","5","5","1","-1","0","2","0","-1","0","1","5","4","5","4","4","3","3","4","4","4","4","5","4","7","4","8","4","7","8","4","5","5","6","4","5","3","7","5","5","5","4","3","3","4","4","4","6","2","6","3","3","4","3","3","5","6","4","7","7","7","2","6","6","5","7","7","7","1","6","724701248414023680","王","584","Female","[""坏我"",""好她"",""好我"",""坏她""]","[""弱我"",""强她"",""强我"",""弱她""]","","","","","","","","","","","","","","","","","","","","","","","","","","","","","","feedback_test","","","","","","","",""
"890","","j","psychophysics","16","647790","0.0-8.0-0.0-1.0-0.0-0.3","3","2","3","3","1","4","4","3","5","5","5","1","-1","0","2","0","-1","0","1","5","4","5","4","4","3","3","4","4","4","4","5","4","7","4","8","4","7","8","4","5","5","6","4","5","3","7","5","5","5","4","3","3","4","4","4","6","2","6","3","3","4","3","3","5","6","4","7","7","7","2","6","6","5","7","7","7","1","6","724701248414023680","王","584","Female","[""坏我"",""好她"",""好我"",""坏她""]","[""弱我"",""强她"",""强我"",""弱她""]","","","","","","","","nonmatch","","","","","","","","","","key","j","24.17310256410229","775.757530919998","432.42421743079575","j","true","nonmatch","img/triangle.png","好我","好她","prac_ALT2_moral","practice_moral","","","","","","","",""
"null","<span style='color:GreenYellow; font-size: 70px;'>正确! </span>","null","html-keyboard-response","17","648299","0.0-8.0-0.0-1.0-0.0-1.3","3","2","3","3","1","4","4","3","5","5","5","1","-1","0","2","0","-1","0","1","5","4","5","4","4","3","3","4","4","4","4","5","4","7","4","8","4","7","8","4","5","5","6","4","5","3","7","5","5","5","4","3","3","4","4","4","6","2","6","3","3","4","3","3","5","6","4","7","7","7","2","6","6","5","7","7","7","1","6","724701248414023680","王","584","Female","[""坏我"",""好她"",""好我"",""坏她""]","[""弱我"",""强她"",""强我"",""弱她""]","","","","","","","","","","","","","","","","","","","","","","","","","","","","","","feedback_test","","","","","","","",""
"968","","j","psychophysics","18","650310","0.0-8.0-0.0-1.0-0.0-0.4","3","2","3","3","1","4","4","3","5","5","5","1","-1","0","2","0","-1","0","1","5","4","5","4","4","3","3","4","4","4","4","5","4","7","4","8","4","7","8","4","5","5","6","4","5","3","7","5","5","5","4","3","3","4","4","4","6","2","6","3","3","4","3","3","5","6","4","7","7","7","2","6","6","5","7","7","7","1","6","724701248414023680","王","584","Female","[""坏我"",""好她"",""好我"",""坏她""]","[""弱我"",""强她"",""强我"",""弱她""]","","","","","","","","nonmatch","","","","","","","","","","key","j","24.29601234567846","775.757530919998","432.42421743079575","j","true","nonmatch","img/pentagon.png","坏她","坏我","prac_ALT2_moral","practice_moral","","","","","","","",""
"null","<span style='color:GreenYellow; font-size: 70px;'>正确! </span>","null","html-keyboard-response","19","650819","0.0-8.0-0.0-1.0-0.0-1.4","3","2","3","3","1","4","4","3","5","5","5","1","-1","0","2","0","-1","0","1","5","4","5","4","4","3","3","4","4","4","4","5","4","7","4","8","4","7","8","4","5","5","6","4","5","3","7","5","5","5","4","3","3","4","4","4","6","2","6","3","3","4","3","3","5","6","4","7","7","7","2","6","6","5","7","7","7","1","6","724701248414023680","王","584","Female","[""坏我"",""好她"",""好我"",""坏她""]","[""弱我"",""强她"",""强我"",""弱她""]","","","","","","","","","","","","","","","","","","","","","","","","","","","","","","feedback_test","","","","","","","",""
"1116","","f","psychophysics","20","652960","0.0-8.0-0.0-1.0-0.0-0.5","3","2","3","3","1","4","4","3","5","5","5","1","-1","0","2","0","-1","0","1","5","4","5","4","4","3","3","4","4","4","4","5","4","7","4","8","4","7","8","4","5","5","6","4","5","3","7","5","5","5","4","3","3","4","4","4","6","2","6","3","3","4","3","3","5","6","4","7","7","7","2","6","6","5","7","7","7","1","6","724701248414023680","王","584","Female","[""坏我"",""好她"",""好我"",""坏她""]","[""弱我"",""强她"",""强我"",""弱她""]","","","","","","","","match","","","","","","","","","","key","f","24.43712790697667","775.757530919998","432.42421743079575","f","true","match","img/circle.png","坏她","坏她","prac_ALT2_moral","practice_moral","","","","","","","",""
"null","<span style='color:GreenYellow; font-size: 70px;'>正确! </span>","null","html-keyboard-response","21","653467","0.0-8.0-0.0-1.0-0.0-1.5","3","2","3","3","1","4","4","3","5","5","5","1","-1","0","2","0","-1","0","1","5","4","5","4","4","3","3","4","4","4","4","5","4","7","4","8","4","7","8","4","5","5","6","4","5","3","7","5","5","5","4","3","3","4","4","4","6","2","6","3","3","4","3","3","5","6","4","7","7","7","2","6","6","5","7","7","7","1","6","724701248414023680","王","584","Female","[""坏我"",""好她"",""好我"",""坏她""]","[""弱我"",""强她"",""强我"",""弱她""]","","","","","","","","","","","","","","","","","","","","","","","","","","","","","","feedback_test","","","","","","","",""
"1026","","f","psychophysics","22","655521","0.0-8.0-0.0-1.0-0.0-0.6","3","2","3","3","1","4","4","3","5","5","5","1","-1","0","2","0","-1","0","1","5","4","5","4","4","3","3","4","4","4","4","5","4","7","4","8","4","7","8","4","5","5","6","4","5","3","7","5","5","5","4","3","3","4","4","4","6","2","6","3","3","4","3","3","5","6","4","7","7","7","2","6","6","5","7","7","7","1","6","724701248414023680","王","584","Female","[""坏我"",""好她"",""好我"",""坏她""]","[""弱我"",""强她"",""强我"",""弱她""]","","","","","","","","match","","","","","","","","","","key","f","24.361597560975053","775.757530919998","432.42421743079575","f","true","match","img/trapezoid.png","好我","好我","prac_ALT2_moral","practice_moral","","","","","","","",""
"null","<span style='color:GreenYellow; font-size: 70px;'>正确! </span>","null","html-keyboard-response","23","656026","0.0-8.0-0.0-1.0-0.0-1.6","3","2","3","3","1","4","4","3","5","5","5","1","-1","0","2","0","-1","0","1","5","4","5","4","4","3","3","4","4","4","4","5","4","7","4","8","4","7","8","4","5","5","6","4","5","3","7","5","5","5","4","3","3","4","4","4","6","2","6","3","3","4","3","3","5","6","4","7","7","7","2","6","6","5","7","7","7","1","6","724701248414023680","王","584","Female","[""坏我"",""好她"",""好我"",""坏她""]","[""弱我"",""强她"",""强我"",""弱她""]","","","","","","","","","","","","","","","","","","","","","","","","","","","","","","feedback_test","","","","","","","",""
"908","","j","psychophysics","24","657974","0.0-8.0-0.0-1.0-0.0-0.7","3","2","3","3","1","4","4","3","5","5","5","1","-1","0","2","0","-1","0","1","5","4","5","4","4","3","3","4","4","4","4","5","4","7","4","8","4","7","8","4","5","5","6","4","5","3","7","5","5","5","4","3","3","4","4","4","6","2","6","3","3","4","3","3","5","6","4","7","7","7","2","6","6","5","7","7","7","1","6","724701248414023680","王","584","Female","[""坏我"",""好她"",""好我"",""坏她""]","[""弱我"",""强她"",""强我"",""弱她""]","","","","","","","","nonmatch","","","","","","","","","","key","j","24.91371428571466","775.757530919998","432.42421743079575","j","true","nonmatch","img/trapezoid.png","好她","好我","prac_ALT2_moral","practice_moral","","","","","","","",""
"null","<span style='color:GreenYellow; font-size: 70px;'>正确! </span>","null","html-keyboard-response","25","658482","0.0-8.0-0.0-1.0-0.0-1.7","3","2","3","3","1","4","4","3","5","5","5","1","-1","0","2","0","-1","0","1","5","4","5","4","4","3","3","4","4","4","4","5","4","7","4","8","4","7","8","4","5","5","6","4","5","3","7","5","5","5","4","3","3","4","4","4","6","2","6","3","3","4","3","3","5","6","4","7","7","7","2","6","6","5","7","7","7","1","6","724701248414023680","王","584","Female","[""坏我"",""好她"",""好我"",""坏她""]","[""弱我"",""强她"",""强我"",""弱她""]","","","","","","","","","","","","","","","","","","","","","","","","","","","","","","feedback_test","","","","","","","",""
"null","","null","psychophysics","26","660729","0.0-8.0-0.0-1.0-0.0-0.8","3","2","3","3","1","4","4","3","5","5","5","1","-1","0","2","0","-1","0","1","5","4","5","4","4","3","3","4","4","4","4","5","4","7","4","8","4","7","8","4","5","5","6","4","5","3","7","5","5","5","4","3","3","4","4","4","6","2","6","3","3","4","3","3","5","6","4","7","7","7","2","6","6","5","7","7","7","1","6","724701248414023680","王","584","Female","[""坏我"",""好她"",""好我"",""坏她""]","[""弱我"",""强她"",""强我"",""弱她""]","","","","","","","","null","","","","","","","","","","key","null","24.739134831459975","775.757530919998","432.42421743079575","f","false","match","img/pentagon.png","坏我","坏我","prac_ALT2_moral","practice_moral","","","","","","","",""
"null","<span class='add_' style='color:yellow; font-size: 70px;'> 太慢! </span>","null","html-keyboard-response","27","661234","0.0-8.0-0.0-1.0-0.0-1.8","3","2","3","3","1","4","4","3","5","5","5","1","-1","0","2","0","-1","0","1","5","4","5","4","4","3","3","4","4","4","4","5","4","7","4","8","4","7","8","4","5","5","6","4","5","3","7","5","5","5","4","3","3","4","4","4","6","2","6","3","3","4","3","3","5","6","4","7","7","7","2","6","6","5","7","7","7","1","6","724701248414023680","王","584","Female","[""坏我"",""好她"",""好我"",""坏她""]","[""弱我"",""强她"",""强我"",""弱她""]","","","","","","","","","","","","","","","","","","","","","","","","","","","","","","feedback_test","","","","","","","",""
"953","","j","psychophysics","28","663229","0.0-8.0-0.0-1.0-0.0-0.9","3","2","3","3","1","4","4","3","5","5","5","1","-1","0","2","0","-1","0","1","5","4","5","4","4","3","3","4","4","4","4","5","4","7","4","8","4","7","8","4","5","5","6","4","5","3","7","5","5","5","4","3","3","4","4","4","6","2","6","3","3","4","3","3","5","6","4","7","7","7","2","6","6","5","7","7","7","1","6","724701248414023680","王","584","Female","[""坏我"",""好她"",""好我"",""坏她""]","[""弱我"",""强她"",""强我"",""弱她""]","","","","","","","","nonmatch","","","","","","","","","","key","j","24.494544303797692","775.757530919998","432.42421743079575","j","true","nonmatch","img/triangle.png","坏我","好她","prac_ALT2_moral","practice_moral","","","","","","","",""
"null","<span style='color:GreenYellow; font-size: 70px;'>正确! </span>","null","html-keyboard-response","29","663731","0.0-8.0-0.0-1.0-0.0-1.9","3","2","3","3","1","4","4","3","5","5","5","1","-1","0","2","0","-1","0","1","5","4","5","4","4","3","3","4","4","4","4","5","4","7","4","8","4","7","8","4","5","5","6","4","5","3","7","5","5","5","4","3","3","4","4","4","6","2","6","3","3","4","3","3","5","6","4","7","7","7","2","6","6","5","7","7","7","1","6","724701248414023680","王","584","Female","[""坏我"",""好她"",""好我"",""坏她""]","[""弱我"",""强她"",""强我"",""弱她""]","","","","","","","","","","","","","","","","","","","","","","","","","","","","","","feedback_test","","","","","","","",""
"929","","f","psychophysics","30","665706","0.0-8.0-0.0-1.0-0.0-0.10","3","2","3","3","1","4","4","3","5","5","5","1","-1","0","2","0","-1","0","1","5","4","5","4","4","3","3","4","4","4","4","5","4","7","4","8","4","7","8","4","5","5","6","4","5","3","7","5","5","5","4","3","3","4","4","4","6","2","6","3","3","4","3","3","5","6","4","7","7","7","2","6","6","5","7","7","7","1","6","724701248414023680","王","584","Female","[""坏我"",""好她"",""好我"",""坏她""]","[""弱我"",""强她"",""强我"",""弱她""]","","","","","","","","match","","","","","","","","","","key","f","24.57207692307659","775.757530919998","432.42421743079575","j","false","nonmatch","img/pentagon.png","好我","坏我","prac_ALT2_moral","practice_moral","","","","","","","",""
"null","<span style='color:red; font-size: 70px;'>错误! </span>","null","html-keyboard-response","31","666211","0.0-8.0-0.0-1.0-0.0-1.10","3","2","3","3","1","4","4","3","5","5","5","1","-1","0","2","0","-1","0","1","5","4","5","4","4","3","3","4","4","4","4","5","4","7","4","8","4","7","8","4","5","5","6","4","5","3","7","5","5","5","4","3","3","4","4","4","6","2","6","3","3","4","3","3","5","6","4","7","7","7","2","6","6","5","7","7","7","1","6","724701248414023680","王","584","Female","[""坏我"",""好她"",""好我"",""坏她""]","[""弱我"",""强她"",""强我"",""弱她""]","","","","","","","","","","","","","","","","","","","","","","","","","","","","","","feedback_test","","","","","","","",""
"962","","j","psychophysics","32","668221","0.0-8.0-0.0-1.0-0.0-0.11","3","2","3","3","1","4","4","3","5","5","5","1","-1","0","2","0","-1","0","1","5","4","5","4","4","3","3","4","4","4","4","5","4","7","4","8","4","7","8","4","5","5","6","4","5","3","7","5","5","5","4","3","3","4","4","4","6","2","6","3","3","4","3","3","5","6","4","7","7","7","2","6","6","5","7","7","7","1","6","724701248414023680","王","584","Female","[""坏我"",""好她"",""好我"",""坏她""]","[""弱我"",""强她"",""强我"",""弱她""]","","","","","","","","nonmatch","","","","","","","","","","key","j","24.6015625","775.757530919998","432.42421743079575","j","true","nonmatch","img/trapezoid.png","坏她","好我","prac_ALT2_moral","practice_moral","","","","","","","",""
"null","<span style='color:GreenYellow; font-size: 70px;'>正确! </span>","null","html-keyboard-response","33","668731","0.0-8.0-0.0-1.0-0.0-1.11","3","2","3","3","1","4","4","3","5","5","5","1","-1","0","2","0","-1","0","1","5","4","5","4","4","3","3","4","4","4","4","5","4","7","4","8","4","7","8","4","5","5","6","4","5","3","7","5","5","5","4","3","3","4","4","4","6","2","6","3","3","4","3","3","5","6","4","7","7","7","2","6","6","5","7","7","7","1","6","724701248414023680","王","584","Female","[""坏我"",""好她"",""好我"",""坏她""]","[""弱我"",""强她"",""强我"",""弱她""]","","","","","","","","","","","","","","","","","","","","","","","","","","","","","","feedback_test","","","","","","","",""
"null","","null","psychophysics","34","670988","0.0-8.0-0.0-1.0-0.0-0.12","3","2","3","3","1","4","4","3","5","5","5","1","-1","0","2","0","-1","0","1","5","4","5","4","4","3","3","4","4","4","4","5","4","7","4","8","4","7","8","4","5","5","6","4","5","3","7","5","5","5","4","3","3","4","4","4","6","2","6","3","3","4","3","3","5","6","4","7","7","7","2","6","6","5","7","7","7","1","6","724701248414023680","王","584","Female","[""坏我"",""好她"",""好我"",""坏她""]","[""弱我"",""强她"",""强我"",""弱她""]","","","","","","","","null","","","","","","","","","","key","null","24.92673033707791","775.757530919998","432.42421743079575","f","false","match","img/triangle.png","好她","好她","prac_ALT2_moral","practice_moral","","","","","","","",""
"null","<span class='add_' style='color:yellow; font-size: 70px;'> 太慢! </span>","null","html-keyboard-response","35","671499","0.0-8.0-0.0-1.0-0.0-1.12","3","2","3","3","1","4","4","3","5","5","5","1","-1","0","2","0","-1","0","1","5","4","5","4","4","3","3","4","4","4","4","5","4","7","4","8","4","7","8","4","5","5","6","4","5","3","7","5","5","5","4","3","3","4","4","4","6","2","6","3","3","4","3","3","5","6","4","7","7","7","2","6","6","5","7","7","7","1","6","724701248414023680","王","584","Female","[""坏我"",""好她"",""好我"",""坏她""]","[""弱我"",""强她"",""强我"",""弱她""]","","","","","","","","","","","","","","","","","","","","","","","","","","","","","","feedback_test","","","","","","","",""
"794","","f","psychophysics","36","673344","0.0-8.0-0.0-1.0-0.0-0.13","3","2","3","3","1","4","4","3","5","5","5","1","-1","0","2","0","-1","0","1","5","4","5","4","4","3","3","4","4","4","4","5","4","7","4","8","4","7","8","4","5","5","6","4","5","3","7","5","5","5","4","3","3","4","4","4","6","2","6","3","3","4","3","3","5","6","4","7","7","7","2","6","6","5","7","7","7","1","6","724701248414023680","王","584","Female","[""坏我"",""好她"",""好我"",""坏她""]","[""弱我"",""强她"",""强我"",""弱她""]","","","","","","","","match","","","","","","","","","","key","f","24.674863013698822","775.757530919998","432.42421743079575","f","true","match","img/trapezoid.png","好我","好我","prac_ALT2_moral","practice_moral","","","","","","","",""
"null","<span style='color:GreenYellow; font-size: 70px;'>正确! </span>","null","html-keyboard-response","37","673851","0.0-8.0-0.0-1.0-0.0-1.13","3","2","3","3","1","4","4","3","5","5","5","1","-1","0","2","0","-1","0","1","5","4","5","4","4","3","3","4","4","4","4","5","4","7","4","8","4","7","8","4","5","5","6","4","5","3","7","5","5","5","4","3","3","4","4","4","6","2","6","3","3","4","3","3","5","6","4","7","7","7","2","6","6","5","7","7","7","1","6","724701248414023680","王","584","Female","[""坏我"",""好她"",""好我"",""坏她""]","[""弱我"",""强她"",""强我"",""弱她""]","","","","","","","","","","","","","","","","","","","","","","","","","","","","","","feedback_test","","","","","","","",""
"779","","j","psychophysics","38","675663","0.0-8.0-0.0-1.0-0.0-0.14","3","2","3","3","1","4","4","3","5","5","5","1","-1","0","2","0","-1","0","1","5","4","5","4","4","3","3","4","4","4","4","5","4","7","4","8","4","7","8","4","5","5","6","4","5","3","7","5","5","5","4","3","3","4","4","4","6","2","6","3","3","4","3","3","5","6","4","7","7","7","2","6","6","5","7","7","7","1","6","724701248414023680","王","584","Female","[""坏我"",""好她"",""好我"",""坏她""]","[""弱我"",""强她"",""强我"",""弱她""]","","","","","","","","nonmatch","","","","","","","","","","key","j","24.901028169014058","775.757530919998","432.42421743079575","j","true","nonmatch","img/circle.png","好我","坏她","prac_ALT2_moral","practice_moral","","","","","","","",""
"null","<span style='color:GreenYellow; font-size: 70px;'>正确! </span>","null","html-keyboard-response","39","676171","0.0-8.0-0.0-1.0-0.0-1.14","3","2","3","3","1","4","4","3","5","5","5","1","-1","0","2","0","-1","0","1","5","4","5","4","4","3","3","4","4","4","4","5","4","7","4","8","4","7","8","4","5","5","6","4","5","3","7","5","5","5","4","3","3","4","4","4","6","2","6","3","3","4","3","3","5","6","4","7","7","7","2","6","6","5","7","7","7","1","6","724701248414023680","王","584","Female","[""坏我"",""好她"",""好我"",""坏她""]","[""弱我"",""强她"",""强我"",""弱她""]","","","","","","","","","","","","","","","","","","","","","","","","","","","","","","feedback_test","","","","","","","",""
"1092","","f","psychophysics","40","678315","0.0-8.0-0.0-1.0-0.0-0.15","3","2","3","3","1","4","4","3","5","5","5","1","-1","0","2","0","-1","0","1","5","4","5","4","4","3","3","4","4","4","4","5","4","7","4","8","4","7","8","4","5","5","6","4","5","3","7","5","5","5","4","3","3","4","4","4","6","2","6","3","3","4","3","3","5","6","4","7","7","7","2","6","6","5","7","7","7","1","6","724701248414023680","王","584","Female","[""坏我"",""好她"",""好我"",""坏她""]","[""弱我"",""强她"",""强我"",""弱她""]","","","","","","","","match","","","","","","","","","","key","f","24.819976190476503","775.757530919998","432.42421743079575","f","true","match","img/pentagon.png","坏我","坏我","prac_ALT2_moral","practice_moral","","","","","","","",""
"null","<span style='color:GreenYellow; font-size: 70px;'>正确! </span>","null","html-keyboard-response","41","678819","0.0-8.0-0.0-1.0-0.0-1.15","3","2","3","3","1","4","4","3","5","5","5","1","-1","0","2","0","-1","0","1","5","4","5","4","4","3","3","4","4","4","4","5","4","7","4","8","4","7","8","4","5","5","6","4","5","3","7","5","5","5","4","3","3","4","4","4","6","2","6","3","3","4","3","3","5","6","4","7","7","7","2","6","6","5","7","7","7","1","6","724701248414023680","王","584","Female","[""坏我"",""好她"",""好我"",""坏她""]","[""弱我"",""强她"",""强我"",""弱她""]","","","","","","","","","","","","","","","","","","","","","","","","","","","","","","feedback_test","","","","","","","",""
"878","","j","psychophysics","42","680743","0.0-8.0-0.0-1.0-0.0-0.16","3","2","3","3","1","4","4","3","5","5","5","1","-1","0","2","0","-1","0","1","5","4","5","4","4","3","3","4","4","4","4","5","4","7","4","8","4","7","8","4","5","5","6","4","5","3","7","5","5","5","4","3","3","4","4","4","6","2","6","3","3","4","3","3","5","6","4","7","7","7","2","6","6","5","7","7","7","1","6","724701248414023680","王","584","Female","[""坏我"",""好她"",""好我"",""坏她""]","[""弱我"",""强她"",""强我"",""弱她""]","","","","","","","","nonmatch","","","","","","","","","","key","j","25.122573333332937","775.757530919998","432.42421743079575","f","false","match","img/circle.png","坏她","坏她","prac_ALT2_moral","practice_moral","","","","","","","",""
"null","<span style='color:red; font-size: 70px;'>错误! </span>","null","html-keyboard-response","43","681251","0.0-8.0-0.0-1.0-0.0-1.16","3","2","3","3","1","4","4","3","5","5","5","1","-1","0","2","0","-1","0","1","5","4","5","4","4","3","3","4","4","4","4","5","4","7","4","8","4","7","8","4","5","5","6","4","5","3","7","5","5","5","4","3","3","4","4","4","6","2","6","3","3","4","3","3","5","6","4","7","7","7","2","6","6","5","7","7","7","1","6","724701248414023680","王","584","Female","[""坏我"",""好她"",""好我"",""坏她""]","[""弱我"",""强她"",""强我"",""弱她""]","","","","","","","","","","","","","","","","","","","","","","","","","","","","","","feedback_test","","","","","","","",""
"877","","f","psychophysics","44","683162","0.0-8.0-0.0-1.0-0.0-0.17","3","2","3","3","1","4","4","3","5","5","5","1","-1","0","2","0","-1","0","1","5","4","5","4","4","3","3","4","4","4","4","5","4","7","4","8","4","7","8","4","5","5","6","4","5","3","7","5","5","5","4","3","3","4","4","4","6","2","6","3","3","4","3","3","5","6","4","7","7","7","2","6","6","5","7","7","7","1","6","724701248414023680","王","584","Female","[""坏我"",""好她"",""好我"",""坏她""]","[""弱我"",""强她"",""强我"",""弱她""]","","","","","","","","match","","","","","","","","","","key","f","25.24500000000006","775.757530919998","432.42421743079575","j","false","nonmatch","img/circle.png","好她","坏她","prac_ALT2_moral","practice_moral","","","","","","","",""
"null","<span style='color:red; font-size: 70px;'>错误! </span>","null","html-keyboard-response","45","683667","0.0-8.0-0.0-1.0-0.0-1.17","3","2","3","3","1","4","4","3","5","5","5","1","-1","0","2","0","-1","0","1","5","4","5","4","4","3","3","4","4","4","4","5","4","7","4","8","4","7","8","4","5","5","6","4","5","3","7","5","5","5","4","3","3","4","4","4","6","2","6","3","3","4","3","3","5","6","4","7","7","7","2","6","6","5","7","7","7","1","6","724701248414023680","王","584","Female","[""坏我"",""好她"",""好我"",""坏她""]","[""弱我"",""强她"",""强我"",""弱她""]","","","","","","","","","","","","","","","","","","","","","","","","","","","","","","feedback_test","","","","","","","",""
"983","","j","psychophysics","46","685678","0.0-8.0-0.0-1.0-0.0-0.18","3","2","3","3","1","4","4","3","5","5","5","1","-1","0","2","0","-1","0","1","5","4","5","4","4","3","3","4","4","4","4","5","4","7","4","8","4","7","8","4","5","5","6","4","5","3","7","5","5","5","4","3","3","4","4","4","6","2","6","3","3","4","3","3","5","6","4","7","7","7","2","6","6","5","7","7","7","1","6","724701248414023680","王","584","Female","[""坏我"",""好她"",""好我"",""坏她""]","[""弱我"",""强她"",""强我"",""弱她""]","","","","","","","","nonmatch","","","","","","","","","","key","j","25.01080769230761","775.757530919998","432.42421743079575","f","false","match","img/triangle.png","好她","好她","prac_ALT2_moral","practice_moral","","","","","","","",""
"null","<span style='color:red; font-size: 70px;'>错误! </span>","null","html-keyboard-response","47","686179","0.0-8.0-0.0-1.0-0.0-1.18","3","2","3","3","1","4","4","3","5","5","5","1","-1","0","2","0","-1","0","1","5","4","5","4","4","3","3","4","4","4","4","5","4","7","4","8","4","7","8","4","5","5","6","4","5","3","7","5","5","5","4","3","3","4","4","4","6","2","6","3","3","4","3","3","5","6","4","7","7","7","2","6","6","5","7","7","7","1","6","724701248414023680","王","584","Female","[""坏我"",""好她"",""好我"",""坏她""]","[""弱我"",""强她"",""强我"",""弱她""]","","","","","","","","","","","","","","","","","","","","","","","","","","","","","","feedback_test","","","","","","","",""
"1055","","f","psychophysics","48","688282","0.0-8.0-0.0-1.0-0.0-0.19","3","2","3","3","1","4","4","3","5","5","5","1","-1","0","2","0","-1","0","1","5","4","5","4","4","3","3","4","4","4","4","5","4","7","4","8","4","7","8","4","5","5","6","4","5","3","7","5","5","5","4","3","3","4","4","4","6","2","6","3","3","4","3","3","5","6","4","7","7","7","2","6","6","5","7","7","7","1","6","724701248414023680","王","584","Female","[""坏我"",""好她"",""好我"",""坏她""]","[""弱我"",""强她"",""强我"",""弱她""]","","","","","","","","match","","","","","","","","","","key","f","25.85350000000035","775.757530919998","432.42421743079575","f","true","match","img/pentagon.png","坏我","坏我","prac_ALT2_moral","practice_moral","","","","","","","",""
"null","<span style='color:GreenYellow; font-size: 70px;'>正确! </span>","null","html-keyboard-response","49","688787","0.0-8.0-0.0-1.0-0.0-1.19","3","2","3","3","1","4","4","3","5","5","5","1","-1","0","2","0","-1","0","1","5","4","5","4","4","3","3","4","4","4","4","5","4","7","4","8","4","7","8","4","5","5","6","4","5","3","7","5","5","5","4","3","3","4","4","4","6","2","6","3","3","4","3","3","5","6","4","7","7","7","2","6","6","5","7","7","7","1","6","724701248414023680","王","584","Female","[""坏我"",""好她"",""好我"",""坏她""]","[""弱我"",""强她"",""强我"",""弱她""]","","","","","","","","","","","","","","","","","","","","","","","","","","","","","","feedback_test","","","","","","","",""
"1105","","j","psychophysics","50","690919","0.0-8.0-0.0-1.0-0.0-0.20","3","2","3","3","1","4","4","3","5","5","5","1","-1","0","2","0","-1","0","1","5","4","5","4","4","3","3","4","4","4","4","5","4","7","4","8","4","7","8","4","5","5","6","4","5","3","7","5","5","5","4","3","3","4","4","4","6","2","6","3","3","4","3","3","5","6","4","7","7","7","2","6","6","5","7","7","7","1","6","724701248414023680","王","584","Female","[""坏我"",""好她"",""好我"",""坏她""]","[""弱我"",""强她"",""强我"",""弱她""]","","","","","","","","nonmatch","","","","","","","","","","key","j","25.12162650602376","775.757530919998","432.42421743079575","j","true","nonmatch","img/pentagon.png","好她","坏我","prac_ALT2_moral","practice_moral","","","","","","","",""
"null","<span style='color:GreenYellow; font-size: 70px;'>正确! </span>","null","html-keyboard-response","51","691427","0.0-8.0-0.0-1.0-0.0-1.20","3","2","3","3","1","4","4","3","5","5","5","1","-1","0","2","0","-1","0","1","5","4","5","4","4","3","3","4","4","4","4","5","4","7","4","8","4","7","8","4","5","5","6","4","5","3","7","5","5","5","4","3","3","4","4","4","6","2","6","3","3","4","3","3","5","6","4","7","7","7","2","6","6","5","7","7","7","1","6","724701248414023680","王","584","Female","[""坏我"",""好她"",""好我"",""坏她""]","[""弱我"",""强她"",""强我"",""弱她""]","","","","","","","","","","","","","","","","","","","","","","","","","","","","","","feedback_test","","","","","","","",""
"882","","f","psychophysics","52","693357","0.0-8.0-0.0-1.0-0.0-0.21","3","2","3","3","1","4","4","3","5","5","5","1","-1","0","2","0","-1","0","1","5","4","5","4","4","3","3","4","4","4","4","5","4","7","4","8","4","7","8","4","5","5","6","4","5","3","7","5","5","5","4","3","3","4","4","4","6","2","6","3","3","4","3","3","5","6","4","7","7","7","2","6","6","5","7","7","7","1","6","724701248414023680","王","584","Female","[""坏我"",""好她"",""好我"",""坏她""]","[""弱我"",""强她"",""强我"",""弱她""]","","","","","","","","match","","","","","","","","","","key","f","25.13081333333316","775.757530919998","432.42421743079575","j","false","nonmatch","img/trapezoid.png","坏我","好我","prac_ALT2_moral","practice_moral","","","","","","","",""
"null","<span style='color:red; font-size: 70px;'>错误! </span>","null","html-keyboard-response","53","693859","0.0-8.0-0.0-1.0-0.0-1.21","3","2","3","3","1","4","4","3","5","5","5","1","-1","0","2","0","-1","0","1","5","4","5","4","4","3","3","4","4","4","4","5","4","7","4","8","4","7","8","4","5","5","6","4","5","3","7","5","5","5","4","3","3","4","4","4","6","2","6","3","3","4","3","3","5","6","4","7","7","7","2","6","6","5","7","7","7","1","6","724701248414023680","王","584","Female","[""坏我"",""好她"",""好我"",""坏她""]","[""弱我"",""强她"",""强我"",""弱她""]","","","","","","","","","","","","","","","","","","","","","","","","","","","","","","feedback_test","","","","","","","",""
"1172","","j","psychophysics","54","696074","0.0-8.0-0.0-1.0-0.0-0.22","3","2","3","3","1","4","4","3","5","5","5","1","-1","0","2","0","-1","0","1","5","4","5","4","4","3","3","4","4","4","4","5","4","7","4","8","4","7","8","4","5","5","6","4","5","3","7","5","5","5","4","3","3","4","4","4","6","2","6","3","3","4","3","3","5","6","4","7","7","7","2","6","6","5","7","7","7","1","6","724701248414023680","王","584","Female","[""坏我"",""好她"",""好我"",""坏她""]","[""弱我"",""强她"",""强我"",""弱她""]","","","","","","","","nonmatch","","","","","","","","","","key","j","25.212046511626944","775.757530919998","432.42421743079575","j","true","nonmatch","img/triangle.png","坏她","好她","prac_ALT2_moral","practice_moral","","","","","","","",""
"null","<span style='color:GreenYellow; font-size: 70px;'>正确! </span>","null","html-keyboard-response","55","696578","0.0-8.0-0.0-1.0-0.0-1.22","3","2","3","3","1","4","4","3","5","5","5","1","-1","0","2","0","-1","0","1","5","4","5","4","4","3","3","4","4","4","4","5","4","7","4","8","4","7","8","4","5","5","6","4","5","3","7","5","5","5","4","3","3","4","4","4","6","2","6","3","3","4","3","3","5","6","4","7","7","7","2","6","6","5","7","7","7","1","6","724701248414023680","王","584","Female","[""坏我"",""好她"",""好我"",""坏她""]","[""弱我"",""强她"",""强我"",""弱她""]","","","","","","","","","","","","","","","","","","","","","","","","","","","","","","feedback_test","","","","","","","",""
"1044","","f","psychophysics","56","698663","0.0-8.0-0.0-1.0-0.0-0.23","3","2","3","3","1","4","4","3","5","5","5","1","-1","0","2","0","-1","0","1","5","4","5","4","4","3","3","4","4","4","4","5","4","7","4","8","4","7","8","4","5","5","6","4","5","3","7","5","5","5","4","3","3","4","4","4","6","2","6","3","3","4","3","3","5","6","4","7","7","7","2","6","6","5","7","7","7","1","6","724701248414023680","王","584","Female","[""坏我"",""好她"",""好我"",""坏她""]","[""弱我"",""强她"",""强我"",""弱她""]","","","","","","","","match","","","","","","","","","","key","f","25.434662499999103","775.757530919998","432.42421743079575","f","true","match","img/triangle.png","好她","好她","prac_ALT2_moral","practice_moral","","","","","","","",""
"null","<span style='color:GreenYellow; font-size: 70px;'>正确! </span>","null","html-keyboard-response","57","699171","0.0-8.0-0.0-1.0-0.0-1.23","3","2","3","3","1","4","4","3","5","5","5","1","-1","0","2","0","-1","0","1","5","4","5","4","4","3","3","4","4","4","4","5","4","7","4","8","4","7","8","4","5","5","6","4","5","3","7","5","5","5","4","3","3","4","4","4","6","2","6","3","3","4","3","3","5","6","4","7","7","7","2","6","6","5","7","7","7","1","6","724701248414023680","王","584","Female","[""坏我"",""好她"",""好我"",""坏她""]","[""弱我"",""强她"",""强我"",""弱她""]","","","","","","","","","","","","","","","","","","","","","","","","","","","","","","feedback_test","","","","","","","",""
"1022","","j","psychophysics","58","701225","0.0-8.0-0.0-1.0-0.0-0.24","3","2","3","3","1","4","4","3","5","5","5","1","-1","0","2","0","-1","0","1","5","4","5","4","4","3","3","4","4","4","4","5","4","7","4","8","4","7","8","4","5","5","6","4","5","3","7","5","5","5","4","3","3","4","4","4","6","2","6","3","3","4","3","3","5","6","4","7","7","7","2","6","6","5","7","7","7","1","6","724701248414023680","王","584","Female","[""坏我"",""好她"",""好我"",""坏她""]","[""弱我"",""强她"",""强我"",""弱她""]","","","","","","","","nonmatch","","","","","","","","","","key","j","25.775727272727647","775.757530919998","432.42421743079575","j","true","nonmatch","img/triangle.png","坏我","好她","prac_ALT2_moral","practice_moral","","","","","","","",""
"null","<span style='color:GreenYellow; font-size: 70px;'>正确! </span>","null","html-keyboard-response","59","701731","0.0-8.0-0.0-1.0-0.0-1.24","3","2","3","3","1","4","4","3","5","5","5","1","-1","0","2","0","-1","0","1","5","4","5","4","4","3","3","4","4","4","4","5","4","7","4","8","4","7","8","4","5","5","6","4","5","3","7","5","5","5","4","3","3","4","4","4","6","2","6","3","3","4","3","3","5","6","4","7","7","7","2","6","6","5","7","7","7","1","6","724701248414023680","王","584","Female","[""坏我"",""好她"",""好我"",""坏她""]","[""弱我"",""强她"",""强我"",""弱她""]","","","","","","","","","","","","","","","","","","","","","","","","","","","","","","feedback_test","","","","","","","",""
"1073","","f","psychophysics","60","703844","0.0-8.0-0.0-1.0-0.0-0.25","3","2","3","3","1","4","4","3","5","5","5","1","-1","0","2","0","-1","0","1","5","4","5","4","4","3","3","4","4","4","4","5","4","7","4","8","4","7","8","4","5","5","6","4","5","3","7","5","5","5","4","3","3","4","4","4","6","2","6","3","3","4","3","3","5","6","4","7","7","7","2","6","6","5","7","7","7","1","6","724701248414023680","王","584","Female","[""坏我"",""好她"",""好我"",""坏她""]","[""弱我"",""强她"",""强我"",""弱她""]","","","","","","","","match","","","","","","","","","","key","f","25.534407407407546","775.757530919998","432.42421743079575","f","true","match","img/pentagon.png","坏我","坏我","prac_ALT2_moral","practice_moral","","","","","","","",""
"null","<span style='color:GreenYellow; font-size: 70px;'>正确! </span>","null","html-keyboard-response","61","704347","0.0-8.0-0.0-1.0-0.0-1.25","3","2","3","3","1","4","4","3","5","5","5","1","-1","0","2","0","-1","0","1","5","4","5","4","4","3","3","4","4","4","4","5","4","7","4","8","4","7","8","4","5","5","6","4","5","3","7","5","5","5","4","3","3","4","4","4","6","2","6","3","3","4","3","3","5","6","4","7","7","7","2","6","6","5","7","7","7","1","6","724701248414023680","王","584","Female","[""坏我"",""好她"",""好我"",""坏她""]","[""弱我"",""强她"",""强我"",""弱她""]","","","","","","","","","","","","","","","","","","","","","","","","","","","","","","feedback_test","","","","","","","",""
"949","","j","psychophysics","62","706348","0.0-8.0-0.0-1.0-0.0-0.26","3","2","3","3","1","4","4","3","5","5","5","1","-1","0","2","0","-1","0","1","5","4","5","4","4","3","3","4","4","4","4","5","4","7","4","8","4","7","8","4","5","5","6","4","5","3","7","5","5","5","4","3","3","4","4","4","6","2","6","3","3","4","3","3","5","6","4","7","7","7","2","6","6","5","7","7","7","1","6","724701248414023680","王","584","Female","[""坏我"",""好她"",""好我"",""坏她""]","[""弱我"",""强她"",""强我"",""弱她""]","","","","","","","","nonmatch","","","","","","","","","","key","j","25.54803896103925","775.757530919998","432.42421743079575","j","true","nonmatch","img/pentagon.png","好她","坏我","prac_ALT2_moral","practice_moral","","","","","","","",""
"null","<span style='color:GreenYellow; font-size: 70px;'>正确! </span>","null","html-keyboard-response","63","706859","0.0-8.0-0.0-1.0-0.0-1.26","3","2","3","3","1","4","4","3","5","5","5","1","-1","0","2","0","-1","0","1","5","4","5","4","4","3","3","4","4","4","4","5","4","7","4","8","4","7","8","4","5","5","6","4","5","3","7","5","5","5","4","3","3","4","4","4","6","2","6","3","3","4","3","3","5","6","4","7","7","7","2","6","6","5","7","7","7","1","6","724701248414023680","王","584","Female","[""坏我"",""好她"",""好我"",""坏她""]","[""弱我"",""强她"",""强我"",""弱她""]","","","","","","","","","","","","","","","","","","","","","","","","","","","","","","feedback_test","","","","","","","",""
"null","","null","psychophysics","64","709123","0.0-8.0-0.0-1.0-0.0-0.27","3","2","3","3","1","4","4","3","5","5","5","1","-1","0","2","0","-1","0","1","5","4","5","4","4","3","3","4","4","4","4","5","4","7","4","8","4","7","8","4","5","5","6","4","5","3","7","5","5","5","4","3","3","4","4","4","6","2","6","3","3","4","3","3","5","6","4","7","7","7","2","6","6","5","7","7","7","1","6","724701248414023680","王","584","Female","[""坏我"",""好她"",""好我"",""坏她""]","[""弱我"",""强她"",""强我"",""弱她""]","","","","","","","","null","","","","","","","","","","key","null","26.09757647058817","775.757530919998","432.42421743079575","f","false","match","img/pentagon.png","坏我","坏我","prac_ALT2_moral","practice_moral","","","","","","","",""
"null","<span class='add_' style='color:yellow; font-size: 70px;'> 太慢! </span>","null","html-keyboard-response","65","709627","0.0-8.0-0.0-1.0-0.0-1.27","3","2","3","3","1","4","4","3","5","5","5","1","-1","0","2","0","-1","0","1","5","4","5","4","4","3","3","4","4","4","4","5","4","7","4","8","4","7","8","4","5","5","6","4","5","3","7","5","5","5","4","3","3","4","4","4","6","2","6","3","3","4","3","3","5","6","4","7","7","7","2","6","6","5","7","7","7","1","6","724701248414023680","王","584","Female","[""坏我"",""好她"",""好我"",""坏她""]","[""弱我"",""强她"",""强我"",""弱她""]","","","","","","","","","","","","","","","","","","","","","","","","","","","","","","feedback_test","","","","","","","",""
"818","","j","psychophysics","66","711475","0.0-8.0-0.0-1.0-0.0-0.28","3","2","3","3","1","4","4","3","5","5","5","1","-1","0","2","0","-1","0","1","5","4","5","4","4","3","3","4","4","4","4","5","4","7","4","8","4","7","8","4","5","5","6","4","5","3","7","5","5","5","4","3","3","4","4","4","6","2","6","3","3","4","3","3","5","6","4","7","7","7","2","6","6","5","7","7","7","1","6","724701248414023680","王","584","Female","[""坏我"",""好她"",""好我"",""坏她""]","[""弱我"",""强她"",""强我"",""弱她""]","","","","","","","","nonmatch","","","","","","","","","","key","j","25.727557142857197","775.757530919998","432.42421743079575","j","true","nonmatch","img/trapezoid.png","坏她","好我","prac_ALT2_moral","practice_moral","","","","","","","",""
"null","<span style='color:GreenYellow; font-size: 70px;'>正确! </span>","null","html-keyboard-response","67","711979","0.0-8.0-0.0-1.0-0.0-1.28","3","2","3","3","1","4","4","3","5","5","5","1","-1","0","2","0","-1","0","1","5","4","5","4","4","3","3","4","4","4","4","5","4","7","4","8","4","7","8","4","5","5","6","4","5","3","7","5","5","5","4","3","3","4","4","4","6","2","6","3","3","4","3","3","5","6","4","7","7","7","2","6","6","5","7","7","7","1","6","724701248414023680","王","584","Female","[""坏我"",""好她"",""好我"",""坏她""]","[""弱我"",""强她"",""强我"",""弱她""]","","","","","","","","","","","","","","","","","","","","","","","","","","","","","","feedback_test","","","","","","","",""
"928","","f","psychophysics","68","713945","0.0-8.0-0.0-1.0-0.0-0.29","3","2","3","3","1","4","4","3","5","5","5","1","-1","0","2","0","-1","0","1","5","4","5","4","4","3","3","4","4","4","4","5","4","7","4","8","4","7","8","4","5","5","6","4","5","3","7","5","5","5","4","3","3","4","4","4","6","2","6","3","3","4","3","3","5","6","4","7","7","7","2","6","6","5","7","7","7","1","6","724701248414023680","王","584","Female","[""坏我"",""好她"",""好我"",""坏她""]","[""弱我"",""强她"",""强我"",""弱她""]","","","","","","","","match","","","","","","","","","","key","f","25.69244594594489","775.757530919998","432.42421743079575","j","false","nonmatch","img/triangle.png","坏她","好她","prac_ALT2_moral","practice_moral","","","","","","","",""
"null","<span style='color:red; font-size: 70px;'>错误! </span>","null","html-keyboard-response","69","714451","0.0-8.0-0.0-1.0-0.0-1.29","3","2","3","3","1","4","4","3","5","5","5","1","-1","0","2","0","-1","0","1","5","4","5","4","4","3","3","4","4","4","4","5","4","7","4","8","4","7","8","4","5","5","6","4","5","3","7","5","5","5","4","3","3","4","4","4","6","2","6","3","3","4","3","3","5","6","4","7","7","7","2","6","6","5","7","7","7","1","6","724701248414023680","王","584","Female","[""坏我"",""好她"",""好我"",""坏她""]","[""弱我"",""强她"",""强我"",""弱她""]","","","","","","","","","","","","","","","","","","","","","","","","","","","","","","feedback_test","","","","","","","",""
"853","","f","psychophysics","70","716332","0.0-8.0-0.0-1.0-0.0-0.30","3","2","3","3","1","4","4","3","5","5","5","1","-1","0","2","0","-1","0","1","5","4","5","4","4","3","3","4","4","4","4","5","4","7","4","8","4","7","8","4","5","5","6","4","5","3","7","5","5","5","4","3","3","4","4","4","6","2","6","3","3","4","3","3","5","6","4","7","7","7","2","6","6","5","7","7","7","1","6","724701248414023680","王","584","Female","[""坏我"",""好她"",""好我"",""坏她""]","[""弱我"",""强她"",""强我"",""弱她""]","","","","","","","","match","","","","","","","","","","key","f","26.344086956521295","775.757530919998","432.42421743079575","f","true","match","img/pentagon.png","坏我","坏我","prac_ALT2_moral","practice_moral","","","","","","","",""
"null","<span style='color:GreenYellow; font-size: 70px;'>正确! </span>","null","html-keyboard-response","71","716835","0.0-8.0-0.0-1.0-0.0-1.30","3","2","3","3","1","4","4","3","5","5","5","1","-1","0","2","0","-1","0","1","5","4","5","4","4","3","3","4","4","4","4","5","4","7","4","8","4","7","8","4","5","5","6","4","5","3","7","5","5","5","4","3","3","4","4","4","6","2","6","3","3","4","3","3","5","6","4","7","7","7","2","6","6","5","7","7","7","1","6","724701248414023680","王","584","Female","[""坏我"",""好她"",""好我"",""坏她""]","[""弱我"",""强她"",""强我"",""弱她""]","","","","","","","","","","","","","","","","","","","","","","","","","","","","","","feedback_test","","","","","","","",""
"941","","f","psychophysics","72","718829","0.0-8.0-0.0-1.0-0.0-0.31","3","2","3","3","1","4","4","3","5","5","5","1","-1","0","2","0","-1","0","1","5","4","5","4","4","3","3","4","4","4","4","5","4","7","4","8","4","7","8","4","5","5","6","4","5","3","7","5","5","5","4","3","3","4","4","4","6","2","6","3","3","4","3","3","5","6","4","7","7","7","2","6","6","5","7","7","7","1","6","724701248414023680","王","584","Female","[""坏我"",""好她"",""好我"",""坏她""]","[""弱我"",""强她"",""强我"",""弱她""]","","","","","","","","match","","","","","","","","","","key","f","26.147608108107455","775.757530919998","432.42421743079575","f","true","match","img/triangle.png","好她","好她","prac_ALT2_moral","practice_moral","","","","","","","",""
"null","<span style='color:GreenYellow; font-size: 70px;'>正确! </span>","null","html-keyboard-response","73","719331","0.0-8.0-0.0-1.0-0.0-1.31","3","2","3","3","1","4","4","3","5","5","5","1","-1","0","2","0","-1","0","1","5","4","5","4","4","3","3","4","4","4","4","5","4","7","4","8","4","7","8","4","5","5","6","4","5","3","7","5","5","5","4","3","3","4","4","4","6","2","6","3","3","4","3","3","5","6","4","7","7","7","2","6","6","5","7","7","7","1","6","724701248414023680","王","584","Female","[""坏我"",""好她"",""好我"",""坏她""]","[""弱我"",""强她"",""强我"",""弱她""]","","","","","","","","","","","","","","","","","","","","","","","","","","","","","","feedback_test","","","","","","","",""
"1022","","j","psychophysics","74","721394","0.0-8.0-0.0-1.0-0.0-0.32","3","2","3","3","1","4","4","3","5","5","5","1","-1","0","2","0","-1","0","1","5","4","5","4","4","3","3","4","4","4","4","5","4","7","4","8","4","7","8","4","5","5","6","4","5","3","7","5","5","5","4","3","3","4","4","4","6","2","6","3","3","4","3","3","5","6","4","7","7","7","2","6","6","5","7","7","7","1","6","724701248414023680","王","584","Female","[""坏我"",""好她"",""好我"",""坏她""]","[""弱我"",""强她"",""强我"",""弱她""]","","","","","","","","nonmatch","","","","","","","","","","key","j","26.20737662337654","775.757530919998","432.42421743079575","j","true","nonmatch","img/triangle.png","好我","好她","prac_ALT2_moral","practice_moral","","","","","","","",""
"null","<span style='color:GreenYellow; font-size: 70px;'>正确! </span>","null","html-keyboard-response","75","721898","0.0-8.0-0.0-1.0-0.0-1.32","3","2","3","3","1","4","4","3","5","5","5","1","-1","0","2","0","-1","0","1","5","4","5","4","4","3","3","4","4","4","4","5","4","7","4","8","4","7","8","4","5","5","6","4","5","3","7","5","5","5","4","3","3","4","4","4","6","2","6","3","3","4","3","3","5","6","4","7","7","7","2","6","6","5","7","7","7","1","6","724701248414023680","王","584","Female","[""坏我"",""好她"",""好我"",""坏她""]","[""弱我"",""强她"",""强我"",""弱她""]","","","","","","","","","","","","","","","","","","","","","","","","","","","","","","feedback_test","","","","","","","",""
"1074","","f","psychophysics","76","724007","0.0-8.0-0.0-1.0-0.0-0.33","3","2","3","3","1","4","4","3","5","5","5","1","-1","0","2","0","-1","0","1","5","4","5","4","4","3","3","4","4","4","4","5","4","7","4","8","4","7","8","4","5","5","6","4","5","3","7","5","5","5","4","3","3","4","4","4","6","2","6","3","3","4","3","3","5","6","4","7","7","7","2","6","6","5","7","7","7","1","6","724701248414023680","王","584","Female","[""坏我"",""好她"",""好我"",""坏她""]","[""弱我"",""强她"",""强我"",""弱她""]","","","","","","","","match","","","","","","","","","","key","f","25.969607594937287","775.757530919998","432.42421743079575","f","true","match","img/circle.png","坏她","坏她","prac_ALT2_moral","practice_moral","","","","","","","",""
"null","<span style='color:GreenYellow; font-size: 70px;'>正确! </span>","null","html-keyboard-response","77","724514","0.0-8.0-0.0-1.0-0.0-1.33","3","2","3","3","1","4","4","3","5","5","5","1","-1","0","2","0","-1","0","1","5","4","5","4","4","3","3","4","4","4","4","5","4","7","4","8","4","7","8","4","5","5","6","4","5","3","7","5","5","5","4","3","3","4","4","4","6","2","6","3","3","4","3","3","5","6","4","7","7","7","2","6","6","5","7","7","7","1","6","724701248414023680","王","584","Female","[""坏我"",""好她"",""好我"",""坏她""]","[""弱我"",""强她"",""强我"",""弱她""]","","","","","","","","","","","","","","","","","","","","","","","","","","","","","","feedback_test","","","","","","","",""
"845","","j","psychophysics","78","726393","0.0-8.0-0.0-1.0-0.0-0.34","3","2","3","3","1","4","4","3","5","5","5","1","-1","0","2","0","-1","0","1","5","4","5","4","4","3","3","4","4","4","4","5","4","7","4","8","4","7","8","4","5","5","6","4","5","3","7","5","5","5","4","3","3","4","4","4","6","2","6","3","3","4","3","3","5","6","4","7","7","7","2","6","6","5","7","7","7","1","6","724701248414023680","王","584","Female","[""坏我"",""好她"",""好我"",""坏她""]","[""弱我"",""强她"",""强我"",""弱她""]","","","","","","","","nonmatch","","","","","","","","","","key","j","26.34830434782687","775.757530919998","432.42421743079575","j","true","nonmatch","img/circle.png","坏我","坏她","prac_ALT2_moral","practice_moral","","","","","","","",""
"null","<span style='color:GreenYellow; font-size: 70px;'>正确! </span>","null","html-keyboard-response","79","726898","0.0-8.0-0.0-1.0-0.0-1.34","3","2","3","3","1","4","4","3","5","5","5","1","-1","0","2","0","-1","0","1","5","4","5","4","4","3","3","4","4","4","4","5","4","7","4","8","4","7","8","4","5","5","6","4","5","3","7","5","5","5","4","3","3","4","4","4","6","2","6","3","3","4","3","3","5","6","4","7","7","7","2","6","6","5","7","7","7","1","6","724701248414023680","王","584","Female","[""坏我"",""好她"",""好我"",""坏她""]","[""弱我"",""强她"",""强我"",""弱她""]","","","","","","","","","","","","","","","","","","","","","","","","","","","","","","feedback_test","","","","","","","",""
"1008","","f","psychophysics","80","728910","0.0-8.0-0.0-1.0-0.0-0.35","3","2","3","3","1","4","4","3","5","5","5","1","-1","0","2","0","-1","0","1","5","4","5","4","4","3","3","4","4","4","4","5","4","7","4","8","4","7","8","4","5","5","6","4","5","3","7","5","5","5","4","3","3","4","4","4","6","2","6","3","3","4","3","3","5","6","4","7","7","7","2","6","6","5","7","7","7","1","6","724701248414023680","王","584","Female","[""坏我"",""好她"",""好我"",""坏她""]","[""弱我"",""强她"",""强我"",""弱她""]","","","","","","","","match","","","","","","","","","","key","f","26.371824324324514","775.757530919998","432.42421743079575","f","true","match","img/circle.png","坏她","坏她","prac_ALT2_moral","practice_moral","","","","","","","",""
"null","<span style='color:GreenYellow; font-size: 70px;'>正确! </span>","null","html-keyboard-response","81","729427","0.0-8.0-0.0-1.0-0.0-1.35","3","2","3","3","1","4","4","3","5","5","5","1","-1","0","2","0","-1","0","1","5","4","5","4","4","3","3","4","4","4","4","5","4","7","4","8","4","7","8","4","5","5","6","4","5","3","7","5","5","5","4","3","3","4","4","4","6","2","6","3","3","4","3","3","5","6","4","7","7","7","2","6","6","5","7","7","7","1","6","724701248414023680","王","584","Female","[""坏我"",""好她"",""好我"",""坏她""]","[""弱我"",""强她"",""强我"",""弱她""]","","","","","","","","","","","","","","","","","","","","","","","","","","","","","","feedback_test","","","","","","","",""
"1025","","f","psychophysics","82","731493","0.0-8.0-0.0-1.0-0.0-0.36","3","2","3","3","1","4","4","3","5","5","5","1","-1","0","2","0","-1","0","1","5","4","5","4","4","3","3","4","4","4","4","5","4","7","4","8","4","7","8","4","5","5","6","4","5","3","7","5","5","5","4","3","3","4","4","4","6","2","6","3","3","4","3","3","5","6","4","7","7","7","2","6","6","5","7","7","7","1","6","724701248414023680","王","584","Female","[""坏我"",""好她"",""好我"",""坏她""]","[""弱我"",""强她"",""强我"",""弱她""]","","","","","","","","match","","","","","","","","","","key","f","26.337039473684086","775.757530919998","432.42421743079575","f","true","match","img/circle.png","坏她","坏她","prac_ALT2_moral","practice_moral","","","","","","","",""
"null","<span style='color:GreenYellow; font-size: 70px;'>正确! </span>","null","html-keyboard-response","83","731995","0.0-8.0-0.0-1.0-0.0-1.36","3","2","3","3","1","4","4","3","5","5","5","1","-1","0","2","0","-1","0","1","5","4","5","4","4","3","3","4","4","4","4","5","4","7","4","8","4","7","8","4","5","5","6","4","5","3","7","5","5","5","4","3","3","4","4","4","6","2","6","3","3","4","3","3","5","6","4","7","7","7","2","6","6","5","7","7","7","1","6","724701248414023680","王","584","Female","[""坏我"",""好她"",""好我"",""坏她""]","[""弱我"",""强她"",""强我"",""弱她""]","","","","","","","","","","","","","","","","","","","","","","","","","","","","","","feedback_test","","","","","","","",""
"null","","null","psychophysics","84","734246","0.0-8.0-0.0-1.0-0.0-0.37","3","2","3","3","1","4","4","3","5","5","5","1","-1","0","2","0","-1","0","1","5","4","5","4","4","3","3","4","4","4","4","5","4","7","4","8","4","7","8","4","5","5","6","4","5","3","7","5","5","5","4","3","3","4","4","4","6","2","6","3","3","4","3","3","5","6","4","7","7","7","2","6","6","5","7","7","7","1","6","724701248414023680","王","584","Female","[""坏我"",""好她"",""好我"",""坏她""]","[""弱我"",""强她"",""强我"",""弱她""]","","","","","","","","null","","","","","","","","","","key","null","26.524554216868175","775.757530919998","432.42421743079575","j","false","nonmatch","img/pentagon.png","好我","坏我","prac_ALT2_moral","practice_moral","","","","","","","",""
"null","<span class='add_' style='color:yellow; font-size: 70px;'> 太慢! </span>","null","html-keyboard-response","85","734755","0.0-8.0-0.0-1.0-0.0-1.37","3","2","3","3","1","4","4","3","5","5","5","1","-1","0","2","0","-1","0","1","5","4","5","4","4","3","3","4","4","4","4","5","4","7","4","8","4","7","8","4","5","5","6","4","5","3","7","5","5","5","4","3","3","4","4","4","6","2","6","3","3","4","3","3","5","6","4","7","7","7","2","6","6","5","7","7","7","1","6","724701248414023680","王","584","Female","[""坏我"",""好她"",""好我"",""坏她""]","[""弱我"",""强她"",""强我"",""弱她""]","","","","","","","","","","","","","","","","","","","","","","","","","","","","","","feedback_test","","","","","","","",""
"954","","j","psychophysics","86","736742","0.0-8.0-0.0-1.0-0.0-0.38","3","2","3","3","1","4","4","3","5","5","5","1","-1","0","2","0","-1","0","1","5","4","5","4","4","3","3","4","4","4","4","5","4","7","4","8","4","7","8","4","5","5","6","4","5","3","7","5","5","5","4","3","3","4","4","4","6","2","6","3","3","4","3","3","5","6","4","7","7","7","2","6","6","5","7","7","7","1","6","724701248414023680","王","584","Female","[""坏我"",""好她"",""好我"",""坏她""]","[""弱我"",""强她"",""强我"",""弱她""]","","","","","","","","nonmatch","","","","","","","","","","key","j","26.50532876712283","775.757530919998","432.42421743079575","j","true","nonmatch","img/circle.png","好我","坏她","prac_ALT2_moral","practice_moral","","","","","","","",""
"null","<span style='color:GreenYellow; font-size: 70px;'>正确! </span>","null","html-keyboard-response","87","737252","0.0-8.0-0.0-1.0-0.0-1.38","3","2","3","3","1","4","4","3","5","5","5","1","-1","0","2","0","-1","0","1","5","4","5","4","4","3","3","4","4","4","4","5","4","7","4","8","4","7","8","4","5","5","6","4","5","3","7","5","5","5","4","3","3","4","4","4","6","2","6","3","3","4","3","3","5","6","4","7","7","7","2","6","6","5","7","7","7","1","6","724701248414023680","王","584","Female","[""坏我"",""好她"",""好我"",""坏她""]","[""弱我"",""强她"",""强我"",""弱她""]","","","","","","","","","","","","","","","","","","","","","","","","","","","","","","feedback_test","","","","","","","",""
"null","","null","psychophysics","88","739495","0.0-8.0-0.0-1.0-0.0-0.39","3","2","3","3","1","4","4","3","5","5","5","1","-1","0","2","0","-1","0","1","5","4","5","4","4","3","3","4","4","4","4","5","4","7","4","8","4","7","8","4","5","5","6","4","5","3","7","5","5","5","4","3","3","4","4","4","6","2","6","3","3","4","3","3","5","6","4","7","7","7","2","6","6","5","7","7","7","1","6","724701248414023680","王","584","Female","[""坏我"",""好她"",""好我"",""坏她""]","[""弱我"",""强她"",""强我"",""弱她""]","","","","","","","","null","","","","","","","","","","key","null","26.52620481927767","775.757530919998","432.42421743079575","j","false","nonmatch","img/pentagon.png","坏她","坏我","prac_ALT2_moral","practice_moral","","","","","","","",""
"null","<span class='add_' style='color:yellow; font-size: 70px;'> 太慢! </span>","null","html-keyboard-response","89","740004","0.0-8.0-0.0-1.0-0.0-1.39","3","2","3","3","1","4","4","3","5","5","5","1","-1","0","2","0","-1","0","1","5","4","5","4","4","3","3","4","4","4","4","5","4","7","4","8","4","7","8","4","5","5","6","4","5","3","7","5","5","5","4","3","3","4","4","4","6","2","6","3","3","4","3","3","5","6","4","7","7","7","2","6","6","5","7","7","7","1","6","724701248414023680","王","584","Female","[""坏我"",""好她"",""好我"",""坏她""]","[""弱我"",""强她"",""强我"",""弱她""]","","","","","","","","","","","","","","","","","","","","","","","","","","","","","","feedback_test","","","","","","","",""
"1109","","f","psychophysics","90","742146","0.0-8.0-0.0-1.0-0.0-0.40","3","2","3","3","1","4","4","3","5","5","5","1","-1","0","2","0","-1","0","1","5","4","5","4","4","3","3","4","4","4","4","5","4","7","4","8","4","7","8","4","5","5","6","4","5","3","7","5","5","5","4","3","3","4","4","4","6","2","6","3","3","4","3","3","5","6","4","7","7","7","2","6","6","5","7","7","7","1","6","724701248414023680","王","584","Female","[""坏我"",""好她"",""好我"",""坏她""]","[""弱我"",""强她"",""强我"",""弱她""]","","","","","","","","match","","","","","","","","","","key","f","26.939910256409814","775.757530919998","432.42421743079575","j","false","nonmatch","img/trapezoid.png","坏我","好我","prac_ALT2_moral","practice_moral","","","","","","","",""
"null","<span style='color:red; font-size: 70px;'>错误! </span>","null","html-keyboard-response","91","742653","0.0-8.0-0.0-1.0-0.0-1.40","3","2","3","3","1","4","4","3","5","5","5","1","-1","0","2","0","-1","0","1","5","4","5","4","4","3","3","4","4","4","4","5","4","7","4","8","4","7","8","4","5","5","6","4","5","3","7","5","5","5","4","3","3","4","4","4","6","2","6","3","3","4","3","3","5","6","4","7","7","7","2","6","6","5","7","7","7","1","6","724701248414023680","王","584","Female","[""坏我"",""好她"",""好我"",""坏她""]","[""弱我"",""强她"",""强我"",""弱她""]","","","","","","","","","","","","","","","","","","","","","","","","","","","","","","feedback_test","","","","","","","",""
"1040","","f","psychophysics","92","744734","0.0-8.0-0.0-1.0-0.0-0.41","3","2","3","3","1","4","4","3","5","5","5","1","-1","0","2","0","-1","0","1","5","4","5","4","4","3","3","4","4","4","4","5","4","7","4","8","4","7","8","4","5","5","6","4","5","3","7","5","5","5","4","3","3","4","4","4","6","2","6","3","3","4","3","3","5","6","4","7","7","7","2","6","6","5","7","7","7","1","6","724701248414023680","王","584","Female","[""坏我"",""好她"",""好我"",""坏她""]","[""弱我"",""强她"",""强我"",""弱她""]","","","","","","","","match","","","","","","","","","","key","f","26.42648051948099","775.757530919998","432.42421743079575","f","true","match","img/triangle.png","好她","好她","prac_ALT2_moral","practice_moral","","","","","","","",""
"null","<span style='color:GreenYellow; font-size: 70px;'>正确! </span>","null","html-keyboard-response","93","745237","0.0-8.0-0.0-1.0-0.0-1.41","3","2","3","3","1","4","4","3","5","5","5","1","-1","0","2","0","-1","0","1","5","4","5","4","4","3","3","4","4","4","4","5","4","7","4","8","4","7","8","4","5","5","6","4","5","3","7","5","5","5","4","3","3","4","4","4","6","2","6","3","3","4","3","3","5","6","4","7","7","7","2","6","6","5","7","7","7","1","6","724701248414023680","王","584","Female","[""坏我"",""好她"",""好我"",""坏她""]","[""弱我"",""强她"",""强我"",""弱她""]","","","","","","","","","","","","","","","","","","","","","","","","","","","","","","feedback_test","","","","","","","",""
"1013","","f","psychophysics","94","747292","0.0-8.0-0.0-1.0-0.0-0.42","3","2","3","3","1","4","4","3","5","5","5","1","-1","0","2","0","-1","0","1","5","4","5","4","4","3","3","4","4","4","4","5","4","7","4","8","4","7","8","4","5","5","6","4","5","3","7","5","5","5","4","3","3","4","4","4","6","2","6","3","3","4","3","3","5","6","4","7","7","7","2","6","6","5","7","7","7","1","6","724701248414023680","王","584","Female","[""坏我"",""好她"",""好我"",""坏她""]","[""弱我"",""强她"",""强我"",""弱她""]","","","","","","","","match","","","","","","","","","","key","f","26.46146666666648","775.757530919998","432.42421743079575","f","true","match","img/triangle.png","好她","好她","prac_ALT2_moral","practice_moral","","","","","","","",""
"null","<span style='color:GreenYellow; font-size: 70px;'>正确! </span>","null","html-keyboard-response","95","747796","0.0-8.0-0.0-1.0-0.0-1.42","3","2","3","3","1","4","4","3","5","5","5","1","-1","0","2","0","-1","0","1","5","4","5","4","4","3","3","4","4","4","4","5","4","7","4","8","4","7","8","4","5","5","6","4","5","3","7","5","5","5","4","3","3","4","4","4","6","2","6","3","3","4","3","3","5","6","4","7","7","7","2","6","6","5","7","7","7","1","6","724701248414023680","王","584","Female","[""坏我"",""好她"",""好我"",""坏她""]","[""弱我"",""强她"",""强我"",""弱她""]","","","","","","","","","","","","","","","","","","","","","","","","","","","","","","feedback_test","","","","","","","",""
"1119","","j","psychophysics","96","749954","0.0-8.0-0.0-1.0-0.0-0.43","3","2","3","3","1","4","4","3","5","5","5","1","-1","0","2","0","-1","0","1","5","4","5","4","4","3","3","4","4","4","4","5","4","7","4","8","4","7","8","4","5","5","6","4","5","3","7","5","5","5","4","3","3","4","4","4","6","2","6","3","3","4","3","3","5","6","4","7","7","7","2","6","6","5","7","7","7","1","6","724701248414023680","王","584","Female","[""坏我"",""好她"",""好我"",""坏她""]","[""弱我"",""强她"",""强我"",""弱她""]","","","","","","","","nonmatch","","","","","","","","","","key","j","26.815531645569937","775.757530919998","432.42421743079575","j","true","nonmatch","img/trapezoid.png","好她","好我","prac_ALT2_moral","practice_moral","","","","","","","",""
"null","<span style='color:GreenYellow; font-size: 70px;'>正确! </span>","null","html-keyboard-response","97","750460","0.0-8.0-0.0-1.0-0.0-1.43","3","2","3","3","1","4","4","3","5","5","5","1","-1","0","2","0","-1","0","1","5","4","5","4","4","3","3","4","4","4","4","5","4","7","4","8","4","7","8","4","5","5","6","4","5","3","7","5","5","5","4","3","3","4","4","4","6","2","6","3","3","4","3","3","5","6","4","7","7","7","2","6","6","5","7","7","7","1","6","724701248414023680","王","584","Female","[""坏我"",""好她"",""好我"",""坏她""]","[""弱我"",""强她"",""强我"",""弱她""]","","","","","","","","","","","","","","","","","","","","","","","","","","","","","","feedback_test","","","","","","","",""
"830","","f","psychophysics","98","752319","0.0-8.0-0.0-1.0-0.0-0.44","3","2","3","3","1","4","4","3","5","5","5","1","-1","0","2","0","-1","0","1","5","4","5","4","4","3","3","4","4","4","4","5","4","7","4","8","4","7","8","4","5","5","6","4","5","3","7","5","5","5","4","3","3","4","4","4","6","2","6","3","3","4","3","3","5","6","4","7","7","7","2","6","6","5","7","7","7","1","6","724701248414023680","王","584","Female","[""坏我"",""好她"",""好我"",""坏她""]","[""弱我"",""强她"",""强我"",""弱她""]","","","","","","","","match","","","","","","","","","","key","f","26.737352941176677","775.757530919998","432.42421743079575","f","true","match","img/trapezoid.png","好我","好我","prac_ALT2_moral","practice_moral","","","","","","","",""
"null","<span style='color:GreenYellow; font-size: 70px;'>正确! </span>","null","html-keyboard-response","99","752828","0.0-8.0-0.0-1.0-0.0-1.44","3","2","3","3","1","4","4","3","5","5","5","1","-1","0","2","0","-1","0","1","5","4","5","4","4","3","3","4","4","4","4","5","4","7","4","8","4","7","8","4","5","5","6","4","5","3","7","5","5","5","4","3","3","4","4","4","6","2","6","3","3","4","3","3","5","6","4","7","7","7","2","6","6","5","7","7","7","1","6","724701248414023680","王","584","Female","[""坏我"",""好她"",""好我"",""坏她""]","[""弱我"",""强她"",""强我"",""弱她""]","","","","","","","","","","","","","","","","","","","","","","","","","","","","","","feedback_test","","","","","","","",""
"1048","","j","psychophysics","100","754917","0.0-8.0-0.0-1.0-0.0-0.45","3","2","3","3","1","4","4","3","5","5","5","1","-1","0","2","0","-1","0","1","5","4","5","4","4","3","3","4","4","4","4","5","4","7","4","8","4","7","8","4","5","5","6","4","5","3","7","5","5","5","4","3","3","4","4","4","6","2","6","3","3","4","3","3","5","6","4","7","7","7","2","6","6","5","7","7","7","1","6","724701248414023680","王","584","Female","[""坏我"",""好她"",""好我"",""坏她""]","[""弱我"",""强她"",""强我"",""弱她""]","","","","","","","","nonmatch","","","","","","","","","","key","j","26.994302631579462","775.757530919998","432.42421743079575","f","false","match","img/trapezoid.png","好我","好我","prac_ALT2_moral","practice_moral","","","","","","","",""
"null","<span style='color:red; font-size: 70px;'>错误! </span>","null","html-keyboard-response","101","755428","0.0-8.0-0.0-1.0-0.0-1.45","3","2","3","3","1","4","4","3","5","5","5","1","-1","0","2","0","-1","0","1","5","4","5","4","4","3","3","4","4","4","4","5","4","7","4","8","4","7","8","4","5","5","6","4","5","3","7","5","5","5","4","3","3","4","4","4","6","2","6","3","3","4","3","3","5","6","4","7","7","7","2","6","6","5","7","7","7","1","6","724701248414023680","王","584","Female","[""坏我"",""好她"",""好我"",""坏她""]","[""弱我"",""强她"",""强我"",""弱她""]","","","","","","","","","","","","","","","","","","","","","","","","","","","","","","feedback_test","","","","","","","",""
"909","","f","psychophysics","102","757367","0.0-8.0-0.0-1.0-0.0-0.46","3","2","3","3","1","4","4","3","5","5","5","1","-1","0","2","0","-1","0","1","5","4","5","4","4","3","3","4","4","4","4","5","4","7","4","8","4","7","8","4","5","5","6","4","5","3","7","5","5","5","4","3","3","4","4","4","6","2","6","3","3","4","3","3","5","6","4","7","7","7","2","6","6","5","7","7","7","1","6","724701248414023680","王","584","Female","[""坏我"",""好她"",""好我"",""坏她""]","[""弱我"",""强她"",""强我"",""弱她""]","","","","","","","","match","","","","","","","","","","key","f","26.548746478873383","775.757530919998","432.42421743079575","j","false","nonmatch","img/circle.png","好她","坏她","prac_ALT2_moral","practice_moral","","","","","","","",""
"null","<span style='color:red; font-size: 70px;'>错误! </span>","null","html-keyboard-response","103","757876","0.0-8.0-0.0-1.0-0.0-1.46","3","2","3","3","1","4","4","3","5","5","5","1","-1","0","2","0","-1","0","1","5","4","5","4","4","3","3","4","4","4","4","5","4","7","4","8","4","7","8","4","5","5","6","4","5","3","7","5","5","5","4","3","3","4","4","4","6","2","6","3","3","4","3","3","5","6","4","7","7","7","2","6","6","5","7","7","7","1","6","724701248414023680","王","584","Female","[""坏我"",""好她"",""好我"",""坏她""]","[""弱我"",""强她"",""强我"",""弱她""]","","","","","","","","","","","","","","","","","","","","","","","","","","","","","","feedback_test","","","","","","","",""
"849","","f","psychophysics","104","759753","0.0-8.0-0.0-1.0-0.0-0.47","3","2","3","3","1","4","4","3","5","5","5","1","-1","0","2","0","-1","0","1","5","4","5","4","4","3","3","4","4","4","4","5","4","7","4","8","4","7","8","4","5","5","6","4","5","3","7","5","5","5","4","3","3","4","4","4","6","2","6","3","3","4","3","3","5","6","4","7","7","7","2","6","6","5","7","7","7","1","6","724701248414023680","王","584","Female","[""坏我"",""好她"",""好我"",""坏她""]","[""弱我"",""强她"",""强我"",""弱她""]","","","","","","","","match","","","","","","","","","","key","f","26.35007246376852","775.757530919998","432.42421743079575","f","true","match","img/trapezoid.png","好我","好我","prac_ALT2_moral","practice_moral","","","","","","","",""
"null","<span style='color:GreenYellow; font-size: 70px;'>正确! </span>","null","html-keyboard-response","105","760260","0.0-8.0-0.0-1.0-0.0-1.47","3","2","3","3","1","4","4","3","5","5","5","1","-1","0","2","0","-1","0","1","5","4","5","4","4","3","3","4","4","4","4","5","4","7","4","8","4","7","8","4","5","5","6","4","5","3","7","5","5","5","4","3","3","4","4","4","6","2","6","3","3","4","3","3","5","6","4","7","7","7","2","6","6","5","7","7","7","1","6","724701248414023680","王","584","Female","[""坏我"",""好她"",""好我"",""坏她""]","[""弱我"",""强她"",""强我"",""弱她""]","","","","","","","","","","","","","","","","","","","","","","","","","","","","","","feedback_test","","","","","","","",""
"119163","<style>.context{color:white; font-size: 35px; line-height:40px}</style>                            <div><p class='context'>您正确回答了69% 的试次。</p><p class='context'>您的平均反应时为982毫秒。</p><p class='context'>恭喜您完成练习。按空格键进入正式实验。</p><p class='footer' style='font-size: 35px; line-height:40px;'>请在进入正式实验实验之前将您的<span style='color: lightgreen;'>食指</span>放在电脑键盘的相应键位上进行按键。</p>"," ","html-keyboard-response","106","879429","0.0-8.0-0.0-2.0","3","2","3","3","1","4","4","3","5","5","5","1","-1","0","2","0","-1","0","1","5","4","5","4","4","3","3","4","4","4","4","5","4","7","4","8","4","7","8","4","5","5","6","4","5","3","7","5","5","5","4","3","3","4","4","4","6","2","6","3","3","4","3","3","5","6","4","7","7","7","2","6","6","5","7","7","7","1","6","724701248414023680","王","584","Female","[""坏我"",""好她"",""好我"",""坏她""]","[""弱我"",""强她"",""强我"",""弱她""]","","","","","","","","","","","","","","","","","","","","","","","","","","","","","","","","","","","","","",""
"2135","
    <p style='color: white; font-size: 22px'>请您将手指放在按键上，准备进入正式的匹配任务。</p>
    <p> <div style = ""color: green""><按空格键进入下一阶段的匹配任务></div></p>
    "," ","html-keyboard-response","107","881568","0.0-8.0-0.0-3.0","3","2","3","3","1","4","4","3","5","5","5","1","-1","0","2","0","-1","0","1","5","4","5","4","4","3","3","4","4","4","4","5","4","7","4","8","4","7","8","4","5","5","6","4","5","3","7","5","5","5","4","3","3","4","4","4","6","2","6","3","3","4","3","3","5","6","4","7","7","7","2","6","6","5","7","7","7","1","6","724701248414023680","王","584","Female","[""坏我"",""好她"",""好我"",""坏她""]","[""弱我"",""强她"",""强我"",""弱她""]","","","","","","","","","","","","","","","","","","","","","","","","","","","","","","","","","","","","","",""
"946","","f","psychophysics","108","883545","0.0-8.0-0.0-4.0-0.0-0.0","3","2","3","3","1","4","4","3","5","5","5","1","-1","0","2","0","-1","0","1","5","4","5","4","4","3","3","4","4","4","4","5","4","7","4","8","4","7","8","4","5","5","6","4","5","3","7","5","5","5","4","3","3","4","4","4","6","2","6","3","3","4","3","3","5","6","4","7","7","7","2","6","6","5","7","7","7","1","6","724701248414023680","王","584","Female","[""坏我"",""好她"",""好我"",""坏她""]","[""弱我"",""强她"",""强我"",""弱她""]","","","","","","","","match","","","","","","","","","","key","f","25.5742399999996","775.757530919998","432.42421743079575","f","true","match","img/triangle.png","好她","好她","ALT2","moral","","","","","","","",""
"null","<span style='color:GreenYellow; font-size: 70px;'>正确! </span>","null","html-keyboard-response","109","884047","0.0-8.0-0.0-4.0-0.0-1.0","3","2","3","3","1","4","4","3","5","5","5","1","-1","0","2","0","-1","0","1","5","4","5","4","4","3","3","4","4","4","4","5","4","7","4","8","4","7","8","4","5","5","6","4","5","3","7","5","5","5","4","3","3","4","4","4","6","2","6","3","3","4","3","3","5","6","4","7","7","7","2","6","6","5","7","7","7","1","6","724701248414023680","王","584","Female","[""坏我"",""好她"",""好我"",""坏她""]","[""弱我"",""强她"",""强我"",""弱她""]","","","","","","","","","","","","","","","","","","","","","","","","","","","","","","feedback_test","","","","","","","",""
"968","","j","psychophysics","110","886064","0.0-8.0-0.0-4.0-0.0-0.1","3","2","3","3","1","4","4","3","5","5","5","1","-1","0","2","0","-1","0","1","5","4","5","4","4","3","3","4","4","4","4","5","4","7","4","8","4","7","8","4","5","5","6","4","5","3","7","5","5","5","4","3","3","4","4","4","6","2","6","3","3","4","3","3","5","6","4","7","7","7","2","6","6","5","7","7","7","1","6","724701248414023680","王","584","Female","[""坏我"",""好她"",""好我"",""坏她""]","[""弱我"",""强她"",""强我"",""弱她""]","","","","","","","","nonmatch","","","","","","","","","","key","j","25.234256410256375","775.757530919998","432.42421743079575","j","true","nonmatch","img/triangle.png","坏她","好她","ALT2","moral","","","","","","","",""
"null","<span style='color:GreenYellow; font-size: 70px;'>正确! </span>","null","html-keyboard-response","111","886567","0.0-8.0-0.0-4.0-0.0-1.1","3","2","3","3","1","4","4","3","5","5","5","1","-1","0","2","0","-1","0","1","5","4","5","4","4","3","3","4","4","4","4","5","4","7","4","8","4","7","8","4","5","5","6","4","5","3","7","5","5","5","4","3","3","4","4","4","6","2","6","3","3","4","3","3","5","6","4","7","7","7","2","6","6","5","7","7","7","1","6","724701248414023680","王","584","Female","[""坏我"",""好她"",""好我"",""坏她""]","[""弱我"",""强她"",""强我"",""弱她""]","","","","","","","","","","","","","","","","","","","","","","","","","","","","","","feedback_test","","","","","","","",""
"967","","j","psychophysics","112","888574","0.0-8.0-0.0-4.0-0.0-0.2","3","2","3","3","1","4","4","3","5","5","5","1","-1","0","2","0","-1","0","1","5","4","5","4","4","3","3","4","4","4","4","5","4","7","4","8","4","7","8","4","5","5","6","4","5","3","7","5","5","5","4","3","3","4","4","4","6","2","6","3","3","4","3","3","5","6","4","7","7","7","2","6","6","5","7","7","7","1","6","724701248414023680","王","584","Female","[""坏我"",""好她"",""好我"",""坏她""]","[""弱我"",""强她"",""强我"",""弱她""]","","","","","","","","nonmatch","","","","","","","","","","key","j","25.56209090909189","775.757530919998","432.42421743079575","j","true","nonmatch","img/triangle.png","好我","好她","ALT2","moral","","","","","","","",""
"null","<span style='color:GreenYellow; font-size: 70px;'>正确! </span>","null","html-keyboard-response","113","889078","0.0-8.0-0.0-4.0-0.0-1.2","3","2","3","3","1","4","4","3","5","5","5","1","-1","0","2","0","-1","0","1","5","4","5","4","4","3","3","4","4","4","4","5","4","7","4","8","4","7","8","4","5","5","6","4","5","3","7","5","5","5","4","3","3","4","4","4","6","2","6","3","3","4","3","3","5","6","4","7","7","7","2","6","6","5","7","7","7","1","6","724701248414023680","王","584","Female","[""坏我"",""好她"",""好我"",""坏她""]","[""弱我"",""强她"",""强我"",""弱她""]","","","","","","","","","","","","","","","","","","","","","","","","","","","","","","feedback_test","","","","","","","",""
"1122","","j","psychophysics","114","891235","0.0-8.0-0.0-4.0-0.0-0.3","3","2","3","3","1","4","4","3","5","5","5","1","-1","0","2","0","-1","0","1","5","4","5","4","4","3","3","4","4","4","4","5","4","7","4","8","4","7","8","4","5","5","6","4","5","3","7","5","5","5","4","3","3","4","4","4","6","2","6","3","3","4","3","3","5","6","4","7","7","7","2","6","6","5","7","7","7","1","6","724701248414023680","王","584","Female","[""坏我"",""好她"",""好我"",""坏她""]","[""弱我"",""强她"",""强我"",""弱她""]","","","","","","","","nonmatch","","","","","","","","","","key","j","25.628621951219763","775.757530919998","432.42421743079575","j","true","nonmatch","img/pentagon.png","好我","坏我","ALT2","moral","","","","","","","",""
"null","<span style='color:GreenYellow; font-size: 70px;'>正确! </span>","null","html-keyboard-response","115","891742","0.0-8.0-0.0-4.0-0.0-1.3","3","2","3","3","1","4","4","3","5","5","5","1","-1","0","2","0","-1","0","1","5","4","5","4","4","3","3","4","4","4","4","5","4","7","4","8","4","7","8","4","5","5","6","4","5","3","7","5","5","5","4","3","3","4","4","4","6","2","6","3","3","4","3","3","5","6","4","7","7","7","2","6","6","5","7","7","7","1","6","724701248414023680","王","584","Female","[""坏我"",""好她"",""好我"",""坏她""]","[""弱我"",""强她"",""强我"",""弱她""]","","","","","","","","","","","","","","","","","","","","","","","","","","","","","","feedback_test","","","","","","","",""
"1015","","j","psychophysics","116","893807","0.0-8.0-0.0-4.0-0.0-0.4","3","2","3","3","1","4","4","3","5","5","5","1","-1","0","2","0","-1","0","1","5","4","5","4","4","3","3","4","4","4","4","5","4","7","4","8","4","7","8","4","5","5","6","4","5","3","7","5","5","5","4","3","3","4","4","4","6","2","6","3","3","4","3","3","5","6","4","7","7","7","2","6","6","5","7","7","7","1","6","724701248414023680","王","584","Female","[""坏我"",""好她"",""好我"",""坏她""]","[""弱我"",""强她"",""强我"",""弱她""]","","","","","","","","nonmatch","","","","","","","","","","key","j","26.211389610389634","775.757530919998","432.42421743079575","j","true","nonmatch","img/circle.png","好我","坏她","ALT2","moral","","","","","","","",""
"null","<span style='color:GreenYellow; font-size: 70px;'>正确! </span>","null","html-keyboard-response","117","894310","0.0-8.0-0.0-4.0-0.0-1.4","3","2","3","3","1","4","4","3","5","5","5","1","-1","0","2","0","-1","0","1","5","4","5","4","4","3","3","4","4","4","4","5","4","7","4","8","4","7","8","4","5","5","6","4","5","3","7","5","5","5","4","3","3","4","4","4","6","2","6","3","3","4","3","3","5","6","4","7","7","7","2","6","6","5","7","7","7","1","6","724701248414023680","王","584","Female","[""坏我"",""好她"",""好我"",""坏她""]","[""弱我"",""强她"",""强我"",""弱她""]","","","","","","","","","","","","","","","","","","","","","","","","","","","","","","feedback_test","","","","","","","",""
"1111","","j","psychophysics","118","896461","0.0-8.0-0.0-4.0-0.0-0.5","3","2","3","3","1","4","4","3","5","5","5","1","-1","0","2","0","-1","0","1","5","4","5","4","4","3","3","4","4","4","4","5","4","7","4","8","4","7","8","4","5","5","6","4","5","3","7","5","5","5","4","3","3","4","4","4","6","2","6","3","3","4","3","3","5","6","4","7","7","7","2","6","6","5","7","7","7","1","6","724701248414023680","王","584","Female","[""坏我"",""好她"",""好我"",""坏她""]","[""弱我"",""强她"",""强我"",""弱她""]","","","","","","","","nonmatch","","","","","","","","","","key","j","25.945987654320987","775.757530919998","432.42421743079575","j","true","nonmatch","img/trapezoid.png","坏我","好我","ALT2","moral","","","","","","","",""
"null","<span style='color:GreenYellow; font-size: 70px;'>正确! </span>","null","html-keyboard-response","119","896966","0.0-8.0-0.0-4.0-0.0-1.5","3","2","3","3","1","4","4","3","5","5","5","1","-1","0","2","0","-1","0","1","5","4","5","4","4","3","3","4","4","4","4","5","4","7","4","8","4","7","8","4","5","5","6","4","5","3","7","5","5","5","4","3","3","4","4","4","6","2","6","3","3","4","3","3","5","6","4","7","7","7","2","6","6","5","7","7","7","1","6","724701248414023680","王","584","Female","[""坏我"",""好她"",""好我"",""坏她""]","[""弱我"",""强她"",""强我"",""弱她""]","","","","","","","","","","","","","","","","","","","","","","","","","","","","","","feedback_test","","","","","","","",""
"803","","f","psychophysics","120","898806","0.0-8.0-0.0-4.0-0.0-0.6","3","2","3","3","1","4","4","3","5","5","5","1","-1","0","2","0","-1","0","1","5","4","5","4","4","3","3","4","4","4","4","5","4","7","4","8","4","7","8","4","5","5","6","4","5","3","7","5","5","5","4","3","3","4","4","4","6","2","6","3","3","4","3","3","5","6","4","7","7","7","2","6","6","5","7","7","7","1","6","724701248414023680","王","584","Female","[""坏我"",""好她"",""好我"",""坏她""]","[""弱我"",""强她"",""强我"",""弱她""]","","","","","","","","match","","","","","","","","","","key","f","25.86359420289839","775.757530919998","432.42421743079575","f","true","match","img/trapezoid.png","好我","好我","ALT2","moral","","","","","","","",""
"null","<span style='color:GreenYellow; font-size: 70px;'>正确! </span>","null","html-keyboard-response","121","899310","0.0-8.0-0.0-4.0-0.0-1.6","3","2","3","3","1","4","4","3","5","5","5","1","-1","0","2","0","-1","0","1","5","4","5","4","4","3","3","4","4","4","4","5","4","7","4","8","4","7","8","4","5","5","6","4","5","3","7","5","5","5","4","3","3","4","4","4","6","2","6","3","3","4","3","3","5","6","4","7","7","7","2","6","6","5","7","7","7","1","6","724701248414023680","王","584","Female","[""坏我"",""好她"",""好我"",""坏她""]","[""弱我"",""强她"",""强我"",""弱她""]","","","","","","","","","","","","","","","","","","","","","","","","","","","","","","feedback_test","","","","","","","",""
"886","","f","psychophysics","122","901247","0.0-8.0-0.0-4.0-0.0-0.7","3","2","3","3","1","4","4","3","5","5","5","1","-1","0","2","0","-1","0","1","5","4","5","4","4","3","3","4","4","4","4","5","4","7","4","8","4","7","8","4","5","5","6","4","5","3","7","5","5","5","4","3","3","4","4","4","6","2","6","3","3","4","3","3","5","6","4","7","7","7","2","6","6","5","7","7","7","1","6","724701248414023680","王","584","Female","[""坏我"",""好她"",""好我"",""坏她""]","[""弱我"",""强她"",""强我"",""弱她""]","","","","","","","","match","","","","","","","","","","key","f","26.1764722222223","775.757530919998","432.42421743079575","f","true","match","img/pentagon.png","坏我","坏我","ALT2","moral","","","","","","","",""
"null","<span style='color:GreenYellow; font-size: 70px;'>正确! </span>","null","html-keyboard-response","123","901750","0.0-8.0-0.0-4.0-0.0-1.7","3","2","3","3","1","4","4","3","5","5","5","1","-1","0","2","0","-1","0","1","5","4","5","4","4","3","3","4","4","4","4","5","4","7","4","8","4","7","8","4","5","5","6","4","5","3","7","5","5","5","4","3","3","4","4","4","6","2","6","3","3","4","3","3","5","6","4","7","7","7","2","6","6","5","7","7","7","1","6","724701248414023680","王","584","Female","[""坏我"",""好她"",""好我"",""坏她""]","[""弱我"",""强她"",""强我"",""弱她""]","","","","","","","","","","","","","","","","","","","","","","","","","","","","","","feedback_test","","","","","","","",""
"1216","","j","psychophysics","124","903992","0.0-8.0-0.0-4.0-0.0-0.8","3","2","3","3","1","4","4","3","5","5","5","1","-1","0","2","0","-1","0","1","5","4","5","4","4","3","3","4","4","4","4","5","4","7","4","8","4","7","8","4","5","5","6","4","5","3","7","5","5","5","4","3","3","4","4","4","6","2","6","3","3","4","3","3","5","6","4","7","7","7","2","6","6","5","7","7","7","1","6","724701248414023680","王","584","Female","[""坏我"",""好她"",""好我"",""坏她""]","[""弱我"",""强她"",""强我"",""弱她""]","","","","","","","","nonmatch","","","","","","","","","","key","j","26.011892857142293","775.757530919998","432.42421743079575","f","false","match","img/circle.png","坏她","坏她","ALT2","moral","","","","","","","",""
"null","<span class='add_' style='color:yellow; font-size: 70px;'> 太慢! </span>","null","html-keyboard-response","125","904494","0.0-8.0-0.0-4.0-0.0-1.8","3","2","3","3","1","4","4","3","5","5","5","1","-1","0","2","0","-1","0","1","5","4","5","4","4","3","3","4","4","4","4","5","4","7","4","8","4","7","8","4","5","5","6","4","5","3","7","5","5","5","4","3","3","4","4","4","6","2","6","3","3","4","3","3","5","6","4","7","7","7","2","6","6","5","7","7","7","1","6","724701248414023680","王","584","Female","[""坏我"",""好她"",""好我"",""坏她""]","[""弱我"",""强她"",""强我"",""弱她""]","","","","","","","","","","","","","","","","","","","","","","","","","","","","","","feedback_test","","","","","","","",""
"956","","j","psychophysics","126","906474","0.0-8.0-0.0-4.0-0.0-0.9","3","2","3","3","1","4","4","3","5","5","5","1","-1","0","2","0","-1","0","1","5","4","5","4","4","3","3","4","4","4","4","5","4","7","4","8","4","7","8","4","5","5","6","4","5","3","7","5","5","5","4","3","3","4","4","4","6","2","6","3","3","4","3","3","5","6","4","7","7","7","2","6","6","5","7","7","7","1","6","724701248414023680","王","584","Female","[""坏我"",""好她"",""好我"",""坏她""]","[""弱我"",""强她"",""强我"",""弱她""]","","","","","","","","nonmatch","","","","","","","","","","key","j","30.492156250000335","775.757530919998","432.42421743079575","j","true","nonmatch","img/trapezoid.png","好她","好我","ALT2","moral","","","","","","","",""
"null","<span style='color:GreenYellow; font-size: 70px;'>正确! </span>","null","html-keyboard-response","127","906982","0.0-8.0-0.0-4.0-0.0-1.9","3","2","3","3","1","4","4","3","5","5","5","1","-1","0","2","0","-1","0","1","5","4","5","4","4","3","3","4","4","4","4","5","4","7","4","8","4","7","8","4","5","5","6","4","5","3","7","5","5","5","4","3","3","4","4","4","6","2","6","3","3","4","3","3","5","6","4","7","7","7","2","6","6","5","7","7","7","1","6","724701248414023680","王","584","Female","[""坏我"",""好她"",""好我"",""坏她""]","[""弱我"",""强她"",""强我"",""弱她""]","","","","","","","","","","","","","","","","","","","","","","","","","","","","","","feedback_test","","","","","","","",""
"997","","j","psychophysics","128","909012","0.0-8.0-0.0-4.0-0.0-0.10","3","2","3","3","1","4","4","3","5","5","5","1","-1","0","2","0","-1","0","1","5","4","5","4","4","3","3","4","4","4","4","5","4","7","4","8","4","7","8","4","5","5","6","4","5","3","7","5","5","5","4","3","3","4","4","4","6","2","6","3","3","4","3","3","5","6","4","7","7","7","2","6","6","5","7","7","7","1","6","724701248414023680","王","584","Female","[""坏我"",""好她"",""好我"",""坏她""]","[""弱我"",""强她"",""强我"",""弱她""]","","","","","","","","nonmatch","","","","","","","","","","key","j","27.95485915493017","775.757530919998","432.42421743079575","f","false","match","img/triangle.png","好她","好她","ALT2","moral","","","","","","","",""
"null","<span style='color:red; font-size: 70px;'>错误! </span>","null","html-keyboard-response","129","909519","0.0-8.0-0.0-4.0-0.0-1.10","3","2","3","3","1","4","4","3","5","5","5","1","-1","0","2","0","-1","0","1","5","4","5","4","4","3","3","4","4","4","4","5","4","7","4","8","4","7","8","4","5","5","6","4","5","3","7","5","5","5","4","3","3","4","4","4","6","2","6","3","3","4","3","3","5","6","4","7","7","7","2","6","6","5","7","7","7","1","6","724701248414023680","王","584","Female","[""坏我"",""好她"",""好我"",""坏她""]","[""弱我"",""强她"",""强我"",""弱她""]","","","","","","","","","","","","","","","","","","","","","","","","","","","","","","feedback_test","","","","","","","",""
"897","","j","psychophysics","130","911447","0.0-8.0-0.0-4.0-0.0-0.11","3","2","3","3","1","4","4","3","5","5","5","1","-1","0","2","0","-1","0","1","5","4","5","4","4","3","3","4","4","4","4","5","4","7","4","8","4","7","8","4","5","5","6","4","5","3","7","5","5","5","4","3","3","4","4","4","6","2","6","3","3","4","3","3","5","6","4","7","7","7","2","6","6","5","7","7","7","1","6","724701248414023680","王","584","Female","[""坏我"",""好她"",""好我"",""坏她""]","[""弱我"",""强她"",""强我"",""弱她""]","","","","","","","","nonmatch","","","","","","","","","","key","j","26.31354929577448","775.757530919998","432.42421743079575","j","true","nonmatch","img/pentagon.png","好她","坏我","ALT2","moral","","","","","","","",""
"null","<span style='color:GreenYellow; font-size: 70px;'>正确! </span>","null","html-keyboard-response","131","911951","0.0-8.0-0.0-4.0-0.0-1.11","3","2","3","3","1","4","4","3","5","5","5","1","-1","0","2","0","-1","0","1","5","4","5","4","4","3","3","4","4","4","4","5","4","7","4","8","4","7","8","4","5","5","6","4","5","3","7","5","5","5","4","3","3","4","4","4","6","2","6","3","3","4","3","3","5","6","4","7","7","7","2","6","6","5","7","7","7","1","6","724701248414023680","王","584","Female","[""坏我"",""好她"",""好我"",""坏她""]","[""弱我"",""强她"",""强我"",""弱她""]","","","","","","","","","","","","","","","","","","","","","","","","","","","","","","feedback_test","","","","","","","",""
"807","","f","psychophysics","132","913810","0.0-8.0-0.0-4.0-0.0-0.12","3","2","3","3","1","4","4","3","5","5","5","1","-1","0","2","0","-1","0","1","5","4","5","4","4","3","3","4","4","4","4","5","4","7","4","8","4","7","8","4","5","5","6","4","5","3","7","5","5","5","4","3","3","4","4","4","6","2","6","3","3","4","3","3","5","6","4","7","7","7","2","6","6","5","7","7","7","1","6","724701248414023680","王","584","Female","[""坏我"",""好她"",""好我"",""坏她""]","[""弱我"",""强她"",""强我"",""弱她""]","","","","","","","","match","","","","","","","","","","key","f","26.73817647058818","775.757530919998","432.42421743079575","f","true","match","img/trapezoid.png","好我","好我","ALT2","moral","","","","","","","",""
"null","<span style='color:GreenYellow; font-size: 70px;'>正确! </span>","null","html-keyboard-response","133","914319","0.0-8.0-0.0-4.0-0.0-1.12","3","2","3","3","1","4","4","3","5","5","5","1","-1","0","2","0","-1","0","1","5","4","5","4","4","3","3","4","4","4","4","5","4","7","4","8","4","7","8","4","5","5","6","4","5","3","7","5","5","5","4","3","3","4","4","4","6","2","6","3","3","4","3","3","5","6","4","7","7","7","2","6","6","5","7","7","7","1","6","724701248414023680","王","584","Female","[""坏我"",""好她"",""好我"",""坏她""]","[""弱我"",""强她"",""强我"",""弱她""]","","","","","","","","","","","","","","","","","","","","","","","","","","","","","","feedback_test","","","","","","","",""
"1140","","j","psychophysics","134","916493","0.0-8.0-0.0-4.0-0.0-0.13","3","2","3","3","1","4","4","3","5","5","5","1","-1","0","2","0","-1","0","1","5","4","5","4","4","3","3","4","4","4","4","5","4","7","4","8","4","7","8","4","5","5","6","4","5","3","7","5","5","5","4","3","3","4","4","4","6","2","6","3","3","4","3","3","5","6","4","7","7","7","2","6","6","5","7","7","7","1","6","724701248414023680","王","584","Female","[""坏我"",""好她"",""好我"",""坏她""]","[""弱我"",""强她"",""强我"",""弱她""]","","","","","","","","nonmatch","","","","","","","","","","key","j","26.68265000000101","775.757530919998","432.42421743079575","f","false","match","img/pentagon.png","坏我","坏我","ALT2","moral","","","","","","","",""
"null","<span style='color:red; font-size: 70px;'>错误! </span>","null","html-keyboard-response","135","916998","0.0-8.0-0.0-4.0-0.0-1.13","3","2","3","3","1","4","4","3","5","5","5","1","-1","0","2","0","-1","0","1","5","4","5","4","4","3","3","4","4","4","4","5","4","7","4","8","4","7","8","4","5","5","6","4","5","3","7","5","5","5","4","3","3","4","4","4","6","2","6","3","3","4","3","3","5","6","4","7","7","7","2","6","6","5","7","7","7","1","6","724701248414023680","王","584","Female","[""坏我"",""好她"",""好我"",""坏她""]","[""弱我"",""强她"",""强我"",""弱她""]","","","","","","","","","","","","","","","","","","","","","","","","","","","","","","feedback_test","","","","","","","",""
"976","","j","psychophysics","136","919003","0.0-8.0-0.0-4.0-0.0-0.14","3","2","3","3","1","4","4","3","5","5","5","1","-1","0","2","0","-1","0","1","5","4","5","4","4","3","3","4","4","4","4","5","4","7","4","8","4","7","8","4","5","5","6","4","5","3","7","5","5","5","4","3","3","4","4","4","6","2","6","3","3","4","3","3","5","6","4","7","7","7","2","6","6","5","7","7","7","1","6","724701248414023680","王","584","Female","[""坏我"",""好她"",""好我"",""坏她""]","[""弱我"",""强她"",""强我"",""弱她""]","","","","","","","","nonmatch","","","","","","","","","","key","j","26.376148648649718","775.757530919998","432.42421743079575","j","true","nonmatch","img/trapezoid.png","坏她","好我","ALT2","moral","","","","","","","",""
