"rt","stimulus","response","trial_type","trial_index","time_elapsed","internal_node_id","swb_1","swb_2","swb_3","swb_4","swb_5","LOT_1","LOT_2","LOT_3","LOT_4","LOT_5","LOT_6","IPC_1","IPC_2","IPC_3","IPC_4","IPC_5","IPC_6","IPC_7","IPC_8","MorIden_1","MorIden_2","MorIden_3","MorIden_4","MorIden_5","MorIden_6","MorIden_7","MorIden_8","MorIden_9","MorIden_10","moralSeImag_1","moralSeImag_2","moralSeImag_3","moralSeImag_4","moralSeImag_5","moralSeImag_6","moralSeImag_7","moralSeImag_8","moralSeImag_9","sde_1","sde_2","sde_3","sde_4","sde_5","sde_6","sde_7","sde_8","sde_9","sde_10","sde_11","sde_12","sde_13","sde_14","sde_15","sde_16","sde_17","sde_18","sde_19","sde_20","IM_1","IM_2","IM_3","IM_4","IM_5","IM_6","IM_7","IM_8","IM_9","IM_10","IM_11","IM_12","IM_13","IM_14","IM_15","IM_16","IM_17","IM_18","IM_19","IM_20","subj_idx","friend_name","ParticipantID","Sex","Word","Word2","value","success","timeout","failed_images","failed_audio","failed_video","user_agent","responses","item_order","radio_event_ids","radio_event_times","key_event_times","mouse_event_times","straightlining","zigzagging","honeypot","task_id","screen_id","time_stamp","response_type","key_press","avg_frame_time","center_x","center_y","person","word","valence","domain","math","correct_response","correct","status","view_history","identity","duration","Image","condition","question_order"
"9284","
   <p><div style='color:white; font-size: 25px'>您好，欢迎参加本次实验。</div></p>
   <p><div style='color:white; font-size: 25px'>为充分保障您的权利，请确保您已经知晓并同意《参与实验同意书》以及《数据公开知情同意书》。</div></p>
   <p><div style='color:white; font-size: 25px'>如果您未见过上述内容，请咨询实验员。</div></p>
   <p style='color:white; font-size: 25px'>如果您选择继续实验，则表示您已经清楚两份知情同意书的内容并同意。</p>
   <p><div style = ""color: red;font-size:30px;"">请确保您记得day0的实验编号，您将在本次实验输入该编号，若您忘记，请咨询实验员后作答。</div></p>
   <p> <div style = ""color: green""><按空格键至下页></div> </p>
   "," ","html-keyboard-response","0","9289","0.0-0.0","6","7","5","5","6","4","4","5","4","5","4","-2","-3","1","2","1","1","2","1","4","5","4","5","4","4","5","4","5","5","7","8","6","8","6","9","7","8","6","5","7","5","6","6","6","1","6","5","7","7","6","1","7","5","6","7","7","1","6","3","7","2","3","6","5","7","6","7","5","6","6","5","1","3","7","5","6","6","5","633773426204475392","韩","671","Female","[""坏她"",""好她"",""坏我"",""好我""]","[""弱她"",""强她"",""弱我"",""强我""]","","","","","","","","","","","","","","","","","","","","","","","","","","","","","","","","","","","","","",""
"","","","call-function","1","9290","0.0-1.0-0.0","6","7","5","5","6","4","4","5","4","5","4","-2","-3","1","2","1","1","2","1","4","5","4","5","4","4","5","4","5","5","7","8","6","8","6","9","7","8","6","5","7","5","6","6","6","1","6","5","7","7","6","1","7","5","6","7","7","1","6","3","7","2","3","6","5","7","6","7","5","6","6","5","1","3","7","5","6","6","5","633773426204475392","韩","671","Female","[""坏她"",""好她"",""坏我"",""好我""]","[""弱她"",""强她"",""弱我"",""强我""]","","","","","","","","","","","","","","","","","","","","","","","","","","","","","","","","","","","","","",""
"40422","","[{""name"":""Sex"",""value"":""1""},{""name"":""friend_name"",""value"":""韩""},{""name"":""ParticipantID"",""value"":""671""}]","survey-html-form","2","49722","0.0-1.0-1.0","6","7","5","5","6","4","4","5","4","5","4","-2","-3","1","2","1","1","2","1","4","5","4","5","4","4","5","4","5","5","7","8","6","8","6","9","7","8","6","5","7","5","6","6","6","1","6","5","7","7","6","1","7","5","6","7","7","1","6","3","7","2","3","6","5","7","6","7","5","6","6","5","1","3","7","5","6","6","5","633773426204475392","韩","671","Female","[""坏她"",""好她"",""坏我"",""好我""]","[""弱她"",""强她"",""弱我"",""强我""]","","","","","","","","","","","","","","","","","","","","","","","","","","","","","","","","","","","","","",""
"","","","preload","3","50308","0.0-2.0","6","7","5","5","6","4","4","5","4","5","4","-2","-3","1","2","1","1","2","1","4","5","4","5","4","4","5","4","5","5","7","8","6","8","6","9","7","8","6","5","7","5","6","6","6","1","6","5","7","7","6","1","7","5","6","7","7","1","6","3","7","2","3","6","5","7","6","7","5","6","6","5","1","3","7","5","6","6","5","633773426204475392","韩","671","Female","[""坏她"",""好她"",""坏我"",""好我""]","[""弱她"",""强她"",""弱我"",""强我""]","","true","false","[]","[]","[]","","","","","","","","","","","","","","","","","","","","","","","","","","","","","","","",""
"","","","fullscreen","4","51449","0.0-3.0","6","7","5","5","6","4","4","5","4","5","4","-2","-3","1","2","1","1","2","1","4","5","4","5","4","4","5","4","5","5","7","8","6","8","6","9","7","8","6","5","7","5","6","6","6","1","6","5","7","7","6","1","7","5","6","7","7","1","6","3","7","2","3","6","5","7","6","7","5","6","6","5","1","3","7","5","6","6","5","633773426204475392","韩","671","Female","[""坏她"",""好她"",""坏我"",""好我""]","[""弱她"",""强她"",""弱我"",""强我""]","","true","","","","","{}","","","","","","","","","","","","","","","","","","","","","","","","","","","","","","",""
"20060.300000190735","","{""Q01"":""6"",""Q02"":""7"",""Q03"":""5"",""Q04"":""5"",""Q05"":""6""}","survey-template","5","71532","0.0-4.0","6","7","5","5","6","4","4","5","4","5","4","-2","-3","1","2","1","1","2","1","4","5","4","5","4","4","5","4","5","5","7","8","6","8","6","9","7","8","6","5","7","5","6","6","6","1","6","5","7","7","6","1","7","5","6","7","7","1","6","3","7","2","3","6","5","7","6","7","5","6","6","5","1","3","7","5","6","6","5","633773426204475392","韩","671","Female","[""坏她"",""好她"",""坏我"",""好我""]","[""弱她"",""强她"",""弱我"",""强我""]","","","","","","","","{""Q01"":""6"",""Q02"":""7"",""Q03"":""5"",""Q04"":""5"",""Q05"":""6""}","[0,1,2,3,4]","[""Q01"",""Q02"",""Q03"",""Q04"",""Q05""]","[8294.800000190735,10844.5,12800.5,13550.5,14592.700000047684]","[]","[8294.800000190735,9400.800000190735,10319.200000047684,10844.5,11970.900000095367,12800.5,13550.5,14592.700000047684,20056.800000190735]","0.4","0.5","0","","","","","","","","","","","","","","","","","","","","","",""
"29657.900000095367","","{""Q01"":""4"",""Q02"":""4"",""Q03"":""5"",""Q04"":""4"",""Q05"":""5"",""Q06"":""4""}","survey-template","6","101207","0.0-5.0","6","7","5","5","6","4","4","5","4","5","4","-2","-3","1","2","1","1","2","1","4","5","4","5","4","4","5","4","5","5","7","8","6","8","6","9","7","8","6","5","7","5","6","6","6","1","6","5","7","7","6","1","7","5","6","7","7","1","6","3","7","2","3","6","5","7","6","7","5","6","6","5","1","3","7","5","6","6","5","633773426204475392","韩","671","Female","[""坏她"",""好她"",""坏我"",""好我""]","[""弱她"",""强她"",""弱我"",""强我""]","","","","","","","","{""Q01"":""4"",""Q02"":""4"",""Q03"":""5"",""Q04"":""4"",""Q05"":""5"",""Q06"":""4""}","[0,1,2,3,4,5]","[""Q01"",""Q01"",""Q02"",""Q03"",""Q04"",""Q05"",""Q05"",""Q06""]","[3543.2999999523163,5481,13964.200000047684,15226.400000095367,17234.200000047684,18447,19422.200000047684,20664.900000095367]","[]","[3543.2999999523163,4183.299999952316,4519.200000047684,5481,13157.200000047684,13705.400000095367,13964.200000047684,15226.400000095367,17234.200000047684,18447,19422.200000047684,20664.900000095367,29657.099999904633]","0.3333333333333333","0.2","0","","","","","","","","","","","","","","","","","","","","","",""
"52640.799999952316","","{""Q01"":""-2"",""Q02"":""-3"",""Q03"":""1"",""Q04"":""2"",""Q05"":""1"",""Q06"":""1"",""Q07"":""2"",""Q08"":""1""}","survey-template","7","153854","0.0-6.0","6","7","5","5","6","4","4","5","4","5","4","-2","-3","1","2","1","1","2","1","4","5","4","5","4","4","5","4","5","5","7","8","6","8","6","9","7","8","6","5","7","5","6","6","6","1","6","5","7","7","6","1","7","5","6","7","7","1","6","3","7","2","3","6","5","7","6","7","5","6","6","5","1","3","7","5","6","6","5","633773426204475392","韩","671","Female","[""坏她"",""好她"",""坏我"",""好我""]","[""弱她"",""强她"",""弱我"",""强我""]","","","","","","","","{""Q01"":""-2"",""Q02"":""-3"",""Q03"":""1"",""Q04"":""2"",""Q05"":""1"",""Q06"":""1"",""Q07"":""2"",""Q08"":""1""}","[0,1,2,3,4,5,6,7]","[""Q01"",""Q02"",""Q03"",""Q04"",""Q05"",""Q06"",""Q07"",""Q08""]","[7790.5,9273.700000047684,11383.700000047684,19219.700000047684,21075.299999952316,22303.799999952316,23879.900000095367,25763.400000095367]","[]","[7059.700000047684,7445.799999952316,7790.5,8799.700000047684,9273.700000047684,11051.599999904633,11383.700000047684,19219.700000047684,21075.299999952316,22303.799999952316,23879.900000095367,25763.400000095367,52639.5]","0.5","0.7142857142857143","0","","","","","","","","","","","","","","","","","","","","","",""
"4644","
    <p><div style='color:white;font-size:35px; line-height:20px;'>词汇评估任务</div></p><br>
    <p><div style='color:white;font-size:25px; line-height:20px;'>请再次回忆该亲密的朋友，你们至少2年前就认识了，并且最近2年经常见面。</div></p>
    <p><div style='color:white;font-size:25px; line-height:20px;'>在本实验中，您将会看到一些形容词。</div></p>
    <p><div style='color:yellow;font-size:25px; line-height:20px;'>您的任务是判断这些形容词是否符合对您自己或您的朋友的描述。</div></p><p style='font-size:35px'>符合按<span style=""color:lightgreen""> j 键</span>，不符合按<span style=""color:red""> f 键</span></p>","0","html-button-response","8","158506","0.0-7.0-0.0","6","7","5","5","6","4","4","5","4","5","4","-2","-3","1","2","1","1","2","1","4","5","4","5","4","4","5","4","5","5","7","8","6","8","6","9","7","8","6","5","7","5","6","6","6","1","6","5","7","7","6","1","7","5","6","7","7","1","6","3","7","2","3","6","5","7","6","7","5","6","6","5","1","3","7","5","6","6","5","633773426204475392","韩","671","Female","[""坏她"",""好她"",""坏我"",""好我""]","[""弱她"",""强她"",""弱我"",""强我""]","","","","","","","","","","","","","","","","","SRET_EW","EW_instructions","Fri Nov 03 2023 10:32:06 GMT+0800 (中国标准时间)","","","","","","","","","","","","","","","","","","",""
"2866","","f","psychophysics","9","162394","0.0-7.0-1.0-0.0","6","7","5","5","6","4","4","5","4","5","4","-2","-3","1","2","1","1","2","1","4","5","4","5","4","4","5","4","5","5","7","8","6","8","6","9","7","8","6","5","7","5","6","6","6","1","6","5","7","7","6","1","7","5","6","7","7","1","6","3","7","2","3","6","5","7","6","7","5","6","6","5","1","3","7","5","6","6","5","633773426204475392","韩","671","Female","[""坏她"",""好她"",""坏我"",""好我""]","[""弱她"",""强她"",""弱我"",""强我""]","","","","","","","","no","","","","","","","","","SRET_EW","EW_practice","","key","f","16.94266521739128","799.9999682108573","445.8333156175091","朋友","徇私","Negative","morality","","","","","","","","","",""
"1457","","j","psychophysics","10","164859","0.0-7.0-1.0-0.1","6","7","5","5","6","4","4","5","4","5","4","-2","-3","1","2","1","1","2","1","4","5","4","5","4","4","5","4","5","5","7","8","6","8","6","9","7","8","6","5","7","5","6","6","6","1","6","5","7","7","6","1","7","5","6","7","7","1","6","3","7","2","3","6","5","7","6","7","5","6","6","5","1","3","7","5","6","6","5","633773426204475392","韩","671","Female","[""坏她"",""好她"",""坏我"",""好我""]","[""弱她"",""强她"",""弱我"",""强我""]","","","","","","","","yes","","","","","","","","","SRET_EW","EW_practice","","key","j","16.652782312925186","799.9999682108573","445.8333156175091","朋友","忠实","Positive","morality","","","","","","","","","",""
"2932","","j","psychophysics","11","168804","0.0-7.0-1.0-0.2","6","7","5","5","6","4","4","5","4","5","4","-2","-3","1","2","1","1","2","1","4","5","4","5","4","4","5","4","5","5","7","8","6","8","6","9","7","8","6","5","7","5","6","6","6","1","6","5","7","7","6","1","7","5","6","7","7","1","6","3","7","2","3","6","5","7","6","7","5","6","6","5","1","3","7","5","6","6","5","633773426204475392","韩","671","Female","[""坏她"",""好她"",""坏我"",""好我""]","[""弱她"",""强她"",""弱我"",""强我""]","","","","","","","","yes","","","","","","","","","SRET_EW","EW_practice","","key","j","16.652961864406727","799.9999682108573","445.8333156175091","自己","严谨","Positive","ability","","","","","","","","","",""
"3674","","f","psychophysics","12","173480","0.0-7.0-1.0-0.3","6","7","5","5","6","4","4","5","4","5","4","-2","-3","1","2","1","1","2","1","4","5","4","5","4","4","5","4","5","5","7","8","6","8","6","9","7","8","6","5","7","5","6","6","6","1","6","5","7","7","6","1","7","5","6","7","7","1","6","3","7","2","3","6","5","7","6","7","5","6","6","5","1","3","7","5","6","6","5","633773426204475392","韩","671","Female","[""坏她"",""好她"",""坏我"",""好我""]","[""弱她"",""强她"",""弱我"",""强我""]","","","","","","","","no","","","","","","","","","SRET_EW","EW_practice","","key","f","16.652778571428644","799.9999682108573","445.8333156175091","自己","刻板","Negative","ability","","","","","","","","","",""
"4582","
    <p><div style='color:white;font-size:35px; line-height:20px;'>请您再次阅读实验要求</div></p><br>
    <p><div style='color:white;font-size:25px; line-height:20px;'>请回忆某一个亲密的朋友，你们至少2年前就认识了，并且最近2年经常见面。</div></p>
    <p><div style='color:white;font-size:25px; line-height:20px;'>在本实验中，您将会看到一些形容词。</div></p>
    <p><div style='color:yellow;font-size:25px; line-height:20px;'>您的任务是判断这些形容词是否符合对您自己或您的朋友的描述。</div></p>
    <p><div class='footer' style='font-size:25px; line-height:20px;'>如果对本实验还有不清楚之处，请立即向实验员咨询。</p><p style='font-size:25px; line-height:20px;'>如果您明白了规则：</p><p style='font-size:22px; line-height:20px;'>请按 继续 进入正式实验</p>
    </div>
    <p style='font-size:35px'>符合按<span style=""color:lightgreen""> j 键</span>，不符合按<span style=""color:red""> f 键</span></p>","0","html-button-response","13","178064","0.0-7.0-2.0","6","7","5","5","6","4","4","5","4","5","4","-2","-3","1","2","1","1","2","1","4","5","4","5","4","4","5","4","5","5","7","8","6","8","6","9","7","8","6","5","7","5","6","6","6","1","6","5","7","7","6","1","7","5","6","7","7","1","6","3","7","2","3","6","5","7","6","7","5","6","6","5","1","3","7","5","6","6","5","633773426204475392","韩","671","Female","[""坏她"",""好她"",""坏我"",""好我""]","[""弱她"",""强她"",""弱我"",""强我""]","","","","","","","","","","","","","","","","","SRET_EW","prac_instructions","Fri Nov 03 2023 10:32:06 GMT+0800 (中国标准时间)","","","","","","","","","","","","","","","","","","",""
"4276","","j","psychophysics","14","183342","0.0-7.0-3.0-0.0","6","7","5","5","6","4","4","5","4","5","4","-2","-3","1","2","1","1","2","1","4","5","4","5","4","4","5","4","5","5","7","8","6","8","6","9","7","8","6","5","7","5","6","6","6","1","6","5","7","7","6","1","7","5","6","7","7","1","6","3","7","2","3","6","5","7","6","7","5","6","6","5","1","3","7","5","6","6","5","633773426204475392","韩","671","Female","[""坏她"",""好她"",""坏我"",""好我""]","[""弱她"",""强她"",""弱我"",""强我""]","","","","","","","","yes","","","","","","","","","SRET","EW_formal","","key","j","16.653460567823334","799.9999682108573","445.8333156175091","朋友","务实","Positive","ability","","","","","","","","","",""
"3167","","j","psychophysics","15","187512","0.0-7.0-3.0-0.1","6","7","5","5","6","4","4","5","4","5","4","-2","-3","1","2","1","1","2","1","4","5","4","5","4","4","5","4","5","5","7","8","6","8","6","9","7","8","6","5","7","5","6","6","6","1","6","5","7","7","6","1","7","5","6","7","7","1","6","3","7","2","3","6","5","7","6","7","5","6","6","5","1","3","7","5","6","6","5","633773426204475392","韩","671","Female","[""坏她"",""好她"",""坏我"",""好我""]","[""弱她"",""强她"",""弱我"",""强我""]","","","","","","","","yes","","","","","","","","","SRET","EW_formal","","key","j","16.65286746987957","799.9999682108573","445.8333156175091","朋友","迷糊","Negative","ability","","","","","","","","","",""
"3525","","f","psychophysics","16","192040","0.0-7.0-3.0-0.2","6","7","5","5","6","4","4","5","4","5","4","-2","-3","1","2","1","1","2","1","4","5","4","5","4","4","5","4","5","5","7","8","6","8","6","9","7","8","6","5","7","5","6","6","6","1","6","5","7","7","6","1","7","5","6","7","7","1","6","3","7","2","3","6","5","7","6","7","5","6","6","5","1","3","7","5","6","6","5","633773426204475392","韩","671","Female","[""坏她"",""好她"",""坏我"",""好我""]","[""弱她"",""强她"",""弱我"",""强我""]","","","","","","","","no","","","","","","","","","SRET","EW_formal","","key","f","16.65314391143914","799.9999682108573","445.8333156175091","自己","说谎","Negative","morality","","","","","","","","","",""
"1823","","j","psychophysics","17","194864","0.0-7.0-3.0-0.3","6","7","5","5","6","4","4","5","4","5","4","-2","-3","1","2","1","1","2","1","4","5","4","5","4","4","5","4","5","5","7","8","6","8","6","9","7","8","6","5","7","5","6","6","6","1","6","5","7","7","6","1","7","5","6","7","7","1","6","3","7","2","3","6","5","7","6","7","5","6","6","5","1","3","7","5","6","6","5","633773426204475392","韩","671","Female","[""坏她"",""好她"",""坏我"",""好我""]","[""弱她"",""强她"",""弱我"",""强我""]","","","","","","","","yes","","","","","","","","","SRET","EW_formal","","key","j","16.652627218934878","799.9999682108573","445.8333156175091","自己","坚贞","Positive","morality","","","","","","","","","",""
"1377","","j","psychophysics","18","197243","0.0-7.0-3.0-0.4","6","7","5","5","6","4","4","5","4","5","4","-2","-3","1","2","1","1","2","1","4","5","4","5","4","4","5","4","5","5","7","8","6","8","6","9","7","8","6","5","7","5","6","6","6","1","6","5","7","7","6","1","7","5","6","7","7","1","6","3","7","2","3","6","5","7","6","7","5","6","6","5","1","3","7","5","6","6","5","633773426204475392","韩","671","Female","[""坏她"",""好她"",""坏我"",""好我""]","[""弱她"",""强她"",""弱我"",""强我""]","","","","","","","","yes","","","","","","","","","SRET","EW_formal","","key","j","16.651971830985826","799.9999682108573","445.8333156175091","朋友","坦荡","Positive","morality","","","","","","","","","",""
"3084","","f","psychophysics","19","201340","0.0-7.0-3.0-0.5","6","7","5","5","6","4","4","5","4","5","4","-2","-3","1","2","1","1","2","1","4","5","4","5","4","4","5","4","5","5","7","8","6","8","6","9","7","8","6","5","7","5","6","6","6","1","6","5","7","7","6","1","7","5","6","7","7","1","6","3","7","2","3","6","5","7","6","7","5","6","6","5","1","3","7","5","6","6","5","633773426204475392","韩","671","Female","[""坏她"",""好她"",""坏我"",""好我""]","[""弱她"",""强她"",""弱我"",""强我""]","","","","","","","","no","","","","","","","","","SRET","EW_formal","","key","f","16.652983673469386","799.9999682108573","445.8333156175091","朋友","业余","Negative","ability","","","","","","","","","",""
"1930","","f","psychophysics","20","204272","0.0-7.0-3.0-0.6","6","7","5","5","6","4","4","5","4","5","4","-2","-3","1","2","1","1","2","1","4","5","4","5","4","4","5","4","5","5","7","8","6","8","6","9","7","8","6","5","7","5","6","6","6","1","6","5","7","7","6","1","7","5","6","7","7","1","6","3","7","2","3","6","5","7","6","7","5","6","6","5","1","3","7","5","6","6","5","633773426204475392","韩","671","Female","[""坏她"",""好她"",""坏我"",""好我""]","[""弱她"",""强她"",""弱我"",""强我""]","","","","","","","","no","","","","","","","","","SRET","EW_formal","","key","f","16.652902857142866","799.9999682108573","445.8333156175091","朋友","阴毒","Negative","morality","","","","","","","","","",""
"2618","","j","psychophysics","21","207892","0.0-7.0-3.0-0.7","6","7","5","5","6","4","4","5","4","5","4","-2","-3","1","2","1","1","2","1","4","5","4","5","4","4","5","4","5","5","7","8","6","8","6","9","7","8","6","5","7","5","6","6","6","1","6","5","7","7","6","1","7","5","6","7","7","1","6","3","7","2","3","6","5","7","6","7","5","6","6","5","1","3","7","5","6","6","5","633773426204475392","韩","671","Female","[""坏她"",""好她"",""坏我"",""好我""]","[""弱她"",""强她"",""弱我"",""强我""]","","","","","","","","yes","","","","","","","","","SRET","EW_formal","","key","j","16.652902777777786","799.9999682108573","445.8333156175091","自己","无私","Positive","morality","","","","","","","","","",""
"2922","","f","psychophysics","22","211816","0.0-7.0-3.0-0.8","6","7","5","5","6","4","4","5","4","5","4","-2","-3","1","2","1","1","2","1","4","5","4","5","4","4","5","4","5","5","7","8","6","8","6","9","7","8","6","5","7","5","6","6","6","1","6","5","7","7","6","1","7","5","6","7","7","1","6","3","7","2","3","6","5","7","6","7","5","6","6","5","1","3","7","5","6","6","5","633773426204475392","韩","671","Female","[""坏她"",""好她"",""坏我"",""好我""]","[""弱她"",""强她"",""弱我"",""强我""]","","","","","","","","no","","","","","","","","","SRET","EW_formal","","key","f","16.65288510638304","799.9999682108573","445.8333156175091","朋友","无敌","Positive","ability","","","","","","","","","",""
"1312","","j","psychophysics","23","214130","0.0-7.0-3.0-0.9","6","7","5","5","6","4","4","5","4","5","4","-2","-3","1","2","1","1","2","1","4","5","4","5","4","4","5","4","5","5","7","8","6","8","6","9","7","8","6","5","7","5","6","6","6","1","6","5","7","7","6","1","7","5","6","7","7","1","6","3","7","2","3","6","5","7","6","7","5","6","6","5","1","3","7","5","6","6","5","633773426204475392","韩","671","Female","[""坏她"",""好她"",""坏我"",""好我""]","[""弱她"",""强她"",""弱我"",""强我""]","","","","","","","","yes","","","","","","","","","SRET","EW_formal","","key","j","16.65308695652187","799.9999682108573","445.8333156175091","朋友","义气","Positive","morality","","","","","","","","","",""
"984","","f","psychophysics","24","216116","0.0-7.0-3.0-0.10","6","7","5","5","6","4","4","5","4","5","4","-2","-3","1","2","1","1","2","1","4","5","4","5","4","4","5","4","5","5","7","8","6","8","6","9","7","8","6","5","7","5","6","6","6","1","6","5","7","7","6","1","7","5","6","7","7","1","6","3","7","2","3","6","5","7","6","7","5","6","6","5","1","3","7","5","6","6","5","633773426204475392","韩","671","Female","[""坏她"",""好她"",""坏我"",""好我""]","[""弱她"",""强她"",""弱我"",""强我""]","","","","","","","","no","","","","","","","","","SRET","EW_formal","","key","f","16.65243220338978","799.9999682108573","445.8333156175091","朋友","缺德","Negative","morality","","","","","","","","","",""
"1691","","f","psychophysics","25","218809","0.0-7.0-3.0-0.11","6","7","5","5","6","4","4","5","4","5","4","-2","-3","1","2","1","1","2","1","4","5","4","5","4","4","5","4","5","5","7","8","6","8","6","9","7","8","6","5","7","5","6","6","6","1","6","5","7","7","6","1","7","5","6","7","7","1","6","3","7","2","3","6","5","7","6","7","5","6","6","5","1","3","7","5","6","6","5","633773426204475392","韩","671","Female","[""坏她"",""好她"",""坏我"",""好我""]","[""弱她"",""强她"",""弱我"",""强我""]","","","","","","","","no","","","","","","","","","SRET","EW_formal","","key","f","16.652795031055756","799.9999682108573","445.8333156175091","自己","自私","Negative","morality","","","","","","","","","",""
"13964","","j","psychophysics","26","233775","0.0-7.0-3.0-0.12","6","7","5","5","6","4","4","5","4","5","4","-2","-3","1","2","1","1","2","1","4","5","4","5","4","4","5","4","5","5","7","8","6","8","6","9","7","8","6","5","7","5","6","6","6","1","6","5","7","7","6","1","7","5","6","7","7","1","6","3","7","2","3","6","5","7","6","7","5","6","6","5","1","3","7","5","6","6","5","633773426204475392","韩","671","Female","[""坏她"",""好她"",""坏我"",""好我""]","[""弱她"",""强她"",""弱我"",""强我""]","","","","","","","","yes","","","","","","","","","SRET","EW_formal","","key","j","16.65296544035677","799.9999682108573","445.8333156175091","朋友","敬业","Positive","morality","","","","","","","","","",""
"2032","","f","psychophysics","27","236812","0.0-7.0-3.0-0.13","6","7","5","5","6","4","4","5","4","5","4","-2","-3","1","2","1","1","2","1","4","5","4","5","4","4","5","4","5","5","7","8","6","8","6","9","7","8","6","5","7","5","6","6","6","1","6","5","7","7","6","1","7","5","6","7","7","1","6","3","7","2","3","6","5","7","6","7","5","6","6","5","1","3","7","5","6","6","5","633773426204475392","韩","671","Female","[""坏她"",""好她"",""坏我"",""好我""]","[""弱她"",""强她"",""弱我"",""强我""]","","","","","","","","no","","","","","","","","","SRET","EW_formal","","key","f","16.652538461538555","799.9999682108573","445.8333156175091","朋友","邪恶","Negative","morality","","","","","","","","","",""
"1130","","f","psychophysics","28","238944","0.0-7.0-3.0-0.14","6","7","5","5","6","4","4","5","4","5","4","-2","-3","1","2","1","1","2","1","4","5","4","5","4","4","5","4","5","5","7","8","6","8","6","9","7","8","6","5","7","5","6","6","6","1","6","5","7","7","6","1","7","5","6","7","7","1","6","3","7","2","3","6","5","7","6","7","5","6","6","5","1","3","7","5","6","6","5","633773426204475392","韩","671","Female","[""坏她"",""好她"",""坏我"",""好我""]","[""弱她"",""强她"",""弱我"",""强我""]","","","","","","","","no","","","","","","","","","SRET","EW_formal","","key","f","16.653047244094303","799.9999682108573","445.8333156175091","朋友","无为","Negative","ability","","","","","","","","","",""
"1755","","j","psychophysics","29","241700","0.0-7.0-3.0-0.15","6","7","5","5","6","4","4","5","4","5","4","-2","-3","1","2","1","1","2","1","4","5","4","5","4","4","5","4","5","5","7","8","6","8","6","9","7","8","6","5","7","5","6","6","6","1","6","5","7","7","6","1","7","5","6","7","7","1","6","3","7","2","3","6","5","7","6","7","5","6","6","5","1","3","7","5","6","6","5","633773426204475392","韩","671","Female","[""坏她"",""好她"",""坏我"",""好我""]","[""弱她"",""强她"",""弱我"",""强我""]","","","","","","","","yes","","","","","","","","","SRET","EW_formal","","key","j","16.65295121951221","799.9999682108573","445.8333156175091","自己","远见","Positive","ability","","","","","","","","","",""
"2328","","f","psychophysics","30","245030","0.0-7.0-3.0-0.16","6","7","5","5","6","4","4","5","4","5","4","-2","-3","1","2","1","1","2","1","4","5","4","5","4","4","5","4","5","5","7","8","6","8","6","9","7","8","6","5","7","5","6","6","6","1","6","5","7","7","6","1","7","5","6","7","7","1","6","3","7","2","3","6","5","7","6","7","5","6","6","5","1","3","7","5","6","6","5","633773426204475392","韩","671","Female","[""坏她"",""好她"",""坏我"",""好我""]","[""弱她"",""强她"",""弱我"",""强我""]","","","","","","","","no","","","","","","","","","SRET","EW_formal","","key","f","16.653005025125648","799.9999682108573","445.8333156175091","朋友","毛糙","Negative","ability","","","","","","","","","",""
"1671","","f","psychophysics","31","247702","0.0-7.0-3.0-0.17","6","7","5","5","6","4","4","5","4","5","4","-2","-3","1","2","1","1","2","1","4","5","4","5","4","4","5","4","5","5","7","8","6","8","6","9","7","8","6","5","7","5","6","6","6","1","6","5","7","7","6","1","7","5","6","7","7","1","6","3","7","2","3","6","5","7","6","7","5","6","6","5","1","3","7","5","6","6","5","633773426204475392","韩","671","Female","[""坏她"",""好她"",""坏我"",""好我""]","[""弱她"",""强她"",""弱我"",""强我""]","","","","","","","","no","","","","","","","","","SRET","EW_formal","","key","f","16.65324375","799.9999682108573","445.8333156175091","自己","虚伪","Negative","morality","","","","","","","","","",""
"1561","","j","psychophysics","32","250267","0.0-7.0-3.0-0.18","6","7","5","5","6","4","4","5","4","5","4","-2","-3","1","2","1","1","2","1","4","5","4","5","4","4","5","4","5","5","7","8","6","8","6","9","7","8","6","5","7","5","6","6","6","1","6","5","7","7","6","1","7","5","6","7","7","1","6","3","7","2","3","6","5","7","6","7","5","6","6","5","1","3","7","5","6","6","5","633773426204475392","韩","671","Female","[""坏她"",""好她"",""坏我"",""好我""]","[""弱她"",""强她"",""弱我"",""强我""]","","","","","","","","yes","","","","","","","","","SRET","EW_formal","","key","j","16.652869281045724","799.9999682108573","445.8333156175091","朋友","谦逊","Positive","morality","","","","","","","","","",""
"2564","","f","psychophysics","33","253833","0.0-7.0-3.0-0.19","6","7","5","5","6","4","4","5","4","5","4","-2","-3","1","2","1","1","2","1","4","5","4","5","4","4","5","4","5","5","7","8","6","8","6","9","7","8","6","5","7","5","6","6","6","1","6","5","7","7","6","1","7","5","6","7","7","1","6","3","7","2","3","6","5","7","6","7","5","6","6","5","1","3","7","5","6","6","5","633773426204475392","韩","671","Female","[""坏她"",""好她"",""坏我"",""好我""]","[""弱她"",""强她"",""弱我"",""强我""]","","","","","","","","no","","","","","","","","","SRET","EW_formal","","key","f","16.652929577464892","799.9999682108573","445.8333156175091","朋友","愚钝","Negative","ability","","","","","","","","","",""
"1228","","j","psychophysics","34","256063","0.0-7.0-3.0-0.20","6","7","5","5","6","4","4","5","4","5","4","-2","-3","1","2","1","1","2","1","4","5","4","5","4","4","5","4","5","5","7","8","6","8","6","9","7","8","6","5","7","5","6","6","6","1","6","5","7","7","6","1","7","5","6","7","7","1","6","3","7","2","3","6","5","7","6","7","5","6","6","5","1","3","7","5","6","6","5","633773426204475392","韩","671","Female","[""坏她"",""好她"",""坏我"",""好我""]","[""弱她"",""强她"",""弱我"",""强我""]","","","","","","","","yes","","","","","","","","","SRET","EW_formal","","key","j","16.652932330827042","799.9999682108573","445.8333156175091","自己","礼貌","Positive","morality","","","","","","","","","",""
"2583","","j","psychophysics","35","259651","0.0-7.0-3.0-0.21","6","7","5","5","6","4","4","5","4","5","4","-2","-3","1","2","1","1","2","1","4","5","4","5","4","4","5","4","5","5","7","8","6","8","6","9","7","8","6","5","7","5","6","6","6","1","6","5","7","7","6","1","7","5","6","7","7","1","6","3","7","2","3","6","5","7","6","7","5","6","6","5","1","3","7","5","6","6","5","633773426204475392","韩","671","Female","[""坏她"",""好她"",""坏我"",""好我""]","[""弱她"",""强她"",""弱我"",""强我""]","","","","","","","","yes","","","","","","","","","SRET","EW_formal","","key","j","16.65285046728968","799.9999682108573","445.8333156175091","自己","宽容","Positive","morality","","","","","","","","","",""
"2494","","j","psychophysics","36","263147","0.0-7.0-3.0-0.22","6","7","5","5","6","4","4","5","4","5","4","-2","-3","1","2","1","1","2","1","4","5","4","5","4","4","5","4","5","5","7","8","6","8","6","9","7","8","6","5","7","5","6","6","6","1","6","5","7","7","6","1","7","5","6","7","7","1","6","3","7","2","3","6","5","7","6","7","5","6","6","5","1","3","7","5","6","6","5","633773426204475392","韩","671","Female","[""坏她"",""好她"",""坏我"",""好我""]","[""弱她"",""强她"",""弱我"",""强我""]","","","","","","","","yes","","","","","","","","","SRET","EW_formal","","key","j","16.653507177033696","799.9999682108573","445.8333156175091","朋友","独断","Negative","ability","","","","","","","","","",""
"3088","","j","psychophysics","37","267238","0.0-7.0-3.0-0.23","6","7","5","5","6","4","4","5","4","5","4","-2","-3","1","2","1","1","2","1","4","5","4","5","4","4","5","4","5","5","7","8","6","8","6","9","7","8","6","5","7","5","6","6","6","1","6","5","7","7","6","1","7","5","6","7","7","1","6","3","7","2","3","6","5","7","6","7","5","6","6","5","1","3","7","5","6","6","5","633773426204475392","韩","671","Female","[""坏她"",""好她"",""坏我"",""好我""]","[""弱她"",""强她"",""弱我"",""强我""]","","","","","","","","yes","","","","","","","","","SRET","EW_formal","","key","j","16.721303278688612","799.9999682108573","445.8333156175091","朋友","敏捷","Positive","ability","","","","","","","","","",""
"1545","","j","psychophysics","38","269786","0.0-7.0-3.0-0.24","6","7","5","5","6","4","4","5","4","5","4","-2","-3","1","2","1","1","2","1","4","5","4","5","4","4","5","4","5","5","7","8","6","8","6","9","7","8","6","5","7","5","6","6","6","1","6","5","7","7","6","1","7","5","6","7","7","1","6","3","7","2","3","6","5","7","6","7","5","6","6","5","1","3","7","5","6","6","5","633773426204475392","韩","671","Female","[""坏她"",""好她"",""坏我"",""好我""]","[""弱她"",""强她"",""弱我"",""强我""]","","","","","","","","yes","","","","","","","","","SRET","EW_formal","","key","j","16.653065789473704","799.9999682108573","445.8333156175091","朋友","忠义","Positive","morality","","","","","","","","","",""
"1919","","f","psychophysics","39","272706","0.0-7.0-3.0-0.25","6","7","5","5","6","4","4","5","4","5","4","-2","-3","1","2","1","1","2","1","4","5","4","5","4","4","5","4","5","5","7","8","6","8","6","9","7","8","6","5","7","5","6","6","6","1","6","5","7","7","6","1","7","5","6","7","7","1","6","3","7","2","3","6","5","7","6","7","5","6","6","5","1","3","7","5","6","6","5","633773426204475392","韩","671","Female","[""坏她"",""好她"",""坏我"",""好我""]","[""弱她"",""强她"",""弱我"",""强我""]","","","","","","","","no","","","","","","","","","SRET","EW_formal","","key","f","16.65304597701152","799.9999682108573","445.8333156175091","自己","龌龊","Negative","morality","","","","","","","","","",""
"4332","","j","psychophysics","40","278043","0.0-7.0-3.0-0.26","6","7","5","5","6","4","4","5","4","5","4","-2","-3","1","2","1","1","2","1","4","5","4","5","4","4","5","4","5","5","7","8","6","8","6","9","7","8","6","5","7","5","6","6","6","1","6","5","7","7","6","1","7","5","6","7","7","1","6","3","7","2","3","6","5","7","6","7","5","6","6","5","1","3","7","5","6","6","5","633773426204475392","韩","671","Female","[""坏她"",""好她"",""坏我"",""好我""]","[""弱她"",""强她"",""弱我"",""强我""]","","","","","","","","yes","","","","","","","","","SRET","EW_formal","","key","j","16.65290624999998","799.9999682108573","445.8333156175091","朋友","廉正","Positive","morality","","","","","","","","","",""
"1905","","j","psychophysics","41","280950","0.0-7.0-3.0-0.27","6","7","5","5","6","4","4","5","4","5","4","-2","-3","1","2","1","1","2","1","4","5","4","5","4","4","5","4","5","5","7","8","6","8","6","9","7","8","6","5","7","5","6","6","6","1","6","5","7","7","6","1","7","5","6","7","7","1","6","3","7","2","3","6","5","7","6","7","5","6","6","5","1","3","7","5","6","6","5","633773426204475392","韩","671","Female","[""坏她"",""好她"",""坏我"",""好我""]","[""弱她"",""强她"",""弱我"",""强我""]","","","","","","","","yes","","","","","","","","","SRET","EW_formal","","key","j","16.653011560693756","799.9999682108573","445.8333156175091","朋友","中用","Positive","ability","","","","","","","","","",""
"2304","","f","psychophysics","42","284256","0.0-7.0-3.0-0.28","6","7","5","5","6","4","4","5","4","5","4","-2","-3","1","2","1","1","2","1","4","5","4","5","4","4","5","4","5","5","7","8","6","8","6","9","7","8","6","5","7","5","6","6","6","1","6","5","7","7","6","1","7","5","6","7","7","1","6","3","7","2","3","6","5","7","6","7","5","6","6","5","1","3","7","5","6","6","5","633773426204475392","韩","671","Female","[""坏她"",""好她"",""坏我"",""好我""]","[""弱她"",""强她"",""弱我"",""强我""]","","","","","","","","no","","","","","","","","","SRET","EW_formal","","key","f","16.653242424242446","799.9999682108573","445.8333156175091","自己","高洁","Positive","morality","","","","","","","","","",""
"2454","","f","psychophysics","43","287711","0.0-7.0-3.0-0.29","6","7","5","5","6","4","4","5","4","5","4","-2","-3","1","2","1","1","2","1","4","5","4","5","4","4","5","4","5","5","7","8","6","8","6","9","7","8","6","5","7","5","6","6","6","1","6","5","7","7","6","1","7","5","6","7","7","1","6","3","7","2","3","6","5","7","6","7","5","6","6","5","1","3","7","5","6","6","5","633773426204475392","韩","671","Female","[""坏她"",""好她"",""坏我"",""好我""]","[""弱她"",""强她"",""弱我"",""强我""]","","","","","","","","no","","","","","","","","","SRET","EW_formal","","key","f","16.652951456310547","799.9999682108573","445.8333156175091","自己","昏庸","Negative","ability","","","","","","","","","",""
"1555","","j","psychophysics","44","290271","0.0-7.0-3.0-0.30","6","7","5","5","6","4","4","5","4","5","4","-2","-3","1","2","1","1","2","1","4","5","4","5","4","4","5","4","5","5","7","8","6","8","6","9","7","8","6","5","7","5","6","6","6","1","6","5","7","7","6","1","7","5","6","7","7","1","6","3","7","2","3","6","5","7","6","7","5","6","6","5","1","3","7","5","6","6","5","633773426204475392","韩","671","Female","[""坏她"",""好她"",""坏我"",""好我""]","[""弱她"",""强她"",""弱我"",""强我""]","","","","","","","","yes","","","","","","","","","SRET","EW_formal","","key","j","16.651732026143577","799.9999682108573","445.8333156175091","朋友","守法","Positive","morality","","","","","","","","","",""
"1247","","j","psychophysics","45","292521","0.0-7.0-3.0-0.31","6","7","5","5","6","4","4","5","4","5","4","-2","-3","1","2","1","1","2","1","4","5","4","5","4","4","5","4","5","5","7","8","6","8","6","9","7","8","6","5","7","5","6","6","6","1","6","5","7","7","6","1","7","5","6","7","7","1","6","3","7","2","3","6","5","7","6","7","5","6","6","5","1","3","7","5","6","6","5","633773426204475392","韩","671","Female","[""坏她"",""好她"",""坏我"",""好我""]","[""弱她"",""强她"",""弱我"",""强我""]","","","","","","","","yes","","","","","","","","","SRET","EW_formal","","key","j","16.652865671641766","799.9999682108573","445.8333156175091","自己","上进","Positive","ability","","","","","","","","","",""
"3066","","f","psychophysics","46","296588","0.0-7.0-3.0-0.32","6","7","5","5","6","4","4","5","4","5","4","-2","-3","1","2","1","1","2","1","4","5","4","5","4","4","5","4","5","5","7","8","6","8","6","9","7","8","6","5","7","5","6","6","6","1","6","5","7","7","6","1","7","5","6","7","7","1","6","3","7","2","3","6","5","7","6","7","5","6","6","5","1","3","7","5","6","6","5","633773426204475392","韩","671","Female","[""坏她"",""好她"",""坏我"",""好我""]","[""弱她"",""强她"",""弱我"",""强我""]","","","","","","","","no","","","","","","","","","SRET","EW_formal","","key","f","16.652987654320896","799.9999682108573","445.8333156175091","朋友","迟钝","Negative","ability","","","","","","","","","",""
"2013","","f","psychophysics","47","299608","0.0-7.0-3.0-0.33","6","7","5","5","6","4","4","5","4","5","4","-2","-3","1","2","1","1","2","1","4","5","4","5","4","4","5","4","5","5","7","8","6","8","6","9","7","8","6","5","7","5","6","6","6","1","6","5","7","7","6","1","7","5","6","7","7","1","6","3","7","2","3","6","5","7","6","7","5","6","6","5","1","3","7","5","6","6","5","633773426204475392","韩","671","Female","[""坏她"",""好她"",""坏我"",""好我""]","[""弱她"",""强她"",""弱我"",""强我""]","","","","","","","","no","","","","","","","","","SRET","EW_formal","","key","f","16.653104972375687","799.9999682108573","445.8333156175091","自己","失信","Negative","morality","","","","","","","","","",""
"1454","","f","psychophysics","48","302064","0.0-7.0-3.0-0.34","6","7","5","5","6","4","4","5","4","5","4","-2","-3","1","2","1","1","2","1","4","5","4","5","4","4","5","4","5","5","7","8","6","8","6","9","7","8","6","5","7","5","6","6","6","1","6","5","7","7","6","1","7","5","6","7","7","1","6","3","7","2","3","6","5","7","6","7","5","6","6","5","1","3","7","5","6","6","5","633773426204475392","韩","671","Female","[""坏她"",""好她"",""坏我"",""好我""]","[""弱她"",""强她"",""弱我"",""强我""]","","","","","","","","no","","","","","","","","","SRET","EW_formal","","key","f","16.652986301369932","799.9999682108573","445.8333156175091","朋友","势利","Negative","morality","","","","","","","","","",""
"1663","","j","psychophysics","49","304728","0.0-7.0-3.0-0.35","6","7","5","5","6","4","4","5","4","5","4","-2","-3","1","2","1","1","2","1","4","5","4","5","4","4","5","4","5","5","7","8","6","8","6","9","7","8","6","5","7","5","6","6","6","1","6","5","7","7","6","1","7","5","6","7","7","1","6","3","7","2","3","6","5","7","6","7","5","6","6","5","1","3","7","5","6","6","5","633773426204475392","韩","671","Female","[""坏她"",""好她"",""坏我"",""好我""]","[""弱她"",""强她"",""弱我"",""强我""]","","","","","","","","yes","","","","","","","","","SRET","EW_formal","","key","j","16.65197484276723","799.9999682108573","445.8333156175091","朋友","忠勇","Positive","morality","","","","","","","","","",""
"1671","","f","psychophysics","50","307402","0.0-7.0-3.0-0.36","6","7","5","5","6","4","4","5","4","5","4","-2","-3","1","2","1","1","2","1","4","5","4","5","4","4","5","4","5","5","7","8","6","8","6","9","7","8","6","5","7","5","6","6","6","1","6","5","7","7","6","1","7","5","6","7","7","1","6","3","7","2","3","6","5","7","6","7","5","6","6","5","1","3","7","5","6","6","5","633773426204475392","韩","671","Female","[""坏她"",""好她"",""坏我"",""好我""]","[""弱她"",""强她"",""弱我"",""强我""]","","","","","","","","no","","","","","","","","","SRET","EW_formal","","key","f","16.653649999999836","799.9999682108573","445.8333156175091","朋友","背叛","Negative","morality","","","","","","","","","",""
"978","","f","psychophysics","51","309383","0.0-7.0-3.0-0.37","6","7","5","5","6","4","4","5","4","5","4","-2","-3","1","2","1","1","2","1","4","5","4","5","4","4","5","4","5","5","7","8","6","8","6","9","7","8","6","5","7","5","6","6","6","1","6","5","7","7","6","1","7","5","6","7","7","1","6","3","7","2","3","6","5","7","6","7","5","6","6","5","1","3","7","5","6","6","5","633773426204475392","韩","671","Female","[""坏她"",""好她"",""坏我"",""好我""]","[""弱她"",""强她"",""弱我"",""强我""]","","","","","","","","no","","","","","","","","","SRET","EW_formal","","key","f","16.65172649572631","799.9999682108573","445.8333156175091","朋友","浅薄","Negative","ability","","","","","","","","","",""
"3717","","j","psychophysics","52","314102","0.0-7.0-3.0-0.38","6","7","5","5","6","4","4","5","4","5","4","-2","-3","1","2","1","1","2","1","4","5","4","5","4","4","5","4","5","5","7","8","6","8","6","9","7","8","6","5","7","5","6","6","6","1","6","5","7","7","6","1","7","5","6","7","7","1","6","3","7","2","3","6","5","7","6","7","5","6","6","5","1","3","7","5","6","6","5","633773426204475392","韩","671","Female","[""坏她"",""好她"",""坏我"",""好我""]","[""弱她"",""强她"",""弱我"",""强我""]","","","","","","","","yes","","","","","","","","","SRET","EW_formal","","key","j","16.652120141342714","799.9999682108573","445.8333156175091","朋友","稳健","Positive","ability","","","","","","","","","",""
"1427","","f","psychophysics","53","316532","0.0-7.0-3.0-0.39","6","7","5","5","6","4","4","5","4","5","4","-2","-3","1","2","1","1","2","1","4","5","4","5","4","4","5","4","5","5","7","8","6","8","6","9","7","8","6","5","7","5","6","6","6","1","6","5","7","7","6","1","7","5","6","7","7","1","6","3","7","2","3","6","5","7","6","7","5","6","6","5","1","3","7","5","6","6","5","633773426204475392","韩","671","Female","[""坏她"",""好她"",""坏我"",""好我""]","[""弱她"",""强她"",""弱我"",""强我""]","","","","","","","","no","","","","","","","","","SRET","EW_formal","","key","f","16.653013793103284","799.9999682108573","445.8333156175091","自己","卑鄙","Negative","morality","","","","","","","","","",""
"2375","","j","psychophysics","54","319909","0.0-7.0-3.0-0.40","6","7","5","5","6","4","4","5","4","5","4","-2","-3","1","2","1","1","2","1","4","5","4","5","4","4","5","4","5","5","7","8","6","8","6","9","7","8","6","5","7","5","6","6","6","1","6","5","7","7","6","1","7","5","6","7","7","1","6","3","7","2","3","6","5","7","6","7","5","6","6","5","1","3","7","5","6","6","5","633773426204475392","韩","671","Female","[""坏她"",""好她"",""坏我"",""好我""]","[""弱她"",""强她"",""弱我"",""强我""]","","","","","","","","yes","","","","","","","","","SRET","EW_formal","","key","j","16.652856435643457","799.9999682108573","445.8333156175091","自己","高效","Positive","ability","","","","","","","","","",""
"1538","","f","psychophysics","55","322448","0.0-7.0-3.0-0.41","6","7","5","5","6","4","4","5","4","5","4","-2","-3","1","2","1","1","2","1","4","5","4","5","4","4","5","4","5","5","7","8","6","8","6","9","7","8","6","5","7","5","6","6","6","1","6","5","7","7","6","1","7","5","6","7","7","1","6","3","7","2","3","6","5","7","6","7","5","6","6","5","1","3","7","5","6","6","5","633773426204475392","韩","671","Female","[""坏她"",""好她"",""坏我"",""好我""]","[""弱她"",""强她"",""弱我"",""强我""]","","","","","","","","no","","","","","","","","","SRET","EW_formal","","key","f","16.65297350993369","799.9999682108573","445.8333156175091","朋友","无能","Negative","ability","","","","","","","","","",""
"1675","","j","psychophysics","56","325126","0.0-7.0-3.0-0.42","6","7","5","5","6","4","4","5","4","5","4","-2","-3","1","2","1","1","2","1","4","5","4","5","4","4","5","4","5","5","7","8","6","8","6","9","7","8","6","5","7","5","6","6","6","1","6","5","7","7","6","1","7","5","6","7","7","1","6","3","7","2","3","6","5","7","6","7","5","6","6","5","1","3","7","5","6","6","5","633773426204475392","韩","671","Female","[""坏她"",""好她"",""坏我"",""好我""]","[""弱她"",""强她"",""弱我"",""强我""]","","","","","","","","yes","","","","","","","","","SRET","EW_formal","","key","j","16.65299374999995","799.9999682108573","445.8333156175091","自己","守时","Positive","morality","","","","","","","","","",""
"2196","","j","psychophysics","57","328328","0.0-7.0-3.0-0.43","6","7","5","5","6","4","4","5","4","5","4","-2","-3","1","2","1","1","2","1","4","5","4","5","4","4","5","4","5","5","7","8","6","8","6","9","7","8","6","5","7","5","6","6","6","1","6","5","7","7","6","1","7","5","6","7","7","1","6","3","7","2","3","6","5","7","6","7","5","6","6","5","1","3","7","5","6","6","5","633773426204475392","韩","671","Female","[""坏她"",""好她"",""坏我"",""好我""]","[""弱她"",""强她"",""弱我"",""强我""]","","","","","","","","yes","","","","","","","","","SRET","EW_formal","","key","j","16.652895287958312","799.9999682108573","445.8333156175091","自己","廉明","Positive","morality","","","","","","","","","",""
"934","","f","psychophysics","58","330266","0.0-7.0-3.0-0.44","6","7","5","5","6","4","4","5","4","5","4","-2","-3","1","2","1","1","2","1","4","5","4","5","4","4","5","4","5","5","7","8","6","8","6","9","7","8","6","5","7","5","6","6","6","1","6","5","7","7","6","1","7","5","6","7","7","1","6","3","7","2","3","6","5","7","6","7","5","6","6","5","1","3","7","5","6","6","5","633773426204475392","韩","671","Female","[""坏她"",""好她"",""坏我"",""好我""]","[""弱她"",""强她"",""弱我"",""强我""]","","","","","","","","no","","","","","","","","","SRET","EW_formal","","key","f","16.652767241378978","799.9999682108573","445.8333156175091","自己","畏难","Negative","ability","","","","","","","","","",""
"1269","","j","psychophysics","59","332538","0.0-7.0-3.0-0.45","6","7","5","5","6","4","4","5","4","5","4","-2","-3","1","2","1","1","2","1","4","5","4","5","4","4","5","4","5","5","7","8","6","8","6","9","7","8","6","5","7","5","6","6","6","1","6","5","7","7","6","1","7","5","6","7","7","1","6","3","7","2","3","6","5","7","6","7","5","6","6","5","1","3","7","5","6","6","5","633773426204475392","韩","671","Female","[""坏她"",""好她"",""坏我"",""好我""]","[""弱她"",""强她"",""弱我"",""强我""]","","","","","","","","yes","","","","","","","","","SRET","EW_formal","","key","j","16.653051851851934","799.9999682108573","445.8333156175091","自己","细心","Positive","ability","","","","","","","","","",""
"821","","f","psychophysics","60","334364","0.0-7.0-3.0-0.46","6","7","5","5","6","4","4","5","4","5","4","-2","-3","1","2","1","1","2","1","4","5","4","5","4","4","5","4","5","5","7","8","6","8","6","9","7","8","6","5","7","5","6","6","6","1","6","5","7","7","6","1","7","5","6","7","7","1","6","3","7","2","3","6","5","7","6","7","5","6","6","5","1","3","7","5","6","6","5","633773426204475392","韩","671","Female","[""坏她"",""好她"",""坏我"",""好我""]","[""弱她"",""强她"",""弱我"",""强我""]","","","","","","","","no","","","","","","","","","SRET","EW_formal","","key","f","16.652825688073357","799.9999682108573","445.8333156175091","自己","下流","Negative","morality","","","","","","","","","",""
"946","","j","psychophysics","61","336312","0.0-7.0-3.0-0.47","6","7","5","5","6","4","4","5","4","5","4","-2","-3","1","2","1","1","2","1","4","5","4","5","4","4","5","4","5","5","7","8","6","8","6","9","7","8","6","5","7","5","6","6","6","1","6","5","7","7","6","1","7","5","6","7","7","1","6","3","7","2","3","6","5","7","6","7","5","6","6","5","1","3","7","5","6","6","5","633773426204475392","韩","671","Female","[""坏她"",""好她"",""坏我"",""好我""]","[""弱她"",""强她"",""弱我"",""强我""]","","","","","","","","yes","","","","","","","","","SRET","EW_formal","","key","j","16.6528793103448","799.9999682108573","445.8333156175091","自己","忠诚","Positive","morality","","","","","","","","","",""
"961","","j","psychophysics","62","338276","0.0-7.0-3.0-0.48","6","7","5","5","6","4","4","5","4","5","4","-2","-3","1","2","1","1","2","1","4","5","4","5","4","4","5","4","5","5","7","8","6","8","6","9","7","8","6","5","7","5","6","6","6","1","6","5","7","7","6","1","7","5","6","7","7","1","6","3","7","2","3","6","5","7","6","7","5","6","6","5","1","3","7","5","6","6","5","633773426204475392","韩","671","Female","[""坏她"",""好她"",""坏我"",""好我""]","[""弱她"",""强她"",""弱我"",""强我""]","","","","","","","","yes","","","","","","","","","SRET","EW_formal","","key","j","16.653008620689747","799.9999682108573","445.8333156175091","自己","仗义","Positive","morality","","","","","","","","","",""
"1665","","f","psychophysics","63","340944","0.0-7.0-3.0-0.49","6","7","5","5","6","4","4","5","4","5","4","-2","-3","1","2","1","1","2","1","4","5","4","5","4","4","5","4","5","5","7","8","6","8","6","9","7","8","6","5","7","5","6","6","6","1","6","5","7","7","6","1","7","5","6","7","7","1","6","3","7","2","3","6","5","7","6","7","5","6","6","5","1","3","7","5","6","6","5","633773426204475392","韩","671","Female","[""坏她"",""好她"",""坏我"",""好我""]","[""弱她"",""强她"",""弱我"",""强我""]","","","","","","","","no","","","","","","","","","SRET","EW_formal","","key","f","16.65181249999987","799.9999682108573","445.8333156175091","自己","不仁","Negative","morality","","","","","","","","","",""
"1222","","f","psychophysics","64","343176","0.0-7.0-3.0-0.50","6","7","5","5","6","4","4","5","4","5","4","-2","-3","1","2","1","1","2","1","4","5","4","5","4","4","5","4","5","5","7","8","6","8","6","9","7","8","6","5","7","5","6","6","6","1","6","5","7","7","6","1","7","5","6","7","7","1","6","3","7","2","3","6","5","7","6","7","5","6","6","5","1","3","7","5","6","6","5","633773426204475392","韩","671","Female","[""坏她"",""好她"",""坏我"",""好我""]","[""弱她"",""强她"",""弱我"",""强我""]","","","","","","","","no","","","","","","","","","SRET","EW_formal","","key","f","16.651849624060123","799.9999682108573","445.8333156175091","自己","不良","Negative","morality","","","","","","","","","",""
"1303","","j","psychophysics","65","345481","0.0-7.0-3.0-0.51","6","7","5","5","6","4","4","5","4","5","4","-2","-3","1","2","1","1","2","1","4","5","4","5","4","4","5","4","5","5","7","8","6","8","6","9","7","8","6","5","7","5","6","6","6","1","6","5","7","7","6","1","7","5","6","7","7","1","6","3","7","2","3","6","5","7","6","7","5","6","6","5","1","3","7","5","6","6","5","633773426204475392","韩","671","Female","[""坏她"",""好她"",""坏我"",""好我""]","[""弱她"",""强她"",""弱我"",""强我""]","","","","","","","","yes","","","","","","","","","SRET","EW_formal","","key","j","16.775382352941104","799.9999682108573","445.8333156175091","朋友","努力","Positive","ability","","","","","","","","","",""
"699","","f","psychophysics","66","347182","0.0-7.0-3.0-0.52","6","7","5","5","6","4","4","5","4","5","4","-2","-3","1","2","1","1","2","1","4","5","4","5","4","4","5","4","5","5","7","8","6","8","6","9","7","8","6","5","7","5","6","6","6","1","6","5","7","7","6","1","7","5","6","7","7","1","6","3","7","2","3","6","5","7","6","7","5","6","6","5","1","3","7","5","6","6","5","633773426204475392","韩","671","Female","[""坏她"",""好她"",""坏我"",""好我""]","[""弱她"",""强她"",""弱我"",""强我""]","","","","","","","","no","","","","","","","","","SRET","EW_formal","","key","f","16.6528910891093","799.9999682108573","445.8333156175091","自己","奸诈","Negative","morality","","","","","","","","","",""
"1250","","j","psychophysics","67","349436","0.0-7.0-3.0-0.53","6","7","5","5","6","4","4","5","4","5","4","-2","-3","1","2","1","1","2","1","4","5","4","5","4","4","5","4","5","5","7","8","6","8","6","9","7","8","6","5","7","5","6","6","6","1","6","5","7","7","6","1","7","5","6","7","7","1","6","3","7","2","3","6","5","7","6","7","5","6","6","5","1","3","7","5","6","6","5","633773426204475392","韩","671","Female","[""坏她"",""好她"",""坏我"",""好我""]","[""弱她"",""强她"",""弱我"",""强我""]","","","","","","","","yes","","","","","","","","","SRET","EW_formal","","key","j","16.652185185185065","799.9999682108573","445.8333156175091","自己","正气","Positive","morality","","","","","","","","","",""
"1147","","f","psychophysics","68","351586","0.0-7.0-3.0-0.54","6","7","5","5","6","4","4","5","4","5","4","-2","-3","1","2","1","1","2","1","4","5","4","5","4","4","5","4","5","5","7","8","6","8","6","9","7","8","6","5","7","5","6","6","6","1","6","5","7","7","6","1","7","5","6","7","7","1","6","3","7","2","3","6","5","7","6","7","5","6","6","5","1","3","7","5","6","6","5","633773426204475392","韩","671","Female","[""坏她"",""好她"",""坏我"",""好我""]","[""弱她"",""强她"",""弱我"",""强我""]","","","","","","","","no","","","","","","","","","SRET","EW_formal","","key","f","16.65303906249983","799.9999682108573","445.8333156175091","朋友","粗心","Negative","ability","","","","","","","","","",""
"4052","","j","psychophysics","69","356646","0.0-7.0-3.0-0.55","6","7","5","5","6","4","4","5","4","5","4","-2","-3","1","2","1","1","2","1","4","5","4","5","4","4","5","4","5","5","7","8","6","8","6","9","7","8","6","5","7","5","6","6","6","1","6","5","7","7","6","1","7","5","6","7","7","1","6","3","7","2","3","6","5","7","6","7","5","6","6","5","1","3","7","5","6","6","5","633773426204475392","韩","671","Female","[""坏她"",""好她"",""坏我"",""好我""]","[""弱她"",""强她"",""弱我"",""强我""]","","","","","","","","yes","","","","","","","","","SRET","EW_formal","","key","j","16.652900990098907","799.9999682108573","445.8333156175091","朋友","骁勇","Positive","ability","","","","","","","","","",""
"834","","j","psychophysics","70","358482","0.0-7.0-3.0-0.56","6","7","5","5","6","4","4","5","4","5","4","-2","-3","1","2","1","1","2","1","4","5","4","5","4","4","5","4","5","5","7","8","6","8","6","9","7","8","6","5","7","5","6","6","6","1","6","5","7","7","6","1","7","5","6","7","7","1","6","3","7","2","3","6","5","7","6","7","5","6","6","5","1","3","7","5","6","6","5","633773426204475392","韩","671","Female","[""坏她"",""好她"",""坏我"",""好我""]","[""弱她"",""强她"",""弱我"",""强我""]","","","","","","","","yes","","","","","","","","","SRET","EW_formal","","key","j","16.652807339449165","799.9999682108573","445.8333156175091","朋友","智慧","Positive","ability","","","","","","","","","",""
"1026","","f","psychophysics","71","360510","0.0-7.0-3.0-0.57","6","7","5","5","6","4","4","5","4","5","4","-2","-3","1","2","1","1","2","1","4","5","4","5","4","4","5","4","5","5","7","8","6","8","6","9","7","8","6","5","7","5","6","6","6","1","6","5","7","7","6","1","7","5","6","7","7","1","6","3","7","2","3","6","5","7","6","7","5","6","6","5","1","3","7","5","6","6","5","633773426204475392","韩","671","Female","[""坏她"",""好她"",""坏我"",""好我""]","[""弱她"",""强她"",""弱我"",""强我""]","","","","","","","","no","","","","","","","","","SRET","EW_formal","","key","f","16.652132231404924","799.9999682108573","445.8333156175091","自己","盲目","Negative","ability","","","","","","","","","",""
"1301","","j","psychophysics","72","362812","0.0-7.0-3.0-0.58","6","7","5","5","6","4","4","5","4","5","4","-2","-3","1","2","1","1","2","1","4","5","4","5","4","4","5","4","5","5","7","8","6","8","6","9","7","8","6","5","7","5","6","6","6","1","6","5","7","7","6","1","7","5","6","7","7","1","6","3","7","2","3","6","5","7","6","7","5","6","6","5","1","3","7","5","6","6","5","633773426204475392","韩","671","Female","[""坏她"",""好她"",""坏我"",""好我""]","[""弱她"",""强她"",""弱我"",""强我""]","","","","","","","","yes","","","","","","","","","SRET","EW_formal","","key","j","16.65283941605849","799.9999682108573","445.8333156175091","自己","果断","Positive","ability","","","","","","","","","",""
"1353","","j","psychophysics","73","365167","0.0-7.0-3.0-0.59","6","7","5","5","6","4","4","5","4","5","4","-2","-3","1","2","1","1","2","1","4","5","4","5","4","4","5","4","5","5","7","8","6","8","6","9","7","8","6","5","7","5","6","6","6","1","6","5","7","7","6","1","7","5","6","7","7","1","6","3","7","2","3","6","5","7","6","7","5","6","6","5","1","3","7","5","6","6","5","633773426204475392","韩","671","Female","[""坏她"",""好她"",""坏我"",""好我""]","[""弱她"",""强她"",""弱我"",""强我""]","","","","","","","","yes","","","","","","","","","SRET","EW_formal","","key","j","16.65280000000036","799.9999682108573","445.8333156175091","自己","专注","Positive","ability","","","","","","","","","",""
"1235","","j","psychophysics","74","367408","0.0-7.0-3.0-0.60","6","7","5","5","6","4","4","5","4","5","4","-2","-3","1","2","1","1","2","1","4","5","4","5","4","4","5","4","5","5","7","8","6","8","6","9","7","8","6","5","7","5","6","6","6","1","6","5","7","7","6","1","7","5","6","7","7","1","6","3","7","2","3","6","5","7","6","7","5","6","6","5","1","3","7","5","6","6","5","633773426204475392","韩","671","Female","[""坏她"",""好她"",""坏我"",""好我""]","[""弱她"",""强她"",""弱我"",""强我""]","","","","","","","","yes","","","","","","","","","SRET","EW_formal","","key","j","16.651813432835773","799.9999682108573","445.8333156175091","朋友","坚持","Positive","ability","","","","","","","","","",""
"2723","","f","psychophysics","75","371133","0.0-7.0-3.0-0.61","6","7","5","5","6","4","4","5","4","5","4","-2","-3","1","2","1","1","2","1","4","5","4","5","4","4","5","4","5","5","7","8","6","8","6","9","7","8","6","5","7","5","6","6","6","1","6","5","7","7","6","1","7","5","6","7","7","1","6","3","7","2","3","6","5","7","6","7","5","6","6","5","1","3","7","5","6","6","5","633773426204475392","韩","671","Female","[""坏她"",""好她"",""坏我"",""好我""]","[""弱她"",""强她"",""弱我"",""强我""]","","","","","","","","no","","","","","","","","","SRET","EW_formal","","key","f","16.65282959641258","799.9999682108573","445.8333156175091","朋友","屈才","Negative","ability","","","","","","","","","",""
"4204","","j","psychophysics","76","376339","0.0-7.0-3.0-0.62","6","7","5","5","6","4","4","5","4","5","4","-2","-3","1","2","1","1","2","1","4","5","4","5","4","4","5","4","5","5","7","8","6","8","6","9","7","8","6","5","7","5","6","6","6","1","6","5","7","7","6","1","7","5","6","7","7","1","6","3","7","2","3","6","5","7","6","7","5","6","6","5","1","3","7","5","6","6","5","633773426204475392","韩","671","Female","[""坏她"",""好她"",""坏我"",""好我""]","[""弱她"",""强她"",""弱我"",""强我""]","","","","","","","","yes","","","","","","","","","SRET","EW_formal","","key","j","16.653151125401944","799.9999682108573","445.8333156175091","朋友","仁厚","Positive","morality","","","","","","","","","",""
"2152","","f","psychophysics","77","379493","0.0-7.0-3.0-0.63","6","7","5","5","6","4","4","5","4","5","4","-2","-3","1","2","1","1","2","1","4","5","4","5","4","4","5","4","5","5","7","8","6","8","6","9","7","8","6","5","7","5","6","6","6","1","6","5","7","7","6","1","7","5","6","7","7","1","6","3","7","2","3","6","5","7","6","7","5","6","6","5","1","3","7","5","6","6","5","633773426204475392","韩","671","Female","[""坏她"",""好她"",""坏我"",""好我""]","[""弱她"",""强她"",""弱我"",""强我""]","","","","","","","","no","","","","","","","","","SRET","EW_formal","","key","f","16.653042328042268","799.9999682108573","445.8333156175091","自己","逞能","Negative","ability","","","","","","","","","",""
"976","","f","psychophysics","78","381480","0.0-7.0-3.0-0.64","6","7","5","5","6","4","4","5","4","5","4","-2","-3","1","2","1","1","2","1","4","5","4","5","4","4","5","4","5","5","7","8","6","8","6","9","7","8","6","5","7","5","6","6","6","1","6","5","7","7","6","1","7","5","6","7","7","1","6","3","7","2","3","6","5","7","6","7","5","6","6","5","1","3","7","5","6","6","5","633773426204475392","韩","671","Female","[""坏她"",""好她"",""坏我"",""好我""]","[""弱她"",""强她"",""弱我"",""强我""]","","","","","","","","no","","","","","","","","","SRET","EW_formal","","key","f","16.65300847457621","799.9999682108573","445.8333156175091","自己","弱智","Negative","ability","","","","","","","","","",""
"1254","","j","psychophysics","79","383736","0.0-7.0-3.0-0.65","6","7","5","5","6","4","4","5","4","5","4","-2","-3","1","2","1","1","2","1","4","5","4","5","4","4","5","4","5","5","7","8","6","8","6","9","7","8","6","5","7","5","6","6","6","1","6","5","7","7","6","1","7","5","6","7","7","1","6","3","7","2","3","6","5","7","6","7","5","6","6","5","1","3","7","5","6","6","5","633773426204475392","韩","671","Female","[""坏她"",""好她"",""坏我"",""好我""]","[""弱她"",""强她"",""弱我"",""强我""]","","","","","","","","yes","","","","","","","","","SRET","EW_formal","","key","j","16.652850746268356","799.9999682108573","445.8333156175091","朋友","高尚","Positive","morality","","","","","","","","","",""
"922","","f","psychophysics","80","385663","0.0-7.0-3.0-0.66","6","7","5","5","6","4","4","5","4","5","4","-2","-3","1","2","1","1","2","1","4","5","4","5","4","4","5","4","5","5","7","8","6","8","6","9","7","8","6","5","7","5","6","6","6","1","6","5","7","7","6","1","7","5","6","7","7","1","6","3","7","2","3","6","5","7","6","7","5","6","6","5","1","3","7","5","6","6","5","633773426204475392","韩","671","Female","[""坏她"",""好她"",""坏我"",""好我""]","[""弱她"",""强她"",""弱我"",""强我""]","","","","","","","","no","","","","","","","","","SRET","EW_formal","","key","f","16.652417391304272","799.9999682108573","445.8333156175091","自己","逞强","Negative","ability","","","","","","","","","",""
"1090","","f","psychophysics","81","387755","0.0-7.0-3.0-0.67","6","7","5","5","6","4","4","5","4","5","4","-2","-3","1","2","1","1","2","1","4","5","4","5","4","4","5","4","5","5","7","8","6","8","6","9","7","8","6","5","7","5","6","6","6","1","6","5","7","7","6","1","7","5","6","7","7","1","6","3","7","2","3","6","5","7","6","7","5","6","6","5","1","3","7","5","6","6","5","633773426204475392","韩","671","Female","[""坏她"",""好她"",""坏我"",""好我""]","[""弱她"",""强她"",""弱我"",""强我""]","","","","","","","","no","","","","","","","","","SRET","EW_formal","","key","f","16.653128000000027","799.9999682108573","445.8333156175091","自己","拖拉","Negative","ability","","","","","","","","","",""
"917","","f","psychophysics","82","389674","0.0-7.0-3.0-0.68","6","7","5","5","6","4","4","5","4","5","4","-2","-3","1","2","1","1","2","1","4","5","4","5","4","4","5","4","5","5","7","8","6","8","6","9","7","8","6","5","7","5","6","6","6","1","6","5","7","7","6","1","7","5","6","7","7","1","6","3","7","2","3","6","5","7","6","7","5","6","6","5","1","3","7","5","6","6","5","633773426204475392","韩","671","Female","[""坏她"",""好她"",""坏我"",""好我""]","[""弱她"",""强她"",""弱我"",""强我""]","","","","","","","","no","","","","","","","","","SRET","EW_formal","","key","f","16.653122807017592","799.9999682108573","445.8333156175091","自己","拖延","Negative","ability","","","","","","","","","",""
"2806","","j","psychophysics","83","393482","0.0-7.0-3.0-0.69","6","7","5","5","6","4","4","5","4","5","4","-2","-3","1","2","1","1","2","1","4","5","4","5","4","4","5","4","5","5","7","8","6","8","6","9","7","8","6","5","7","5","6","6","6","1","6","5","7","7","6","1","7","5","6","7","7","1","6","3","7","2","3","6","5","7","6","7","5","6","6","5","1","3","7","5","6","6","5","633773426204475392","韩","671","Female","[""坏她"",""好她"",""坏我"",""好我""]","[""弱她"",""强她"",""弱我"",""强我""]","","","","","","","","yes","","","","","","","","","SRET","EW_formal","","key","j","16.65296929824552","799.9999682108573","445.8333156175091","自己","博识","Positive","ability","","","","","","","","","",""
"649","","f","psychophysics","84","395132","0.0-7.0-3.0-0.70","6","7","5","5","6","4","4","5","4","5","4","-2","-3","1","2","1","1","2","1","4","5","4","5","4","4","5","4","5","5","7","8","6","8","6","9","7","8","6","5","7","5","6","6","6","1","6","5","7","7","6","1","7","5","6","7","7","1","6","3","7","2","3","6","5","7","6","7","5","6","6","5","1","3","7","5","6","6","5","633773426204475392","韩","671","Female","[""坏她"",""好她"",""坏我"",""好我""]","[""弱她"",""强她"",""弱我"",""强我""]","","","","","","","","no","","","","","","","","","SRET","EW_formal","","key","f","16.652989795917943","799.9999682108573","445.8333156175091","朋友","无赖","Negative","morality","","","","","","","","","",""
"1021","","j","psychophysics","85","397155","0.0-7.0-3.0-0.71","6","7","5","5","6","4","4","5","4","5","4","-2","-3","1","2","1","1","2","1","4","5","4","5","4","4","5","4","5","5","7","8","6","8","6","9","7","8","6","5","7","5","6","6","6","1","6","5","7","7","6","1","7","5","6","7","7","1","6","3","7","2","3","6","5","7","6","7","5","6","6","5","1","3","7","5","6","6","5","633773426204475392","韩","671","Female","[""坏她"",""好她"",""坏我"",""好我""]","[""弱她"",""强她"",""弱我"",""强我""]","","","","","","","","yes","","","","","","","","","SRET","EW_formal","","key","j","16.65242500000022","799.9999682108573","445.8333156175091","自己","肯干","Positive","ability","","","","","","","","","",""
"2078","","f","psychophysics","86","400234","0.0-7.0-3.0-0.72","6","7","5","5","6","4","4","5","4","5","4","-2","-3","1","2","1","1","2","1","4","5","4","5","4","4","5","4","5","5","7","8","6","8","6","9","7","8","6","5","7","5","6","6","6","1","6","5","7","7","6","1","7","5","6","7","7","1","6","3","7","2","3","6","5","7","6","7","5","6","6","5","1","3","7","5","6","6","5","633773426204475392","韩","671","Female","[""坏她"",""好她"",""坏我"",""好我""]","[""弱她"",""强她"",""弱我"",""强我""]","","","","","","","","no","","","","","","","","","SRET","EW_formal","","key","f","16.652918478260805","799.9999682108573","445.8333156175091","自己","诡诈","Negative","morality","","","","","","","","","",""
"2051","","f","psychophysics","87","403287","0.0-7.0-3.0-0.73","6","7","5","5","6","4","4","5","4","5","4","-2","-3","1","2","1","1","2","1","4","5","4","5","4","4","5","4","5","5","7","8","6","8","6","9","7","8","6","5","7","5","6","6","6","1","6","5","7","7","6","1","7","5","6","7","7","1","6","3","7","2","3","6","5","7","6","7","5","6","6","5","1","3","7","5","6","6","5","633773426204475392","韩","671","Female","[""坏她"",""好她"",""坏我"",""好我""]","[""弱她"",""强她"",""弱我"",""强我""]","","","","","","","","no","","","","","","","","","SRET","EW_formal","","key","f","16.653027472527604","799.9999682108573","445.8333156175091","朋友","利己","Negative","morality","","","","","","","","","",""
"1162","","j","psychophysics","88","405455","0.0-7.0-3.0-0.74","6","7","5","5","6","4","4","5","4","5","4","-2","-3","1","2","1","1","2","1","4","5","4","5","4","4","5","4","5","5","7","8","6","8","6","9","7","8","6","5","7","5","6","6","6","1","6","5","7","7","6","1","7","5","6","7","7","1","6","3","7","2","3","6","5","7","6","7","5","6","6","5","1","3","7","5","6","6","5","633773426204475392","韩","671","Female","[""坏她"",""好她"",""坏我"",""好我""]","[""弱她"",""强她"",""弱我"",""强我""]","","","","","","","","yes","","","","","","","","","SRET","EW_formal","","key","j","16.6526692307693","799.9999682108573","445.8333156175091","自己","果决","Positive","ability","","","","","","","","","",""
"1602","","f","psychophysics","89","408058","0.0-7.0-3.0-0.75","6","7","5","5","6","4","4","5","4","5","4","-2","-3","1","2","1","1","2","1","4","5","4","5","4","4","5","4","5","5","7","8","6","8","6","9","7","8","6","5","7","5","6","6","6","1","6","5","7","7","6","1","7","5","6","7","7","1","6","3","7","2","3","6","5","7","6","7","5","6","6","5","1","3","7","5","6","6","5","633773426204475392","韩","671","Female","[""坏她"",""好她"",""坏我"",""好我""]","[""弱她"",""强她"",""弱我"",""强我""]","","","","","","","","no","","","","","","","","","SRET","EW_formal","","key","f","16.653012903225832","799.9999682108573","445.8333156175091","自己","才尽","Negative","ability","","","","","","","","","",""
"996","","j","psychophysics","90","410060","0.0-7.0-3.0-0.76","6","7","5","5","6","4","4","5","4","5","4","-2","-3","1","2","1","1","2","1","4","5","4","5","4","4","5","4","5","5","7","8","6","8","6","9","7","8","6","5","7","5","6","6","6","1","6","5","7","7","6","1","7","5","6","7","7","1","6","3","7","2","3","6","5","7","6","7","5","6","6","5","1","3","7","5","6","6","5","633773426204475392","韩","671","Female","[""坏她"",""好她"",""坏我"",""好我""]","[""弱她"",""强她"",""弱我"",""强我""]","","","","","","","","yes","","","","","","","","","SRET","EW_formal","","key","j","16.653840336134703","799.9999682108573","445.8333156175091","朋友","周到","Positive","ability","","","","","","","","","",""
"2104","","j","psychophysics","91","413166","0.0-7.0-3.0-0.77","6","7","5","5","6","4","4","5","4","5","4","-2","-3","1","2","1","1","2","1","4","5","4","5","4","4","5","4","5","5","7","8","6","8","6","9","7","8","6","5","7","5","6","6","6","1","6","5","7","7","6","1","7","5","6","7","7","1","6","3","7","2","3","6","5","7","6","7","5","6","6","5","1","3","7","5","6","6","5","633773426204475392","韩","671","Female","[""坏她"",""好她"",""坏我"",""好我""]","[""弱她"",""强她"",""弱我"",""强我""]","","","","","","","","yes","","","","","","","","","SRET","EW_formal","","key","j","16.652999999999913","799.9999682108573","445.8333156175091","朋友","刻苦","Positive","ability","","","","","","","","","",""
"638","","f","psychophysics","92","414807","0.0-7.0-3.0-0.78","6","7","5","5","6","4","4","5","4","5","4","-2","-3","1","2","1","1","2","1","4","5","4","5","4","4","5","4","5","5","7","8","6","8","6","9","7","8","6","5","7","5","6","6","6","1","6","5","7","7","6","1","7","5","6","7","7","1","6","3","7","2","3","6","5","7","6","7","5","6","6","5","1","3","7","5","6","6","5","633773426204475392","韩","671","Female","[""坏她"",""好她"",""坏我"",""好我""]","[""弱她"",""强她"",""弱我"",""强我""]","","","","","","","","no","","","","","","","","","SRET","EW_formal","","key","f","16.650989690721133","799.9999682108573","445.8333156175091","自己","草率","Negative","ability","","","","","","","","","",""
"1221","","f","psychophysics","93","417029","0.0-7.0-3.0-0.79","6","7","5","5","6","4","4","5","4","5","4","-2","-3","1","2","1","1","2","1","4","5","4","5","4","4","5","4","5","5","7","8","6","8","6","9","7","8","6","5","7","5","6","6","6","1","6","5","7","7","6","1","7","5","6","7","7","1","6","3","7","2","3","6","5","7","6","7","5","6","6","5","1","3","7","5","6","6","5","633773426204475392","韩","671","Female","[""坏她"",""好她"",""坏我"",""好我""]","[""弱她"",""强她"",""弱我"",""强我""]","","","","","","","","no","","","","","","","","","SRET","EW_formal","","key","f","16.652007518797024","799.9999682108573","445.8333156175091","朋友","淫乱","Negative","morality","","","","","","","","","",""
"6283","","j","psychophysics","94","424315","0.0-7.0-3.0-0.80","6","7","5","5","6","4","4","5","4","5","4","-2","-3","1","2","1","1","2","1","4","5","4","5","4","4","5","4","5","5","7","8","6","8","6","9","7","8","6","5","7","5","6","6","6","1","6","5","7","7","6","1","7","5","6","7","7","1","6","3","7","2","3","6","5","7","6","7","5","6","6","5","1","3","7","5","6","6","5","633773426204475392","韩","671","Female","[""坏她"",""好她"",""坏我"",""好我""]","[""弱她"",""强她"",""弱我"",""强我""]","","","","","","","","yes","","","","","","","","","SRET","EW_formal","","key","j","16.653233944954124","799.9999682108573","445.8333156175091","自己","善心","Positive","morality","","","","","","","","","",""
"8901","","j","psychophysics","95","434218","0.0-7.0-3.0-0.81","6","7","5","5","6","4","4","5","4","5","4","-2","-3","1","2","1","1","2","1","4","5","4","5","4","4","5","4","5","5","7","8","6","8","6","9","7","8","6","5","7","5","6","6","6","1","6","5","7","7","6","1","7","5","6","7","7","1","6","3","7","2","3","6","5","7","6","7","5","6","6","5","1","3","7","5","6","6","5","633773426204475392","韩","671","Female","[""坏她"",""好她"",""坏我"",""好我""]","[""弱她"",""强她"",""弱我"",""强我""]","","","","","","","","yes","","","","","","","","","SRET","EW_formal","","key","j","16.653222222222166","799.9999682108573","445.8333156175091","自己","利落","Positive","ability","","","","","","","","","",""
"3876","","f","psychophysics","96","439095","0.0-7.0-3.0-0.82","6","7","5","5","6","4","4","5","4","5","4","-2","-3","1","2","1","1","2","1","4","5","4","5","4","4","5","4","5","5","7","8","6","8","6","9","7","8","6","5","7","5","6","6","6","1","6","5","7","7","6","1","7","5","6","7","7","1","6","3","7","2","3","6","5","7","6","7","5","6","6","5","1","3","7","5","6","6","5","633773426204475392","韩","671","Female","[""坏她"",""好她"",""坏我"",""好我""]","[""弱她"",""强她"",""弱我"",""强我""]","","","","","","","","no","","","","","","","","","SRET","EW_formal","","key","f","16.653126712328728","799.9999682108573","445.8333156175091","朋友","偏私","Negative","morality","","","","","","","","","",""
"7760","","f","psychophysics","97","447857","0.0-7.0-3.0-0.83","6","7","5","5","6","4","4","5","4","5","4","-2","-3","1","2","1","1","2","1","4","5","4","5","4","4","5","4","5","5","7","8","6","8","6","9","7","8","6","5","7","5","6","6","6","1","6","5","7","7","6","1","7","5","6","7","7","1","6","3","7","2","3","6","5","7","6","7","5","6","6","5","1","3","7","5","6","6","5","633773426204475392","韩","671","Female","[""坏她"",""好她"",""坏我"",""好我""]","[""弱她"",""强她"",""弱我"",""强我""]","","","","","","","","no","","","","","","","","","SRET","EW_formal","","key","f","16.65298666666672","799.9999682108573","445.8333156175091","朋友","贪腐","Negative","morality","","","","","","","","","",""
"2020","","f","psychophysics","98","450880","0.0-7.0-3.0-0.84","6","7","5","5","6","4","4","5","4","5","4","-2","-3","1","2","1","1","2","1","4","5","4","5","4","4","5","4","5","5","7","8","6","8","6","9","7","8","6","5","7","5","6","6","6","1","6","5","7","7","6","1","7","5","6","7","7","1","6","3","7","2","3","6","5","7","6","7","5","6","6","5","1","3","7","5","6","6","5","633773426204475392","韩","671","Female","[""坏她"",""好她"",""坏我"",""好我""]","[""弱她"",""强她"",""弱我"",""强我""]","","","","","","","","no","","","","","","","","","SRET","EW_formal","","key","f","16.652933333333607","799.9999682108573","445.8333156175091","自己","缓慢","Negative","ability","","","","","","","","","",""
"5333","","f","psychophysics","99","457219","0.0-7.0-3.0-0.85","6","7","5","5","6","4","4","5","4","5","4","-2","-3","1","2","1","1","2","1","4","5","4","5","4","4","5","4","5","5","7","8","6","8","6","9","7","8","6","5","7","5","6","6","6","1","6","5","7","7","6","1","7","5","6","7","7","1","6","3","7","2","3","6","5","7","6","7","5","6","6","5","1","3","7","5","6","6","5","633773426204475392","韩","671","Female","[""坏她"",""好她"",""坏我"",""好我""]","[""弱她"",""强她"",""弱我"",""强我""]","","","","","","","","no","","","","","","","","","SRET","EW_formal","","key","f","16.65292631578938","799.9999682108573","445.8333156175091","朋友","低俗","Negative","morality","","","","","","","","","",""
"5685","","j","psychophysics","100","463908","0.0-7.0-3.0-0.86","6","7","5","5","6","4","4","5","4","5","4","-2","-3","1","2","1","1","2","1","4","5","4","5","4","4","5","4","5","5","7","8","6","8","6","9","7","8","6","5","7","5","6","6","6","1","6","5","7","7","6","1","7","5","6","7","7","1","6","3","7","2","3","6","5","7","6","7","5","6","6","5","1","3","7","5","6","6","5","633773426204475392","韩","671","Female","[""坏她"",""好她"",""坏我"",""好我""]","[""弱她"",""强她"",""弱我"",""强我""]","","","","","","","","yes","","","","","","","","","SRET","EW_formal","","key","j","16.653062344139716","799.9999682108573","445.8333156175091","朋友","素养","Positive","morality","","","","","","","","","",""
"13479","","j","psychophysics","101","478390","0.0-7.0-3.0-0.87","6","7","5","5","6","4","4","5","4","5","4","-2","-3","1","2","1","1","2","1","4","5","4","5","4","4","5","4","5","5","7","8","6","8","6","9","7","8","6","5","7","5","6","6","6","1","6","5","7","7","6","1","7","5","6","7","7","1","6","3","7","2","3","6","5","7","6","7","5","6","6","5","1","3","7","5","6","6","5","633773426204475392","韩","671","Female","[""坏她"",""好她"",""坏我"",""好我""]","[""弱她"",""强她"",""弱我"",""强我""]","","","","","","","","yes","","","","","","","","","SRET","EW_formal","","key","j","16.672167243367902","799.9999682108573","445.8333156175091","自己","主见","Positive","ability","","","","","","","","","",""
"107265","
    <p><div style='color:white;font-size:35px; line-height:20px;'>计算任务</div></p><br>
    <p><div style='color:red;font-size:25px; line-height:20px;'>接下来，您将看到一些四则运算题，<b>请从键盘选择 0-9 进行反应。</b></div></p>
    <p><div class='footer' style='color:white;font-size:25px; line-height:20px;'>如果对本实验还有不清楚之处，请立即向实验员咨询。</p><p style='color:white;font-size:25px; line-height:20px;'>如果您明白了规则：</p><p style='color:white;font-size:22px; line-height:20px;'>请按 继续 进入练习</p>
    </div>
    ","0","html-button-response","102","585661","0.0-7.0-4.0","6","7","5","5","6","4","4","5","4","5","4","-2","-3","1","2","1","1","2","1","4","5","4","5","4","4","5","4","5","5","7","8","6","8","6","9","7","8","6","5","7","5","6","6","6","1","6","5","7","7","6","1","7","5","6","7","7","1","6","3","7","2","3","6","5","7","6","7","5","6","6","5","1","3","7","5","6","6","5","633773426204475392","韩","671","Female","[""坏她"",""好她"",""坏我"",""好我""]","[""弱她"",""强她"",""弱我"",""强我""]","","","","","","","","","","","","","","","","","SRET_math","math_instructions","Fri Nov 03 2023 10:32:06 GMT+0800 (中国标准时间)","","","","","","","","","","","","","","","","","","",""
"5309","","9","psychophysics","103","590975","0.0-7.0-5.0-0.0","6","7","5","5","6","4","4","5","4","5","4","-2","-3","1","2","1","1","2","1","4","5","4","5","4","4","5","4","5","5","7","8","6","8","6","9","7","8","6","5","7","5","6","6","6","1","6","5","7","7","6","1","7","5","6","7","7","1","6","3","7","2","3","6","5","7","6","7","5","6","6","5","1","3","7","5","6","6","5","633773426204475392","韩","671","Female","[""坏她"",""好她"",""坏我"",""好我""]","[""弱她"",""强她"",""弱我"",""强我""]","","","","","","","","9","","","","","","","","","SRET","SRET_math_calculate","","key","9","16.65311912225733","799.9999682108573","445.8333156175091","","","","","5+4= ?","9","1","","","","","","",""
"2844","","5","psychophysics","104","593823","0.0-7.0-5.0-0.1","6","7","5","5","6","4","4","5","4","5","4","-2","-3","1","2","1","1","2","1","4","5","4","5","4","4","5","4","5","5","7","8","6","8","6","9","7","8","6","5","7","5","6","6","6","1","6","5","7","7","6","1","7","5","6","7","7","1","6","3","7","2","3","6","5","7","6","7","5","6","6","5","1","3","7","5","6","6","5","633773426204475392","韩","671","Female","[""坏她"",""好她"",""坏我"",""好我""]","[""弱她"",""强她"",""弱我"",""强我""]","","","","","","","","5","","","","","","","","","SRET","SRET_math_calculate","","key","5","16.652947058823123","799.9999682108573","445.8333156175091","","","","","4+1= ?","5","1","","","","","","",""
"3045","","6","psychophysics","105","596869","0.0-7.0-5.0-0.2","6","7","5","5","6","4","4","5","4","5","4","-2","-3","1","2","1","1","2","1","4","5","4","5","4","4","5","4","5","5","7","8","6","8","6","9","7","8","6","5","7","5","6","6","6","1","6","5","7","7","6","1","7","5","6","7","7","1","6","3","7","2","3","6","5","7","6","7","5","6","6","5","1","3","7","5","6","6","5","633773426204475392","韩","671","Female","[""坏她"",""好她"",""坏我"",""好我""]","[""弱她"",""强她"",""弱我"",""强我""]","","","","","","","","6","","","","","","","","","SRET","SRET_math_calculate","","key","6","16.652978021977724","799.9999682108573","445.8333156175091","","","","","3+3= ?","6","1","","","","","","",""
"4028","","7","psychophysics","106","600900","0.0-7.0-5.0-0.3","6","7","5","5","6","4","4","5","4","5","4","-2","-3","1","2","1","1","2","1","4","5","4","5","4","4","5","4","5","5","7","8","6","8","6","9","7","8","6","5","7","5","6","6","6","1","6","5","7","7","6","1","7","5","6","7","7","1","6","3","7","2","3","6","5","7","6","7","5","6","6","5","1","3","7","5","6","6","5","633773426204475392","韩","671","Female","[""坏她"",""好她"",""坏我"",""好我""]","[""弱她"",""强她"",""弱我"",""强我""]","","","","","","","","7","","","","","","","","","SRET","SRET_math_calculate","","key","7","16.652979253112104","799.9999682108573","445.8333156175091","","","","","4+3= ?","7","1","","","","","","",""
"2236","","8","psychophysics","107","603139","0.0-7.0-5.0-0.4","6","7","5","5","6","4","4","5","4","5","4","-2","-3","1","2","1","1","2","1","4","5","4","5","4","4","5","4","5","5","7","8","6","8","6","9","7","8","6","5","7","5","6","6","6","1","6","5","7","7","6","1","7","5","6","7","7","1","6","3","7","2","3","6","5","7","6","7","5","6","6","5","1","3","7","5","6","6","5","633773426204475392","韩","671","Female","[""坏她"",""好她"",""坏我"",""好我""]","[""弱她"",""强她"",""弱我"",""强我""]","","","","","","","","8","","","","","","","","","SRET","SRET_math_calculate","","key","8","16.652909774436523","799.9999682108573","445.8333156175091","","","","","1+7= ?","8","1","","","","","","",""
"3917","","8","psychophysics","108","607064","0.0-7.0-5.0-0.5","6","7","5","5","6","4","4","5","4","5","4","-2","-3","1","2","1","1","2","1","4","5","4","5","4","4","5","4","5","5","7","8","6","8","6","9","7","8","6","5","7","5","6","6","6","1","6","5","7","7","6","1","7","5","6","7","7","1","6","3","7","2","3","6","5","7","6","7","5","6","6","5","1","3","7","5","6","6","5","633773426204475392","韩","671","Female","[""坏她"",""好她"",""坏我"",""好我""]","[""弱她"",""强她"",""弱我"",""强我""]","","","","","","","","8","","","","","","","","","SRET","SRET_math_calculate","","key","8","16.65156170212753","799.9999682108573","445.8333156175091","","","","","3+6= ?","9","0","","","","","","",""
"4061","","9","psychophysics","109","611126","0.0-7.0-5.0-0.6","6","7","5","5","6","4","4","5","4","5","4","-2","-3","1","2","1","1","2","1","4","5","4","5","4","4","5","4","5","5","7","8","6","8","6","9","7","8","6","5","7","5","6","6","6","1","6","5","7","7","6","1","7","5","6","7","7","1","6","3","7","2","3","6","5","7","6","7","5","6","6","5","1","3","7","5","6","6","5","633773426204475392","韩","671","Female","[""坏她"",""好她"",""坏我"",""好我""]","[""弱她"",""强她"",""弱我"",""强我""]","","","","","","","","9","","","","","","","","","SRET","SRET_math_calculate","","key","9","16.653004115226548","799.9999682108573","445.8333156175091","","","","","7+2= ?","9","1","","","","","","",""
"3174","","0","psychophysics","110","614302","0.0-7.0-5.0-0.7","6","7","5","5","6","4","4","5","4","5","4","-2","-3","1","2","1","1","2","1","4","5","4","5","4","4","5","4","5","5","7","8","6","8","6","9","7","8","6","5","7","5","6","6","6","1","6","5","7","7","6","1","7","5","6","7","7","1","6","3","7","2","3","6","5","7","6","7","5","6","6","5","1","3","7","5","6","6","5","633773426204475392","韩","671","Female","[""坏她"",""好她"",""坏我"",""好我""]","[""弱她"",""强她"",""弱我"",""强我""]","","","","","","","","0","","","","","","","","","SRET","SRET_math_calculate","","key","0","16.65317368421054","799.9999682108573","445.8333156175091","","","","","32-32= ?","0","1","","","","","","",""
"2702","","8","psychophysics","111","617006","0.0-7.0-5.0-0.8","6","7","5","5","6","4","4","5","4","5","4","-2","-3","1","2","1","1","2","1","4","5","4","5","4","4","5","4","5","5","7","8","6","8","6","9","7","8","6","5","7","5","6","6","6","1","6","5","7","7","6","1","7","5","6","7","7","1","6","3","7","2","3","6","5","7","6","7","5","6","6","5","1","3","7","5","6","6","5","633773426204475392","韩","671","Female","[""坏她"",""好她"",""坏我"",""好我""]","[""弱她"",""强她"",""弱我"",""强我""]","","","","","","","","8","","","","","","","","","SRET","SRET_math_calculate","","key","8","16.65306832298191","799.9999682108573","445.8333156175091","","","","","10-9= ?","1","0","","","","","","",""
"2480","","0","psychophysics","112","619488","0.0-7.0-5.0-0.9","6","7","5","5","6","4","4","5","4","5","4","-2","-3","1","2","1","1","2","1","4","5","4","5","4","4","5","4","5","5","7","8","6","8","6","9","7","8","6","5","7","5","6","6","6","1","6","5","7","7","6","1","7","5","6","7","7","1","6","3","7","2","3","6","5","7","6","7","5","6","6","5","1","3","7","5","6","6","5","633773426204475392","韩","671","Female","[""坏她"",""好她"",""坏我"",""好我""]","[""弱她"",""强她"",""弱我"",""强我""]","","","","","","","","0","","","","","","","","","SRET","SRET_math_calculate","","key","0","16.653081081080803","799.9999682108573","445.8333156175091","","","","","3+0= ?","3","0","","","","","","",""
"4720","","3","psychophysics","113","624211","0.0-7.0-5.0-0.10","6","7","5","5","6","4","4","5","4","5","4","-2","-3","1","2","1","1","2","1","4","5","4","5","4","4","5","4","5","5","7","8","6","8","6","9","7","8","6","5","7","5","6","6","6","1","6","5","7","7","6","1","7","5","6","7","7","1","6","3","7","2","3","6","5","7","6","7","5","6","6","5","1","3","7","5","6","6","5","633773426204475392","韩","671","Female","[""坏她"",""好她"",""坏我"",""好我""]","[""弱她"",""强她"",""弱我"",""强我""]","","","","","","","","3","","","","","","","","","SRET","SRET_math_calculate","","key","3","16.652999999999995","799.9999682108573","445.8333156175091","","","","","9-6= ?","3","1","","","","","","",""
"7451","","6","psychophysics","114","631664","0.0-7.0-5.0-0.11","6","7","5","5","6","4","4","5","4","5","4","-2","-3","1","2","1","1","2","1","4","5","4","5","4","4","5","4","5","5","7","8","6","8","6","9","7","8","6","5","7","5","6","6","6","1","6","5","7","7","6","1","7","5","6","7","7","1","6","3","7","2","3","6","5","7","6","7","5","6","6","5","1","3","7","5","6","6","5","633773426204475392","韩","671","Female","[""坏她"",""好她"",""坏我"",""好我""]","[""弱她"",""强她"",""弱我"",""强我""]","","","","","","","","6","","","","","","","","","SRET","SRET_math_calculate","","key","6","16.65294843049346","799.9999682108573","445.8333156175091","","","","","9-3= ?","6","1","","","","","","",""
"7362","","4","psychophysics","115","639032","0.0-7.0-5.0-0.12","6","7","5","5","6","4","4","5","4","5","4","-2","-3","1","2","1","1","2","1","4","5","4","5","4","4","5","4","5","5","7","8","6","8","6","9","7","8","6","5","7","5","6","6","6","1","6","5","7","7","6","1","7","5","6","7","7","1","6","3","7","2","3","6","5","7","6","7","5","6","6","5","1","3","7","5","6","6","5","633773426204475392","韩","671","Female","[""坏她"",""好她"",""坏我"",""好我""]","[""弱她"",""强她"",""弱我"",""强我""]","","","","","","","","4","","","","","","","","","SRET","SRET_math_calculate","","key","4","16.652794117647133","799.9999682108573","445.8333156175091","","","","","20/5= ?","4","1","","","","","","",""
"5502","","2","psychophysics","116","644537","0.0-7.0-5.0-0.13","6","7","5","5","6","4","4","5","4","5","4","-2","-3","1","2","1","1","2","1","4","5","4","5","4","4","5","4","5","5","7","8","6","8","6","9","7","8","6","5","7","5","6","6","6","1","6","5","7","7","6","1","7","5","6","7","7","1","6","3","7","2","3","6","5","7","6","7","5","6","6","5","1","3","7","5","6","6","5","633773426204475392","韩","671","Female","[""坏她"",""好她"",""坏我"",""好我""]","[""弱她"",""强她"",""弱我"",""强我""]","","","","","","","","2","","","","","","","","","SRET","SRET_math_calculate","","key","2","16.65298784194524","799.9999682108573","445.8333156175091","","","","","29-27= ?","2","1","","","","","","",""
"11677","","5","psychophysics","117","656221","0.0-7.0-5.0-0.14","6","7","5","5","6","4","4","5","4","5","4","-2","-3","1","2","1","1","2","1","4","5","4","5","4","4","5","4","5","5","7","8","6","8","6","9","7","8","6","5","7","5","6","6","6","1","6","5","7","7","6","1","7","5","6","7","7","1","6","3","7","2","3","6","5","7","6","7","5","6","6","5","1","3","7","5","6","6","5","633773426204475392","韩","671","Female","[""坏她"",""好她"",""坏我"",""好我""]","[""弱她"",""强她"",""弱我"",""强我""]","","","","","","","","5","","","","","","","","","SRET","SRET_math_calculate","","key","5","16.653025677603353","799.9999682108573","445.8333156175091","","","","","16-11= ?","5","1","","","","","","",""
"6165","","5","psychophysics","118","662388","0.0-7.0-5.0-0.15","6","7","5","5","6","4","4","5","4","5","4","-2","-3","1","2","1","1","2","1","4","5","4","5","4","4","5","4","5","5","7","8","6","8","6","9","7","8","6","5","7","5","6","6","6","1","6","5","7","7","6","1","7","5","6","7","7","1","6","3","7","2","3","6","5","7","6","7","5","6","6","5","1","3","7","5","6","6","5","633773426204475392","韩","671","Female","[""坏她"",""好她"",""坏我"",""好我""]","[""弱她"",""强她"",""弱我"",""强我""]","","","","","","","","5","","","","","","","","","SRET","SRET_math_calculate","","key","5","16.652997289972916","799.9999682108573","445.8333156175091","","","","","9-4= ?","5","1","","","","","","",""
"6832","","2","psychophysics","119","669227","0.0-7.0-5.0-0.16","6","7","5","5","6","4","4","5","4","5","4","-2","-3","1","2","1","1","2","1","4","5","4","5","4","4","5","4","5","5","7","8","6","8","6","9","7","8","6","5","7","5","6","6","6","1","6","5","7","7","6","1","7","5","6","7","7","1","6","3","7","2","3","6","5","7","6","7","5","6","6","5","1","3","7","5","6","6","5","633773426204475392","韩","671","Female","[""坏她"",""好她"",""坏我"",""好我""]","[""弱她"",""强她"",""弱我"",""强我""]","","","","","","","","2","","","","","","","","","SRET","SRET_math_calculate","","key","2","16.65295121951239","799.9999682108573","445.8333156175091","","","","","18/9= ?","2","1","","","","","","",""
"4583","","3","psychophysics","120","673812","0.0-7.0-5.0-0.17","6","7","5","5","6","4","4","5","4","5","4","-2","-3","1","2","1","1","2","1","4","5","4","5","4","4","5","4","5","5","7","8","6","8","6","9","7","8","6","5","7","5","6","6","6","1","6","5","7","7","6","1","7","5","6","7","7","1","6","3","7","2","3","6","5","7","6","7","5","6","6","5","1","3","7","5","6","6","5","633773426204475392","韩","671","Female","[""坏她"",""好她"",""坏我"",""好我""]","[""弱她"",""强她"",""弱我"",""强我""]","","","","","","","","3","","","","","","","","","SRET","SRET_math_calculate","","key","3","16.65304379562047","799.9999682108573","445.8333156175091","","","","","8-5= ?","3","1","","","","","","",""
"6243","","1","psychophysics","121","680063","0.0-7.0-5.0-0.18","6","7","5","5","6","4","4","5","4","5","4","-2","-3","1","2","1","1","2","1","4","5","4","5","4","4","5","4","5","5","7","8","6","8","6","9","7","8","6","5","7","5","6","6","6","1","6","5","7","7","6","1","7","5","6","7","7","1","6","3","7","2","3","6","5","7","6","7","5","6","6","5","1","3","7","5","6","6","5","633773426204475392","韩","671","Female","[""坏她"",""好她"",""坏我"",""好我""]","[""弱她"",""强她"",""弱我"",""强我""]","","","","","","","","1","","","","","","","","","SRET","SRET_math_calculate","","key","1","16.653018666666622","799.9999682108573","445.8333156175091","","","","","9-8= ?","1","1","","","","","","",""
"4621","","3","psychophysics","122","684686","0.0-7.0-5.0-0.19","6","7","5","5","6","4","4","5","4","5","4","-2","-3","1","2","1","1","2","1","4","5","4","5","4","4","5","4","5","5","7","8","6","8","6","9","7","8","6","5","7","5","6","6","6","1","6","5","7","7","6","1","7","5","6","7","7","1","6","3","7","2","3","6","5","7","6","7","5","6","6","5","1","3","7","5","6","6","5","633773426204475392","韩","671","Female","[""坏她"",""好她"",""坏我"",""好我""]","[""弱她"",""强她"",""弱我"",""强我""]","","","","","","","","3","","","","","","","","","SRET","SRET_math_calculate","","key","3","16.652942028985716","799.9999682108573","445.8333156175091","","","","","1+2= ?","3","1","","","","","","",""
"5017","","2","psychophysics","123","689709","0.0-7.0-5.0-0.20","6","7","5","5","6","4","4","5","4","5","4","-2","-3","1","2","1","1","2","1","4","5","4","5","4","4","5","4","5","5","7","8","6","8","6","9","7","8","6","5","7","5","6","6","6","1","6","5","7","7","6","1","7","5","6","7","7","1","6","3","7","2","3","6","5","7","6","7","5","6","6","5","1","3","7","5","6","6","5","633773426204475392","韩","671","Female","[""坏她"",""好她"",""坏我"",""好我""]","[""弱她"",""强她"",""弱我"",""强我""]","","","","","","","","2","","","","","","","","","SRET","SRET_math_calculate","","key","2","16.65305315614624","799.9999682108573","445.8333156175091","","","","","22/11= ?","2","1","","","","","","",""
"5101","","4","psychophysics","124","694813","0.0-7.0-5.0-0.21","6","7","5","5","6","4","4","5","4","5","4","-2","-3","1","2","1","1","2","1","4","5","4","5","4","4","5","4","5","5","7","8","6","8","6","9","7","8","6","5","7","5","6","6","6","1","6","5","7","7","6","1","7","5","6","7","7","1","6","3","7","2","3","6","5","7","6","7","5","6","6","5","1","3","7","5","6","6","5","633773426204475392","韩","671","Female","[""坏她"",""好她"",""坏我"",""好我""]","[""弱她"",""强她"",""弱我"",""强我""]","","","","","","","","4","","","","","","","","","SRET","SRET_math_calculate","","key","4","16.652937704918248","799.9999682108573","445.8333156175091","","","","","13-9= ?","4","1","","","","","","",""
"5915","","8","psychophysics","125","700735","0.0-7.0-5.0-0.22","6","7","5","5","6","4","4","5","4","5","4","-2","-3","1","2","1","1","2","1","4","5","4","5","4","4","5","4","5","5","7","8","6","8","6","9","7","8","6","5","7","5","6","6","6","1","6","5","7","7","6","1","7","5","6","7","7","1","6","3","7","2","3","6","5","7","6","7","5","6","6","5","1","3","7","5","6","6","5","633773426204475392","韩","671","Female","[""坏她"",""好她"",""坏我"",""好我""]","[""弱她"",""强她"",""弱我"",""强我""]","","","","","","","","8","","","","","","","","","SRET","SRET_math_calculate","","key","8","16.652628169013973","799.9999682108573","445.8333156175091","","","","","4*2= ?","8","1","","","","","","",""
"3424","","7","psychophysics","126","704161","0.0-7.0-5.0-0.23","6","7","5","5","6","4","4","5","4","5","4","-2","-3","1","2","1","1","2","1","4","5","4","5","4","4","5","4","5","5","7","8","6","8","6","9","7","8","6","5","7","5","6","6","6","1","6","5","7","7","6","1","7","5","6","7","7","1","6","3","7","2","3","6","5","7","6","7","5","6","6","5","1","3","7","5","6","6","5","633773426204475392","韩","671","Female","[""坏她"",""好她"",""坏我"",""好我""]","[""弱她"",""强她"",""弱我"",""强我""]","","","","","","","","7","","","","","","","","","SRET","SRET_math_calculate","","key","7","16.652853658536404","799.9999682108573","445.8333156175091","","","","","6+1= ?","7","1","","","","","","",""
"5953","","3","psychophysics","127","710116","0.0-7.0-5.0-0.24","6","7","5","5","6","4","4","5","4","5","4","-2","-3","1","2","1","1","2","1","4","5","4","5","4","4","5","4","5","5","7","8","6","8","6","9","7","8","6","5","7","5","6","6","6","1","6","5","7","7","6","1","7","5","6","7","7","1","6","3","7","2","3","6","5","7","6","7","5","6","6","5","1","3","7","5","6","6","5","633773426204475392","韩","671","Female","[""坏她"",""好她"",""坏我"",""好我""]","[""弱她"",""强她"",""弱我"",""强我""]","","","","","","","","3","","","","","","","","","SRET","SRET_math_calculate","","key","3","16.653019662921285","799.9999682108573","445.8333156175091","","","","","21/7=  ?","3","1","","","","","","",""
"5767","","8","psychophysics","128","715889","0.0-7.0-5.0-0.25","6","7","5","5","6","4","4","5","4","5","4","-2","-3","1","2","1","1","2","1","4","5","4","5","4","4","5","4","5","5","7","8","6","8","6","9","7","8","6","5","7","5","6","6","6","1","6","5","7","7","6","1","7","5","6","7","7","1","6","3","7","2","3","6","5","7","6","7","5","6","6","5","1","3","7","5","6","6","5","633773426204475392","韩","671","Female","[""坏她"",""好她"",""坏我"",""好我""]","[""弱她"",""强她"",""弱我"",""强我""]","","","","","","","","8","","","","","","","","","SRET","SRET_math_calculate","","key","8","16.65306647398847","799.9999682108573","445.8333156175091","","","","","1*8= ?","8","1","","","","","","",""
"7519","","9","psychophysics","129","723411","0.0-7.0-5.0-0.26","6","7","5","5","6","4","4","5","4","5","4","-2","-3","1","2","1","1","2","1","4","5","4","5","4","4","5","4","5","5","7","8","6","8","6","9","7","8","6","5","7","5","6","6","6","1","6","5","7","7","6","1","7","5","6","7","7","1","6","3","7","2","3","6","5","7","6","7","5","6","6","5","1","3","7","5","6","6","5","633773426204475392","韩","671","Female","[""坏她"",""好她"",""坏我"",""好我""]","[""弱她"",""强她"",""弱我"",""强我""]","","","","","","","","9","","","","","","","","","SRET","SRET_math_calculate","","key","9","16.65292682926823","799.9999682108573","445.8333156175091","","","","","3*3= ?","9","1","","","","","","",""
"4767","","6","psychophysics","130","728180","0.0-7.0-5.0-0.27","6","7","5","5","6","4","4","5","4","5","4","-2","-3","1","2","1","1","2","1","4","5","4","5","4","4","5","4","5","5","7","8","6","8","6","9","7","8","6","5","7","5","6","6","6","1","6","5","7","7","6","1","7","5","6","7","7","1","6","3","7","2","3","6","5","7","6","7","5","6","6","5","1","3","7","5","6","6","5","633773426204475392","韩","671","Female","[""坏她"",""好她"",""坏我"",""好我""]","[""弱她"",""强她"",""弱我"",""强我""]","","","","","","","","6","","","","","","","","","SRET","SRET_math_calculate","","key","6","16.652915789473703","799.9999682108573","445.8333156175091","","","","","2*3= ?","6","1","","","","","","",""
"4771","","0","psychophysics","131","732953","0.0-7.0-5.0-0.28","6","7","5","5","6","4","4","5","4","5","4","-2","-3","1","2","1","1","2","1","4","5","4","5","4","4","5","4","5","5","7","8","6","8","6","9","7","8","6","5","7","5","6","6","6","1","6","5","7","7","6","1","7","5","6","7","7","1","6","3","7","2","3","6","5","7","6","7","5","6","6","5","1","3","7","5","6","6","5","633773426204475392","韩","671","Female","[""坏她"",""好她"",""坏我"",""好我""]","[""弱她"",""强她"",""弱我"",""强我""]","","","","","","","","0","","","","","","","","","SRET","SRET_math_calculate","","key","0","16.652912587412615","799.9999682108573","445.8333156175091","","","","","7*0= ?","0","1","","","","","","",""
"3318","","9","psychophysics","132","736276","0.0-7.0-5.0-0.29","6","7","5","5","6","4","4","5","4","5","4","-2","-3","1","2","1","1","2","1","4","5","4","5","4","4","5","4","5","5","7","8","6","8","6","9","7","8","6","5","7","5","6","6","6","1","6","5","7","7","6","1","7","5","6","7","7","1","6","3","7","2","3","6","5","7","6","7","5","6","6","5","1","3","7","5","6","6","5","633773426204475392","韩","671","Female","[""坏她"",""好她"",""坏我"",""好我""]","[""弱她"",""强她"",""弱我"",""强我""]","","","","","","","","9","","","","","","","","","SRET","SRET_math_calculate","","key","9","16.653055555555227","799.9999682108573","445.8333156175091","","","","","1+8= ?","9","1","","","","","","",""
"10765","","6","psychophysics","133","747042","0.0-7.0-5.0-0.30","6","7","5","5","6","4","4","5","4","5","4","-2","-3","1","2","1","1","2","1","4","5","4","5","4","4","5","4","5","5","7","8","6","8","6","9","7","8","6","5","7","5","6","6","6","1","6","5","7","7","6","1","7","5","6","7","7","1","6","3","7","2","3","6","5","7","6","7","5","6","6","5","1","3","7","5","6","6","5","633773426204475392","韩","671","Female","[""坏她"",""好她"",""坏我"",""好我""]","[""弱她"",""强她"",""弱我"",""强我""]","","","","","","","","6","","","","","","","","","SRET","SRET_math_calculate","","key","6","16.652990712074384","799.9999682108573","445.8333156175091","","","","","2+4= ?","6","1","","","","","","",""
"5011","","2","psychophysics","134","752055","0.0-7.0-5.0-0.31","6","7","5","5","6","4","4","5","4","5","4","-2","-3","1","2","1","1","2","1","4","5","4","5","4","4","5","4","5","5","7","8","6","8","6","9","7","8","6","5","7","5","6","6","6","1","6","5","7","7","6","1","7","5","6","7","7","1","6","3","7","2","3","6","5","7","6","7","5","6","6","5","1","3","7","5","6","6","5","633773426204475392","韩","671","Female","[""坏她"",""好她"",""坏我"",""好我""]","[""弱她"",""强她"",""弱我"",""强我""]","","","","","","","","2","","","","","","","","","SRET","SRET_math_calculate","","key","2","16.652926666666755","799.9999682108573","445.8333156175091","","","","","8/4= ?","2","1","","","","","","",""
"8385","","4","psychophysics","135","760443","0.0-7.0-5.0-0.32","6","7","5","5","6","4","4","5","4","5","4","-2","-3","1","2","1","1","2","1","4","5","4","5","4","4","5","4","5","5","7","8","6","8","6","9","7","8","6","5","7","5","6","6","6","1","6","5","7","7","6","1","7","5","6","7","7","1","6","3","7","2","3","6","5","7","6","7","5","6","6","5","1","3","7","5","6","6","5","633773426204475392","韩","671","Female","[""坏她"",""好她"",""坏我"",""好我""]","[""弱她"",""强她"",""弱我"",""强我""]","","","","","","","","4","","","","","","","","","SRET","SRET_math_calculate","","key","4","16.653397614314084","799.9999682108573","445.8333156175091","","","","","4*1= ?","4","1","","","","","","",""
"","","","psychophysics","136","765669","0.0-7.0-5.0-0.33","6","7","5","5","6","4","4","5","4","5","4","-2","-3","1","2","1","1","2","1","4","5","4","5","4","4","5","4","5","5","7","8","6","8","6","9","7","8","6","5","7","5","6","6","6","1","6","5","7","7","6","1","7","5","6","7","7","1","6","3","7","2","3","6","5","7","6","7","5","6","6","5","1","3","7","5","6","6","5","633773426204475392","韩","671","Female","[""坏她"",""好她"",""坏我"",""好我""]","[""弱她"",""强她"",""弱我"",""强我""]","","","","","","","","","","","","","","","","","SRET","SRET_math_calculate","","","","","","","","","","","72/9= ?","8","0","ended early","","","","","",""
"289663","","","instructions","137","1055334","0.0-7.0-6.0","6","7","5","5","6","4","4","5","4","5","4","-2","-3","1","2","1","1","2","1","4","5","4","5","4","4","5","4","5","5","7","8","6","8","6","9","7","8","6","5","7","5","6","6","6","1","6","5","7","7","6","1","7","5","6","7","7","1","6","3","7","2","3","6","5","7","6","7","5","6","6","5","1","3","7","5","6","6","5","633773426204475392","韩","671","Female","[""坏她"",""好她"",""坏我"",""好我""]","[""弱她"",""强她"",""弱我"",""强我""]","","","","","","","","","","","","","","","","","SRET_RJ","RJ_instruct_practice","Fri Nov 03 2023 10:32:06 GMT+0800 (中国标准时间)","","","","","","","","","","","","","","[{""page_index"":0,""viewing_time"":281991},{""page_index"":1,""viewing_time"":7670}]","","","","",""
"null","<div style=""color:white;font-size:80px;line-height:5px;position:absolute;top:calc(50%); transform: translate(-50%, -50%)"">+</div>","null","html-keyboard-response","138","1055867","0.0-7.0-7.0-0.0","6","7","5","5","6","4","4","5","4","5","4","-2","-3","1","2","1","1","2","1","4","5","4","5","4","4","5","4","5","5","7","8","6","8","6","9","7","8","6","5","7","5","6","6","6","1","6","5","7","7","6","1","7","5","6","7","7","1","6","3","7","2","3","6","5","7","6","7","5","6","6","5","1","3","7","5","6","6","5","633773426204475392","韩","671","Female","[""坏她"",""好她"",""坏我"",""好我""]","[""弱她"",""强她"",""弱我"",""强我""]","","","","","","","","","","","","","","","","","","","","","","","","","","","","","","","","","","","","","",""
