"rt","stimulus","response","trial_type","trial_index","time_elapsed","internal_node_id","swb_1","swb_2","swb_3","swb_4","swb_5","LOT_1","LOT_2","LOT_3","LOT_4","LOT_5","LOT_6","IPC_1","IPC_2","IPC_3","IPC_4","IPC_5","IPC_6","IPC_7","IPC_8","MorIden_1","MorIden_2","MorIden_3","MorIden_4","MorIden_5","MorIden_6","MorIden_7","MorIden_8","MorIden_9","MorIden_10","moralSeImag_1","moralSeImag_2","moralSeImag_3","moralSeImag_4","moralSeImag_5","moralSeImag_6","moralSeImag_7","moralSeImag_8","moralSeImag_9","sde_1","sde_2","sde_3","sde_4","sde_5","sde_6","sde_7","sde_8","sde_9","sde_10","sde_11","sde_12","sde_13","sde_14","sde_15","sde_16","sde_17","sde_18","sde_19","sde_20","IM_1","IM_2","IM_3","IM_4","IM_5","IM_6","IM_7","IM_8","IM_9","IM_10","IM_11","IM_12","IM_13","IM_14","IM_15","IM_16","IM_17","IM_18","IM_19","IM_20","subj_idx","friend_name","ParticipantID","Sex","Word","Word2","value","success","timeout","failed_images","failed_audio","failed_video","user_agent","responses","item_order","radio_event_ids","radio_event_times","key_event_times","mouse_event_times","straightlining","zigzagging","honeypot","task_id","screen_id","time_stamp","response_type","key_press","avg_frame_time","center_x","center_y","person","word","valence","domain","math","correct_response","correct","status","view_history","identity","duration","Image","condition","question_order"
"20745","
   <p><div style='color:white; font-size: 25px'>您好，欢迎参加本次实验。</div></p>
   <p><div style='color:white; font-size: 25px'>为充分保障您的权利，请确保您已经知晓并同意《参与实验同意书》以及《数据公开知情同意书》。</div></p>
   <p><div style='color:white; font-size: 25px'>如果您未见过上述内容，请咨询实验员。</div></p>
   <p style='color:white; font-size: 25px'>如果您选择继续实验，则表示您已经清楚两份知情同意书的内容并同意。</p>
   <p><div style = ""color: red;font-size:30px;"">请确保您记得day0的实验编号，您将在本次实验输入该编号，若您忘记，请咨询实验员后作答。</div></p>
   <p> <div style = ""color: green""><按空格键至下页></div> </p>
   "," ","html-keyboard-response","0","20748","0.0-0.0","6","6","6","5","5","5","4","5","2","4","5","2","1","1","2","0","0","0","2","5","4","5","4","4","4","4","4","4","4","4","6","5","5","3","7","5","5","5","6","6","7","3","6","2","7","1","6","6","6","5","5","2","6","7","6","3","7","6","1","6","5","5","5","7","7","7","7","7","7","7","3","2","3","7","7","7","6","7","766049476896100353","张","569","Male","[""好他"",""坏他"",""坏我"",""好我""]","[""强他"",""弱他"",""弱我"",""强我""]","","","","","","","","","","","","","","","","","","","","","","","","","","","","","","","","","","","","","",""
"","","","call-function","1","20748","0.0-1.0-0.0","6","6","6","5","5","5","4","5","2","4","5","2","1","1","2","0","0","0","2","5","4","5","4","4","4","4","4","4","4","4","6","5","5","3","7","5","5","5","6","6","7","3","6","2","7","1","6","6","6","5","5","2","6","7","6","3","7","6","1","6","5","5","5","7","7","7","7","7","7","7","3","2","3","7","7","7","6","7","766049476896100353","张","569","Male","[""好他"",""坏他"",""坏我"",""好我""]","[""强他"",""弱他"",""弱我"",""强我""]","","","","","","","","","","","","","","","","","","","","","","","","","","","","","","","","","","","","","",""
"19887","","[{""name"":""Sex"",""value"":""0""},{""name"":""friend_name"",""value"":""张""},{""name"":""ParticipantID"",""value"":""569""}]","survey-html-form","2","40636","0.0-1.0-1.0","6","6","6","5","5","5","4","5","2","4","5","2","1","1","2","0","0","0","2","5","4","5","4","4","4","4","4","4","4","4","6","5","5","3","7","5","5","5","6","6","7","3","6","2","7","1","6","6","6","5","5","2","6","7","6","3","7","6","1","6","5","5","5","7","7","7","7","7","7","7","3","2","3","7","7","7","6","7","766049476896100353","张","569","Male","[""好他"",""坏他"",""坏我"",""好我""]","[""强他"",""弱他"",""弱我"",""强我""]","","","","","","","","","","","","","","","","","","","","","","","","","","","","","","","","","","","","","",""
"","","","preload","3","41263","0.0-2.0","6","6","6","5","5","5","4","5","2","4","5","2","1","1","2","0","0","0","2","5","4","5","4","4","4","4","4","4","4","4","6","5","5","3","7","5","5","5","6","6","7","3","6","2","7","1","6","6","6","5","5","2","6","7","6","3","7","6","1","6","5","5","5","7","7","7","7","7","7","7","3","2","3","7","7","7","6","7","766049476896100353","张","569","Male","[""好他"",""坏他"",""坏我"",""好我""]","[""强他"",""弱他"",""弱我"",""强我""]","","true","false","[]","[]","[]","","","","","","","","","","","","","","","","","","","","","","","","","","","","","","","",""
"","","","fullscreen","4","48838","0.0-3.0","6","6","6","5","5","5","4","5","2","4","5","2","1","1","2","0","0","0","2","5","4","5","4","4","4","4","4","4","4","4","6","5","5","3","7","5","5","5","6","6","7","3","6","2","7","1","6","6","6","5","5","2","6","7","6","3","7","6","1","6","5","5","5","7","7","7","7","7","7","7","3","2","3","7","7","7","6","7","766049476896100353","张","569","Male","[""好他"",""坏他"",""坏我"",""好我""]","[""强他"",""弱他"",""弱我"",""强我""]","","true","","","","","{}","","","","","","","","","","","","","","","","","","","","","","","","","","","","","","",""
"19710.899999976158","","{""Q01"":""6"",""Q02"":""6"",""Q03"":""6"",""Q04"":""5"",""Q05"":""5""}","survey-template","5","68551","0.0-4.0","6","6","6","5","5","5","4","5","2","4","5","2","1","1","2","0","0","0","2","5","4","5","4","4","4","4","4","4","4","4","6","5","5","3","7","5","5","5","6","6","7","3","6","2","7","1","6","6","6","5","5","2","6","7","6","3","7","6","1","6","5","5","5","7","7","7","7","7","7","7","3","2","3","7","7","7","6","7","766049476896100353","张","569","Male","[""好他"",""坏他"",""坏我"",""好我""]","[""强他"",""弱他"",""弱我"",""强我""]","","","","","","","","{""Q01"":""6"",""Q02"":""6"",""Q03"":""6"",""Q04"":""5"",""Q05"":""5""}","[0,1,2,3,4]","[""Q01"",""Q02"",""Q01"",""Q03"",""Q04"",""Q05""]","[3571.5,9253.899999976158,10580,12853.699999928474,14475.5,17518.600000023842]","[]","[3571.5,9253.899999976158,10580,12853.699999928474,14475.5,17518.600000023842,19709.899999976158]","0.6","0.25","0","","","","","","","","","","","","","","","","","","","","","",""
"34596.200000047684","","{""Q01"":""5"",""Q02"":""4"",""Q03"":""5"",""Q04"":""2"",""Q05"":""4"",""Q06"":""5""}","survey-template","6","103151","0.0-5.0","6","6","6","5","5","5","4","5","2","4","5","2","1","1","2","0","0","0","2","5","4","5","4","4","4","4","4","4","4","4","6","5","5","3","7","5","5","5","6","6","7","3","6","2","7","1","6","6","6","5","5","2","6","7","6","3","7","6","1","6","5","5","5","7","7","7","7","7","7","7","3","2","3","7","7","7","6","7","766049476896100353","张","569","Male","[""好他"",""坏他"",""坏我"",""好我""]","[""强他"",""弱他"",""弱我"",""强我""]","","","","","","","","{""Q01"":""5"",""Q02"":""4"",""Q03"":""5"",""Q04"":""2"",""Q05"":""4"",""Q06"":""5""}","[0,1,2,3,4,5]","[""Q01"",""Q02"",""Q02"",""Q03"",""Q04"",""Q05"",""Q06""]","[3913.5,16783.5,21040.300000071526,22635.5,26865.700000047684,30155.399999976158,33973.5]","[]","[3913.5,16783.5,21040.300000071526,22635.5,26865.700000047684,30155.399999976158,33973.5,34595.60000002384]","0.5","0.2","0","","","","","","","","","","","","","","","","","","","","","",""
"20729.100000023842","","{""Q01"":""2"",""Q02"":""1"",""Q03"":""1"",""Q04"":""2"",""Q05"":""0"",""Q06"":""0"",""Q07"":""0"",""Q08"":""2""}","survey-template","7","123882","0.0-6.0","6","6","6","5","5","5","4","5","2","4","5","2","1","1","2","0","0","0","2","5","4","5","4","4","4","4","4","4","4","4","6","5","5","3","7","5","5","5","6","6","7","3","6","2","7","1","6","6","6","5","5","2","6","7","6","3","7","6","1","6","5","5","5","7","7","7","7","7","7","7","3","2","3","7","7","7","6","7","766049476896100353","张","569","Male","[""好他"",""坏他"",""坏我"",""好我""]","[""强他"",""弱他"",""弱我"",""强我""]","","","","","","","","{""Q01"":""2"",""Q02"":""1"",""Q03"":""1"",""Q04"":""2"",""Q05"":""0"",""Q06"":""0"",""Q07"":""0"",""Q08"":""2""}","[0,1,2,3,4,5,6,7]","[""Q01"",""Q02"",""Q03"",""Q04"",""Q05"",""Q06"",""Q07"",""Q08""]","[2326.7000000476837,5356.800000071526,7282.5,9846.700000047684,12270.600000023842,14010.700000047684,16858.700000047684,19251.100000023842]","[]","[2326.7000000476837,5356.800000071526,7282.5,9846.700000047684,12270.600000023842,14010.700000047684,16240.700000047684,16858.700000047684,19251.100000023842,20728.100000023842]","0.375","0.2857142857142857","0","","","","","","","","","","","","","","","","","","","","","",""
"14887","
    <p><div style='color:white;font-size:35px; line-height:20px;'>词汇评估任务</div></p><br>
    <p><div style='color:white;font-size:25px; line-height:20px;'>请再次回忆该亲密的朋友，你们至少2年前就认识了，并且最近2年经常见面。</div></p>
    <p><div style='color:white;font-size:25px; line-height:20px;'>在本实验中，您将会看到一些形容词。</div></p>
    <p><div style='color:yellow;font-size:25px; line-height:20px;'>您的任务是判断这些形容词是否符合对您自己或您的朋友的描述。</div></p><p style='font-size:35px'>符合按<span style=""color:lightgreen""> j 键</span>，不符合按<span style=""color:red""> f 键</span></p>","0","html-button-response","8","138772","0.0-7.0-0.0","6","6","6","5","5","5","4","5","2","4","5","2","1","1","2","0","0","0","2","5","4","5","4","4","4","4","4","4","4","4","6","5","5","3","7","5","5","5","6","6","7","3","6","2","7","1","6","6","6","5","5","2","6","7","6","3","7","6","1","6","5","5","5","7","7","7","7","7","7","7","3","2","3","7","7","7","6","7","766049476896100353","张","569","Male","[""好他"",""坏他"",""坏我"",""好我""]","[""强他"",""弱他"",""弱我"",""强我""]","","","","","","","","","","","","","","","","","SRET_EW","EW_instructions","Fri Nov 03 2023 22:01:14 GMT+0800 (中国标准时间)","","","","","","","","","","","","","","","","","","",""
"9811","","j","psychophysics","9","149587","0.0-7.0-1.0-0.0","6","6","6","5","5","5","4","5","2","4","5","2","1","1","2","0","0","0","2","5","4","5","4","4","4","4","4","4","4","4","6","5","5","3","7","5","5","5","6","6","7","3","6","2","7","1","6","6","6","5","5","2","6","7","6","3","7","6","1","6","5","5","5","7","7","7","7","7","7","7","3","2","3","7","7","7","6","7","766049476896100353","张","569","Male","[""好他"",""坏他"",""坏我"",""好我""]","[""强他"",""弱他"",""弱我"",""强我""]","","","","","","","","yes","","","","","","","","","SRET_EW","EW_practice","","key","j","16.660913713405222","768","428","自己","严谨","Positive","ability","","","","","","","","","",""
"1354","","f","psychophysics","10","151943","0.0-7.0-1.0-0.1","6","6","6","5","5","5","4","5","2","4","5","2","1","1","2","0","0","0","2","5","4","5","4","4","4","4","4","4","4","4","6","5","5","3","7","5","5","5","6","6","7","3","6","2","7","1","6","6","6","5","5","2","6","7","6","3","7","6","1","6","5","5","5","7","7","7","7","7","7","7","3","2","3","7","7","7","6","7","766049476896100353","张","569","Male","[""好他"",""坏他"",""坏我"",""好我""]","[""强他"",""弱他"",""弱我"",""强我""]","","","","","","","","no","","","","","","","","","SRET_EW","EW_practice","","key","f","16.66145000000002","768","428","自己","刻板","Negative","ability","","","","","","","","","",""
"2795","","j","psychophysics","11","155739","0.0-7.0-1.0-0.2","6","6","6","5","5","5","4","5","2","4","5","2","1","1","2","0","0","0","2","5","4","5","4","4","4","4","4","4","4","4","6","5","5","3","7","5","5","5","6","6","7","3","6","2","7","1","6","6","6","5","5","2","6","7","6","3","7","6","1","6","5","5","5","7","7","7","7","7","7","7","3","2","3","7","7","7","6","7","766049476896100353","张","569","Male","[""好他"",""坏他"",""坏我"",""好我""]","[""强他"",""弱他"",""弱我"",""强我""]","","","","","","","","yes","","","","","","","","","SRET_EW","EW_practice","","key","j","16.66270044052859","768","428","朋友","忠实","Positive","morality","","","","","","","","","",""
"2328","","f","psychophysics","12","159070","0.0-7.0-1.0-0.3","6","6","6","5","5","5","4","5","2","4","5","2","1","1","2","0","0","0","2","5","4","5","4","4","4","4","4","4","4","4","6","5","5","3","7","5","5","5","6","6","7","3","6","2","7","1","6","6","6","5","5","2","6","7","6","3","7","6","1","6","5","5","5","7","7","7","7","7","7","7","3","2","3","7","7","7","6","7","766049476896100353","张","569","Male","[""好他"",""坏他"",""坏我"",""好我""]","[""强他"",""弱他"",""弱我"",""强我""]","","","","","","","","no","","","","","","","","","SRET_EW","EW_practice","","key","f","16.66302010050247","768","428","朋友","徇私","Negative","morality","","","","","","","","","",""
"7833","
    <p><div style='color:white;font-size:35px; line-height:20px;'>请您再次阅读实验要求</div></p><br>
    <p><div style='color:white;font-size:25px; line-height:20px;'>请回忆某一个亲密的朋友，你们至少2年前就认识了，并且最近2年经常见面。</div></p>
    <p><div style='color:white;font-size:25px; line-height:20px;'>在本实验中，您将会看到一些形容词。</div></p>
    <p><div style='color:yellow;font-size:25px; line-height:20px;'>您的任务是判断这些形容词是否符合对您自己或您的朋友的描述。</div></p>
    <p><div class='footer' style='font-size:25px; line-height:20px;'>如果对本实验还有不清楚之处，请立即向实验员咨询。</p><p style='font-size:25px; line-height:20px;'>如果您明白了规则：</p><p style='font-size:22px; line-height:20px;'>请按 继续 进入正式实验</p>
    </div>
    <p style='font-size:35px'>符合按<span style=""color:lightgreen""> j 键</span>，不符合按<span style=""color:red""> f 键</span></p>","0","html-button-response","13","166904","0.0-7.0-2.0","6","6","6","5","5","5","4","5","2","4","5","2","1","1","2","0","0","0","2","5","4","5","4","4","4","4","4","4","4","4","6","5","5","3","7","5","5","5","6","6","7","3","6","2","7","1","6","6","6","5","5","2","6","7","6","3","7","6","1","6","5","5","5","7","7","7","7","7","7","7","3","2","3","7","7","7","6","7","766049476896100353","张","569","Male","[""好他"",""坏他"",""坏我"",""好我""]","[""强他"",""弱他"",""弱我"",""强我""]","","","","","","","","","","","","","","","","","SRET_EW","prac_instructions","Fri Nov 03 2023 22:01:14 GMT+0800 (中国标准时间)","","","","","","","","","","","","","","","","","","",""
"3005","","f","psychophysics","14","170910","0.0-7.0-3.0-0.0","6","6","6","5","5","5","4","5","2","4","5","2","1","1","2","0","0","0","2","5","4","5","4","4","4","4","4","4","4","4","6","5","5","3","7","5","5","5","6","6","7","3","6","2","7","1","6","6","6","5","5","2","6","7","6","3","7","6","1","6","5","5","5","7","7","7","7","7","7","7","3","2","3","7","7","7","6","7","766049476896100353","张","569","Male","[""好他"",""坏他"",""坏我"",""好我""]","[""强他"",""弱他"",""弱我"",""强我""]","","","","","","","","no","","","","","","","","","SRET","EW_formal","","key","f","16.729316666666637","768","428","朋友","迷糊","Negative","ability","","","","","","","","","",""
"919","","j","psychophysics","15","172831","0.0-7.0-3.0-0.1","6","6","6","5","5","5","4","5","2","4","5","2","1","1","2","0","0","0","2","5","4","5","4","4","4","4","4","4","4","4","6","5","5","3","7","5","5","5","6","6","7","3","6","2","7","1","6","6","6","5","5","2","6","7","6","3","7","6","1","6","5","5","5","7","7","7","7","7","7","7","3","2","3","7","7","7","6","7","766049476896100353","张","569","Male","[""好他"",""坏他"",""坏我"",""好我""]","[""强他"",""弱他"",""弱我"",""强我""]","","","","","","","","yes","","","","","","","","","SRET","EW_formal","","key","j","16.6624736842105","768","428","朋友","务实","Positive","ability","","","","","","","","","",""
"1422","","f","psychophysics","16","175255","0.0-7.0-3.0-0.2","6","6","6","5","5","5","4","5","2","4","5","2","1","1","2","0","0","0","2","5","4","5","4","4","4","4","4","4","4","4","6","5","5","3","7","5","5","5","6","6","7","3","6","2","7","1","6","6","6","5","5","2","6","7","6","3","7","6","1","6","5","5","5","7","7","7","7","7","7","7","3","2","3","7","7","7","6","7","766049476896100353","张","569","Male","[""好他"",""坏他"",""坏我"",""好我""]","[""强他"",""弱他"",""弱我"",""强我""]","","","","","","","","no","","","","","","","","","SRET","EW_formal","","key","f","16.6615172413794","768","428","自己","说谎","Negative","morality","","","","","","","","","",""
"1028","","j","psychophysics","17","177285","0.0-7.0-3.0-0.3","6","6","6","5","5","5","4","5","2","4","5","2","1","1","2","0","0","0","2","5","4","5","4","4","4","4","4","4","4","4","6","5","5","3","7","5","5","5","6","6","7","3","6","2","7","1","6","6","6","5","5","2","6","7","6","3","7","6","1","6","5","5","5","7","7","7","7","7","7","7","3","2","3","7","7","7","6","7","766049476896100353","张","569","Male","[""好他"",""坏他"",""坏我"",""好我""]","[""强他"",""弱他"",""弱我"",""强我""]","","","","","","","","yes","","","","","","","","","SRET","EW_formal","","key","j","16.657341666666618","768","428","自己","坚贞","Positive","morality","","","","","","","","","",""
"5322","","f","psychophysics","18","183608","0.0-7.0-3.0-0.4","6","6","6","5","5","5","4","5","2","4","5","2","1","1","2","0","0","0","2","5","4","5","4","4","4","4","4","4","4","4","6","5","5","3","7","5","5","5","6","6","7","3","6","2","7","1","6","6","6","5","5","2","6","7","6","3","7","6","1","6","5","5","5","7","7","7","7","7","7","7","3","2","3","7","7","7","6","7","766049476896100353","张","569","Male","[""好他"",""坏他"",""坏我"",""好我""]","[""强他"",""弱他"",""弱我"",""强我""]","","","","","","","","no","","","","","","","","","SRET","EW_formal","","key","f","16.662250659630573","768","428","自己","无私","Positive","morality","","","","","","","","","",""
"2785","","f","psychophysics","19","187395","0.0-7.0-3.0-0.5","6","6","6","5","5","5","4","5","2","4","5","2","1","1","2","0","0","0","2","5","4","5","4","4","4","4","4","4","4","4","6","5","5","3","7","5","5","5","6","6","7","3","6","2","7","1","6","6","6","5","5","2","6","7","6","3","7","6","1","6","5","5","5","7","7","7","7","7","7","7","3","2","3","7","7","7","6","7","766049476896100353","张","569","Male","[""好他"",""坏他"",""坏我"",""好我""]","[""强他"",""弱他"",""弱我"",""强我""]","","","","","","","","no","","","","","","","","","SRET","EW_formal","","key","f","16.662933628318473","768","428","自己","盲目","Negative","ability","","","","","","","","","",""
"3689","","j","psychophysics","20","192086","0.0-7.0-3.0-0.6","6","6","6","5","5","5","4","5","2","4","5","2","1","1","2","0","0","0","2","5","4","5","4","4","4","4","4","4","4","4","6","5","5","3","7","5","5","5","6","6","7","3","6","2","7","1","6","6","6","5","5","2","6","7","6","3","7","6","1","6","5","5","5","7","7","7","7","7","7","7","3","2","3","7","7","7","6","7","766049476896100353","张","569","Male","[""好他"",""坏他"",""坏我"",""好我""]","[""强他"",""弱他"",""弱我"",""强我""]","","","","","","","","yes","","","","","","","","","SRET","EW_formal","","key","j","16.662195729537434","768","428","自己","娴熟","Positive","ability","","","","","","","","","",""
"962","","j","psychophysics","21","194049","0.0-7.0-3.0-0.7","6","6","6","5","5","5","4","5","2","4","5","2","1","1","2","0","0","0","2","5","4","5","4","4","4","4","4","4","4","4","6","5","5","3","7","5","5","5","6","6","7","3","6","2","7","1","6","6","6","5","5","2","6","7","6","3","7","6","1","6","5","5","5","7","7","7","7","7","7","7","3","2","3","7","7","7","6","7","766049476896100353","张","569","Male","[""好他"",""坏他"",""坏我"",""好我""]","[""强他"",""弱他"",""弱我"",""强我""]","","","","","","","","yes","","","","","","","","","SRET","EW_formal","","key","j","16.66044444444442","768","428","朋友","细心","Positive","ability","","","","","","","","","",""
"2015","","f","psychophysics","22","197066","0.0-7.0-3.0-0.8","6","6","6","5","5","5","4","5","2","4","5","2","1","1","2","0","0","0","2","5","4","5","4","4","4","4","4","4","4","4","6","5","5","3","7","5","5","5","6","6","7","3","6","2","7","1","6","6","6","5","5","2","6","7","6","3","7","6","1","6","5","5","5","7","7","7","7","7","7","7","3","2","3","7","7","7","6","7","766049476896100353","张","569","Male","[""好他"",""坏他"",""坏我"",""好我""]","[""强他"",""弱他"",""弱我"",""强我""]","","","","","","","","no","","","","","","","","","SRET","EW_formal","","key","f","16.661122222222264","768","428","朋友","迂拙","Negative","ability","","","","","","","","","",""
"1188","","j","psychophysics","23","199265","0.0-7.0-3.0-0.9","6","6","6","5","5","5","4","5","2","4","5","2","1","1","2","0","0","0","2","5","4","5","4","4","4","4","4","4","4","4","6","5","5","3","7","5","5","5","6","6","7","3","6","2","7","1","6","6","6","5","5","2","6","7","6","3","7","6","1","6","5","5","5","7","7","7","7","7","7","7","3","2","3","7","7","7","6","7","766049476896100353","张","569","Male","[""好他"",""坏他"",""坏我"",""好我""]","[""强他"",""弱他"",""弱我"",""强我""]","","","","","","","","yes","","","","","","","","","SRET","EW_formal","","key","j","16.66038167938916","768","428","朋友","聪明","Positive","ability","","","","","","","","","",""
"1050","","j","psychophysics","24","201316","0.0-7.0-3.0-0.10","6","6","6","5","5","5","4","5","2","4","5","2","1","1","2","0","0","0","2","5","4","5","4","4","4","4","4","4","4","4","6","5","5","3","7","5","5","5","6","6","7","3","6","2","7","1","6","6","6","5","5","2","6","7","6","3","7","6","1","6","5","5","5","7","7","7","7","7","7","7","3","2","3","7","7","7","6","7","766049476896100353","张","569","Male","[""好他"",""坏他"",""坏我"",""好我""]","[""强他"",""弱他"",""弱我"",""强我""]","","","","","","","","yes","","","","","","","","","SRET","EW_formal","","key","j","16.660860655737704","768","428","自己","守信","Positive","morality","","","","","","","","","",""
"873","","f","psychophysics","25","203190","0.0-7.0-3.0-0.11","6","6","6","5","5","5","4","5","2","4","5","2","1","1","2","0","0","0","2","5","4","5","4","4","4","4","4","4","4","4","6","5","5","3","7","5","5","5","6","6","7","3","6","2","7","1","6","6","6","5","5","2","6","7","6","3","7","6","1","6","5","5","5","7","7","7","7","7","7","7","3","2","3","7","7","7","6","7","766049476896100353","张","569","Male","[""好他"",""坏他"",""坏我"",""好我""]","[""强他"",""弱他"",""弱我"",""强我""]","","","","","","","","no","","","","","","","","","SRET","EW_formal","","key","f","16.65933333333348","768","428","自己","窝囊","Negative","ability","","","","","","","","","",""
"1232","","f","psychophysics","26","205425","0.0-7.0-3.0-0.12","6","6","6","5","5","5","4","5","2","4","5","2","1","1","2","0","0","0","2","5","4","5","4","4","4","4","4","4","4","4","6","5","5","3","7","5","5","5","6","6","7","3","6","2","7","1","6","6","6","5","5","2","6","7","6","3","7","6","1","6","5","5","5","7","7","7","7","7","7","7","3","2","3","7","7","7","6","7","766049476896100353","张","569","Male","[""好他"",""坏他"",""坏我"",""好我""]","[""强他"",""弱他"",""弱我"",""强我""]","","","","","","","","no","","","","","","","","","SRET","EW_formal","","key","f","16.66375187969932","768","428","朋友","失信","Negative","morality","","","","","","","","","",""
"1090","","j","psychophysics","27","207516","0.0-7.0-3.0-0.13","6","6","6","5","5","5","4","5","2","4","5","2","1","1","2","0","0","0","2","5","4","5","4","4","4","4","4","4","4","4","6","5","5","3","7","5","5","5","6","6","7","3","6","2","7","1","6","6","6","5","5","2","6","7","6","3","7","6","1","6","5","5","5","7","7","7","7","7","7","7","3","2","3","7","7","7","6","7","766049476896100353","张","569","Male","[""好他"",""坏他"",""坏我"",""好我""]","[""强他"",""弱他"",""弱我"",""强我""]","","","","","","","","yes","","","","","","","","","SRET","EW_formal","","key","j","16.663631999999982","768","428","朋友","依靠","Negative","ability","","","","","","","","","",""
"1433","","j","psychophysics","28","209950","0.0-7.0-3.0-0.14","6","6","6","5","5","5","4","5","2","4","5","2","1","1","2","0","0","0","2","5","4","5","4","4","4","4","4","4","4","4","6","5","5","3","7","5","5","5","6","6","7","3","6","2","7","1","6","6","6","5","5","2","6","7","6","3","7","6","1","6","5","5","5","7","7","7","7","7","7","7","3","2","3","7","7","7","6","7","766049476896100353","张","569","Male","[""好他"",""坏他"",""坏我"",""好我""]","[""强他"",""弱他"",""弱我"",""强我""]","","","","","","","","yes","","","","","","","","","SRET","EW_formal","","key","j","16.661917241379328","768","428","自己","变通","Positive","ability","","","","","","","","","",""
"155","","j","psychophysics","29","211107","0.0-7.0-3.0-0.15","6","6","6","5","5","5","4","5","2","4","5","2","1","1","2","0","0","0","2","5","4","5","4","4","4","4","4","4","4","4","6","5","5","3","7","5","5","5","6","6","7","3","6","2","7","1","6","6","6","5","5","2","6","7","6","3","7","6","1","6","5","5","5","7","7","7","7","7","7","7","3","2","3","7","7","7","6","7","766049476896100353","张","569","Male","[""好他"",""坏他"",""坏我"",""好我""]","[""强他"",""弱他"",""弱我"",""强我""]","","","","","","","","yes","","","","","","","","","SRET","EW_formal","","key","j","16.660132352941538","768","428","自己","高明","Positive","ability","","","","","","","","","",""
"1344","","j","psychophysics","30","213452","0.0-7.0-3.0-0.16","6","6","6","5","5","5","4","5","2","4","5","2","1","1","2","0","0","0","2","5","4","5","4","4","4","4","4","4","4","4","6","5","5","3","7","5","5","5","6","6","7","3","6","2","7","1","6","6","6","5","5","2","6","7","6","3","7","6","1","6","5","5","5","7","7","7","7","7","7","7","3","2","3","7","7","7","6","7","766049476896100353","张","569","Male","[""好他"",""坏他"",""坏我"",""好我""]","[""强他"",""弱他"",""弱我"",""强我""]","","","","","","","","yes","","","","","","","","","SRET","EW_formal","","key","j","16.664042857142963","768","428","朋友","慈悲","Positive","morality","","","","","","","","","",""
"1142","","j","psychophysics","31","215595","0.0-7.0-3.0-0.17","6","6","6","5","5","5","4","5","2","4","5","2","1","1","2","0","0","0","2","5","4","5","4","4","4","4","4","4","4","4","6","5","5","3","7","5","5","5","6","6","7","3","6","2","7","1","6","6","6","5","5","2","6","7","6","3","7","6","1","6","5","5","5","7","7","7","7","7","7","7","3","2","3","7","7","7","6","7","766049476896100353","张","569","Male","[""好他"",""坏他"",""坏我"",""好我""]","[""强他"",""弱他"",""弱我"",""强我""]","","","","","","","","yes","","","","","","","","","SRET","EW_formal","","key","j","16.66109375000019","768","428","朋友","中用","Positive","ability","","","","","","","","","",""
"1134","","f","psychophysics","32","217730","0.0-7.0-3.0-0.18","6","6","6","5","5","5","4","5","2","4","5","2","1","1","2","0","0","0","2","5","4","5","4","4","4","4","4","4","4","4","6","5","5","3","7","5","5","5","6","6","7","3","6","2","7","1","6","6","6","5","5","2","6","7","6","3","7","6","1","6","5","5","5","7","7","7","7","7","7","7","3","2","3","7","7","7","6","7","766049476896100353","张","569","Male","[""好他"",""坏他"",""坏我"",""好我""]","[""强他"",""弱他"",""弱我"",""强我""]","","","","","","","","no","","","","","","","","","SRET","EW_formal","","key","f","16.659724409448845","768","428","自己","势利","Negative","morality","","","","","","","","","",""
"989","","j","psychophysics","33","219720","0.0-7.0-3.0-0.19","6","6","6","5","5","5","4","5","2","4","5","2","1","1","2","0","0","0","2","5","4","5","4","4","4","4","4","4","4","4","6","5","5","3","7","5","5","5","6","6","7","3","6","2","7","1","6","6","6","5","5","2","6","7","6","3","7","6","1","6","5","5","5","7","7","7","7","7","7","7","3","2","3","7","7","7","6","7","766049476896100353","张","569","Male","[""好他"",""坏他"",""坏我"",""好我""]","[""强他"",""弱他"",""弱我"",""强我""]","","","","","","","","yes","","","","","","","","","SRET","EW_formal","","key","j","16.662355932203354","768","428","朋友","廉正","Positive","morality","","","","","","","","","",""
"795","","f","psychophysics","34","221517","0.0-7.0-3.0-0.20","6","6","6","5","5","5","4","5","2","4","5","2","1","1","2","0","0","0","2","5","4","5","4","4","4","4","4","4","4","4","6","5","5","3","7","5","5","5","6","6","7","3","6","2","7","1","6","6","6","5","5","2","6","7","6","3","7","6","1","6","5","5","5","7","7","7","7","7","7","7","3","2","3","7","7","7","6","7","766049476896100353","张","569","Male","[""好他"",""坏他"",""坏我"",""好我""]","[""强他"",""弱他"",""弱我"",""强我""]","","","","","","","","no","","","","","","","","","SRET","EW_formal","","key","f","16.662327102803793","768","428","自己","无赖","Negative","morality","","","","","","","","","",""
"906","","f","psychophysics","35","223423","0.0-7.0-3.0-0.21","6","6","6","5","5","5","4","5","2","4","5","2","1","1","2","0","0","0","2","5","4","5","4","4","4","4","4","4","4","4","6","5","5","3","7","5","5","5","6","6","7","3","6","2","7","1","6","6","6","5","5","2","6","7","6","3","7","6","1","6","5","5","5","7","7","7","7","7","7","7","3","2","3","7","7","7","6","7","766049476896100353","张","569","Male","[""好他"",""坏他"",""坏我"",""好我""]","[""强他"",""弱他"",""弱我"",""强我""]","","","","","","","","no","","","","","","","","","SRET","EW_formal","","key","f","16.66107894736827","768","428","朋友","虚伪","Negative","morality","","","","","","","","","",""
"818","","j","psychophysics","36","225243","0.0-7.0-3.0-0.22","6","6","6","5","5","5","4","5","2","4","5","2","1","1","2","0","0","0","2","5","4","5","4","4","4","4","4","4","4","4","6","5","5","3","7","5","5","5","6","6","7","3","6","2","7","1","6","6","6","5","5","2","6","7","6","3","7","6","1","6","5","5","5","7","7","7","7","7","7","7","3","2","3","7","7","7","6","7","766049476896100353","张","569","Male","[""好他"",""坏他"",""坏我"",""好我""]","[""强他"",""弱他"",""弱我"",""强我""]","","","","","","","","yes","","","","","","","","","SRET","EW_formal","","key","j","16.659555555555453","768","428","自己","好心","Positive","morality","","","","","","","","","",""
"841","","j","psychophysics","37","227085","0.0-7.0-3.0-0.23","6","6","6","5","5","5","4","5","2","4","5","2","1","1","2","0","0","0","2","5","4","5","4","4","4","4","4","4","4","4","6","5","5","3","7","5","5","5","6","6","7","3","6","2","7","1","6","6","6","5","5","2","6","7","6","3","7","6","1","6","5","5","5","7","7","7","7","7","7","7","3","2","3","7","7","7","6","7","766049476896100353","张","569","Male","[""好他"",""坏他"",""坏我"",""好我""]","[""强他"",""弱他"",""弱我"",""强我""]","","","","","","","","yes","","","","","","","","","SRET","EW_formal","","key","j","16.663706422018457","768","428","朋友","忠良","Positive","morality","","","","","","","","","",""
"934","","j","psychophysics","38","229021","0.0-7.0-3.0-0.24","6","6","6","5","5","5","4","5","2","4","5","2","1","1","2","0","0","0","2","5","4","5","4","4","4","4","4","4","4","4","6","5","5","3","7","5","5","5","6","6","7","3","6","2","7","1","6","6","6","5","5","2","6","7","6","3","7","6","1","6","5","5","5","7","7","7","7","7","7","7","3","2","3","7","7","7","6","7","766049476896100353","张","569","Male","[""好他"",""坏他"",""坏我"",""好我""]","[""强他"",""弱他"",""弱我"",""强我""]","","","","","","","","yes","","","","","","","","","SRET","EW_formal","","key","j","16.663646551724202","768","428","朋友","远见","Positive","ability","","","","","","","","","",""
"908","","j","psychophysics","39","230931","0.0-7.0-3.0-0.25","6","6","6","5","5","5","4","5","2","4","5","2","1","1","2","0","0","0","2","5","4","5","4","4","4","4","4","4","4","4","6","5","5","3","7","5","5","5","6","6","7","3","6","2","7","1","6","6","6","5","5","2","6","7","6","3","7","6","1","6","5","5","5","7","7","7","7","7","7","7","3","2","3","7","7","7","6","7","766049476896100353","张","569","Male","[""好他"",""坏他"",""坏我"",""好我""]","[""强他"",""弱他"",""弱我"",""强我""]","","","","","","","","yes","","","","","","","","","SRET","EW_formal","","key","j","16.664840707964412","768","428","自己","守法","Positive","morality","","","","","","","","","",""
"1328","","f","psychophysics","40","233260","0.0-7.0-3.0-0.26","6","6","6","5","5","5","4","5","2","4","5","2","1","1","2","0","0","0","2","5","4","5","4","4","4","4","4","4","4","4","6","5","5","3","7","5","5","5","6","6","7","3","6","2","7","1","6","6","6","5","5","2","6","7","6","3","7","6","1","6","5","5","5","7","7","7","7","7","7","7","3","2","3","7","7","7","6","7","766049476896100353","张","569","Male","[""好他"",""坏他"",""坏我"",""好我""]","[""强他"",""弱他"",""弱我"",""强我""]","","","","","","","","no","","","","","","","","","SRET","EW_formal","","key","f","16.663410071942497","768","428","自己","弱智","Negative","ability","","","","","","","","","",""
"1719","","j","psychophysics","41","235980","0.0-7.0-3.0-0.27","6","6","6","5","5","5","4","5","2","4","5","2","1","1","2","0","0","0","2","5","4","5","4","4","4","4","4","4","4","4","6","5","5","3","7","5","5","5","6","6","7","3","6","2","7","1","6","6","6","5","5","2","6","7","6","3","7","6","1","6","5","5","5","7","7","7","7","7","7","7","3","2","3","7","7","7","6","7","766049476896100353","张","569","Male","[""好他"",""坏他"",""坏我"",""好我""]","[""强他"",""弱他"",""弱我"",""强我""]","","","","","","","","yes","","","","","","","","","SRET","EW_formal","","key","j","16.66093209876541","768","428","朋友","屈才","Negative","ability","","","","","","","","","",""
"1120","","j","psychophysics","42","238101","0.0-7.0-3.0-0.28","6","6","6","5","5","5","4","5","2","4","5","2","1","1","2","0","0","0","2","5","4","5","4","4","4","4","4","4","4","4","6","5","5","3","7","5","5","5","6","6","7","3","6","2","7","1","6","6","6","5","5","2","6","7","6","3","7","6","1","6","5","5","5","7","7","7","7","7","7","7","3","2","3","7","7","7","6","7","766049476896100353","张","569","Male","[""好他"",""坏他"",""坏我"",""好我""]","[""强他"",""弱他"",""弱我"",""强我""]","","","","","","","","yes","","","","","","","","","SRET","EW_formal","","key","j","16.66193700787395","768","428","朋友","仗义","Positive","morality","","","","","","","","","",""
"2099","","f","psychophysics","43","241201","0.0-7.0-3.0-0.29","6","6","6","5","5","5","4","5","2","4","5","2","1","1","2","0","0","0","2","5","4","5","4","4","4","4","4","4","4","4","6","5","5","3","7","5","5","5","6","6","7","3","6","2","7","1","6","6","6","5","5","2","6","7","6","3","7","6","1","6","5","5","5","7","7","7","7","7","7","7","3","2","3","7","7","7","6","7","766049476896100353","张","569","Male","[""好他"",""坏他"",""坏我"",""好我""]","[""强他"",""弱他"",""弱我"",""强我""]","","","","","","","","no","","","","","","","","","SRET","EW_formal","","key","f","16.660989189189323","768","428","自己","利己","Negative","morality","","","","","","","","","",""
"859","","j","psychophysics","44","243061","0.0-7.0-3.0-0.30","6","6","6","5","5","5","4","5","2","4","5","2","1","1","2","0","0","0","2","5","4","5","4","4","4","4","4","4","4","4","6","5","5","3","7","5","5","5","6","6","7","3","6","2","7","1","6","6","6","5","5","2","6","7","6","3","7","6","1","6","5","5","5","7","7","7","7","7","7","7","3","2","3","7","7","7","6","7","766049476896100353","张","569","Male","[""好他"",""坏他"",""坏我"",""好我""]","[""强他"",""弱他"",""弱我"",""强我""]","","","","","","","","yes","","","","","","","","","SRET","EW_formal","","key","j","16.662300000000027","768","428","朋友","敬业","Positive","morality","","","","","","","","","",""
"1727","","f","psychophysics","45","245789","0.0-7.0-3.0-0.31","6","6","6","5","5","5","4","5","2","4","5","2","1","1","2","0","0","0","2","5","4","5","4","4","4","4","4","4","4","4","6","5","5","3","7","5","5","5","6","6","7","3","6","2","7","1","6","6","6","5","5","2","6","7","6","3","7","6","1","6","5","5","5","7","7","7","7","7","7","7","3","2","3","7","7","7","6","7","766049476896100353","张","569","Male","[""好他"",""坏他"",""坏我"",""好我""]","[""强他"",""弱他"",""弱我"",""强我""]","","","","","","","","no","","","","","","","","","SRET","EW_formal","","key","f","16.662619631901915","768","428","朋友","外行","Negative","ability","","","","","","","","","",""
"879","","f","psychophysics","46","247669","0.0-7.0-3.0-0.32","6","6","6","5","5","5","4","5","2","4","5","2","1","1","2","0","0","0","2","5","4","5","4","4","4","4","4","4","4","4","6","5","5","3","7","5","5","5","6","6","7","3","6","2","7","1","6","6","6","5","5","2","6","7","6","3","7","6","1","6","5","5","5","7","7","7","7","7","7","7","3","2","3","7","7","7","6","7","766049476896100353","张","569","Male","[""好他"",""坏他"",""坏我"",""好我""]","[""强他"",""弱他"",""弱我"",""强我""]","","","","","","","","no","","","","","","","","","SRET","EW_formal","","key","f","16.66073214285721","768","428","朋友","废物","Negative","ability","","","","","","","","","",""
"835","","f","psychophysics","47","249505","0.0-7.0-3.0-0.33","6","6","6","5","5","5","4","5","2","4","5","2","1","1","2","0","0","0","2","5","4","5","4","4","4","4","4","4","4","4","6","5","5","3","7","5","5","5","6","6","7","3","6","2","7","1","6","6","6","5","5","2","6","7","6","3","7","6","1","6","5","5","5","7","7","7","7","7","7","7","3","2","3","7","7","7","6","7","766049476896100353","张","569","Male","[""好他"",""坏他"",""坏我"",""好我""]","[""强他"",""弱他"",""弱我"",""强我""]","","","","","","","","no","","","","","","","","","SRET","EW_formal","","key","f","16.660605504587366","768","428","朋友","小人","Negative","morality","","","","","","","","","",""
"1198","","j","psychophysics","48","251704","0.0-7.0-3.0-0.34","6","6","6","5","5","5","4","5","2","4","5","2","1","1","2","0","0","0","2","5","4","5","4","4","4","4","4","4","4","4","6","5","5","3","7","5","5","5","6","6","7","3","6","2","7","1","6","6","6","5","5","2","6","7","6","3","7","6","1","6","5","5","5","7","7","7","7","7","7","7","3","2","3","7","7","7","6","7","766049476896100353","张","569","Male","[""好他"",""坏他"",""坏我"",""好我""]","[""强他"",""弱他"",""弱我"",""强我""]","","","","","","","","yes","","","","","","","","","SRET","EW_formal","","key","j","16.662022900763404","768","428","自己","有力","Positive","ability","","","","","","","","","",""
"969","","f","psychophysics","49","253674","0.0-7.0-3.0-0.35","6","6","6","5","5","5","4","5","2","4","5","2","1","1","2","0","0","0","2","5","4","5","4","4","4","4","4","4","4","4","6","5","5","3","7","5","5","5","6","6","7","3","6","2","7","1","6","6","6","5","5","2","6","7","6","3","7","6","1","6","5","5","5","7","7","7","7","7","7","7","3","2","3","7","7","7","6","7","766049476896100353","张","569","Male","[""好他"",""坏他"",""坏我"",""好我""]","[""强他"",""弱他"",""弱我"",""强我""]","","","","","","","","no","","","","","","","","","SRET","EW_formal","","key","f","16.665059829059874","768","428","自己","贪污","Negative","morality","","","","","","","","","",""
"1303","","f","psychophysics","50","255979","0.0-7.0-3.0-0.36","6","6","6","5","5","5","4","5","2","4","5","2","1","1","2","0","0","0","2","5","4","5","4","4","4","4","4","4","4","4","6","5","5","3","7","5","5","5","6","6","7","3","6","2","7","1","6","6","6","5","5","2","6","7","6","3","7","6","1","6","5","5","5","7","7","7","7","7","7","7","3","2","3","7","7","7","6","7","766049476896100353","张","569","Male","[""好他"",""坏他"",""坏我"",""好我""]","[""强他"",""弱他"",""弱我"",""强我""]","","","","","","","","no","","","","","","","","","SRET","EW_formal","","key","f","16.663405797101365","768","428","自己","混账","Negative","morality","","","","","","","","","",""
"845","","j","psychophysics","51","257826","0.0-7.0-3.0-0.37","6","6","6","5","5","5","4","5","2","4","5","2","1","1","2","0","0","0","2","5","4","5","4","4","4","4","4","4","4","4","6","5","5","3","7","5","5","5","6","6","7","3","6","2","7","1","6","6","6","5","5","2","6","7","6","3","7","6","1","6","5","5","5","7","7","7","7","7","7","7","3","2","3","7","7","7","6","7","766049476896100353","张","569","Male","[""好他"",""坏他"",""坏我"",""好我""]","[""强他"",""弱他"",""弱我"",""强我""]","","","","","","","","yes","","","","","","","","","SRET","EW_formal","","key","j","16.66420183486226","768","428","自己","宽容","Positive","morality","","","","","","","","","",""
"762","","f","psychophysics","52","259596","0.0-7.0-3.0-0.38","6","6","6","5","5","5","4","5","2","4","5","2","1","1","2","0","0","0","2","5","4","5","4","4","4","4","4","4","4","4","6","5","5","3","7","5","5","5","6","6","7","3","6","2","7","1","6","6","6","5","5","2","6","7","6","3","7","6","1","6","5","5","5","7","7","7","7","7","7","7","3","2","3","7","7","7","6","7","766049476896100353","张","569","Male","[""好他"",""坏他"",""坏我"",""好我""]","[""强他"",""弱他"",""弱我"",""强我""]","","","","","","","","no","","","","","","","","","SRET","EW_formal","","key","f","16.663613207547108","768","428","朋友","虚假","Negative","morality","","","","","","","","","",""
"825","","j","psychophysics","53","261422","0.0-7.0-3.0-0.39","6","6","6","5","5","5","4","5","2","4","5","2","1","1","2","0","0","0","2","5","4","5","4","4","4","4","4","4","4","4","6","5","5","3","7","5","5","5","6","6","7","3","6","2","7","1","6","6","6","5","5","2","6","7","6","3","7","6","1","6","5","5","5","7","7","7","7","7","7","7","3","2","3","7","7","7","6","7","766049476896100353","张","569","Male","[""好他"",""坏他"",""坏我"",""好我""]","[""强他"",""弱他"",""弱我"",""强我""]","","","","","","","","yes","","","","","","","","","SRET","EW_formal","","key","j","16.660259259258897","768","428","朋友","骁勇","Positive","ability","","","","","","","","","",""
"965","","f","psychophysics","54","263387","0.0-7.0-3.0-0.40","6","6","6","5","5","5","4","5","2","4","5","2","1","1","2","0","0","0","2","5","4","5","4","4","4","4","4","4","4","4","6","5","5","3","7","5","5","5","6","6","7","3","6","2","7","1","6","6","6","5","5","2","6","7","6","3","7","6","1","6","5","5","5","7","7","7","7","7","7","7","3","2","3","7","7","7","6","7","766049476896100353","张","569","Male","[""好他"",""坏他"",""坏我"",""好我""]","[""强他"",""弱他"",""弱我"",""强我""]","","","","","","","","no","","","","","","","","","SRET","EW_formal","","key","f","16.665487179486878","768","428","自己","自私","Negative","morality","","","","","","","","","",""
"3463","","j","psychophysics","55","267851","0.0-7.0-3.0-0.41","6","6","6","5","5","5","4","5","2","4","5","2","1","1","2","0","0","0","2","5","4","5","4","4","4","4","4","4","4","4","6","5","5","3","7","5","5","5","6","6","7","3","6","2","7","1","6","6","6","5","5","2","6","7","6","3","7","6","1","6","5","5","5","7","7","7","7","7","7","7","3","2","3","7","7","7","6","7","766049476896100353","张","569","Male","[""好他"",""坏他"",""坏我"",""好我""]","[""强他"",""弱他"",""弱我"",""强我""]","","","","","","","","yes","","","","","","","","","SRET","EW_formal","","key","j","16.662674157303403","768","428","朋友","侠义","Positive","morality","","","","","","","","","",""
"1931","","j","psychophysics","56","270782","0.0-7.0-3.0-0.42","6","6","6","5","5","5","4","5","2","4","5","2","1","1","2","0","0","0","2","5","4","5","4","4","4","4","4","4","4","4","6","5","5","3","7","5","5","5","6","6","7","3","6","2","7","1","6","6","6","5","5","2","6","7","6","3","7","6","1","6","5","5","5","7","7","7","7","7","7","7","3","2","3","7","7","7","6","7","766049476896100353","张","569","Male","[""好他"",""坏他"",""坏我"",""好我""]","[""强他"",""弱他"",""弱我"",""强我""]","","","","","","","","yes","","","","","","","","","SRET","EW_formal","","key","j","16.66201714285716","768","428","自己","顶事","Positive","ability","","","","","","","","","",""
"680","","j","psychophysics","57","272463","0.0-7.0-3.0-0.43","6","6","6","5","5","5","4","5","2","4","5","2","1","1","2","0","0","0","2","5","4","5","4","4","4","4","4","4","4","4","6","5","5","3","7","5","5","5","6","6","7","3","6","2","7","1","6","6","6","5","5","2","6","7","6","3","7","6","1","6","5","5","5","7","7","7","7","7","7","7","3","2","3","7","7","7","6","7","766049476896100353","张","569","Male","[""好他"",""坏他"",""坏我"",""好我""]","[""强他"",""弱他"",""弱我"",""强我""]","","","","","","","","yes","","","","","","","","","SRET","EW_formal","","key","j","16.660860000000103","768","428","朋友","高洁","Positive","morality","","","","","","","","","",""
"815","","f","psychophysics","58","274280","0.0-7.0-3.0-0.44","6","6","6","5","5","5","4","5","2","4","5","2","1","1","2","0","0","0","2","5","4","5","4","4","4","4","4","4","4","4","6","5","5","3","7","5","5","5","6","6","7","3","6","2","7","1","6","6","6","5","5","2","6","7","6","3","7","6","1","6","5","5","5","7","7","7","7","7","7","7","3","2","3","7","7","7","6","7","766049476896100353","张","569","Male","[""好他"",""坏他"",""坏我"",""好我""]","[""强他"",""弱他"",""弱我"",""强我""]","","","","","","","","no","","","","","","","","","SRET","EW_formal","","key","f","16.66460185185187","768","428","朋友","差生","Negative","ability","","","","","","","","","",""
"1582","","f","psychophysics","59","276863","0.0-7.0-3.0-0.45","6","6","6","5","5","5","4","5","2","4","5","2","1","1","2","0","0","0","2","5","4","5","4","4","4","4","4","4","4","4","6","5","5","3","7","5","5","5","6","6","7","3","6","2","7","1","6","6","6","5","5","2","6","7","6","3","7","6","1","6","5","5","5","7","7","7","7","7","7","7","3","2","3","7","7","7","6","7","766049476896100353","张","569","Male","[""好他"",""坏他"",""坏我"",""好我""]","[""强他"",""弱他"",""弱我"",""强我""]","","","","","","","","no","","","","","","","","","SRET","EW_formal","","key","f","16.663194805195076","768","428","自己","草率","Negative","ability","","","","","","","","","",""
"857","","f","psychophysics","60","278720","0.0-7.0-3.0-0.46","6","6","6","5","5","5","4","5","2","4","5","2","1","1","2","0","0","0","2","5","4","5","4","4","4","4","4","4","4","4","6","5","5","3","7","5","5","5","6","6","7","3","6","2","7","1","6","6","6","5","5","2","6","7","6","3","7","6","1","6","5","5","5","7","7","7","7","7","7","7","3","2","3","7","7","7","6","7","766049476896100353","张","569","Male","[""好他"",""坏他"",""坏我"",""好我""]","[""强他"",""弱他"",""弱我"",""强我""]","","","","","","","","no","","","","","","","","","SRET","EW_formal","","key","f","16.66134234234221","768","428","朋友","诡诈","Negative","morality","","","","","","","","","",""
"1724","","j","psychophysics","61","281445","0.0-7.0-3.0-0.47","6","6","6","5","5","5","4","5","2","4","5","2","1","1","2","0","0","0","2","5","4","5","4","4","4","4","4","4","4","4","6","5","5","3","7","5","5","5","6","6","7","3","6","2","7","1","6","6","6","5","5","2","6","7","6","3","7","6","1","6","5","5","5","7","7","7","7","7","7","7","3","2","3","7","7","7","6","7","766049476896100353","张","569","Male","[""好他"",""坏他"",""坏我"",""好我""]","[""强他"",""弱他"",""弱我"",""强我""]","","","","","","","","yes","","","","","","","","","SRET","EW_formal","","key","j","16.662191358024835","768","428","自己","马虎","Negative","ability","","","","","","","","","",""
"1158","","j","psychophysics","62","283604","0.0-7.0-3.0-0.48","6","6","6","5","5","5","4","5","2","4","5","2","1","1","2","0","0","0","2","5","4","5","4","4","4","4","4","4","4","4","6","5","5","3","7","5","5","5","6","6","7","3","6","2","7","1","6","6","6","5","5","2","6","7","6","3","7","6","1","6","5","5","5","7","7","7","7","7","7","7","3","2","3","7","7","7","6","7","766049476896100353","张","569","Male","[""好他"",""坏他"",""坏我"",""好我""]","[""强他"",""弱他"",""弱我"",""强我""]","","","","","","","","yes","","","","","","","","","SRET","EW_formal","","key","j","16.661356589147307","768","428","自己","能干","Positive","ability","","","","","","","","","",""
"2682","","f","psychophysics","63","287288","0.0-7.0-3.0-0.49","6","6","6","5","5","5","4","5","2","4","5","2","1","1","2","0","0","0","2","5","4","5","4","4","4","4","4","4","4","4","6","5","5","3","7","5","5","5","6","6","7","3","6","2","7","1","6","6","6","5","5","2","6","7","6","3","7","6","1","6","5","5","5","7","7","7","7","7","7","7","3","2","3","7","7","7","6","7","766049476896100353","张","569","Male","[""好他"",""坏他"",""坏我"",""好我""]","[""强他"",""弱他"",""弱我"",""强我""]","","","","","","","","no","","","","","","","","","SRET","EW_formal","","key","f","16.661559090909115","768","428","自己","新手","Negative","ability","","","","","","","","","",""
"4129","","j","psychophysics","64","292417","0.0-7.0-3.0-0.50","6","6","6","5","5","5","4","5","2","4","5","2","1","1","2","0","0","0","2","5","4","5","4","4","4","4","4","4","4","4","6","5","5","3","7","5","5","5","6","6","7","3","6","2","7","1","6","6","6","5","5","2","6","7","6","3","7","6","1","6","5","5","5","7","7","7","7","7","7","7","3","2","3","7","7","7","6","7","766049476896100353","张","569","Male","[""好他"",""坏他"",""坏我"",""好我""]","[""强他"",""弱他"",""弱我"",""强我""]","","","","","","","","yes","","","","","","","","","SRET","EW_formal","","key","j","16.66146254071667","768","428","自己","博识","Positive","ability","","","","","","","","","",""
"1117","","j","psychophysics","65","294536","0.0-7.0-3.0-0.51","6","6","6","5","5","5","4","5","2","4","5","2","1","1","2","0","0","0","2","5","4","5","4","4","4","4","4","4","4","4","6","5","5","3","7","5","5","5","6","6","7","3","6","2","7","1","6","6","6","5","5","2","6","7","6","3","7","6","1","6","5","5","5","7","7","7","7","7","7","7","3","2","3","7","7","7","6","7","766049476896100353","张","569","Male","[""好他"",""坏他"",""坏我"",""好我""]","[""强他"",""弱他"",""弱我"",""强我""]","","","","","","","","yes","","","","","","","","","SRET","EW_formal","","key","j","16.66238888888897","768","428","朋友","仁厚","Positive","morality","","","","","","","","","",""
"955","","j","psychophysics","66","296492","0.0-7.0-3.0-0.52","6","6","6","5","5","5","4","5","2","4","5","2","1","1","2","0","0","0","2","5","4","5","4","4","4","4","4","4","4","4","6","5","5","3","7","5","5","5","6","6","7","3","6","2","7","1","6","6","6","5","5","2","6","7","6","3","7","6","1","6","5","5","5","7","7","7","7","7","7","7","3","2","3","7","7","7","6","7","766049476896100353","张","569","Male","[""好他"",""坏他"",""坏我"",""好我""]","[""强他"",""弱他"",""弱我"",""强我""]","","","","","","","","yes","","","","","","","","","SRET","EW_formal","","key","j","16.658758620689383","768","428","自己","沉着","Positive","ability","","","","","","","","","",""
"924","","j","psychophysics","67","298417","0.0-7.0-3.0-0.53","6","6","6","5","5","5","4","5","2","4","5","2","1","1","2","0","0","0","2","5","4","5","4","4","4","4","4","4","4","4","6","5","5","3","7","5","5","5","6","6","7","3","6","2","7","1","6","6","6","5","5","2","6","7","6","3","7","6","1","6","5","5","5","7","7","7","7","7","7","7","3","2","3","7","7","7","6","7","766049476896100353","张","569","Male","[""好他"",""坏他"",""坏我"",""好我""]","[""强他"",""弱他"",""弱我"",""强我""]","","","","","","","","yes","","","","","","","","","SRET","EW_formal","","key","j","16.662600000000193","768","428","自己","勤奋","Positive","ability","","","","","","","","","",""
"831","","j","psychophysics","68","300249","0.0-7.0-3.0-0.54","6","6","6","5","5","5","4","5","2","4","5","2","1","1","2","0","0","0","2","5","4","5","4","4","4","4","4","4","4","4","6","5","5","3","7","5","5","5","6","6","7","3","6","2","7","1","6","6","6","5","5","2","6","7","6","3","7","6","1","6","5","5","5","7","7","7","7","7","7","7","3","2","3","7","7","7","6","7","766049476896100353","张","569","Male","[""好他"",""坏他"",""坏我"",""好我""]","[""强他"",""弱他"",""弱我"",""强我""]","","","","","","","","yes","","","","","","","","","SRET","EW_formal","","key","j","16.658825688073176","768","428","自己","善良","Positive","morality","","","","","","","","","",""
"1705","","f","psychophysics","69","302955","0.0-7.0-3.0-0.55","6","6","6","5","5","5","4","5","2","4","5","2","1","1","2","0","0","0","2","5","4","5","4","4","4","4","4","4","4","4","6","5","5","3","7","5","5","5","6","6","7","3","6","2","7","1","6","6","6","5","5","2","6","7","6","3","7","6","1","6","5","5","5","7","7","7","7","7","7","7","3","2","3","7","7","7","6","7","766049476896100353","张","569","Male","[""好他"",""坏他"",""坏我"",""好我""]","[""强他"",""弱他"",""弱我"",""强我""]","","","","","","","","no","","","","","","","","","SRET","EW_formal","","key","f","16.659062111801223","768","428","自己","犹豫","Negative","ability","","","","","","","","","",""
"723","","j","psychophysics","70","304679","0.0-7.0-3.0-0.56","6","6","6","5","5","5","4","5","2","4","5","2","1","1","2","0","0","0","2","5","4","5","4","4","4","4","4","4","4","4","6","5","5","3","7","5","5","5","6","6","7","3","6","2","7","1","6","6","6","5","5","2","6","7","6","3","7","6","1","6","5","5","5","7","7","7","7","7","7","7","3","2","3","7","7","7","6","7","766049476896100353","张","569","Male","[""好他"",""坏他"",""坏我"",""好我""]","[""强他"",""弱他"",""弱我"",""强我""]","","","","","","","","yes","","","","","","","","","SRET","EW_formal","","key","j","16.66253398058233","768","428","朋友","自律","Positive","ability","","","","","","","","","",""
"837","","j","psychophysics","71","306518","0.0-7.0-3.0-0.57","6","6","6","5","5","5","4","5","2","4","5","2","1","1","2","0","0","0","2","5","4","5","4","4","4","4","4","4","4","4","6","5","5","3","7","5","5","5","6","6","7","3","6","2","7","1","6","6","6","5","5","2","6","7","6","3","7","6","1","6","5","5","5","7","7","7","7","7","7","7","3","2","3","7","7","7","6","7","766049476896100353","张","569","Male","[""好他"",""坏他"",""坏我"",""好我""]","[""强他"",""弱他"",""弱我"",""强我""]","","","","","","","","yes","","","","","","","","","SRET","EW_formal","","key","j","16.66209174311878","768","428","朋友","刚正","Positive","morality","","","","","","","","","",""
"780","","f","psychophysics","72","308299","0.0-7.0-3.0-0.58","6","6","6","5","5","5","4","5","2","4","5","2","1","1","2","0","0","0","2","5","4","5","4","4","4","4","4","4","4","4","6","5","5","3","7","5","5","5","6","6","7","3","6","2","7","1","6","6","6","5","5","2","6","7","6","3","7","6","1","6","5","5","5","7","7","7","7","7","7","7","3","2","3","7","7","7","6","7","766049476896100353","张","569","Male","[""好他"",""坏他"",""坏我"",""好我""]","[""强他"",""弱他"",""弱我"",""强我""]","","","","","","","","no","","","","","","","","","SRET","EW_formal","","key","f","16.659867924528267","768","428","朋友","罪恶","Negative","morality","","","","","","","","","",""
"845","","f","psychophysics","73","310145","0.0-7.0-3.0-0.59","6","6","6","5","5","5","4","5","2","4","5","2","1","1","2","0","0","0","2","5","4","5","4","4","4","4","4","4","4","4","6","5","5","3","7","5","5","5","6","6","7","3","6","2","7","1","6","6","6","5","5","2","6","7","6","3","7","6","1","6","5","5","5","7","7","7","7","7","7","7","3","2","3","7","7","7","6","7","766049476896100353","张","569","Male","[""好他"",""坏他"",""坏我"",""好我""]","[""强他"",""弱他"",""弱我"",""强我""]","","","","","","","","no","","","","","","","","","SRET","EW_formal","","key","f","16.661890909090552","768","428","朋友","愚钝","Negative","ability","","","","","","","","","",""
"1005","","f","psychophysics","74","312151","0.0-7.0-3.0-0.60","6","6","6","5","5","5","4","5","2","4","5","2","1","1","2","0","0","0","2","5","4","5","4","4","4","4","4","4","4","4","6","5","5","3","7","5","5","5","6","6","7","3","6","2","7","1","6","6","6","5","5","2","6","7","6","3","7","6","1","6","5","5","5","7","7","7","7","7","7","7","3","2","3","7","7","7","6","7","766049476896100353","张","569","Male","[""好他"",""坏他"",""坏我"",""好我""]","[""强他"",""弱他"",""弱我"",""强我""]","","","","","","","","no","","","","","","","","","SRET","EW_formal","","key","f","16.661159663865668","768","428","朋友","下流","Negative","morality","","","","","","","","","",""
"865","","f","psychophysics","75","314018","0.0-7.0-3.0-0.61","6","6","6","5","5","5","4","5","2","4","5","2","1","1","2","0","0","0","2","5","4","5","4","4","4","4","4","4","4","4","6","5","5","3","7","5","5","5","6","6","7","3","6","2","7","1","6","6","6","5","5","2","6","7","6","3","7","6","1","6","5","5","5","7","7","7","7","7","7","7","3","2","3","7","7","7","6","7","766049476896100353","张","569","Male","[""好他"",""坏他"",""坏我"",""好我""]","[""强他"",""弱他"",""弱我"",""强我""]","","","","","","","","no","","","","","","","","","SRET","EW_formal","","key","f","16.663792792793156","768","428","自己","短浅","Negative","ability","","","","","","","","","",""
"943","","j","psychophysics","76","315963","0.0-7.0-3.0-0.62","6","6","6","5","5","5","4","5","2","4","5","2","1","1","2","0","0","0","2","5","4","5","4","4","4","4","4","4","4","4","6","5","5","3","7","5","5","5","6","6","7","3","6","2","7","1","6","6","6","5","5","2","6","7","6","3","7","6","1","6","5","5","5","7","7","7","7","7","7","7","3","2","3","7","7","7","6","7","766049476896100353","张","569","Male","[""好他"",""坏他"",""坏我"",""好我""]","[""强他"",""弱他"",""弱我"",""强我""]","","","","","","","","yes","","","","","","","","","SRET","EW_formal","","key","j","16.664353448275882","768","428","自己","廉明","Positive","morality","","","","","","","","","",""
"914","","f","psychophysics","77","317878","0.0-7.0-3.0-0.63","6","6","6","5","5","5","4","5","2","4","5","2","1","1","2","0","0","0","2","5","4","5","4","4","4","4","4","4","4","4","6","5","5","3","7","5","5","5","6","6","7","3","6","2","7","1","6","6","6","5","5","2","6","7","6","3","7","6","1","6","5","5","5","7","7","7","7","7","7","7","3","2","3","7","7","7","6","7","766049476896100353","张","569","Male","[""好他"",""坏他"",""坏我"",""好我""]","[""强他"",""弱他"",""弱我"",""强我""]","","","","","","","","no","","","","","","","","","SRET","EW_formal","","key","f","16.66049122806994","768","428","朋友","驽钝","Negative","ability","","","","","","","","","",""
"912","","f","psychophysics","78","319791","0.0-7.0-3.0-0.64","6","6","6","5","5","5","4","5","2","4","5","2","1","1","2","0","0","0","2","5","4","5","4","4","4","4","4","4","4","4","6","5","5","3","7","5","5","5","6","6","7","3","6","2","7","1","6","6","6","5","5","2","6","7","6","3","7","6","1","6","5","5","5","7","7","7","7","7","7","7","3","2","3","7","7","7","6","7","766049476896100353","张","569","Male","[""好他"",""坏他"",""坏我"",""好我""]","[""强他"",""弱他"",""弱我"",""强我""]","","","","","","","","no","","","","","","","","","SRET","EW_formal","","key","f","16.660675438596833","768","428","朋友","刻薄","Negative","morality","","","","","","","","","",""
"867","","f","psychophysics","79","321659","0.0-7.0-3.0-0.65","6","6","6","5","5","5","4","5","2","4","5","2","1","1","2","0","0","0","2","5","4","5","4","4","4","4","4","4","4","4","6","5","5","3","7","5","5","5","6","6","7","3","6","2","7","1","6","6","6","5","5","2","6","7","6","3","7","6","1","6","5","5","5","7","7","7","7","7","7","7","3","2","3","7","7","7","6","7","766049476896100353","张","569","Male","[""好他"",""坏他"",""坏我"",""好我""]","[""强他"",""弱他"",""弱我"",""强我""]","","","","","","","","no","","","","","","","","","SRET","EW_formal","","key","f","16.661828828828728","768","428","朋友","愚痴","Negative","ability","","","","","","","","","",""
"925","","j","psychophysics","80","323585","0.0-7.0-3.0-0.66","6","6","6","5","5","5","4","5","2","4","5","2","1","1","2","0","0","0","2","5","4","5","4","4","4","4","4","4","4","4","6","5","5","3","7","5","5","5","6","6","7","3","6","2","7","1","6","6","6","5","5","2","6","7","6","3","7","6","1","6","5","5","5","7","7","7","7","7","7","7","3","2","3","7","7","7","6","7","766049476896100353","张","569","Male","[""好他"",""坏他"",""坏我"",""好我""]","[""强他"",""弱他"",""弱我"",""强我""]","","","","","","","","yes","","","","","","","","","SRET","EW_formal","","key","j","16.662614035087724","768","428","自己","正气","Positive","morality","","","","","","","","","",""
"1218","","f","psychophysics","81","325806","0.0-7.0-3.0-0.67","6","6","6","5","5","5","4","5","2","4","5","2","1","1","2","0","0","0","2","5","4","5","4","4","4","4","4","4","4","4","6","5","5","3","7","5","5","5","6","6","7","3","6","2","7","1","6","6","6","5","5","2","6","7","6","3","7","6","1","6","5","5","5","7","7","7","7","7","7","7","3","2","3","7","7","7","6","7","766049476896100353","张","569","Male","[""好他"",""坏他"",""坏我"",""好我""]","[""强他"",""弱他"",""弱我"",""强我""]","","","","","","","","no","","","","","","","","","SRET","EW_formal","","key","f","16.662150375939788","768","428","朋友","奸诈","Negative","morality","","","","","","","","","",""
"932","","j","psychophysics","82","327740","0.0-7.0-3.0-0.68","6","6","6","5","5","5","4","5","2","4","5","2","1","1","2","0","0","0","2","5","4","5","4","4","4","4","4","4","4","4","6","5","5","3","7","5","5","5","6","6","7","3","6","2","7","1","6","6","6","5","5","2","6","7","6","3","7","6","1","6","5","5","5","7","7","7","7","7","7","7","3","2","3","7","7","7","6","7","766049476896100353","张","569","Male","[""好他"",""坏他"",""坏我"",""好我""]","[""强他"",""弱他"",""弱我"",""强我""]","","","","","","","","yes","","","","","","","","","SRET","EW_formal","","key","j","16.6584173913048","768","428","朋友","毅力","Positive","ability","","","","","","","","","",""
"763","","f","psychophysics","83","329504","0.0-7.0-3.0-0.69","6","6","6","5","5","5","4","5","2","4","5","2","1","1","2","0","0","0","2","5","4","5","4","4","4","4","4","4","4","4","6","5","5","3","7","5","5","5","6","6","7","3","6","2","7","1","6","6","6","5","5","2","6","7","6","3","7","6","1","6","5","5","5","7","7","7","7","7","7","7","3","2","3","7","7","7","6","7","766049476896100353","张","569","Male","[""好他"",""坏他"",""坏我"",""好我""]","[""强他"",""弱他"",""弱我"",""强我""]","","","","","","","","no","","","","","","","","","SRET","EW_formal","","key","f","16.66167619047642","768","428","自己","低劣","Negative","morality","","","","","","","","","",""
"1349","","f","psychophysics","84","331854","0.0-7.0-3.0-0.70","6","6","6","5","5","5","4","5","2","4","5","2","1","1","2","0","0","0","2","5","4","5","4","4","4","4","4","4","4","4","6","5","5","3","7","5","5","5","6","6","7","3","6","2","7","1","6","6","6","5","5","2","6","7","6","3","7","6","1","6","5","5","5","7","7","7","7","7","7","7","3","2","3","7","7","7","6","7","766049476896100353","张","569","Male","[""好他"",""坏他"",""坏我"",""好我""]","[""强他"",""弱他"",""弱我"",""强我""]","","","","","","","","no","","","","","","","","","SRET","EW_formal","","key","f","16.659692857142986","768","428","自己","拖延","Negative","ability","","","","","","","","","",""
"1465","","f","psychophysics","85","334320","0.0-7.0-3.0-0.71","6","6","6","5","5","5","4","5","2","4","5","2","1","1","2","0","0","0","2","5","4","5","4","4","4","4","4","4","4","4","6","5","5","3","7","5","5","5","6","6","7","3","6","2","7","1","6","6","6","5","5","2","6","7","6","3","7","6","1","6","5","5","5","7","7","7","7","7","7","7","3","2","3","7","7","7","6","7","766049476896100353","张","569","Male","[""好他"",""坏他"",""坏我"",""好我""]","[""强他"",""弱他"",""弱我"",""强我""]","","","","","","","","no","","","","","","","","","SRET","EW_formal","","key","f","16.66056462585036","768","428","自己","拜金","Negative","morality","","","","","","","","","",""
"5072","","f","psychophysics","86","340393","0.0-7.0-3.0-0.72","6","6","6","5","5","5","4","5","2","4","5","2","1","1","2","0","0","0","2","5","4","5","4","4","4","4","4","4","4","4","6","5","5","3","7","5","5","5","6","6","7","3","6","2","7","1","6","6","6","5","5","2","6","7","6","3","7","6","1","6","5","5","5","7","7","7","7","7","7","7","3","2","3","7","7","7","6","7","766049476896100353","张","569","Male","[""好他"",""坏他"",""坏我"",""好我""]","[""强他"",""弱他"",""弱我"",""强我""]","","","","","","","","no","","","","","","","","","SRET","EW_formal","","key","f","16.660906336088114","768","428","朋友","奉献","Positive","morality","","","","","","","","","",""
"4909","","f","psychophysics","87","346304","0.0-7.0-3.0-0.73","6","6","6","5","5","5","4","5","2","4","5","2","1","1","2","0","0","0","2","5","4","5","4","4","4","4","4","4","4","4","6","5","5","3","7","5","5","5","6","6","7","3","6","2","7","1","6","6","6","5","5","2","6","7","6","3","7","6","1","6","5","5","5","7","7","7","7","7","7","7","3","2","3","7","7","7","6","7","766049476896100353","张","569","Male","[""好他"",""坏他"",""坏我"",""好我""]","[""强他"",""弱他"",""弱我"",""强我""]","","","","","","","","no","","","","","","","","","SRET","EW_formal","","key","f","16.66206497175137","768","428","自己","无为","Negative","ability","","","","","","","","","",""
"3117","","f","psychophysics","88","350424","0.0-7.0-3.0-0.74","6","6","6","5","5","5","4","5","2","4","5","2","1","1","2","0","0","0","2","5","4","5","4","4","4","4","4","4","4","4","6","5","5","3","7","5","5","5","6","6","7","3","6","2","7","1","6","6","6","5","5","2","6","7","6","3","7","6","1","6","5","5","5","7","7","7","7","7","7","7","3","2","3","7","7","7","6","7","766049476896100353","张","569","Male","[""好他"",""坏他"",""坏我"",""好我""]","[""强他"",""弱他"",""弱我"",""强我""]","","","","","","","","no","","","","","","","","","SRET","EW_formal","","key","f","16.66308130081284","768","428","朋友","独断","Negative","ability","","","","","","","","","",""
"2155","","j","psychophysics","89","353579","0.0-7.0-3.0-0.75","6","6","6","5","5","5","4","5","2","4","5","2","1","1","2","0","0","0","2","5","4","5","4","4","4","4","4","4","4","4","6","5","5","3","7","5","5","5","6","6","7","3","6","2","7","1","6","6","6","5","5","2","6","7","6","3","7","6","1","6","5","5","5","7","7","7","7","7","7","7","3","2","3","7","7","7","6","7","766049476896100353","张","569","Male","[""好他"",""坏他"",""坏我"",""好我""]","[""强他"",""弱他"",""弱我"",""强我""]","","","","","","","","yes","","","","","","","","","SRET","EW_formal","","key","j","16.662846560846514","768","428","自己","刻苦","Positive","ability","","","","","","","","","",""
"1511","","j","psychophysics","90","356091","0.0-7.0-3.0-0.76","6","6","6","5","5","5","4","5","2","4","5","2","1","1","2","0","0","0","2","5","4","5","4","4","4","4","4","4","4","4","6","5","5","3","7","5","5","5","6","6","7","3","6","2","7","1","6","6","6","5","5","2","6","7","6","3","7","6","1","6","5","5","5","7","7","7","7","7","7","7","3","2","3","7","7","7","6","7","766049476896100353","张","569","Male","[""好他"",""坏他"",""坏我"",""好我""]","[""强他"",""弱他"",""弱我"",""强我""]","","","","","","","","yes","","","","","","","","","SRET","EW_formal","","key","j","16.66304026845641","768","428","朋友","努力","Positive","ability","","","","","","","","","",""
"725","","f","psychophysics","91","357818","0.0-7.0-3.0-0.77","6","6","6","5","5","5","4","5","2","4","5","2","1","1","2","0","0","0","2","5","4","5","4","4","4","4","4","4","4","4","6","5","5","3","7","5","5","5","6","6","7","3","6","2","7","1","6","6","6","5","5","2","6","7","6","3","7","6","1","6","5","5","5","7","7","7","7","7","7","7","3","2","3","7","7","7","6","7","766049476896100353","张","569","Male","[""好他"",""坏他"",""坏我"",""好我""]","[""强他"",""弱他"",""弱我"",""强我""]","","","","","","","","no","","","","","","","","","SRET","EW_formal","","key","f","16.66417475728187","768","428","朋友","黑心","Negative","morality","","","","","","","","","",""
"1357","","j","psychophysics","92","360177","0.0-7.0-3.0-0.78","6","6","6","5","5","5","4","5","2","4","5","2","1","1","2","0","0","0","2","5","4","5","4","4","4","4","4","4","4","4","6","5","5","3","7","5","5","5","6","6","7","3","6","2","7","1","6","6","6","5","5","2","6","7","6","3","7","6","1","6","5","5","5","7","7","7","7","7","7","7","3","2","3","7","7","7","6","7","766049476896100353","张","569","Male","[""好他"",""坏他"",""坏我"",""好我""]","[""强他"",""弱他"",""弱我"",""强我""]","","","","","","","","yes","","","","","","","","","SRET","EW_formal","","key","j","16.661496453900764","768","428","朋友","敏捷","Positive","ability","","","","","","","","","",""
"1243","","j","psychophysics","93","362420","0.0-7.0-3.0-0.79","6","6","6","5","5","5","4","5","2","4","5","2","1","1","2","0","0","0","2","5","4","5","4","4","4","4","4","4","4","4","6","5","5","3","7","5","5","5","6","6","7","3","6","2","7","1","6","6","6","5","5","2","6","7","6","3","7","6","1","6","5","5","5","7","7","7","7","7","7","7","3","2","3","7","7","7","6","7","766049476896100353","张","569","Male","[""好他"",""坏他"",""坏我"",""好我""]","[""强他"",""弱他"",""弱我"",""强我""]","","","","","","","","yes","","","","","","","","","SRET","EW_formal","","key","j","16.661157894736906","768","428","朋友","果断","Positive","ability","","","","","","","","","",""
"1237","","f","psychophysics","94","364659","0.0-7.0-3.0-0.80","6","6","6","5","5","5","4","5","2","4","5","2","1","1","2","0","0","0","2","5","4","5","4","4","4","4","4","4","4","4","6","5","5","3","7","5","5","5","6","6","7","3","6","2","7","1","6","6","6","5","5","2","6","7","6","3","7","6","1","6","5","5","5","7","7","7","7","7","7","7","3","2","3","7","7","7","6","7","766049476896100353","张","569","Male","[""好他"",""坏他"",""坏我"",""好我""]","[""强他"",""弱他"",""弱我"",""强我""]","","","","","","","","no","","","","","","","","","SRET","EW_formal","","key","f","16.66400000000018","768","428","自己","不仁","Negative","morality","","","","","","","","","",""
"2816","","j","psychophysics","95","368475","0.0-7.0-3.0-0.81","6","6","6","5","5","5","4","5","2","4","5","2","1","1","2","0","0","0","2","5","4","5","4","4","4","4","4","4","4","4","6","5","5","3","7","5","5","5","6","6","7","3","6","2","7","1","6","6","6","5","5","2","6","7","6","3","7","6","1","6","5","5","5","7","7","7","7","7","7","7","3","2","3","7","7","7","6","7","766049476896100353","张","569","Male","[""好他"",""坏他"",""坏我"",""好我""]","[""强他"",""弱他"",""弱我"",""强我""]","","","","","","","","yes","","","","","","","","","SRET","EW_formal","","key","j","16.661495614035072","768","428","自己","忠诚","Positive","morality","","","","","","","","","",""
"781","","j","psychophysics","96","370258","0.0-7.0-3.0-0.82","6","6","6","5","5","5","4","5","2","4","5","2","1","1","2","0","0","0","2","5","4","5","4","4","4","4","4","4","4","4","6","5","5","3","7","5","5","5","6","6","7","3","6","2","7","1","6","6","6","5","5","2","6","7","6","3","7","6","1","6","5","5","5","7","7","7","7","7","7","7","3","2","3","7","7","7","6","7","766049476896100353","张","569","Male","[""好他"",""坏他"",""坏我"",""好我""]","[""强他"",""弱他"",""弱我"",""强我""]","","","","","","","","yes","","","","","","","","","SRET","EW_formal","","key","j","16.663726415094164","768","428","自己","热心","Positive","morality","","","","","","","","","",""
"660","","f","psychophysics","97","371919","0.0-7.0-3.0-0.83","6","6","6","5","5","5","4","5","2","4","5","2","1","1","2","0","0","0","2","5","4","5","4","4","4","4","4","4","4","4","6","5","5","3","7","5","5","5","6","6","7","3","6","2","7","1","6","6","6","5","5","2","6","7","6","3","7","6","1","6","5","5","5","7","7","7","7","7","7","7","3","2","3","7","7","7","6","7","766049476896100353","张","569","Male","[""好他"",""坏他"",""坏我"",""好我""]","[""强他"",""弱他"",""弱我"",""强我""]","","","","","","","","no","","","","","","","","","SRET","EW_formal","","key","f","16.659673469387617","768","428","自己","阴毒","Negative","morality","","","","","","","","","",""
"809","","f","psychophysics","98","373731","0.0-7.0-3.0-0.84","6","6","6","5","5","5","4","5","2","4","5","2","1","1","2","0","0","0","2","5","4","5","4","4","4","4","4","4","4","4","6","5","5","3","7","5","5","5","6","6","7","3","6","2","7","1","6","6","6","5","5","2","6","7","6","3","7","6","1","6","5","5","5","7","7","7","7","7","7","7","3","2","3","7","7","7","6","7","766049476896100353","张","569","Male","[""好他"",""坏他"",""坏我"",""好我""]","[""强他"",""弱他"",""弱我"",""强我""]","","","","","","","","no","","","","","","","","","SRET","EW_formal","","key","f","16.664092592592674","768","428","朋友","低俗","Negative","morality","","","","","","","","","",""
"751","","j","psychophysics","99","375483","0.0-7.0-3.0-0.85","6","6","6","5","5","5","4","5","2","4","5","2","1","1","2","0","0","0","2","5","4","5","4","4","4","4","4","4","4","4","6","5","5","3","7","5","5","5","6","6","7","3","6","2","7","1","6","6","6","5","5","2","6","7","6","3","7","6","1","6","5","5","5","7","7","7","7","7","7","7","3","2","3","7","7","7","6","7","766049476896100353","张","569","Male","[""好他"",""坏他"",""坏我"",""好我""]","[""强他"",""弱他"",""弱我"",""强我""]","","","","","","","","yes","","","","","","","","","SRET","EW_formal","","key","j","16.66540384615375","768","428","朋友","素养","Positive","morality","","","","","","","","","",""
"792","","j","psychophysics","100","377278","0.0-7.0-3.0-0.86","6","6","6","5","5","5","4","5","2","4","5","2","1","1","2","0","0","0","2","5","4","5","4","4","4","4","4","4","4","4","6","5","5","3","7","5","5","5","6","6","7","3","6","2","7","1","6","6","6","5","5","2","6","7","6","3","7","6","1","6","5","5","5","7","7","7","7","7","7","7","3","2","3","7","7","7","6","7","766049476896100353","张","569","Male","[""好他"",""坏他"",""坏我"",""好我""]","[""强他"",""弱他"",""弱我"",""强我""]","","","","","","","","yes","","","","","","","","","SRET","EW_formal","","key","j","16.661831775700858","768","428","自己","主见","Positive","ability","","","","","","","","","",""
"880","","f","psychophysics","101","379158","0.0-7.0-3.0-0.87","6","6","6","5","5","5","4","5","2","4","5","2","1","1","2","0","0","0","2","5","4","5","4","4","4","4","4","4","4","4","6","5","5","3","7","5","5","5","6","6","7","3","6","2","7","1","6","6","6","5","5","2","6","7","6","3","7","6","1","6","5","5","5","7","7","7","7","7","7","7","3","2","3","7","7","7","6","7","766049476896100353","张","569","Male","[""好他"",""坏他"",""坏我"",""好我""]","[""强他"",""弱他"",""弱我"",""强我""]","","","","","","","","no","","","","","","","","","SRET","EW_formal","","key","f","16.664624999999692","768","428","自己","缓慢","Negative","ability","","","","","","","","","",""
"9070","
    <p><div style='color:white;font-size:35px; line-height:20px;'>计算任务</div></p><br>
    <p><div style='color:red;font-size:25px; line-height:20px;'>接下来，您将看到一些四则运算题，<b>请从键盘选择 0-9 进行反应。</b></div></p>
    <p><div class='footer' style='color:white;font-size:25px; line-height:20px;'>如果对本实验还有不清楚之处，请立即向实验员咨询。</p><p style='color:white;font-size:25px; line-height:20px;'>如果您明白了规则：</p><p style='color:white;font-size:22px; line-height:20px;'>请按 继续 进入练习</p>
    </div>
    ","0","html-button-response","102","388230","0.0-7.0-4.0","6","6","6","5","5","5","4","5","2","4","5","2","1","1","2","0","0","0","2","5","4","5","4","4","4","4","4","4","4","4","6","5","5","3","7","5","5","5","6","6","7","3","6","2","7","1","6","6","6","5","5","2","6","7","6","3","7","6","1","6","5","5","5","7","7","7","7","7","7","7","3","2","3","7","7","7","6","7","766049476896100353","张","569","Male","[""好他"",""坏他"",""坏我"",""好我""]","[""强他"",""弱他"",""弱我"",""强我""]","","","","","","","","","","","","","","","","","SRET_math","math_instructions","Fri Nov 03 2023 22:01:14 GMT+0800 (中国标准时间)","","","","","","","","","","","","","","","","","","",""
"3350","","2","psychophysics","103","391583","0.0-7.0-5.0-0.0","6","6","6","5","5","5","4","5","2","4","5","2","1","1","2","0","0","0","2","5","4","5","4","4","4","4","4","4","4","4","6","5","5","3","7","5","5","5","6","6","7","3","6","2","7","1","6","6","6","5","5","2","6","7","6","3","7","6","1","6","5","5","5","7","7","7","7","7","7","7","3","2","3","7","7","7","6","7","766049476896100353","张","569","Male","[""好他"",""坏他"",""坏我"",""好我""]","[""强他"",""弱他"",""弱我"",""强我""]","","","","","","","","2","","","","","","","","","SRET","SRET_math_calculate","","key","2","16.742412935323557","768","428","","","","","29-27= ?","2","1","","","","","","",""
"2941","","8","psychophysics","104","394525","0.0-7.0-5.0-0.1","6","6","6","5","5","5","4","5","2","4","5","2","1","1","2","0","0","0","2","5","4","5","4","4","4","4","4","4","4","4","6","5","5","3","7","5","5","5","6","6","7","3","6","2","7","1","6","6","6","5","5","2","6","7","6","3","7","6","1","6","5","5","5","7","7","7","7","7","7","7","3","2","3","7","7","7","6","7","766049476896100353","张","569","Male","[""好他"",""坏他"",""坏我"",""好我""]","[""强他"",""弱他"",""弱我"",""强我""]","","","","","","","","8","","","","","","","","","SRET","SRET_math_calculate","","key","8","16.66060571428555","768","428","","","","","50-42= ?","8","1","","","","","","",""
"2685","","3","psychophysics","105","397211","0.0-7.0-5.0-0.2","6","6","6","5","5","5","4","5","2","4","5","2","1","1","2","0","0","0","2","5","4","5","4","4","4","4","4","4","4","4","6","5","5","3","7","5","5","5","6","6","7","3","6","2","7","1","6","6","6","5","5","2","6","7","6","3","7","6","1","6","5","5","5","7","7","7","7","7","7","7","3","2","3","7","7","7","6","7","766049476896100353","张","569","Male","[""好他"",""坏他"",""坏我"",""好我""]","[""强他"",""弱他"",""弱我"",""强我""]","","","","","","","","3","","","","","","","","","SRET","SRET_math_calculate","","key","3","16.663256249999904","768","428","","","","","3+0= ?","3","1","","","","","","",""
"2484","","9","psychophysics","106","399698","0.0-7.0-5.0-0.3","6","6","6","5","5","5","4","5","2","4","5","2","1","1","2","0","0","0","2","5","4","5","4","4","4","4","4","4","4","4","6","5","5","3","7","5","5","5","6","6","7","3","6","2","7","1","6","6","6","5","5","2","6","7","6","3","7","6","1","6","5","5","5","7","7","7","7","7","7","7","3","2","3","7","7","7","6","7","766049476896100353","张","569","Male","[""好他"",""坏他"",""坏我"",""好我""]","[""强他"",""弱他"",""弱我"",""强我""]","","","","","","","","9","","","","","","","","","SRET","SRET_math_calculate","","key","9","16.663919463087243","768","428","","","","","5+4= ?","9","1","","","","","","",""
"2364","","8","psychophysics","107","402064","0.0-7.0-5.0-0.4","6","6","6","5","5","5","4","5","2","4","5","2","1","1","2","0","0","0","2","5","4","5","4","4","4","4","4","4","4","4","6","5","5","3","7","5","5","5","6","6","7","3","6","2","7","1","6","6","6","5","5","2","6","7","6","3","7","6","1","6","5","5","5","7","7","7","7","7","7","7","3","2","3","7","7","7","6","7","766049476896100353","张","569","Male","[""好他"",""坏他"",""坏我"",""好我""]","[""强他"",""弱他"",""弱我"",""强我""]","","","","","","","","8","","","","","","","","","SRET","SRET_math_calculate","","key","8","16.662205673759168","768","428","","","","","7+1= ?","8","1","","","","","","",""
"2733","","1","psychophysics","108","404798","0.0-7.0-5.0-0.5","6","6","6","5","5","5","4","5","2","4","5","2","1","1","2","0","0","0","2","5","4","5","4","4","4","4","4","4","4","4","6","5","5","3","7","5","5","5","6","6","7","3","6","2","7","1","6","6","6","5","5","2","6","7","6","3","7","6","1","6","5","5","5","7","7","7","7","7","7","7","3","2","3","7","7","7","6","7","766049476896100353","张","569","Male","[""好他"",""坏他"",""坏我"",""好我""]","[""强他"",""弱他"",""弱我"",""强我""]","","","","","","","","1","","","","","","","","","SRET","SRET_math_calculate","","key","1","16.662012269938625","768","428","","","","","30-29= ?","1","1","","","","","","",""
"4129","","3","psychophysics","109","408928","0.0-7.0-5.0-0.6","6","6","6","5","5","5","4","5","2","4","5","2","1","1","2","0","0","0","2","5","4","5","4","4","4","4","4","4","4","4","6","5","5","3","7","5","5","5","6","6","7","3","6","2","7","1","6","6","6","5","5","2","6","7","6","3","7","6","1","6","5","5","5","7","7","7","7","7","7","7","3","2","3","7","7","7","6","7","766049476896100353","张","569","Male","[""好他"",""坏他"",""坏我"",""好我""]","[""强他"",""弱他"",""弱我"",""强我""]","","","","","","","","3","","","","","","","","","SRET","SRET_math_calculate","","key","3","16.661461538461513","768","428","","","","","21/7=  ?","3","1","","","","","","",""
"4081","","8","psychophysics","110","413010","0.0-7.0-5.0-0.7","6","6","6","5","5","5","4","5","2","4","5","2","1","1","2","0","0","0","2","5","4","5","4","4","4","4","4","4","4","4","6","5","5","3","7","5","5","5","6","6","7","3","6","2","7","1","6","6","6","5","5","2","6","7","6","3","7","6","1","6","5","5","5","7","7","7","7","7","7","7","3","2","3","7","7","7","6","7","766049476896100353","张","569","Male","[""好他"",""坏他"",""坏我"",""好我""]","[""强他"",""弱他"",""弱我"",""强我""]","","","","","","","","8","","","","","","","","","SRET","SRET_math_calculate","","key","8","16.659762295082043","768","428","","","","","56/7= ?","8","1","","","","","","",""
"2464","","4","psychophysics","111","415475","0.0-7.0-5.0-0.8","6","6","6","5","5","5","4","5","2","4","5","2","1","1","2","0","0","0","2","5","4","5","4","4","4","4","4","4","4","4","6","5","5","3","7","5","5","5","6","6","7","3","6","2","7","1","6","6","6","5","5","2","6","7","6","3","7","6","1","6","5","5","5","7","7","7","7","7","7","7","3","2","3","7","7","7","6","7","766049476896100353","张","569","Male","[""好他"",""坏他"",""坏我"",""好我""]","[""强他"",""弱他"",""弱我"",""强我""]","","","","","","","","4","","","","","","","","","SRET","SRET_math_calculate","","key","4","16.660217687075","768","428","","","","","3+1= ?","4","1","","","","","","",""
"3000","","7","psychophysics","112","418477","0.0-7.0-5.0-0.9","6","6","6","5","5","5","4","5","2","4","5","2","1","1","2","0","0","0","2","5","4","5","4","4","4","4","4","4","4","4","6","5","5","3","7","5","5","5","6","6","7","3","6","2","7","1","6","6","6","5","5","2","6","7","6","3","7","6","1","6","5","5","5","7","7","7","7","7","7","7","3","2","3","7","7","7","6","7","766049476896100353","张","569","Male","[""好他"",""坏他"",""坏我"",""好我""]","[""强他"",""弱他"",""弱我"",""强我""]","","","","","","","","7","","","","","","","","","SRET","SRET_math_calculate","","key","7","16.661229050279253","768","428","","","","","21/3= ? ","7","1","","","","","","",""
"3010","","2","psychophysics","113","421488","0.0-7.0-5.0-0.10","6","6","6","5","5","5","4","5","2","4","5","2","1","1","2","0","0","0","2","5","4","5","4","4","4","4","4","4","4","4","6","5","5","3","7","5","5","5","6","6","7","3","6","2","7","1","6","6","6","5","5","2","6","7","6","3","7","6","1","6","5","5","5","7","7","7","7","7","7","7","3","2","3","7","7","7","6","7","766049476896100353","张","569","Male","[""好他"",""坏他"",""坏我"",""好我""]","[""强他"",""弱他"",""弱我"",""强我""]","","","","","","","","2","","","","","","","","","SRET","SRET_math_calculate","","key","2","16.659483333333306","768","428","","","","","90/45= ?","2","1","","","","","","",""
"2680","","6","psychophysics","114","424170","0.0-7.0-5.0-0.11","6","6","6","5","5","5","4","5","2","4","5","2","1","1","2","0","0","0","2","5","4","5","4","4","4","4","4","4","4","4","6","5","5","3","7","5","5","5","6","6","7","3","6","2","7","1","6","6","6","5","5","2","6","7","6","3","7","6","1","6","5","5","5","7","7","7","7","7","7","7","3","2","3","7","7","7","6","7","766049476896100353","张","569","Male","[""好他"",""坏他"",""坏我"",""好我""]","[""强他"",""弱他"",""弱我"",""强我""]","","","","","","","","6","","","","","","","","","SRET","SRET_math_calculate","","key","6","16.658450000000084","768","428","","","","","8-2= ?","6","1","","","","","","",""
"2196","","3","psychophysics","115","426368","0.0-7.0-5.0-0.12","6","6","6","5","5","5","4","5","2","4","5","2","1","1","2","0","0","0","2","5","4","5","4","4","4","4","4","4","4","4","6","5","5","3","7","5","5","5","6","6","7","3","6","2","7","1","6","6","6","5","5","2","6","7","6","3","7","6","1","6","5","5","5","7","7","7","7","7","7","7","3","2","3","7","7","7","6","7","766049476896100353","张","569","Male","[""好他"",""坏他"",""坏我"",""好我""]","[""强他"",""弱他"",""弱我"",""强我""]","","","","","","","","3","","","","","","","","","SRET","SRET_math_calculate","","key","3","16.65890000000005","768","428","","","","","2+1= ?","3","1","","","","","","",""
"2255","","7","psychophysics","116","428626","0.0-7.0-5.0-0.13","6","6","6","5","5","5","4","5","2","4","5","2","1","1","2","0","0","0","2","5","4","5","4","4","4","4","4","4","4","4","6","5","5","3","7","5","5","5","6","6","7","3","6","2","7","1","6","6","6","5","5","2","6","7","6","3","7","6","1","6","5","5","5","7","7","7","7","7","7","7","3","2","3","7","7","7","6","7","766049476896100353","张","569","Male","[""好他"",""坏他"",""坏我"",""好我""]","[""强他"",""弱他"",""弱我"",""强我""]","","","","","","","","7","","","","","","","","","SRET","SRET_math_calculate","","key","7","16.663311111111263","768","428","","","","","2+5= ?","7","1","","","","","","",""
"2397","","0","psychophysics","117","431025","0.0-7.0-5.0-0.14","6","6","6","5","5","5","4","5","2","4","5","2","1","1","2","0","0","0","2","5","4","5","4","4","4","4","4","4","4","4","6","5","5","3","7","5","5","5","6","6","7","3","6","2","7","1","6","6","6","5","5","2","6","7","6","3","7","6","1","6","5","5","5","7","7","7","7","7","7","7","3","2","3","7","7","7","6","7","766049476896100353","张","569","Male","[""好他"",""坏他"",""坏我"",""好我""]","[""强他"",""弱他"",""弱我"",""强我""]","","","","","","","","0","","","","","","","","","SRET","SRET_math_calculate","","key","0","16.66337062937038","768","428","","","","","12-12= ?","0","1","","","","","","",""
"2969","","2","psychophysics","118","433995","0.0-7.0-5.0-0.15","6","6","6","5","5","5","4","5","2","4","5","2","1","1","2","0","0","0","2","5","4","5","4","4","4","4","4","4","4","4","6","5","5","3","7","5","5","5","6","6","7","3","6","2","7","1","6","6","6","5","5","2","6","7","6","3","7","6","1","6","5","5","5","7","7","7","7","7","7","7","3","2","3","7","7","7","6","7","766049476896100353","张","569","Male","[""好他"",""坏他"",""坏我"",""好我""]","[""强他"",""弱他"",""弱我"",""强我""]","","","","","","","","2","","","","","","","","","SRET","SRET_math_calculate","","key","2","16.661881355932152","768","428","","","","","18/9= ?","2","1","","","","","","",""
"2489","","9","psychophysics","119","436485","0.0-7.0-5.0-0.16","6","6","6","5","5","5","4","5","2","4","5","2","1","1","2","0","0","0","2","5","4","5","4","4","4","4","4","4","4","4","6","5","5","3","7","5","5","5","6","6","7","3","6","2","7","1","6","6","6","5","5","2","6","7","6","3","7","6","1","6","5","5","5","7","7","7","7","7","7","7","3","2","3","7","7","7","6","7","766049476896100353","张","569","Male","[""好他"",""坏他"",""坏我"",""好我""]","[""强他"",""弱他"",""弱我"",""强我""]","","","","","","","","9","","","","","","","","","SRET","SRET_math_calculate","","key","9","16.66346979865745","768","428","","","","","7+2= ?","9","1","","","","","","",""
"2568","","3","psychophysics","120","439054","0.0-7.0-5.0-0.17","6","6","6","5","5","5","4","5","2","4","5","2","1","1","2","0","0","0","2","5","4","5","4","4","4","4","4","4","4","4","6","5","5","3","7","5","5","5","6","6","7","3","6","2","7","1","6","6","6","5","5","2","6","7","6","3","7","6","1","6","5","5","5","7","7","7","7","7","7","7","3","2","3","7","7","7","6","7","766049476896100353","张","569","Male","[""好他"",""坏他"",""坏我"",""好我""]","[""强他"",""弱他"",""弱我"",""强我""]","","","","","","","","3","","","","","","","","","SRET","SRET_math_calculate","","key","3","16.660823529411573","768","428","","","","","9-6= ?","3","1","","","","","","",""
"5016","","5","psychophysics","121","444071","0.0-7.0-5.0-0.18","6","6","6","5","5","5","4","5","2","4","5","2","1","1","2","0","0","0","2","5","4","5","4","4","4","4","4","4","4","4","6","5","5","3","7","5","5","5","6","6","7","3","6","2","7","1","6","6","6","5","5","2","6","7","6","3","7","6","1","6","5","5","5","7","7","7","7","7","7","7","3","2","3","7","7","7","6","7","766049476896100353","张","569","Male","[""好他"",""坏他"",""坏我"",""好我""]","[""强他"",""弱他"",""弱我"",""强我""]","","","","","","","","5","","","","","","","","","SRET","SRET_math_calculate","","key","5","16.661240000000106","768","428","","","","","12-7= ?","5","1","","","","","","",""
"2869","","1","psychophysics","122","446941","0.0-7.0-5.0-0.19","6","6","6","5","5","5","4","5","2","4","5","2","1","1","2","0","0","0","2","5","4","5","4","4","4","4","4","4","4","4","6","5","5","3","7","5","5","5","6","6","7","3","6","2","7","1","6","6","6","5","5","2","6","7","6","3","7","6","1","6","5","5","5","7","7","7","7","7","7","7","3","2","3","7","7","7","6","7","766049476896100353","张","569","Male","[""好他"",""坏他"",""坏我"",""好我""]","[""强他"",""弱他"",""弱我"",""强我""]","","","","","","","","1","","","","","","","","","SRET","SRET_math_calculate","","key","1","16.66222222222217","768","428","","","","","12/12= ?","1","1","","","","","","",""
"2358","","4","psychophysics","123","449300","0.0-7.0-5.0-0.20","6","6","6","5","5","5","4","5","2","4","5","2","1","1","2","0","0","0","2","5","4","5","4","4","4","4","4","4","4","4","6","5","5","3","7","5","5","5","6","6","7","3","6","2","7","1","6","6","6","5","5","2","6","7","6","3","7","6","1","6","5","5","5","7","7","7","7","7","7","7","3","2","3","7","7","7","6","7","766049476896100353","张","569","Male","[""好他"",""坏他"",""坏我"",""好我""]","[""强他"",""弱他"",""弱我"",""强我""]","","","","","","","","4","","","","","","","","","SRET","SRET_math_calculate","","key","4","16.66077304964535","768","428","","","","","20/5= ?","4","1","","","","","","",""
"8731","","8","psychophysics","124","458032","0.0-7.0-5.0-0.21","6","6","6","5","5","5","4","5","2","4","5","2","1","1","2","0","0","0","2","5","4","5","4","4","4","4","4","4","4","4","6","5","5","3","7","5","5","5","6","6","7","3","6","2","7","1","6","6","6","5","5","2","6","7","6","3","7","6","1","6","5","5","5","7","7","7","7","7","7","7","3","2","3","7","7","7","6","7","766049476896100353","张","569","Male","[""好他"",""坏他"",""坏我"",""好我""]","[""强他"",""弱他"",""弱我"",""强我""]","","","","","","","","8","","","","","","","","","SRET","SRET_math_calculate","","key","8","16.660938814531498","768","428","","","","","72/9= ?","8","1","","","","","","",""
"2345","","0","psychophysics","125","460378","0.0-7.0-5.0-0.22","6","6","6","5","5","5","4","5","2","4","5","2","1","1","2","0","0","0","2","5","4","5","4","4","4","4","4","4","4","4","6","5","5","3","7","5","5","5","6","6","7","3","6","2","7","1","6","6","6","5","5","2","6","7","6","3","7","6","1","6","5","5","5","7","7","7","7","7","7","7","3","2","3","7","7","7","6","7","766049476896100353","张","569","Male","[""好他"",""坏他"",""坏我"",""好我""]","[""强他"",""弱他"",""弱我"",""强我""]","","","","","","","","0","","","","","","","","","SRET","SRET_math_calculate","","key","0","16.661421428571337","768","428","","","","","22-22= ?","0","1","","","","","","",""
"2384","","8","psychophysics","126","462764","0.0-7.0-5.0-0.23","6","6","6","5","5","5","4","5","2","4","5","2","1","1","2","0","0","0","2","5","4","5","4","4","4","4","4","4","4","4","6","5","5","3","7","5","5","5","6","6","7","3","6","2","7","1","6","6","6","5","5","2","6","7","6","3","7","6","1","6","5","5","5","7","7","7","7","7","7","7","3","2","3","7","7","7","6","7","766049476896100353","张","569","Male","[""好他"",""坏他"",""坏我"",""好我""]","[""强他"",""弱他"",""弱我"",""强我""]","","","","","","","","8","","","","","","","","","SRET","SRET_math_calculate","","key","8","16.661190140844834","768","428","","","","","9-1= ?","8","1","","","","","","",""
"2700","","6","psychophysics","127","465465","0.0-7.0-5.0-0.24","6","6","6","5","5","5","4","5","2","4","5","2","1","1","2","0","0","0","2","5","4","5","4","4","4","4","4","4","4","4","6","5","5","3","7","5","5","5","6","6","7","3","6","2","7","1","6","6","6","5","5","2","6","7","6","3","7","6","1","6","5","5","5","7","7","7","7","7","7","7","3","2","3","7","7","7","6","7","766049476896100353","张","569","Male","[""好他"",""坏他"",""坏我"",""好我""]","[""强他"",""弱他"",""弱我"",""强我""]","","","","","","","","6","","","","","","","","","SRET","SRET_math_calculate","","key","6","16.66122360248444","768","428","","","","","2*3= ?","6","1","","","","","","",""
"2571","","8","psychophysics","128","468037","0.0-7.0-5.0-0.25","6","6","6","5","5","5","4","5","2","4","5","2","1","1","2","0","0","0","2","5","4","5","4","4","4","4","4","4","4","4","6","5","5","3","7","5","5","5","6","6","7","3","6","2","7","1","6","6","6","5","5","2","6","7","6","3","7","6","1","6","5","5","5","7","7","7","7","7","7","7","3","2","3","7","7","7","6","7","766049476896100353","张","569","Male","[""好他"",""坏他"",""坏我"",""好我""]","[""强他"",""弱他"",""弱我"",""强我""]","","","","","","","","8","","","","","","","","","SRET","SRET_math_calculate","","key","8","16.662183006536033","768","428","","","","","1*8= ?","8","1","","","","","","",""
"3183","","9","psychophysics","129","471228","0.0-7.0-5.0-0.26","6","6","6","5","5","5","4","5","2","4","5","2","1","1","2","0","0","0","2","5","4","5","4","4","4","4","4","4","4","4","6","5","5","3","7","5","5","5","6","6","7","3","6","2","7","1","6","6","6","5","5","2","6","7","6","3","7","6","1","6","5","5","5","7","7","7","7","7","7","7","3","2","3","7","7","7","6","7","766049476896100353","张","569","Male","[""好他"",""坏他"",""坏我"",""好我""]","[""强他"",""弱他"",""弱我"",""强我""]","","","","","","","","9","","","","","","","","","SRET","SRET_math_calculate","","key","9","16.66278534031416","768","428","","","","","18/2= ?","9","1","","","","","","",""
"2321","","5","psychophysics","130","473550","0.0-7.0-5.0-0.27","6","6","6","5","5","5","4","5","2","4","5","2","1","1","2","0","0","0","2","5","4","5","4","4","4","4","4","4","4","4","6","5","5","3","7","5","5","5","6","6","7","3","6","2","7","1","6","6","6","5","5","2","6","7","6","3","7","6","1","6","5","5","5","7","7","7","7","7","7","7","3","2","3","7","7","7","6","7","766049476896100353","张","569","Male","[""好他"",""坏他"",""坏我"",""好我""]","[""强他"",""弱他"",""弱我"",""强我""]","","","","","","","","5","","","","","","","","","SRET","SRET_math_calculate","","key","5","16.66176811594177","768","428","","","","","9-4= ?","5","1","","","","","","",""
"2270","","3","psychophysics","131","475822","0.0-7.0-5.0-0.28","6","6","6","5","5","5","4","5","2","4","5","2","1","1","2","0","0","0","2","5","4","5","4","4","4","4","4","4","4","4","6","5","5","3","7","5","5","5","6","6","7","3","6","2","7","1","6","6","6","5","5","2","6","7","6","3","7","6","1","6","5","5","5","7","7","7","7","7","7","7","3","2","3","7","7","7","6","7","766049476896100353","张","569","Male","[""好他"",""坏他"",""坏我"",""好我""]","[""强他"",""弱他"",""弱我"",""强我""]","","","","","","","","3","","","","","","","","","SRET","SRET_math_calculate","","key","3","16.661735294117534","768","428","","","","","9/3= ?","3","1","","","","","","",""
"2071","","5","psychophysics","132","477895","0.0-7.0-5.0-0.29","6","6","6","5","5","5","4","5","2","4","5","2","1","1","2","0","0","0","2","5","4","5","4","4","4","4","4","4","4","4","6","5","5","3","7","5","5","5","6","6","7","3","6","2","7","1","6","6","6","5","5","2","6","7","6","3","7","6","1","6","5","5","5","7","7","7","7","7","7","7","3","2","3","7","7","7","6","7","766049476896100353","张","569","Male","[""好他"",""坏他"",""坏我"",""好我""]","[""强他"",""弱他"",""弱我"",""强我""]","","","","","","","","5","","","","","","","","","SRET","SRET_math_calculate","","key","5","16.662081300813377","768","428","","","","","4+1= ?","5","1","","","","","","",""
"2377","","8","psychophysics","133","480273","0.0-7.0-5.0-0.30","6","6","6","5","5","5","4","5","2","4","5","2","1","1","2","0","0","0","2","5","4","5","4","4","4","4","4","4","4","4","6","5","5","3","7","5","5","5","6","6","7","3","6","2","7","1","6","6","6","5","5","2","6","7","6","3","7","6","1","6","5","5","5","7","7","7","7","7","7","7","3","2","3","7","7","7","6","7","766049476896100353","张","569","Male","[""好他"",""坏他"",""坏我"",""好我""]","[""强他"",""弱他"",""弱我"",""强我""]","","","","","","","","8","","","","","","","","","SRET","SRET_math_calculate","","key","8","16.662640845070637","768","428","","","","","4*2= ?","8","1","","","","","","",""
"2508","","7","psychophysics","134","482782","0.0-7.0-5.0-0.31","6","6","6","5","5","5","4","5","2","4","5","2","1","1","2","0","0","0","2","5","4","5","4","4","4","4","4","4","4","4","6","5","5","3","7","5","5","5","6","6","7","3","6","2","7","1","6","6","6","5","5","2","6","7","6","3","7","6","1","6","5","5","5","7","7","7","7","7","7","7","3","2","3","7","7","7","6","7","766049476896100353","张","569","Male","[""好他"",""坏他"",""坏我"",""好我""]","[""强他"",""弱他"",""弱我"",""强我""]","","","","","","","","7","","","","","","","","","SRET","SRET_math_calculate","","key","7","16.66212751677857","768","428","","","","","7*1=  ?","7","1","","","","","","",""
"2089","","5","psychophysics","135","484875","0.0-7.0-5.0-0.32","6","6","6","5","5","5","4","5","2","4","5","2","1","1","2","0","0","0","2","5","4","5","4","4","4","4","4","4","4","4","6","5","5","3","7","5","5","5","6","6","7","3","6","2","7","1","6","6","6","5","5","2","6","7","6","3","7","6","1","6","5","5","5","7","7","7","7","7","7","7","3","2","3","7","7","7","6","7","766049476896100353","张","569","Male","[""好他"",""坏他"",""坏我"",""好我""]","[""强他"",""弱他"",""弱我"",""强我""]","","","","","","","","5","","","","","","","","","SRET","SRET_math_calculate","","key","5","16.660904000000098","768","428","","","","","8-3= ? ","5","1","","","","","","",""
"2203","","5","psychophysics","136","487079","0.0-7.0-5.0-0.33","6","6","6","5","5","5","4","5","2","4","5","2","1","1","2","0","0","0","2","5","4","5","4","4","4","4","4","4","4","4","6","5","5","3","7","5","5","5","6","6","7","3","6","2","7","1","6","6","6","5","5","2","6","7","6","3","7","6","1","6","5","5","5","7","7","7","7","7","7","7","3","2","3","7","7","7","6","7","766049476896100353","张","569","Male","[""好他"",""坏他"",""坏我"",""好我""]","[""强他"",""弱他"",""弱我"",""强我""]","","","","","","","","5","","","","","","","","","SRET","SRET_math_calculate","","key","5","16.66176335877856","768","428","","","","","15-10= ?","5","1","","","","","","",""
"2422","","7","psychophysics","137","489502","0.0-7.0-5.0-0.34","6","6","6","5","5","5","4","5","2","4","5","2","1","1","2","0","0","0","2","5","4","5","4","4","4","4","4","4","4","4","6","5","5","3","7","5","5","5","6","6","7","3","6","2","7","1","6","6","6","5","5","2","6","7","6","3","7","6","1","6","5","5","5","7","7","7","7","7","7","7","3","2","3","7","7","7","6","7","766049476896100353","张","569","Male","[""好他"",""坏他"",""坏我"",""好我""]","[""强他"",""弱他"",""弱我"",""强我""]","","","","","","","","7","","","","","","","","","SRET","SRET_math_calculate","","key","7","16.660931034482903","768","428","","","","","9-2= ?","7","1","","","","","","",""
"3105","","5","psychophysics","138","492608","0.0-7.0-5.0-0.35","6","6","6","5","5","5","4","5","2","4","5","2","1","1","2","0","0","0","2","5","4","5","4","4","4","4","4","4","4","4","6","5","5","3","7","5","5","5","6","6","7","3","6","2","7","1","6","6","6","5","5","2","6","7","6","3","7","6","1","6","5","5","5","7","7","7","7","7","7","7","3","2","3","7","7","7","6","7","766049476896100353","张","569","Male","[""好他"",""坏他"",""坏我"",""好我""]","[""强他"",""弱他"",""弱我"",""强我""]","","","","","","","","5","","","","","","","","","SRET","SRET_math_calculate","","key","5","16.66100540540521","768","428","","","","","14-9= ?","5","1","","","","","","",""
"2950","","5","psychophysics","139","495559","0.0-7.0-5.0-0.36","6","6","6","5","5","5","4","5","2","4","5","2","1","1","2","0","0","0","2","5","4","5","4","4","4","4","4","4","4","4","6","5","5","3","7","5","5","5","6","6","7","3","6","2","7","1","6","6","6","5","5","2","6","7","6","3","7","6","1","6","5","5","5","7","7","7","7","7","7","7","3","2","3","7","7","7","6","7","766049476896100353","张","569","Male","[""好他"",""坏他"",""坏我"",""好我""]","[""强他"",""弱他"",""弱我"",""强我""]","","","","","","","","5","","","","","","","","","SRET","SRET_math_calculate","","key","5","16.66136931818189","768","428","","","","","16-11= ?","5","1","","","","","","",""
"2535","","8","psychophysics","140","498096","0.0-7.0-5.0-0.37","6","6","6","5","5","5","4","5","2","4","5","2","1","1","2","0","0","0","2","5","4","5","4","4","4","4","4","4","4","4","6","5","5","3","7","5","5","5","6","6","7","3","6","2","7","1","6","6","6","5","5","2","6","7","6","3","7","6","1","6","5","5","5","7","7","7","7","7","7","7","3","2","3","7","7","7","6","7","766049476896100353","张","569","Male","[""好他"",""坏他"",""坏我"",""好我""]","[""强他"",""弱他"",""弱我"",""强我""]","","","","","","","","8","","","","","","","","","SRET","SRET_math_calculate","","key","8","16.664631578947592","768","428","","","","","8*1= ?","8","1","","","","","","",""
"2144","","9","psychophysics","141","500242","0.0-7.0-5.0-0.38","6","6","6","5","5","5","4","5","2","4","5","2","1","1","2","0","0","0","2","5","4","5","4","4","4","4","4","4","4","4","6","5","5","3","7","5","5","5","6","6","7","3","6","2","7","1","6","6","6","5","5","2","6","7","6","3","7","6","1","6","5","5","5","7","7","7","7","7","7","7","3","2","3","7","7","7","6","7","766049476896100353","张","569","Male","[""好他"",""坏他"",""坏我"",""好我""]","[""强他"",""弱他"",""弱我"",""强我""]","","","","","","","","9","","","","","","","","","SRET","SRET_math_calculate","","key","9","16.658795275590677","768","428","","","","","6+3= ?","9","1","","","","","","",""
"5051","","8","psychophysics","142","505296","0.0-7.0-5.0-0.39","6","6","6","5","5","5","4","5","2","4","5","2","1","1","2","0","0","0","2","5","4","5","4","4","4","4","4","4","4","4","6","5","5","3","7","5","5","5","6","6","7","3","6","2","7","1","6","6","6","5","5","2","6","7","6","3","7","6","1","6","5","5","5","7","7","7","7","7","7","7","3","2","3","7","7","7","6","7","766049476896100353","张","569","Male","[""好他"",""坏他"",""坏我"",""好我""]","[""强他"",""弱他"",""弱我"",""强我""]","","","","","","","","8","","","","","","","","","SRET","SRET_math_calculate","","key","8","16.66244224422433","768","428","","","","","11-3= ?","8","1","","","","","","",""
"2672","","3","psychophysics","143","507968","0.0-7.0-5.0-0.40","6","6","6","5","5","5","4","5","2","4","5","2","1","1","2","0","0","0","2","5","4","5","4","4","4","4","4","4","4","4","6","5","5","3","7","5","5","5","6","6","7","3","6","2","7","1","6","6","6","5","5","2","6","7","6","3","7","6","1","6","5","5","5","7","7","7","7","7","7","7","3","2","3","7","7","7","6","7","766049476896100353","张","569","Male","[""好他"",""坏他"",""坏我"",""好我""]","[""强他"",""弱他"",""弱我"",""强我""]","","","","","","","","3","","","","","","","","","SRET","SRET_math_calculate","","key","3","16.663257861635486","768","428","","","","","6/2= ?","3","1","","","","","","",""
"2739","","8","psychophysics","144","510709","0.0-7.0-5.0-0.41","6","6","6","5","5","5","4","5","2","4","5","2","1","1","2","0","0","0","2","5","4","5","4","4","4","4","4","4","4","4","6","5","5","3","7","5","5","5","6","6","7","3","6","2","7","1","6","6","6","5","5","2","6","7","6","3","7","6","1","6","5","5","5","7","7","7","7","7","7","7","3","2","3","7","7","7","6","7","766049476896100353","张","569","Male","[""好他"",""坏他"",""坏我"",""好我""]","[""强他"",""弱他"",""弱我"",""强我""]","","","","","","","","8","","","","","","","","","SRET","SRET_math_calculate","","key","8","16.663451219512087","768","428","","","","","13-5= ?","8","1","","","","","","",""
