"rt","stimulus","response","trial_type","trial_index","time_elapsed","internal_node_id","swb_1","swb_2","swb_3","swb_4","swb_5","LOT_1","LOT_2","LOT_3","LOT_4","LOT_5","LOT_6","IPC_1","IPC_2","IPC_3","IPC_4","IPC_5","IPC_6","IPC_7","IPC_8","MorIden_1","MorIden_2","MorIden_3","MorIden_4","MorIden_5","MorIden_6","MorIden_7","MorIden_8","MorIden_9","MorIden_10","moralSeImag_1","moralSeImag_2","moralSeImag_3","moralSeImag_4","moralSeImag_5","moralSeImag_6","moralSeImag_7","moralSeImag_8","moralSeImag_9","sde_1","sde_2","sde_3","sde_4","sde_5","sde_6","sde_7","sde_8","sde_9","sde_10","sde_11","sde_12","sde_13","sde_14","sde_15","sde_16","sde_17","sde_18","sde_19","sde_20","IM_1","IM_2","IM_3","IM_4","IM_5","IM_6","IM_7","IM_8","IM_9","IM_10","IM_11","IM_12","IM_13","IM_14","IM_15","IM_16","IM_17","IM_18","IM_19","IM_20","subj_idx","friend_name","ParticipantID","Sex","Word","Word2","value","success","timeout","failed_images","failed_audio","failed_video","user_agent","responses","item_order","radio_event_ids","radio_event_times","key_event_times","mouse_event_times","straightlining","zigzagging","honeypot","task_id","screen_id","time_stamp","response_type","key_press","avg_frame_time","center_x","center_y","person","word","valence","domain","math","correct_response","correct","status","view_history","identity","duration","Image","condition","question_order"
"1836","
   <p><div style='color:white; font-size: 25px'>您好，欢迎参加本次实验。</div></p>
   <p><div style='color:white; font-size: 25px'>为充分保障您的权利，请确保您已经知晓并同意《参与实验同意书》以及《数据公开知情同意书》。</div></p>
   <p><div style='color:white; font-size: 25px'>如果您未见过上述内容，请咨询实验员。</div></p>
   <p style='color:white; font-size: 25px'>如果您选择继续实验，则表示您已经清楚两份知情同意书的内容并同意。</p>
   <p><div style = ""color: red;font-size:30px;"">请确保您记得day0的实验编号，您将在本次实验输入该编号，若您忘记，请咨询实验员后作答。</div></p>
   <p> <div style = ""color: green""><按空格键至下页></div> </p>
   "," ","html-keyboard-response","0","1840","0.0-0.0","6","5","5","3","3","5","2","5","4","4","5","1","0","1","2","0","1","1","2","4","5","4","5","4","5","4","5","4","4","7","6","6","7","6","7","8","7","7","6","3","3","6","5","2","7","2","5","2","5","1","6","3","6","6","5","2","5","2","3","6","3","5","2","7","5","5","6","7","7","6","5","3","3","6","3","5","2","5","720215098982924288","刘","693","Male","[""坏他"",""坏我"",""好他"",""好我""]","[""弱他"",""弱我"",""强他"",""强我""]","","","","","","","","","","","","","","","","","","","","","","","","","","","","","","","","","","","","","",""
"","","","call-function","1","1842","0.0-1.0-0.0","6","5","5","3","3","5","2","5","4","4","5","1","0","1","2","0","1","1","2","4","5","4","5","4","5","4","5","4","4","7","6","6","7","6","7","8","7","7","6","3","3","6","5","2","7","2","5","2","5","1","6","3","6","6","5","2","5","2","3","6","3","5","2","7","5","5","6","7","7","6","5","3","3","6","3","5","2","5","720215098982924288","刘","693","Male","[""坏他"",""坏我"",""好他"",""好我""]","[""弱他"",""弱我"",""强他"",""强我""]","","","","","","","","","","","","","","","","","","","","","","","","","","","","","","","","","","","","","",""
"16784","","[{""name"":""Sex"",""value"":""0""},{""name"":""friend_name"",""value"":""刘""},{""name"":""ParticipantID"",""value"":""693""}]","survey-html-form","2","18627","0.0-1.0-1.0","6","5","5","3","3","5","2","5","4","4","5","1","0","1","2","0","1","1","2","4","5","4","5","4","5","4","5","4","4","7","6","6","7","6","7","8","7","7","6","3","3","6","5","2","7","2","5","2","5","1","6","3","6","6","5","2","5","2","3","6","3","5","2","7","5","5","6","7","7","6","5","3","3","6","3","5","2","5","720215098982924288","刘","693","Male","[""坏他"",""坏我"",""好他"",""好我""]","[""弱他"",""弱我"",""强他"",""强我""]","","","","","","","","","","","","","","","","","","","","","","","","","","","","","","","","","","","","","",""
"","","","preload","3","22554","0.0-2.0","6","5","5","3","3","5","2","5","4","4","5","1","0","1","2","0","1","1","2","4","5","4","5","4","5","4","5","4","4","7","6","6","7","6","7","8","7","7","6","3","3","6","5","2","7","2","5","2","5","1","6","3","6","6","5","2","5","2","3","6","3","5","2","7","5","5","6","7","7","6","5","3","3","6","3","5","2","5","720215098982924288","刘","693","Male","[""坏他"",""坏我"",""好他"",""好我""]","[""弱他"",""弱我"",""强他"",""强我""]","","true","false","[]","[]","[]","","","","","","","","","","","","","","","","","","","","","","","","","","","","","","","",""
"","","","fullscreen","4","36801","0.0-3.0","6","5","5","3","3","5","2","5","4","4","5","1","0","1","2","0","1","1","2","4","5","4","5","4","5","4","5","4","4","7","6","6","7","6","7","8","7","7","6","3","3","6","5","2","7","2","5","2","5","1","6","3","6","6","5","2","5","2","3","6","3","5","2","7","5","5","6","7","7","6","5","3","3","6","3","5","2","5","720215098982924288","刘","693","Male","[""坏他"",""坏我"",""好他"",""好我""]","[""弱他"",""弱我"",""强他"",""强我""]","","true","","","","","{}","","","","","","","","","","","","","","","","","","","","","","","","","","","","","","",""
"17666","","{""Q01"":""6"",""Q02"":""5"",""Q03"":""5"",""Q04"":""3"",""Q05"":""3""}","survey-template","5","54469","0.0-4.0","6","5","5","3","3","5","2","5","4","4","5","1","0","1","2","0","1","1","2","4","5","4","5","4","5","4","5","4","4","7","6","6","7","6","7","8","7","7","6","3","3","6","5","2","7","2","5","2","5","1","6","3","6","6","5","2","5","2","3","6","3","5","2","7","5","5","6","7","7","6","5","3","3","6","3","5","2","5","720215098982924288","刘","693","Male","[""坏他"",""坏我"",""好他"",""好我""]","[""弱他"",""弱我"",""强他"",""强我""]","","","","","","","","{""Q01"":""6"",""Q02"":""5"",""Q03"":""5"",""Q04"":""3"",""Q05"":""3""}","[0,1,2,3,4]","[""Q01"",""Q02"",""Q03"",""Q04"",""Q04"",""Q04"",""Q05"",""Q04"",""Q04"",""Q03"",""Q03""]","[2625.800000000745,3992.9000000003725,5208.4000000003725,9016.300000000745,9040.300000000745,10384.400000000373,11552.5,13568.200000001118,13592.200000001118,15520.099999999627,15544.200000001118]","[]","[2625.800000000745,3992.9000000003725,4656.4000000003725,5208.4000000003725,9016.300000000745,9040.300000000745,10384.400000000373,11168.200000001118,11552.5,13568.200000001118,13592.200000001118,15520.099999999627,15544.200000001118,17664.5]","0.4","0.25","0","","","","","","","","","","","","","","","","","","","","","",""
"15169.900000000373","","{""Q01"":""5"",""Q02"":""2"",""Q03"":""5"",""Q04"":""4"",""Q05"":""4"",""Q06"":""5""}","survey-template","6","69645","0.0-5.0","6","5","5","3","3","5","2","5","4","4","5","1","0","1","2","0","1","1","2","4","5","4","5","4","5","4","5","4","4","7","6","6","7","6","7","8","7","7","6","3","3","6","5","2","7","2","5","2","5","1","6","3","6","6","5","2","5","2","3","6","3","5","2","7","5","5","6","7","7","6","5","3","3","6","3","5","2","5","720215098982924288","刘","693","Male","[""坏他"",""坏我"",""好他"",""好我""]","[""弱他"",""弱我"",""强他"",""强我""]","","","","","","","","{""Q01"":""5"",""Q02"":""2"",""Q03"":""5"",""Q04"":""4"",""Q05"":""4"",""Q06"":""5""}","[0,1,2,3,4,5]","[""Q01"",""Q02"",""Q02"",""Q03"",""Q04"",""Q04"",""Q05"",""Q06"",""Q06"",""Q06""]","[2408.5999999996275,4498.200000001118,5040.200000001118,6192.700000001118,8920.599999999627,8960.300000000745,10360.400000000373,13400.599999999627,14488.200000001118,14760.5]","[]","[2408.5999999996275,3960.5,3984.5999999996275,4498.200000001118,5040.200000001118,5632.200000001118,5696.300000000745,6192.700000001118,8920.599999999627,8960.300000000745,10360.400000000373,12392.700000001118,12912.400000000373,12984.400000000373,13400.599999999627,14088.700000001118,14488.200000001118,14760.5,15168.700000001118]","0.5","0.4","0","","","","","","","","","","","","","","","","","","","","","",""
"18475.599999999627","","{""Q01"":""1"",""Q02"":""0"",""Q03"":""1"",""Q04"":""2"",""Q05"":""0"",""Q06"":""1"",""Q07"":""1"",""Q08"":""2""}","survey-template","7","88125","0.0-6.0","6","5","5","3","3","5","2","5","4","4","5","1","0","1","2","0","1","1","2","4","5","4","5","4","5","4","5","4","4","7","6","6","7","6","7","8","7","7","6","3","3","6","5","2","7","2","5","2","5","1","6","3","6","6","5","2","5","2","3","6","3","5","2","7","5","5","6","7","7","6","5","3","3","6","3","5","2","5","720215098982924288","刘","693","Male","[""坏他"",""坏我"",""好他"",""好我""]","[""弱他"",""弱我"",""强他"",""强我""]","","","","","","","","{""Q01"":""1"",""Q02"":""0"",""Q03"":""1"",""Q04"":""2"",""Q05"":""0"",""Q06"":""1"",""Q07"":""1"",""Q08"":""2""}","[0,1,2,3,4,5,6,7]","[""Q01"",""Q02"",""Q03"",""Q04"",""Q05"",""Q06"",""Q07"",""Q08""]","[1722.199999999255,3594.0999999996275,5658.4000000003725,8185.9000000003725,10546.199999999255,12474.199999999255,13930.300000000745,17962]","[]","[1722.199999999255,3594.0999999996275,4978.300000000745,5658.4000000003725,8185.9000000003725,10242.300000000745,10546.199999999255,11946.400000000373,12474.199999999255,13930.300000000745,15906,17962,18474]","0.5","0.7142857142857143","0","","","","","","","","","","","","","","","","","","","","","",""
"6306","
    <p><div style='color:white;font-size:35px; line-height:20px;'>词汇评估任务</div></p><br>
    <p><div style='color:white;font-size:25px; line-height:20px;'>请再次回忆该亲密的朋友，你们至少2年前就认识了，并且最近2年经常见面。</div></p>
    <p><div style='color:white;font-size:25px; line-height:20px;'>在本实验中，您将会看到一些形容词。</div></p>
    <p><div style='color:yellow;font-size:25px; line-height:20px;'>您的任务是判断这些形容词是否符合对您自己或您的朋友的描述。</div></p><p style='font-size:35px'>符合按<span style=""color:lightgreen""> j 键</span>，不符合按<span style=""color:red""> f 键</span></p>","0","html-button-response","8","94435","0.0-7.0-0.0","6","5","5","3","3","5","2","5","4","4","5","1","0","1","2","0","1","1","2","4","5","4","5","4","5","4","5","4","4","7","6","6","7","6","7","8","7","7","6","3","3","6","5","2","7","2","5","2","5","1","6","3","6","6","5","2","5","2","3","6","3","5","2","7","5","5","6","7","7","6","5","3","3","6","3","5","2","5","720215098982924288","刘","693","Male","[""坏他"",""坏我"",""好他"",""好我""]","[""弱他"",""弱我"",""强他"",""强我""]","","","","","","","","","","","","","","","","","SRET_EW","EW_instructions","Thu Nov 02 2023 20:38:07 GMT+0800 (中国标准时间)","","","","","","","","","","","","","","","","","","",""
"2577","","j","psychophysics","9","98025","0.0-7.0-1.0-0.0","6","5","5","3","3","5","2","5","4","4","5","1","0","1","2","0","1","1","2","4","5","4","5","4","5","4","5","4","4","7","6","6","7","6","7","8","7","7","6","3","3","6","5","2","7","2","5","2","5","1","6","3","6","6","5","2","5","2","3","6","3","5","2","7","5","5","6","7","7","6","5","3","3","6","3","5","2","5","720215098982924288","刘","693","Male","[""坏他"",""坏我"",""好他"",""好我""]","[""弱他"",""弱我"",""强他"",""强我""]","","","","","","","","yes","","","","","","","","","SRET_EW","EW_practice","","key","j","16.752280373831834","758.3333534223067","422.22223340729164","朋友","徇私","Negative","morality","","","","","","","","","",""
"2031","","j","psychophysics","10","101058","0.0-7.0-1.0-0.1","6","5","5","3","3","5","2","5","4","4","5","1","0","1","2","0","1","1","2","4","5","4","5","4","5","4","5","4","4","7","6","6","7","6","7","8","7","7","6","3","3","6","5","2","7","2","5","2","5","1","6","3","6","6","5","2","5","2","3","6","3","5","2","7","5","5","6","7","7","6","5","3","3","6","3","5","2","5","720215098982924288","刘","693","Male","[""坏他"",""坏我"",""好他"",""好我""]","[""弱他"",""弱我"",""强他"",""强我""]","","","","","","","","yes","","","","","","","","","SRET_EW","EW_practice","","key","j","16.674397790055284","758.3333534223067","422.22223340729164","自己","刻板","Negative","ability","","","","","","","","","",""
"1270","","j","psychophysics","11","103331","0.0-7.0-1.0-0.2","6","5","5","3","3","5","2","5","4","4","5","1","0","1","2","0","1","1","2","4","5","4","5","4","5","4","5","4","4","7","6","6","7","6","7","8","7","7","6","3","3","6","5","2","7","2","5","2","5","1","6","3","6","6","5","2","5","2","3","6","3","5","2","7","5","5","6","7","7","6","5","3","3","6","3","5","2","5","720215098982924288","刘","693","Male","[""坏他"",""坏我"",""好他"",""好我""]","[""弱他"",""弱我"",""强他"",""强我""]","","","","","","","","yes","","","","","","","","","SRET_EW","EW_practice","","key","j","16.674711111111186","758.3333534223067","422.22223340729164","朋友","忠实","Positive","morality","","","","","","","","","",""
"1337","","j","psychophysics","12","105670","0.0-7.0-1.0-0.3","6","5","5","3","3","5","2","5","4","4","5","1","0","1","2","0","1","1","2","4","5","4","5","4","5","4","5","4","4","7","6","6","7","6","7","8","7","7","6","3","3","6","5","2","7","2","5","2","5","1","6","3","6","6","5","2","5","2","3","6","3","5","2","7","5","5","6","7","7","6","5","3","3","6","3","5","2","5","720215098982924288","刘","693","Male","[""坏他"",""坏我"",""好他"",""好我""]","[""弱他"",""弱我"",""强他"",""强我""]","","","","","","","","yes","","","","","","","","","SRET_EW","EW_practice","","key","j","16.67410071942444","758.3333534223067","422.22223340729164","自己","严谨","Positive","ability","","","","","","","","","",""
"4027","
    <p><div style='color:white;font-size:35px; line-height:20px;'>请您再次阅读实验要求</div></p><br>
    <p><div style='color:white;font-size:25px; line-height:20px;'>请回忆某一个亲密的朋友，你们至少2年前就认识了，并且最近2年经常见面。</div></p>
    <p><div style='color:white;font-size:25px; line-height:20px;'>在本实验中，您将会看到一些形容词。</div></p>
    <p><div style='color:yellow;font-size:25px; line-height:20px;'>您的任务是判断这些形容词是否符合对您自己或您的朋友的描述。</div></p>
    <p><div class='footer' style='font-size:25px; line-height:20px;'>如果对本实验还有不清楚之处，请立即向实验员咨询。</p><p style='font-size:25px; line-height:20px;'>如果您明白了规则：</p><p style='font-size:22px; line-height:20px;'>请按 继续 进入正式实验</p>
    </div>
    <p style='font-size:35px'>符合按<span style=""color:lightgreen""> j 键</span>，不符合按<span style=""color:red""> f 键</span></p>","0","html-button-response","13","109699","0.0-7.0-2.0","6","5","5","3","3","5","2","5","4","4","5","1","0","1","2","0","1","1","2","4","5","4","5","4","5","4","5","4","4","7","6","6","7","6","7","8","7","7","6","3","3","6","5","2","7","2","5","2","5","1","6","3","6","6","5","2","5","2","3","6","3","5","2","7","5","5","6","7","7","6","5","3","3","6","3","5","2","5","720215098982924288","刘","693","Male","[""坏他"",""坏我"",""好他"",""好我""]","[""弱他"",""弱我"",""强他"",""强我""]","","","","","","","","","","","","","","","","","SRET_EW","prac_instructions","Thu Nov 02 2023 20:38:07 GMT+0800 (中国标准时间)","","","","","","","","","","","","","","","","","","",""
"1045","","j","psychophysics","14","111746","0.0-7.0-3.0-0.0","6","5","5","3","3","5","2","5","4","4","5","1","0","1","2","0","1","1","2","4","5","4","5","4","5","4","5","4","4","7","6","6","7","6","7","8","7","7","6","3","3","6","5","2","7","2","5","2","5","1","6","3","6","6","5","2","5","2","3","6","3","5","2","7","5","5","6","7","7","6","5","3","3","6","3","5","2","5","720215098982924288","刘","693","Male","[""坏他"",""坏我"",""好他"",""好我""]","[""弱他"",""弱我"",""强他"",""强我""]","","","","","","","","yes","","","","","","","","","SRET","EW_formal","","key","j","16.674317073170783","758.3333534223067","422.22223340729164","自己","坚贞","Positive","morality","","","","","","","","","",""
"913","","j","psychophysics","15","113662","0.0-7.0-3.0-0.1","6","5","5","3","3","5","2","5","4","4","5","1","0","1","2","0","1","1","2","4","5","4","5","4","5","4","5","4","4","7","6","6","7","6","7","8","7","7","6","3","3","6","5","2","7","2","5","2","5","1","6","3","6","6","5","2","5","2","3","6","3","5","2","7","5","5","6","7","7","6","5","3","3","6","3","5","2","5","720215098982924288","刘","693","Male","[""坏他"",""坏我"",""好他"",""好我""]","[""弱他"",""弱我"",""强他"",""强我""]","","","","","","","","yes","","","","","","","","","SRET","EW_formal","","key","j","16.674307017543853","758.3333534223067","422.22223340729164","朋友","务实","Positive","ability","","","","","","","","","",""
"1084","","f","psychophysics","16","115748","0.0-7.0-3.0-0.2","6","5","5","3","3","5","2","5","4","4","5","1","0","1","2","0","1","1","2","4","5","4","5","4","5","4","5","4","4","7","6","6","7","6","7","8","7","7","6","3","3","6","5","2","7","2","5","2","5","1","6","3","6","6","5","2","5","2","3","6","3","5","2","7","5","5","6","7","7","6","5","3","3","6","3","5","2","5","720215098982924288","刘","693","Male","[""坏他"",""坏我"",""好他"",""好我""]","[""弱他"",""弱我"",""强他"",""强我""]","","","","","","","","no","","","","","","","","","SRET","EW_formal","","key","f","16.67422580645155","758.3333534223067","422.22223340729164","自己","说谎","Negative","morality","","","","","","","","","",""
"750","","f","psychophysics","17","117501","0.0-7.0-3.0-0.3","6","5","5","3","3","5","2","5","4","4","5","1","0","1","2","0","1","1","2","4","5","4","5","4","5","4","5","4","4","7","6","6","7","6","7","8","7","7","6","3","3","6","5","2","7","2","5","2","5","1","6","3","6","6","5","2","5","2","3","6","3","5","2","7","5","5","6","7","7","6","5","3","3","6","3","5","2","5","720215098982924288","刘","693","Male","[""坏他"",""坏我"",""好他"",""好我""]","[""弱他"",""弱我"",""强他"",""强我""]","","","","","","","","no","","","","","","","","","SRET","EW_formal","","key","f","16.674278846153847","758.3333534223067","422.22223340729164","朋友","迷糊","Negative","ability","","","","","","","","","",""
"764","","j","psychophysics","18","119267","0.0-7.0-3.0-0.4","6","5","5","3","3","5","2","5","4","4","5","1","0","1","2","0","1","1","2","4","5","4","5","4","5","4","5","4","4","7","6","6","7","6","7","8","7","7","6","3","3","6","5","2","7","2","5","2","5","1","6","3","6","6","5","2","5","2","3","6","3","5","2","7","5","5","6","7","7","6","5","3","3","6","3","5","2","5","720215098982924288","刘","693","Male","[""坏他"",""坏我"",""好他"",""好我""]","[""弱他"",""弱我"",""强他"",""强我""]","","","","","","","","yes","","","","","","","","","SRET","EW_formal","","key","j","16.67438095238093","758.3333534223067","422.22223340729164","朋友","义气","Positive","morality","","","","","","","","","",""
"767","","j","psychophysics","19","121035","0.0-7.0-3.0-0.5","6","5","5","3","3","5","2","5","4","4","5","1","0","1","2","0","1","1","2","4","5","4","5","4","5","4","5","4","4","7","6","6","7","6","7","8","7","7","6","3","3","6","5","2","7","2","5","2","5","1","6","3","6","6","5","2","5","2","3","6","3","5","2","7","5","5","6","7","7","6","5","3","3","6","3","5","2","5","720215098982924288","刘","693","Male","[""坏他"",""坏我"",""好他"",""好我""]","[""弱他"",""弱我"",""强他"",""强我""]","","","","","","","","yes","","","","","","","","","SRET","EW_formal","","key","j","16.6745047619048","758.3333534223067","422.22223340729164","朋友","勤奋","Positive","ability","","","","","","","","","",""
"1040","","f","psychophysics","20","123077","0.0-7.0-3.0-0.6","6","5","5","3","3","5","2","5","4","4","5","1","0","1","2","0","1","1","2","4","5","4","5","4","5","4","5","4","4","7","6","6","7","6","7","8","7","7","6","3","3","6","5","2","7","2","5","2","5","1","6","3","6","6","5","2","5","2","3","6","3","5","2","7","5","5","6","7","7","6","5","3","3","6","3","5","2","5","720215098982924288","刘","693","Male","[""坏他"",""坏我"",""好他"",""好我""]","[""弱他"",""弱我"",""强他"",""强我""]","","","","","","","","no","","","","","","","","","SRET","EW_formal","","key","f","16.67435537190078","758.3333534223067","422.22223340729164","自己","狡狯","Negative","morality","","","","","","","","","",""
"740","","j","psychophysics","21","124820","0.0-7.0-3.0-0.7","6","5","5","3","3","5","2","5","4","4","5","1","0","1","2","0","1","1","2","4","5","4","5","4","5","4","5","4","4","7","6","6","7","6","7","8","7","7","6","3","3","6","5","2","7","2","5","2","5","1","6","3","6","6","5","2","5","2","3","6","3","5","2","7","5","5","6","7","7","6","5","3","3","6","3","5","2","5","720215098982924288","刘","693","Male","[""坏他"",""坏我"",""好他"",""好我""]","[""弱他"",""弱我"",""强他"",""强我""]","","","","","","","","yes","","","","","","","","","SRET","EW_formal","","key","j","16.674413461538418","758.3333534223067","422.22223340729164","朋友","毅力","Positive","ability","","","","","","","","","",""
"855","","f","psychophysics","22","126676","0.0-7.0-3.0-0.8","6","5","5","3","3","5","2","5","4","4","5","1","0","1","2","0","1","1","2","4","5","4","5","4","5","4","5","4","4","7","6","6","7","6","7","8","7","7","6","3","3","6","5","2","7","2","5","2","5","1","6","3","6","6","5","2","5","2","3","6","3","5","2","7","5","5","6","7","7","6","5","3","3","6","3","5","2","5","720215098982924288","刘","693","Male","[""坏他"",""坏我"",""好他"",""好我""]","[""弱他"",""弱我"",""强他"",""强我""]","","","","","","","","no","","","","","","","","","SRET","EW_formal","","key","f","16.6733636363637","758.3333534223067","422.22223340729164","朋友","差生","Negative","ability","","","","","","","","","",""
"652","","f","psychophysics","23","128330","0.0-7.0-3.0-0.9","6","5","5","3","3","5","2","5","4","4","5","1","0","1","2","0","1","1","2","4","5","4","5","4","5","4","5","4","4","7","6","6","7","6","7","8","7","7","6","3","3","6","5","2","7","2","5","2","5","1","6","3","6","6","5","2","5","2","3","6","3","5","2","7","5","5","6","7","7","6","5","3","3","6","3","5","2","5","720215098982924288","刘","693","Male","[""坏他"",""坏我"",""好他"",""好我""]","[""弱他"",""弱我"",""强他"",""强我""]","","","","","","","","no","","","","","","","","","SRET","EW_formal","","key","f","16.674653061224582","758.3333534223067","422.22223340729164","朋友","伪善","Negative","morality","","","","","","","","","",""
"560","","j","psychophysics","24","129892","0.0-7.0-3.0-0.10","6","5","5","3","3","5","2","5","4","4","5","1","0","1","2","0","1","1","2","4","5","4","5","4","5","4","5","4","4","7","6","6","7","6","7","8","7","7","6","3","3","6","5","2","7","2","5","2","5","1","6","3","6","6","5","2","5","2","3","6","3","5","2","7","5","5","6","7","7","6","5","3","3","6","3","5","2","5","720215098982924288","刘","693","Male","[""坏他"",""坏我"",""好他"",""好我""]","[""弱他"",""弱我"",""强他"",""强我""]","","","","","","","","yes","","","","","","","","","SRET","EW_formal","","key","j","16.674741935484068","758.3333534223067","422.22223340729164","朋友","诚信","Positive","morality","","","","","","","","","",""
"634","","f","psychophysics","25","131528","0.0-7.0-3.0-0.11","6","5","5","3","3","5","2","5","4","4","5","1","0","1","2","0","1","1","2","4","5","4","5","4","5","4","5","4","4","7","6","6","7","6","7","8","7","7","6","3","3","6","5","2","7","2","5","2","5","1","6","3","6","6","5","2","5","2","3","6","3","5","2","7","5","5","6","7","7","6","5","3","3","6","3","5","2","5","720215098982924288","刘","693","Male","[""坏他"",""坏我"",""好他"",""好我""]","[""弱他"",""弱我"",""强他"",""强我""]","","","","","","","","no","","","","","","","","","SRET","EW_formal","","key","f","16.674288659793692","758.3333534223067","422.22223340729164","朋友","黑心","Negative","morality","","","","","","","","","",""
"566","","j","psychophysics","26","133097","0.0-7.0-3.0-0.12","6","5","5","3","3","5","2","5","4","4","5","1","0","1","2","0","1","1","2","4","5","4","5","4","5","4","5","4","4","7","6","6","7","6","7","8","7","7","6","3","3","6","5","2","7","2","5","2","5","1","6","3","6","6","5","2","5","2","3","6","3","5","2","7","5","5","6","7","7","6","5","3","3","6","3","5","2","5","720215098982924288","刘","693","Male","[""坏他"",""坏我"",""好他"",""好我""]","[""弱他"",""弱我"",""强他"",""强我""]","","","","","","","","yes","","","","","","","","","SRET","EW_formal","","key","j","16.67511827957013","758.3333534223067","422.22223340729164","自己","新手","Negative","ability","","","","","","","","","",""
"712","","j","psychophysics","27","134812","0.0-7.0-3.0-0.13","6","5","5","3","3","5","2","5","4","4","5","1","0","1","2","0","1","1","2","4","5","4","5","4","5","4","5","4","4","7","6","6","7","6","7","8","7","7","6","3","3","6","5","2","7","2","5","2","5","1","6","3","6","6","5","2","5","2","3","6","3","5","2","7","5","5","6","7","7","6","5","3","3","6","3","5","2","5","720215098982924288","刘","693","Male","[""坏他"",""坏我"",""好他"",""好我""]","[""弱他"",""弱我"",""强他"",""强我""]","","","","","","","","yes","","","","","","","","","SRET","EW_formal","","key","j","16.674196078431194","758.3333534223067","422.22223340729164","朋友","仁爱","Positive","morality","","","","","","","","","",""
"590","","f","psychophysics","28","136403","0.0-7.0-3.0-0.14","6","5","5","3","3","5","2","5","4","4","5","1","0","1","2","0","1","1","2","4","5","4","5","4","5","4","5","4","4","7","6","6","7","6","7","8","7","7","6","3","3","6","5","2","7","2","5","2","5","1","6","3","6","6","5","2","5","2","3","6","3","5","2","7","5","5","6","7","7","6","5","3","3","6","3","5","2","5","720215098982924288","刘","693","Male","[""坏他"",""坏我"",""好他"",""好我""]","[""弱他"",""弱我"",""强他"",""强我""]","","","","","","","","no","","","","","","","","","SRET","EW_formal","","key","f","16.67434042553198","758.3333534223067","422.22223340729164","朋友","无赖","Negative","morality","","","","","","","","","",""
"596","","j","psychophysics","29","138003","0.0-7.0-3.0-0.15","6","5","5","3","3","5","2","5","4","4","5","1","0","1","2","0","1","1","2","4","5","4","5","4","5","4","5","4","4","7","6","6","7","6","7","8","7","7","6","3","3","6","5","2","7","2","5","2","5","1","6","3","6","6","5","2","5","2","3","6","3","5","2","7","5","5","6","7","7","6","5","3","3","6","3","5","2","5","720215098982924288","刘","693","Male","[""坏他"",""坏我"",""好他"",""好我""]","[""弱他"",""弱我"",""强他"",""强我""]","","","","","","","","yes","","","","","","","","","SRET","EW_formal","","key","j","16.674505263157986","758.3333534223067","422.22223340729164","朋友","全才","Positive","ability","","","","","","","","","",""
"549","","f","psychophysics","30","139553","0.0-7.0-3.0-0.16","6","5","5","3","3","5","2","5","4","4","5","1","0","1","2","0","1","1","2","4","5","4","5","4","5","4","5","4","4","7","6","6","7","6","7","8","7","7","6","3","3","6","5","2","7","2","5","2","5","1","6","3","6","6","5","2","5","2","3","6","3","5","2","7","5","5","6","7","7","6","5","3","3","6","3","5","2","5","720215098982924288","刘","693","Male","[""坏他"",""坏我"",""好他"",""好我""]","[""弱他"",""弱我"",""强他"",""强我""]","","","","","","","","no","","","","","","","","","SRET","EW_formal","","key","f","16.67416304347843","758.3333534223067","422.22223340729164","自己","狡诈","Negative","morality","","","","","","","","","",""
"652","","j","psychophysics","31","141207","0.0-7.0-3.0-0.17","6","5","5","3","3","5","2","5","4","4","5","1","0","1","2","0","1","1","2","4","5","4","5","4","5","4","5","4","4","7","6","6","7","6","7","8","7","7","6","3","3","6","5","2","7","2","5","2","5","1","6","3","6","6","5","2","5","2","3","6","3","5","2","7","5","5","6","7","7","6","5","3","3","6","3","5","2","5","720215098982924288","刘","693","Male","[""坏他"",""坏我"",""好他"",""好我""]","[""弱他"",""弱我"",""强他"",""强我""]","","","","","","","","yes","","","","","","","","","SRET","EW_formal","","key","j","16.67425252525271","758.3333534223067","422.22223340729164","朋友","马虎","Negative","ability","","","","","","","","","",""
"669","","j","psychophysics","32","142878","0.0-7.0-3.0-0.18","6","5","5","3","3","5","2","5","4","4","5","1","0","1","2","0","1","1","2","4","5","4","5","4","5","4","5","4","4","7","6","6","7","6","7","8","7","7","6","3","3","6","5","2","7","2","5","2","5","1","6","3","6","6","5","2","5","2","3","6","3","5","2","7","5","5","6","7","7","6","5","3","3","6","3","5","2","5","720215098982924288","刘","693","Male","[""坏他"",""坏我"",""好他"",""好我""]","[""弱他"",""弱我"",""强他"",""强我""]","","","","","","","","yes","","","","","","","","","SRET","EW_formal","","key","j","16.67472727272737","758.3333534223067","422.22223340729164","自己","正气","Positive","morality","","","","","","","","","",""
"762","","f","psychophysics","33","144643","0.0-7.0-3.0-0.19","6","5","5","3","3","5","2","5","4","4","5","1","0","1","2","0","1","1","2","4","5","4","5","4","5","4","5","4","4","7","6","6","7","6","7","8","7","7","6","3","3","6","5","2","7","2","5","2","5","1","6","3","6","6","5","2","5","2","3","6","3","5","2","7","5","5","6","7","7","6","5","3","3","6","3","5","2","5","720215098982924288","刘","693","Male","[""坏他"",""坏我"",""好他"",""好我""]","[""弱他"",""弱我"",""强他"",""强我""]","","","","","","","","no","","","","","","","","","SRET","EW_formal","","key","f","16.67420000000025","758.3333534223067","422.22223340729164","朋友","细心","Positive","ability","","","","","","","","","",""
"777","","f","psychophysics","34","146422","0.0-7.0-3.0-0.20","6","5","5","3","3","5","2","5","4","4","5","1","0","1","2","0","1","1","2","4","5","4","5","4","5","4","5","4","4","7","6","6","7","6","7","8","7","7","6","3","3","6","5","2","7","2","5","2","5","1","6","3","6","6","5","2","5","2","3","6","3","5","2","7","5","5","6","7","7","6","5","3","3","6","3","5","2","5","720215098982924288","刘","693","Male","[""坏他"",""坏我"",""好他"",""好我""]","[""弱他"",""弱我"",""强他"",""强我""]","","","","","","","","no","","","","","","","","","SRET","EW_formal","","key","f","16.6742952380953","758.3333534223067","422.22223340729164","朋友","淫乱","Negative","morality","","","","","","","","","",""
"520","","j","psychophysics","35","147945","0.0-7.0-3.0-0.21","6","5","5","3","3","5","2","5","4","4","5","1","0","1","2","0","1","1","2","4","5","4","5","4","5","4","5","4","4","7","6","6","7","6","7","8","7","7","6","3","3","6","5","2","7","2","5","2","5","1","6","3","6","6","5","2","5","2","3","6","3","5","2","7","5","5","6","7","7","6","5","3","3","6","3","5","2","5","720215098982924288","刘","693","Male","[""坏他"",""坏我"",""好他"",""好我""]","[""弱他"",""弱我"",""强他"",""强我""]","","","","","","","","yes","","","","","","","","","SRET","EW_formal","","key","j","16.67408791208796","758.3333534223067","422.22223340729164","自己","干练","Positive","ability","","","","","","","","","",""
"603","","f","psychophysics","36","149550","0.0-7.0-3.0-0.22","6","5","5","3","3","5","2","5","4","4","5","1","0","1","2","0","1","1","2","4","5","4","5","4","5","4","5","4","4","7","6","6","7","6","7","8","7","7","6","3","3","6","5","2","7","2","5","2","5","1","6","3","6","6","5","2","5","2","3","6","3","5","2","7","5","5","6","7","7","6","5","3","3","6","3","5","2","5","720215098982924288","刘","693","Male","[""坏他"",""坏我"",""好他"",""好我""]","[""弱他"",""弱我"",""强他"",""强我""]","","","","","","","","no","","","","","","","","","SRET","EW_formal","","key","f","16.674589473684012","758.3333534223067","422.22223340729164","自己","歹毒","Negative","morality","","","","","","","","","",""
"628","","j","psychophysics","37","151180","0.0-7.0-3.0-0.23","6","5","5","3","3","5","2","5","4","4","5","1","0","1","2","0","1","1","2","4","5","4","5","4","5","4","5","4","4","7","6","6","7","6","7","8","7","7","6","3","3","6","5","2","7","2","5","2","5","1","6","3","6","6","5","2","5","2","3","6","3","5","2","7","5","5","6","7","7","6","5","3","3","6","3","5","2","5","720215098982924288","刘","693","Male","[""坏他"",""坏我"",""好他"",""好我""]","[""弱他"",""弱我"",""强他"",""强我""]","","","","","","","","yes","","","","","","","","","SRET","EW_formal","","key","j","16.67435051546403","758.3333534223067","422.22223340729164","朋友","果断","Positive","ability","","","","","","","","","",""
"754","","j","psychophysics","38","152935","0.0-7.0-3.0-0.24","6","5","5","3","3","5","2","5","4","4","5","1","0","1","2","0","1","1","2","4","5","4","5","4","5","4","5","4","4","7","6","6","7","6","7","8","7","7","6","3","3","6","5","2","7","2","5","2","5","1","6","3","6","6","5","2","5","2","3","6","3","5","2","7","5","5","6","7","7","6","5","3","3","6","3","5","2","5","720215098982924288","刘","693","Male","[""坏他"",""坏我"",""好他"",""好我""]","[""弱他"",""弱我"",""强他"",""强我""]","","","","","","","","yes","","","","","","","","","SRET","EW_formal","","key","j","16.674596153846114","758.3333534223067","422.22223340729164","自己","拖拉","Negative","ability","","","","","","","","","",""
"589","","j","psychophysics","39","154526","0.0-7.0-3.0-0.25","6","5","5","3","3","5","2","5","4","4","5","1","0","1","2","0","1","1","2","4","5","4","5","4","5","4","5","4","4","7","6","6","7","6","7","8","7","7","6","3","3","6","5","2","7","2","5","2","5","1","6","3","6","6","5","2","5","2","3","6","3","5","2","7","5","5","6","7","7","6","5","3","3","6","3","5","2","5","720215098982924288","刘","693","Male","[""坏他"",""坏我"",""好他"",""好我""]","[""弱他"",""弱我"",""强他"",""强我""]","","","","","","","","yes","","","","","","","","","SRET","EW_formal","","key","j","16.674212765957332","758.3333534223067","422.22223340729164","自己","逞强","Negative","ability","","","","","","","","","",""
"948","","j","psychophysics","40","156475","0.0-7.0-3.0-0.26","6","5","5","3","3","5","2","5","4","4","5","1","0","1","2","0","1","1","2","4","5","4","5","4","5","4","5","4","4","7","6","6","7","6","7","8","7","7","6","3","3","6","5","2","7","2","5","2","5","1","6","3","6","6","5","2","5","2","3","6","3","5","2","7","5","5","6","7","7","6","5","3","3","6","3","5","2","5","720215098982924288","刘","693","Male","[""坏他"",""坏我"",""好他"",""好我""]","[""弱他"",""弱我"",""强他"",""强我""]","","","","","","","","yes","","","","","","","","","SRET","EW_formal","","key","j","16.6738879310345","758.3333534223067","422.22223340729164","朋友","自律","Positive","ability","","","","","","","","","",""
"629","","f","psychophysics","41","158106","0.0-7.0-3.0-0.27","6","5","5","3","3","5","2","5","4","4","5","1","0","1","2","0","1","1","2","4","5","4","5","4","5","4","5","4","4","7","6","6","7","6","7","8","7","7","6","3","3","6","5","2","7","2","5","2","5","1","6","3","6","6","5","2","5","2","3","6","3","5","2","7","5","5","6","7","7","6","5","3","3","6","3","5","2","5","720215098982924288","刘","693","Male","[""坏他"",""坏我"",""好他"",""好我""]","[""弱他"",""弱我"",""强他"",""强我""]","","","","","","","","no","","","","","","","","","SRET","EW_formal","","key","f","16.674690721649256","758.3333534223067","422.22223340729164","朋友","奸险","Negative","morality","","","","","","","","","",""
"622","","j","psychophysics","42","159730","0.0-7.0-3.0-0.28","6","5","5","3","3","5","2","5","4","4","5","1","0","1","2","0","1","1","2","4","5","4","5","4","5","4","5","4","4","7","6","6","7","6","7","8","7","7","6","3","3","6","5","2","7","2","5","2","5","1","6","3","6","6","5","2","5","2","3","6","3","5","2","7","5","5","6","7","7","6","5","3","3","6","3","5","2","5","720215098982924288","刘","693","Male","[""坏他"",""坏我"",""好他"",""好我""]","[""弱他"",""弱我"",""强他"",""强我""]","","","","","","","","yes","","","","","","","","","SRET","EW_formal","","key","j","16.67483333333318","758.3333534223067","422.22223340729164","朋友","短浅","Negative","ability","","","","","","","","","",""
"737","","j","psychophysics","43","161471","0.0-7.0-3.0-0.29","6","5","5","3","3","5","2","5","4","4","5","1","0","1","2","0","1","1","2","4","5","4","5","4","5","4","5","4","4","7","6","6","7","6","7","8","7","7","6","3","3","6","5","2","7","2","5","2","5","1","6","3","6","6","5","2","5","2","3","6","3","5","2","7","5","5","6","7","7","6","5","3","3","6","3","5","2","5","720215098982924288","刘","693","Male","[""坏他"",""坏我"",""好他"",""好我""]","[""弱他"",""弱我"",""强他"",""强我""]","","","","","","","","yes","","","","","","","","","SRET","EW_formal","","key","j","16.674192307692117","758.3333534223067","422.22223340729164","朋友","聪明","Positive","ability","","","","","","","","","",""
"686","","j","psychophysics","44","163159","0.0-7.0-3.0-0.30","6","5","5","3","3","5","2","5","4","4","5","1","0","1","2","0","1","1","2","4","5","4","5","4","5","4","5","4","4","7","6","6","7","6","7","8","7","7","6","3","3","6","5","2","7","2","5","2","5","1","6","3","6","6","5","2","5","2","3","6","3","5","2","7","5","5","6","7","7","6","5","3","3","6","3","5","2","5","720215098982924288","刘","693","Male","[""坏他"",""坏我"",""好他"",""好我""]","[""弱他"",""弱我"",""强他"",""强我""]","","","","","","","","yes","","","","","","","","","SRET","EW_formal","","key","j","16.6746100000001","758.3333534223067","422.22223340729164","自己","懂行","Positive","ability","","","","","","","","","",""
"660","","j","psychophysics","45","164820","0.0-7.0-3.0-0.31","6","5","5","3","3","5","2","5","4","4","5","1","0","1","2","0","1","1","2","4","5","4","5","4","5","4","5","4","4","7","6","6","7","6","7","8","7","7","6","3","3","6","5","2","7","2","5","2","5","1","6","3","6","6","5","2","5","2","3","6","3","5","2","7","5","5","6","7","7","6","5","3","3","6","3","5","2","5","720215098982924288","刘","693","Male","[""坏他"",""坏我"",""好他"",""好我""]","[""弱他"",""弱我"",""强他"",""强我""]","","","","","","","","yes","","","","","","","","","SRET","EW_formal","","key","j","16.674737373737365","758.3333534223067","422.22223340729164","自己","坦荡","Positive","morality","","","","","","","","","",""
"598","","f","psychophysics","46","166420","0.0-7.0-3.0-0.32","6","5","5","3","3","5","2","5","4","4","5","1","0","1","2","0","1","1","2","4","5","4","5","4","5","4","5","4","4","7","6","6","7","6","7","8","7","7","6","3","3","6","5","2","7","2","5","2","5","1","6","3","6","6","5","2","5","2","3","6","3","5","2","7","5","5","6","7","7","6","5","3","3","6","3","5","2","5","720215098982924288","刘","693","Male","[""坏他"",""坏我"",""好他"",""好我""]","[""弱他"",""弱我"",""强他"",""强我""]","","","","","","","","no","","","","","","","","","SRET","EW_formal","","key","f","16.674031578947325","758.3333534223067","422.22223340729164","自己","不孝","Negative","morality","","","","","","","","","",""
"549","","j","psychophysics","47","167971","0.0-7.0-3.0-0.33","6","5","5","3","3","5","2","5","4","4","5","1","0","1","2","0","1","1","2","4","5","4","5","4","5","4","5","4","4","7","6","6","7","6","7","8","7","7","6","3","3","6","5","2","7","2","5","2","5","1","6","3","6","6","5","2","5","2","3","6","3","5","2","7","5","5","6","7","7","6","5","3","3","6","3","5","2","5","720215098982924288","刘","693","Male","[""坏他"",""坏我"",""好他"",""好我""]","[""弱他"",""弱我"",""强他"",""强我""]","","","","","","","","yes","","","","","","","","","SRET","EW_formal","","key","j","16.67467391304324","758.3333534223067","422.22223340729164","自己","沉着","Positive","ability","","","","","","","","","",""
"555","","f","psychophysics","48","169528","0.0-7.0-3.0-0.34","6","5","5","3","3","5","2","5","4","4","5","1","0","1","2","0","1","1","2","4","5","4","5","4","5","4","5","4","4","7","6","6","7","6","7","8","7","7","6","3","3","6","5","2","7","2","5","2","5","1","6","3","6","6","5","2","5","2","3","6","3","5","2","7","5","5","6","7","7","6","5","3","3","6","3","5","2","5","720215098982924288","刘","693","Male","[""坏他"",""坏我"",""好他"",""好我""]","[""弱他"",""弱我"",""强他"",""强我""]","","","","","","","","no","","","","","","","","","SRET","EW_formal","","key","f","16.674695652173757","758.3333534223067","422.22223340729164","自己","谦逊","Positive","morality","","","","","","","","","",""
"634","","j","psychophysics","49","171165","0.0-7.0-3.0-0.35","6","5","5","3","3","5","2","5","4","4","5","1","0","1","2","0","1","1","2","4","5","4","5","4","5","4","5","4","4","7","6","6","7","6","7","8","7","7","6","3","3","6","5","2","7","2","5","2","5","1","6","3","6","6","5","2","5","2","3","6","3","5","2","7","5","5","6","7","7","6","5","3","3","6","3","5","2","5","720215098982924288","刘","693","Male","[""坏他"",""坏我"",""好他"",""好我""]","[""弱他"",""弱我"",""强他"",""强我""]","","","","","","","","yes","","","","","","","","","SRET","EW_formal","","key","j","16.674226804123652","758.3333534223067","422.22223340729164","自己","笨蛋","Negative","ability","","","","","","","","","",""
"628","","f","psychophysics","50","172794","0.0-7.0-3.0-0.36","6","5","5","3","3","5","2","5","4","4","5","1","0","1","2","0","1","1","2","4","5","4","5","4","5","4","5","4","4","7","6","6","7","6","7","8","7","7","6","3","3","6","5","2","7","2","5","2","5","1","6","3","6","6","5","2","5","2","3","6","3","5","2","7","5","5","6","7","7","6","5","3","3","6","3","5","2","5","720215098982924288","刘","693","Male","[""坏他"",""坏我"",""好他"",""好我""]","[""弱他"",""弱我"",""强他"",""强我""]","","","","","","","","no","","","","","","","","","SRET","EW_formal","","key","f","16.674422680412313","758.3333534223067","422.22223340729164","朋友","无为","Negative","ability","","","","","","","","","",""
"673","","j","psychophysics","51","174469","0.0-7.0-3.0-0.37","6","5","5","3","3","5","2","5","4","4","5","1","0","1","2","0","1","1","2","4","5","4","5","4","5","4","5","4","4","7","6","6","7","6","7","8","7","7","6","3","3","6","5","2","7","2","5","2","5","1","6","3","6","6","5","2","5","2","3","6","3","5","2","7","5","5","6","7","7","6","5","3","3","6","3","5","2","5","720215098982924288","刘","693","Male","[""坏他"",""坏我"",""好他"",""好我""]","[""弱他"",""弱我"",""强他"",""强我""]","","","","","","","","yes","","","","","","","","","SRET","EW_formal","","key","j","16.67515151515148","758.3333534223067","422.22223340729164","朋友","肯干","Positive","ability","","","","","","","","","",""
"733","","f","psychophysics","52","176206","0.0-7.0-3.0-0.38","6","5","5","3","3","5","2","5","4","4","5","1","0","1","2","0","1","1","2","4","5","4","5","4","5","4","5","4","4","7","6","6","7","6","7","8","7","7","6","3","3","6","5","2","7","2","5","2","5","1","6","3","6","6","5","2","5","2","3","6","3","5","2","7","5","5","6","7","7","6","5","3","3","6","3","5","2","5","720215098982924288","刘","693","Male","[""坏他"",""坏我"",""好他"",""好我""]","[""弱他"",""弱我"",""强他"",""强我""]","","","","","","","","no","","","","","","","","","SRET","EW_formal","","key","f","16.673624999999728","758.3333534223067","422.22223340729164","自己","贪污","Negative","morality","","","","","","","","","",""
"677","","j","psychophysics","53","177886","0.0-7.0-3.0-0.39","6","5","5","3","3","5","2","5","4","4","5","1","0","1","2","0","1","1","2","4","5","4","5","4","5","4","5","4","4","7","6","6","7","6","7","8","7","7","6","3","3","6","5","2","7","2","5","2","5","1","6","3","6","6","5","2","5","2","3","6","3","5","2","7","5","5","6","7","7","6","5","3","3","6","3","5","2","5","720215098982924288","刘","693","Male","[""坏他"",""坏我"",""好他"",""好我""]","[""弱他"",""弱我"",""强他"",""强我""]","","","","","","","","yes","","","","","","","","","SRET","EW_formal","","key","j","16.67461616161598","758.3333534223067","422.22223340729164","朋友","屈才","Negative","ability","","","","","","","","","",""
"564","","f","psychophysics","54","179452","0.0-7.0-3.0-0.40","6","5","5","3","3","5","2","5","4","4","5","1","0","1","2","0","1","1","2","4","5","4","5","4","5","4","5","4","4","7","6","6","7","6","7","8","7","7","6","3","3","6","5","2","7","2","5","2","5","1","6","3","6","6","5","2","5","2","3","6","3","5","2","7","5","5","6","7","7","6","5","3","3","6","3","5","2","5","720215098982924288","刘","693","Male","[""坏他"",""坏我"",""好他"",""好我""]","[""弱他"",""弱我"",""强他"",""强我""]","","","","","","","","no","","","","","","","","","SRET","EW_formal","","key","f","16.67440860215055","758.3333534223067","422.22223340729164","朋友","混账","Negative","morality","","","","","","","","","",""
"647","","f","psychophysics","55","181101","0.0-7.0-3.0-0.41","6","5","5","3","3","5","2","5","4","4","5","1","0","1","2","0","1","1","2","4","5","4","5","4","5","4","5","4","4","7","6","6","7","6","7","8","7","7","6","3","3","6","5","2","7","2","5","2","5","1","6","3","6","6","5","2","5","2","3","6","3","5","2","7","5","5","6","7","7","6","5","3","3","6","3","5","2","5","720215098982924288","刘","693","Male","[""坏他"",""坏我"",""好他"",""好我""]","[""弱他"",""弱我"",""强他"",""强我""]","","","","","","","","no","","","","","","","","","SRET","EW_formal","","key","f","16.674418367346874","758.3333534223067","422.22223340729164","自己","低劣","Negative","morality","","","","","","","","","",""
"683","","f","psychophysics","56","182785","0.0-7.0-3.0-0.42","6","5","5","3","3","5","2","5","4","4","5","1","0","1","2","0","1","1","2","4","5","4","5","4","5","4","5","4","4","7","6","6","7","6","7","8","7","7","6","3","3","6","5","2","7","2","5","2","5","1","6","3","6","6","5","2","5","2","3","6","3","5","2","7","5","5","6","7","7","6","5","3","3","6","3","5","2","5","720215098982924288","刘","693","Male","[""坏他"",""坏我"",""好他"",""好我""]","[""弱他"",""弱我"",""强他"",""强我""]","","","","","","","","no","","","","","","","","","SRET","EW_formal","","key","f","16.674349999999976","758.3333534223067","422.22223340729164","朋友","偏私","Negative","morality","","","","","","","","","",""
"677","","j","psychophysics","57","184463","0.0-7.0-3.0-0.43","6","5","5","3","3","5","2","5","4","4","5","1","0","1","2","0","1","1","2","4","5","4","5","4","5","4","5","4","4","7","6","6","7","6","7","8","7","7","6","3","3","6","5","2","7","2","5","2","5","1","6","3","6","6","5","2","5","2","3","6","3","5","2","7","5","5","6","7","7","6","5","3","3","6","3","5","2","5","720215098982924288","刘","693","Male","[""坏他"",""坏我"",""好他"",""好我""]","[""弱他"",""弱我"",""强他"",""强我""]","","","","","","","","yes","","","","","","","","","SRET","EW_formal","","key","j","16.674550000000163","758.3333534223067","422.22223340729164","朋友","厚道","Positive","morality","","","","","","","","","",""
"831","","f","psychophysics","58","186296","0.0-7.0-3.0-0.44","6","5","5","3","3","5","2","5","4","4","5","1","0","1","2","0","1","1","2","4","5","4","5","4","5","4","5","4","4","7","6","6","7","6","7","8","7","7","6","3","3","6","5","2","7","2","5","2","5","1","6","3","6","6","5","2","5","2","3","6","3","5","2","7","5","5","6","7","7","6","5","3","3","6","3","5","2","5","720215098982924288","刘","693","Male","[""坏他"",""坏我"",""好他"",""好我""]","[""弱他"",""弱我"",""强他"",""强我""]","","","","","","","","no","","","","","","","","","SRET","EW_formal","","key","f","16.67410091743105","758.3333534223067","422.22223340729164","自己","怠惰","Negative","ability","","","","","","","","","",""
"557","","f","psychophysics","59","187855","0.0-7.0-3.0-0.45","6","5","5","3","3","5","2","5","4","4","5","1","0","1","2","0","1","1","2","4","5","4","5","4","5","4","5","4","4","7","6","6","7","6","7","8","7","7","6","3","3","6","5","2","7","2","5","2","5","1","6","3","6","6","5","2","5","2","3","6","3","5","2","7","5","5","6","7","7","6","5","3","3","6","3","5","2","5","720215098982924288","刘","693","Male","[""坏他"",""坏我"",""好他"",""好我""]","[""弱他"",""弱我"",""强他"",""强我""]","","","","","","","","no","","","","","","","","","SRET","EW_formal","","key","f","16.674652173913035","758.3333534223067","422.22223340729164","朋友","仁厚","Positive","morality","","","","","","","","","",""
"601","","j","psychophysics","60","189457","0.0-7.0-3.0-0.46","6","5","5","3","3","5","2","5","4","4","5","1","0","1","2","0","1","1","2","4","5","4","5","4","5","4","5","4","4","7","6","6","7","6","7","8","7","7","6","3","3","6","5","2","7","2","5","2","5","1","6","3","6","6","5","2","5","2","3","6","3","5","2","7","5","5","6","7","7","6","5","3","3","6","3","5","2","5","720215098982924288","刘","693","Male","[""坏他"",""坏我"",""好他"",""好我""]","[""弱他"",""弱我"",""强他"",""强我""]","","","","","","","","yes","","","","","","","","","SRET","EW_formal","","key","j","16.67461052631567","758.3333534223067","422.22223340729164","朋友","廉正","Positive","morality","","","","","","","","","",""
"561","","j","psychophysics","61","191021","0.0-7.0-3.0-0.47","6","5","5","3","3","5","2","5","4","4","5","1","0","1","2","0","1","1","2","4","5","4","5","4","5","4","5","4","4","7","6","6","7","6","7","8","7","7","6","3","3","6","5","2","7","2","5","2","5","1","6","3","6","6","5","2","5","2","3","6","3","5","2","7","5","5","6","7","7","6","5","3","3","6","3","5","2","5","720215098982924288","刘","693","Male","[""坏他"",""坏我"",""好他"",""好我""]","[""弱他"",""弱我"",""强他"",""强我""]","","","","","","","","yes","","","","","","","","","SRET","EW_formal","","key","j","16.674741935484068","758.3333534223067","422.22223340729164","自己","忠义","Positive","morality","","","","","","","","","",""
"664","","f","psychophysics","62","192687","0.0-7.0-3.0-0.48","6","5","5","3","3","5","2","5","4","4","5","1","0","1","2","0","1","1","2","4","5","4","5","4","5","4","5","4","4","7","6","6","7","6","7","8","7","7","6","3","3","6","5","2","7","2","5","2","5","1","6","3","6","6","5","2","5","2","3","6","3","5","2","7","5","5","6","7","7","6","5","3","3","6","3","5","2","5","720215098982924288","刘","693","Male","[""坏他"",""坏我"",""好他"",""好我""]","[""弱他"",""弱我"",""强他"",""强我""]","","","","","","","","no","","","","","","","","","SRET","EW_formal","","key","f","16.674585858585708","758.3333534223067","422.22223340729164","自己","下流","Negative","morality","","","","","","","","","",""
"628","","f","psychophysics","63","194317","0.0-7.0-3.0-0.49","6","5","5","3","3","5","2","5","4","4","5","1","0","1","2","0","1","1","2","4","5","4","5","4","5","4","5","4","4","7","6","6","7","6","7","8","7","7","6","3","3","6","5","2","7","2","5","2","5","1","6","3","6","6","5","2","5","2","3","6","3","5","2","7","5","5","6","7","7","6","5","3","3","6","3","5","2","5","720215098982924288","刘","693","Male","[""坏他"",""坏我"",""好他"",""好我""]","[""弱他"",""弱我"",""强他"",""强我""]","","","","","","","","no","","","","","","","","","SRET","EW_formal","","key","f","16.674505154639135","758.3333534223067","422.22223340729164","朋友","愚蠢","Negative","ability","","","","","","","","","",""
"765","","f","psychophysics","64","196083","0.0-7.0-3.0-0.50","6","5","5","3","3","5","2","5","4","4","5","1","0","1","2","0","1","1","2","4","5","4","5","4","5","4","5","4","4","7","6","6","7","6","7","8","7","7","6","3","3","6","5","2","7","2","5","2","5","1","6","3","6","6","5","2","5","2","3","6","3","5","2","7","5","5","6","7","7","6","5","3","3","6","3","5","2","5","720215098982924288","刘","693","Male","[""坏他"",""坏我"",""好他"",""好我""]","[""弱他"",""弱我"",""强他"",""强我""]","","","","","","","","no","","","","","","","","","SRET","EW_formal","","key","f","16.674676190476056","758.3333534223067","422.22223340729164","自己","驽钝","Negative","ability","","","","","","","","","",""
"682","","j","psychophysics","65","197767","0.0-7.0-3.0-0.51","6","5","5","3","3","5","2","5","4","4","5","1","0","1","2","0","1","1","2","4","5","4","5","4","5","4","5","4","4","7","6","6","7","6","7","8","7","7","6","3","3","6","5","2","7","2","5","2","5","1","6","3","6","6","5","2","5","2","3","6","3","5","2","7","5","5","6","7","7","6","5","3","3","6","3","5","2","5","720215098982924288","刘","693","Male","[""坏他"",""坏我"",""好他"",""好我""]","[""弱他"",""弱我"",""强他"",""强我""]","","","","","","","","yes","","","","","","","","","SRET","EW_formal","","key","j","16.67432000000001","758.3333534223067","422.22223340729164","朋友","侠义","Positive","morality","","","","","","","","","",""
"887","","j","psychophysics","66","199657","0.0-7.0-3.0-0.52","6","5","5","3","3","5","2","5","4","4","5","1","0","1","2","0","1","1","2","4","5","4","5","4","5","4","5","4","4","7","6","6","7","6","7","8","7","7","6","3","3","6","5","2","7","2","5","2","5","1","6","3","6","6","5","2","5","2","3","6","3","5","2","7","5","5","6","7","7","6","5","3","3","6","3","5","2","5","720215098982924288","刘","693","Male","[""坏他"",""坏我"",""好他"",""好我""]","[""弱他"",""弱我"",""强他"",""强我""]","","","","","","","","yes","","","","","","","","","SRET","EW_formal","","key","j","16.674428571428766","758.3333534223067","422.22223340729164","自己","清廉","Positive","morality","","","","","","","","","",""
"659","","j","psychophysics","67","201318","0.0-7.0-3.0-0.53","6","5","5","3","3","5","2","5","4","4","5","1","0","1","2","0","1","1","2","4","5","4","5","4","5","4","5","4","4","7","6","6","7","6","7","8","7","7","6","3","3","6","5","2","7","2","5","2","5","1","6","3","6","6","5","2","5","2","3","6","3","5","2","7","5","5","6","7","7","6","5","3","3","6","3","5","2","5","720215098982924288","刘","693","Male","[""坏他"",""坏我"",""好他"",""好我""]","[""弱他"",""弱我"",""强他"",""强我""]","","","","","","","","yes","","","","","","","","","SRET","EW_formal","","key","j","16.67411111111105","758.3333534223067","422.22223340729164","朋友","守法","Positive","morality","","","","","","","","","",""
"722","","f","psychophysics","68","203042","0.0-7.0-3.0-0.54","6","5","5","3","3","5","2","5","4","4","5","1","0","1","2","0","1","1","2","4","5","4","5","4","5","4","5","4","4","7","6","6","7","6","7","8","7","7","6","3","3","6","5","2","7","2","5","2","5","1","6","3","6","6","5","2","5","2","3","6","3","5","2","7","5","5","6","7","7","6","5","3","3","6","3","5","2","5","720215098982924288","刘","693","Male","[""坏他"",""坏我"",""好他"",""好我""]","[""弱他"",""弱我"",""强他"",""强我""]","","","","","","","","no","","","","","","","","","SRET","EW_formal","","key","f","16.674529411764667","758.3333534223067","422.22223340729164","朋友","无知","Negative","ability","","","","","","","","","",""
"786","","f","psychophysics","69","204830","0.0-7.0-3.0-0.55","6","5","5","3","3","5","2","5","4","4","5","1","0","1","2","0","1","1","2","4","5","4","5","4","5","4","5","4","4","7","6","6","7","6","7","8","7","7","6","3","3","6","5","2","7","2","5","2","5","1","6","3","6","6","5","2","5","2","3","6","3","5","2","7","5","5","6","7","7","6","5","3","3","6","3","5","2","5","720215098982924288","刘","693","Male","[""坏他"",""坏我"",""好他"",""好我""]","[""弱他"",""弱我"",""强他"",""强我""]","","","","","","","","no","","","","","","","","","SRET","EW_formal","","key","f","16.674594339622484","758.3333534223067","422.22223340729164","朋友","失信","Negative","morality","","","","","","","","","",""
"572","","f","psychophysics","70","206403","0.0-7.0-3.0-0.56","6","5","5","3","3","5","2","5","4","4","5","1","0","1","2","0","1","1","2","4","5","4","5","4","5","4","5","4","4","7","6","6","7","6","7","8","7","7","6","3","3","6","5","2","7","2","5","2","5","1","6","3","6","6","5","2","5","2","3","6","3","5","2","7","5","5","6","7","7","6","5","3","3","6","3","5","2","5","720215098982924288","刘","693","Male","[""坏他"",""坏我"",""好他"",""好我""]","[""弱他"",""弱我"",""强他"",""强我""]","","","","","","","","no","","","","","","","","","SRET","EW_formal","","key","f","16.67398936170224","758.3333534223067","422.22223340729164","自己","腐败","Negative","morality","","","","","","","","","",""
"571","","j","psychophysics","71","207975","0.0-7.0-3.0-0.57","6","5","5","3","3","5","2","5","4","4","5","1","0","1","2","0","1","1","2","4","5","4","5","4","5","4","5","4","4","7","6","6","7","6","7","8","7","7","6","3","3","6","5","2","7","2","5","2","5","1","6","3","6","6","5","2","5","2","3","6","3","5","2","7","5","5","6","7","7","6","5","3","3","6","3","5","2","5","720215098982924288","刘","693","Male","[""坏他"",""坏我"",""好他"",""好我""]","[""弱他"",""弱我"",""强他"",""强我""]","","","","","","","","yes","","","","","","","","","SRET","EW_formal","","key","j","16.674752688171814","758.3333534223067","422.22223340729164","自己","智慧","Positive","ability","","","","","","","","","",""
"630","","j","psychophysics","72","209607","0.0-7.0-3.0-0.58","6","5","5","3","3","5","2","5","4","4","5","1","0","1","2","0","1","1","2","4","5","4","5","4","5","4","5","4","4","7","6","6","7","6","7","8","7","7","6","3","3","6","5","2","7","2","5","2","5","1","6","3","6","6","5","2","5","2","3","6","3","5","2","7","5","5","6","7","7","6","5","3","3","6","3","5","2","5","720215098982924288","刘","693","Male","[""坏他"",""坏我"",""好他"",""好我""]","[""弱他"",""弱我"",""强他"",""强我""]","","","","","","","","yes","","","","","","","","","SRET","EW_formal","","key","j","16.674639175257756","758.3333534223067","422.22223340729164","自己","远见","Positive","ability","","","","","","","","","",""
"981","","f","psychophysics","73","211590","0.0-7.0-3.0-0.59","6","5","5","3","3","5","2","5","4","4","5","1","0","1","2","0","1","1","2","4","5","4","5","4","5","4","5","4","4","7","6","6","7","6","7","8","7","7","6","3","3","6","5","2","7","2","5","2","5","1","6","3","6","6","5","2","5","2","3","6","3","5","2","7","5","5","6","7","7","6","5","3","3","6","3","5","2","5","720215098982924288","刘","693","Male","[""坏他"",""坏我"",""好他"",""好我""]","[""弱他"",""弱我"",""强他"",""强我""]","","","","","","","","no","","","","","","","","","SRET","EW_formal","","key","f","16.674711864406856","758.3333534223067","422.22223340729164","朋友","愚钝","Negative","ability","","","","","","","","","",""
"660","","j","psychophysics","74","213251","0.0-7.0-3.0-0.60","6","5","5","3","3","5","2","5","4","4","5","1","0","1","2","0","1","1","2","4","5","4","5","4","5","4","5","4","4","7","6","6","7","6","7","8","7","7","6","3","3","6","5","2","7","2","5","2","5","1","6","3","6","6","5","2","5","2","3","6","3","5","2","7","5","5","6","7","7","6","5","3","3","6","3","5","2","5","720215098982924288","刘","693","Male","[""坏他"",""坏我"",""好他"",""好我""]","[""弱他"",""弱我"",""强他"",""强我""]","","","","","","","","yes","","","","","","","","","SRET","EW_formal","","key","j","16.674622448979715","758.3333534223067","422.22223340729164","自己","无助","Negative","ability","","","","","","","","","",""
"663","","f","psychophysics","75","214916","0.0-7.0-3.0-0.61","6","5","5","3","3","5","2","5","4","4","5","1","0","1","2","0","1","1","2","4","5","4","5","4","5","4","5","4","4","7","6","6","7","6","7","8","7","7","6","3","3","6","5","2","7","2","5","2","5","1","6","3","6","6","5","2","5","2","3","6","3","5","2","7","5","5","6","7","7","6","5","3","3","6","3","5","2","5","720215098982924288","刘","693","Male","[""坏他"",""坏我"",""好他"",""好我""]","[""弱他"",""弱我"",""强他"",""强我""]","","","","","","","","no","","","","","","","","","SRET","EW_formal","","key","f","16.673757575757772","758.3333534223067","422.22223340729164","自己","昏庸","Negative","ability","","","","","","","","","",""
"632","","j","psychophysics","76","216549","0.0-7.0-3.0-0.62","6","5","5","3","3","5","2","5","4","4","5","1","0","1","2","0","1","1","2","4","5","4","5","4","5","4","5","4","4","7","6","6","7","6","7","8","7","7","6","3","3","6","5","2","7","2","5","2","5","1","6","3","6","6","5","2","5","2","3","6","3","5","2","7","5","5","6","7","7","6","5","3","3","6","3","5","2","5","720215098982924288","刘","693","Male","[""坏他"",""坏我"",""好他"",""好我""]","[""弱他"",""弱我"",""强他"",""强我""]","","","","","","","","yes","","","","","","","","","SRET","EW_formal","","key","j","16.674567010309474","758.3333534223067","422.22223340729164","朋友","小人","Negative","morality","","","","","","","","","",""
"620","","j","psychophysics","77","218170","0.0-7.0-3.0-0.63","6","5","5","3","3","5","2","5","4","4","5","1","0","1","2","0","1","1","2","4","5","4","5","4","5","4","5","4","4","7","6","6","7","6","7","8","7","7","6","3","3","6","5","2","7","2","5","2","5","1","6","3","6","6","5","2","5","2","3","6","3","5","2","7","5","5","6","7","7","6","5","3","3","6","3","5","2","5","720215098982924288","刘","693","Male","[""坏他"",""坏我"",""好他"",""好我""]","[""弱他"",""弱我"",""强他"",""强我""]","","","","","","","","yes","","","","","","","","","SRET","EW_formal","","key","j","16.674229166666617","758.3333534223067","422.22223340729164","朋友","依靠","Negative","ability","","","","","","","","","",""
"721","","j","psychophysics","78","219894","0.0-7.0-3.0-0.64","6","5","5","3","3","5","2","5","4","4","5","1","0","1","2","0","1","1","2","4","5","4","5","4","5","4","5","4","4","7","6","6","7","6","7","8","7","7","6","3","3","6","5","2","7","2","5","2","5","1","6","3","6","6","5","2","5","2","3","6","3","5","2","7","5","5","6","7","7","6","5","3","3","6","3","5","2","5","720215098982924288","刘","693","Male","[""坏他"",""坏我"",""好他"",""好我""]","[""弱他"",""弱我"",""强他"",""强我""]","","","","","","","","yes","","","","","","","","","SRET","EW_formal","","key","j","16.674388349514558","758.3333534223067","422.22223340729164","自己","勤恳","Positive","morality","","","","","","","","","",""
"667","","j","psychophysics","79","221562","0.0-7.0-3.0-0.65","6","5","5","3","3","5","2","5","4","4","5","1","0","1","2","0","1","1","2","4","5","4","5","4","5","4","5","4","4","7","6","6","7","6","7","8","7","7","6","3","3","6","5","2","7","2","5","2","5","1","6","3","6","6","5","2","5","2","3","6","3","5","2","7","5","5","6","7","7","6","5","3","3","6","3","5","2","5","720215098982924288","刘","693","Male","[""坏他"",""坏我"",""好他"",""好我""]","[""弱他"",""弱我"",""强他"",""强我""]","","","","","","","","yes","","","","","","","","","SRET","EW_formal","","key","j","16.674292929292683","758.3333534223067","422.22223340729164","自己","孝顺","Positive","morality","","","","","","","","","",""
"743","","j","psychophysics","80","223307","0.0-7.0-3.0-0.66","6","5","5","3","3","5","2","5","4","4","5","1","0","1","2","0","1","1","2","4","5","4","5","4","5","4","5","4","4","7","6","6","7","6","7","8","7","7","6","3","3","6","5","2","7","2","5","2","5","1","6","3","6","6","5","2","5","2","3","6","3","5","2","7","5","5","6","7","7","6","5","3","3","6","3","5","2","5","720215098982924288","刘","693","Male","[""坏他"",""坏我"",""好他"",""好我""]","[""弱他"",""弱我"",""强他"",""强我""]","","","","","","","","yes","","","","","","","","","SRET","EW_formal","","key","j","16.674271844660023","758.3333534223067","422.22223340729164","朋友","势利","Negative","morality","","","","","","","","","",""
"654","","j","psychophysics","81","224963","0.0-7.0-3.0-0.67","6","5","5","3","3","5","2","5","4","4","5","1","0","1","2","0","1","1","2","4","5","4","5","4","5","4","5","4","4","7","6","6","7","6","7","8","7","7","6","3","3","6","5","2","7","2","5","2","5","1","6","3","6","6","5","2","5","2","3","6","3","5","2","7","5","5","6","7","7","6","5","3","3","6","3","5","2","5","720215098982924288","刘","693","Male","[""坏他"",""坏我"",""好他"",""好我""]","[""弱他"",""弱我"",""强他"",""强我""]","","","","","","","","yes","","","","","","","","","SRET","EW_formal","","key","j","16.67426262626241","758.3333534223067","422.22223340729164","自己","高明","Positive","ability","","","","","","","","","",""
"893","","j","psychophysics","82","226857","0.0-7.0-3.0-0.68","6","5","5","3","3","5","2","5","4","4","5","1","0","1","2","0","1","1","2","4","5","4","5","4","5","4","5","4","4","7","6","6","7","6","7","8","7","7","6","3","3","6","5","2","7","2","5","2","5","1","6","3","6","6","5","2","5","2","3","6","3","5","2","7","5","5","6","7","7","6","5","3","3","6","3","5","2","5","720215098982924288","刘","693","Male","[""坏他"",""坏我"",""好他"",""好我""]","[""弱他"",""弱我"",""强他"",""强我""]","","","","","","","","yes","","","","","","","","","SRET","EW_formal","","key","j","16.674571428571394","758.3333534223067","422.22223340729164","自己","毛糙","Negative","ability","","","","","","","","","",""
"635","","j","psychophysics","83","228494","0.0-7.0-3.0-0.69","6","5","5","3","3","5","2","5","4","4","5","1","0","1","2","0","1","1","2","4","5","4","5","4","5","4","5","4","4","7","6","6","7","6","7","8","7","7","6","3","3","6","5","2","7","2","5","2","5","1","6","3","6","6","5","2","5","2","3","6","3","5","2","7","5","5","6","7","7","6","5","3","3","6","3","5","2","5","720215098982924288","刘","693","Male","[""坏他"",""坏我"",""好他"",""好我""]","[""弱他"",""弱我"",""强他"",""强我""]","","","","","","","","yes","","","","","","","","","SRET","EW_formal","","key","j","16.674391752577293","758.3333534223067","422.22223340729164","朋友","坚持","Positive","ability","","","","","","","","","",""
"842","","j","psychophysics","84","230342","0.0-7.0-3.0-0.70","6","5","5","3","3","5","2","5","4","4","5","1","0","1","2","0","1","1","2","4","5","4","5","4","5","4","5","4","4","7","6","6","7","6","7","8","7","7","6","3","3","6","5","2","7","2","5","2","5","1","6","3","6","6","5","2","5","2","3","6","3","5","2","7","5","5","6","7","7","6","5","3","3","6","3","5","2","5","720215098982924288","刘","693","Male","[""坏他"",""坏我"",""好他"",""好我""]","[""弱他"",""弱我"",""强他"",""强我""]","","","","","","","","yes","","","","","","","","","SRET","EW_formal","","key","j","16.674327272727336","758.3333534223067","422.22223340729164","自己","骁勇","Positive","ability","","","","","","","","","",""
"956","","f","psychophysics","85","232301","0.0-7.0-3.0-0.71","6","5","5","3","3","5","2","5","4","4","5","1","0","1","2","0","1","1","2","4","5","4","5","4","5","4","5","4","4","7","6","6","7","6","7","8","7","7","6","3","3","6","5","2","7","2","5","2","5","1","6","3","6","6","5","2","5","2","3","6","3","5","2","7","5","5","6","7","7","6","5","3","3","6","3","5","2","5","720215098982924288","刘","693","Male","[""坏他"",""坏我"",""好他"",""好我""]","[""弱他"",""弱我"",""强他"",""强我""]","","","","","","","","no","","","","","","","","","SRET","EW_formal","","key","f","16.67455555555564","758.3333534223067","422.22223340729164","自己","拙笨","Negative","ability","","","","","","","","","",""
"666","","j","psychophysics","86","233969","0.0-7.0-3.0-0.72","6","5","5","3","3","5","2","5","4","4","5","1","0","1","2","0","1","1","2","4","5","4","5","4","5","4","5","4","4","7","6","6","7","6","7","8","7","7","6","3","3","6","5","2","7","2","5","2","5","1","6","3","6","6","5","2","5","2","3","6","3","5","2","7","5","5","6","7","7","6","5","3","3","6","3","5","2","5","720215098982924288","刘","693","Male","[""坏他"",""坏我"",""好他"",""好我""]","[""弱他"",""弱我"",""强他"",""强我""]","","","","","","","","yes","","","","","","","","","SRET","EW_formal","","key","j","16.674313131313255","758.3333534223067","422.22223340729164","自己","忠勇","Positive","morality","","","","","","","","","",""
"834","","f","psychophysics","87","235804","0.0-7.0-3.0-0.73","6","5","5","3","3","5","2","5","4","4","5","1","0","1","2","0","1","1","2","4","5","4","5","4","5","4","5","4","4","7","6","6","7","6","7","8","7","7","6","3","3","6","5","2","7","2","5","2","5","1","6","3","6","6","5","2","5","2","3","6","3","5","2","7","5","5","6","7","7","6","5","3","3","6","3","5","2","5","720215098982924288","刘","693","Male","[""坏他"",""坏我"",""好他"",""好我""]","[""弱他"",""弱我"",""强他"",""强我""]","","","","","","","","no","","","","","","","","","SRET","EW_formal","","key","f","16.674403669724857","758.3333534223067","422.22223340729164","朋友","浅薄","Negative","ability","","","","","","","","","",""
"549","","j","psychophysics","88","237354","0.0-7.0-3.0-0.74","6","5","5","3","3","5","2","5","4","4","5","1","0","1","2","0","1","1","2","4","5","4","5","4","5","4","5","4","4","7","6","6","7","6","7","8","7","7","6","3","3","6","5","2","7","2","5","2","5","1","6","3","6","6","5","2","5","2","3","6","3","5","2","7","5","5","6","7","7","6","5","3","3","6","3","5","2","5","720215098982924288","刘","693","Male","[""坏他"",""坏我"",""好他"",""好我""]","[""弱他"",""弱我"",""强他"",""强我""]","","","","","","","","yes","","","","","","","","","SRET","EW_formal","","key","j","16.674260869565288","758.3333534223067","422.22223340729164","自己","能干","Positive","ability","","","","","","","","","",""
"697","","j","psychophysics","89","239053","0.0-7.0-3.0-0.75","6","5","5","3","3","5","2","5","4","4","5","1","0","1","2","0","1","1","2","4","5","4","5","4","5","4","5","4","4","7","6","6","7","6","7","8","7","7","6","3","3","6","5","2","7","2","5","2","5","1","6","3","6","6","5","2","5","2","3","6","3","5","2","7","5","5","6","7","7","6","5","3","3","6","3","5","2","5","720215098982924288","刘","693","Male","[""坏他"",""坏我"",""好他"",""好我""]","[""弱他"",""弱我"",""强他"",""强我""]","","","","","","","","yes","","","","","","","","","SRET","EW_formal","","key","j","16.674287128712898","758.3333534223067","422.22223340729164","朋友","博识","Positive","ability","","","","","","","","","",""
"621","","j","psychophysics","90","240677","0.0-7.0-3.0-0.76","6","5","5","3","3","5","2","5","4","4","5","1","0","1","2","0","1","1","2","4","5","4","5","4","5","4","5","4","4","7","6","6","7","6","7","8","7","7","6","3","3","6","5","2","7","2","5","2","5","1","6","3","6","6","5","2","5","2","3","6","3","5","2","7","5","5","6","7","7","6","5","3","3","6","3","5","2","5","720215098982924288","刘","693","Male","[""坏他"",""坏我"",""好他"",""好我""]","[""弱他"",""弱我"",""强他"",""强我""]","","","","","","","","yes","","","","","","","","","SRET","EW_formal","","key","j","16.674489583333223","758.3333534223067","422.22223340729164","自己","精干","Positive","ability","","","","","","","","","",""
"926","","j","psychophysics","91","242606","0.0-7.0-3.0-0.77","6","5","5","3","3","5","2","5","4","4","5","1","0","1","2","0","1","1","2","4","5","4","5","4","5","4","5","4","4","7","6","6","7","6","7","8","7","7","6","3","3","6","5","2","7","2","5","2","5","1","6","3","6","6","5","2","5","2","3","6","3","5","2","7","5","5","6","7","7","6","5","3","3","6","3","5","2","5","720215098982924288","刘","693","Male","[""坏他"",""坏我"",""好他"",""好我""]","[""弱他"",""弱我"",""强他"",""强我""]","","","","","","","","yes","","","","","","","","","SRET","EW_formal","","key","j","16.674617391304395","758.3333534223067","422.22223340729164","自己","礼貌","Positive","morality","","","","","","","","","",""
"560","","f","psychophysics","92","244167","0.0-7.0-3.0-0.78","6","5","5","3","3","5","2","5","4","4","5","1","0","1","2","0","1","1","2","4","5","4","5","4","5","4","5","4","4","7","6","6","7","6","7","8","7","7","6","3","3","6","5","2","7","2","5","2","5","1","6","3","6","6","5","2","5","2","3","6","3","5","2","7","5","5","6","7","7","6","5","3","3","6","3","5","2","5","720215098982924288","刘","693","Male","[""坏他"",""坏我"",""好他"",""好我""]","[""弱他"",""弱我"",""强他"",""强我""]","","","","","","","","no","","","","","","","","","SRET","EW_formal","","key","f","16.67418478260895","758.3333534223067","422.22223340729164","自己","虚假","Negative","morality","","","","","","","","","",""
"604","","f","psychophysics","93","245773","0.0-7.0-3.0-0.79","6","5","5","3","3","5","2","5","4","4","5","1","0","1","2","0","1","1","2","4","5","4","5","4","5","4","5","4","4","7","6","6","7","6","7","8","7","7","6","3","3","6","5","2","7","2","5","2","5","1","6","3","6","6","5","2","5","2","3","6","3","5","2","7","5","5","6","7","7","6","5","3","3","6","3","5","2","5","720215098982924288","刘","693","Male","[""坏他"",""坏我"",""好他"",""好我""]","[""弱他"",""弱我"",""强他"",""强我""]","","","","","","","","no","","","","","","","","","SRET","EW_formal","","key","f","16.67460416666654","758.3333534223067","422.22223340729164","自己","虚伪","Negative","morality","","","","","","","","","",""
"720","","j","psychophysics","94","247495","0.0-7.0-3.0-0.80","6","5","5","3","3","5","2","5","4","4","5","1","0","1","2","0","1","1","2","4","5","4","5","4","5","4","5","4","4","7","6","6","7","6","7","8","7","7","6","3","3","6","5","2","7","2","5","2","5","1","6","3","6","6","5","2","5","2","3","6","3","5","2","7","5","5","6","7","7","6","5","3","3","6","3","5","2","5","720215098982924288","刘","693","Male","[""坏他"",""坏我"",""好他"",""好我""]","[""弱他"",""弱我"",""强他"",""强我""]","","","","","","","","yes","","","","","","","","","SRET","EW_formal","","key","j","16.67388235294122","758.3333534223067","422.22223340729164","朋友","忠诚","Positive","morality","","","","","","","","","",""
"605","","j","psychophysics","95","249102","0.0-7.0-3.0-0.81","6","5","5","3","3","5","2","5","4","4","5","1","0","1","2","0","1","1","2","4","5","4","5","4","5","4","5","4","4","7","6","6","7","6","7","8","7","7","6","3","3","6","5","2","7","2","5","2","5","1","6","3","6","6","5","2","5","2","3","6","3","5","2","7","5","5","6","7","7","6","5","3","3","6","3","5","2","5","720215098982924288","刘","693","Male","[""坏他"",""坏我"",""好他"",""好我""]","[""弱他"",""弱我"",""强他"",""强我""]","","","","","","","","yes","","","","","","","","","SRET","EW_formal","","key","j","16.67431578947366","758.3333534223067","422.22223340729164","自己","高洁","Positive","morality","","","","","","","","","",""
"788","","j","psychophysics","96","250891","0.0-7.0-3.0-0.82","6","5","5","3","3","5","2","5","4","4","5","1","0","1","2","0","1","1","2","4","5","4","5","4","5","4","5","4","4","7","6","6","7","6","7","8","7","7","6","3","3","6","5","2","7","2","5","2","5","1","6","3","6","6","5","2","5","2","3","6","3","5","2","7","5","5","6","7","7","6","5","3","3","6","3","5","2","5","720215098982924288","刘","693","Male","[""坏他"",""坏我"",""好他"",""好我""]","[""弱他"",""弱我"",""强他"",""强我""]","","","","","","","","yes","","","","","","","","","SRET","EW_formal","","key","j","16.674289719626213","758.3333534223067","422.22223340729164","自己","思辨","Positive","ability","","","","","","","","","",""
"950","","j","psychophysics","97","252844","0.0-7.0-3.0-0.83","6","5","5","3","3","5","2","5","4","4","5","1","0","1","2","0","1","1","2","4","5","4","5","4","5","4","5","4","4","7","6","6","7","6","7","8","7","7","6","3","3","6","5","2","7","2","5","2","5","1","6","3","6","6","5","2","5","2","3","6","3","5","2","7","5","5","6","7","7","6","5","3","3","6","3","5","2","5","720215098982924288","刘","693","Male","[""坏他"",""坏我"",""好他"",""好我""]","[""弱他"",""弱我"",""强他"",""强我""]","","","","","","","","yes","","","","","","","","","SRET","EW_formal","","key","j","16.674465517241483","758.3333534223067","422.22223340729164","朋友","仗义","Positive","morality","","","","","","","","","",""
"797","","j","psychophysics","98","254643","0.0-7.0-3.0-0.84","6","5","5","3","3","5","2","5","4","4","5","1","0","1","2","0","1","1","2","4","5","4","5","4","5","4","5","4","4","7","6","6","7","6","7","8","7","7","6","3","3","6","5","2","7","2","5","2","5","1","6","3","6","6","5","2","5","2","3","6","3","5","2","7","5","5","6","7","7","6","5","3","3","6","3","5","2","5","720215098982924288","刘","693","Male","[""坏他"",""坏我"",""好他"",""好我""]","[""弱他"",""弱我"",""强他"",""强我""]","","","","","","","","yes","","","","","","","","","SRET","EW_formal","","key","j","16.674439252336526","758.3333534223067","422.22223340729164","自己","缓慢","Negative","ability","","","","","","","","","",""
"797","","f","psychophysics","99","256446","0.0-7.0-3.0-0.85","6","5","5","3","3","5","2","5","4","4","5","1","0","1","2","0","1","1","2","4","5","4","5","4","5","4","5","4","4","7","6","6","7","6","7","8","7","7","6","3","3","6","5","2","7","2","5","2","5","1","6","3","6","6","5","2","5","2","3","6","3","5","2","7","5","5","6","7","7","6","5","3","3","6","3","5","2","5","720215098982924288","刘","693","Male","[""坏他"",""坏我"",""好他"",""好我""]","[""弱他"",""弱我"",""强他"",""强我""]","","","","","","","","no","","","","","","","","","SRET","EW_formal","","key","f","16.674018691588742","758.3333534223067","422.22223340729164","朋友","素养","Positive","morality","","","","","","","","","",""
"636","","j","psychophysics","100","258084","0.0-7.0-3.0-0.86","6","5","5","3","3","5","2","5","4","4","5","1","0","1","2","0","1","1","2","4","5","4","5","4","5","4","5","4","4","7","6","6","7","6","7","8","7","7","6","3","3","6","5","2","7","2","5","2","5","1","6","3","6","6","5","2","5","2","3","6","3","5","2","7","5","5","6","7","7","6","5","3","3","6","3","5","2","5","720215098982924288","刘","693","Male","[""坏他"",""坏我"",""好他"",""好我""]","[""弱他"",""弱我"",""强他"",""强我""]","","","","","","","","yes","","","","","","","","","SRET","EW_formal","","key","j","16.67413402061859","758.3333534223067","422.22223340729164","自己","主见","Positive","ability","","","","","","","","","",""
"680","","f","psychophysics","101","259765","0.0-7.0-3.0-0.87","6","5","5","3","3","5","2","5","4","4","5","1","0","1","2","0","1","1","2","4","5","4","5","4","5","4","5","4","4","7","6","6","7","6","7","8","7","7","6","3","3","6","5","2","7","2","5","2","5","1","6","3","6","6","5","2","5","2","3","6","3","5","2","7","5","5","6","7","7","6","5","3","3","6","3","5","2","5","720215098982924288","刘","693","Male","[""坏他"",""坏我"",""好他"",""好我""]","[""弱他"",""弱我"",""强他"",""强我""]","","","","","","","","no","","","","","","","","","SRET","EW_formal","","key","f","16.67469000000012","758.3333534223067","422.22223340729164","朋友","低俗","Negative","morality","","","","","","","","","",""
"4341","
    <p><div style='color:white;font-size:35px; line-height:20px;'>计算任务</div></p><br>
    <p><div style='color:red;font-size:25px; line-height:20px;'>接下来，您将看到一些四则运算题，<b>请从键盘选择 0-9 进行反应。</b></div></p>
    <p><div class='footer' style='color:white;font-size:25px; line-height:20px;'>如果对本实验还有不清楚之处，请立即向实验员咨询。</p><p style='color:white;font-size:25px; line-height:20px;'>如果您明白了规则：</p><p style='color:white;font-size:22px; line-height:20px;'>请按 继续 进入练习</p>
    </div>
    ","0","html-button-response","102","264107","0.0-7.0-4.0","6","5","5","3","3","5","2","5","4","4","5","1","0","1","2","0","1","1","2","4","5","4","5","4","5","4","5","4","4","7","6","6","7","6","7","8","7","7","6","3","3","6","5","2","7","2","5","2","5","1","6","3","6","6","5","2","5","2","3","6","3","5","2","7","5","5","6","7","7","6","5","3","3","6","3","5","2","5","720215098982924288","刘","693","Male","[""坏他"",""坏我"",""好他"",""好我""]","[""弱他"",""弱我"",""强他"",""强我""]","","","","","","","","","","","","","","","","","SRET_math","math_instructions","Thu Nov 02 2023 20:38:07 GMT+0800 (中国标准时间)","","","","","","","","","","","","","","","","","","",""
"2033","","7","psychophysics","103","266146","0.0-7.0-5.0-0.0","6","5","5","3","3","5","2","5","4","4","5","1","0","1","2","0","1","1","2","4","5","4","5","4","5","4","5","4","4","7","6","6","7","6","7","8","7","7","6","3","3","6","5","2","7","2","5","2","5","1","6","3","6","6","5","2","5","2","3","6","3","5","2","7","5","5","6","7","7","6","5","3","3","6","3","5","2","5","720215098982924288","刘","693","Male","[""坏他"",""坏我"",""好他"",""好我""]","[""弱他"",""弱我"",""强他"",""强我""]","","","","","","","","7","","","","","","","","","SRET","SRET_math_calculate","","key","7","16.67440650406496","758.3333534223067","422.22223340729164","","","","","8-1= ?","7","1","","","","","","",""
"2355","","0","psychophysics","104","268505","0.0-7.0-5.0-0.1","6","5","5","3","3","5","2","5","4","4","5","1","0","1","2","0","1","1","2","4","5","4","5","4","5","4","5","4","4","7","6","6","7","6","7","8","7","7","6","3","3","6","5","2","7","2","5","2","5","1","6","3","6","6","5","2","5","2","3","6","3","5","2","7","5","5","6","7","7","6","5","3","3","6","3","5","2","5","720215098982924288","刘","693","Male","[""坏他"",""坏我"",""好他"",""好我""]","[""弱他"",""弱我"",""强他"",""强我""]","","","","","","","","0","","","","","","","","","SRET","SRET_math_calculate","","key","0","16.67440714285684","758.3333534223067","422.22223340729164","","","","","22-22= ?","0","1","","","","","","",""
"2662","","5","psychophysics","105","271170","0.0-7.0-5.0-0.2","6","5","5","3","3","5","2","5","4","4","5","1","0","1","2","0","1","1","2","4","5","4","5","4","5","4","5","4","4","7","6","6","7","6","7","8","7","7","6","3","3","6","5","2","7","2","5","2","5","1","6","3","6","6","5","2","5","2","3","6","3","5","2","7","5","5","6","7","7","6","5","3","3","6","3","5","2","5","720215098982924288","刘","693","Male","[""坏他"",""坏我"",""好他"",""好我""]","[""弱他"",""弱我"",""强他"",""强我""]","","","","","","","","5","","","","","","","","","SRET","SRET_math_calculate","","key","5","16.673987421383583","758.3333534223067","422.22223340729164","","","","","5/1= ?","5","1","","","","","","",""
"2010","","9","psychophysics","106","273182","0.0-7.0-5.0-0.3","6","5","5","3","3","5","2","5","4","4","5","1","0","1","2","0","1","1","2","4","5","4","5","4","5","4","5","4","4","7","6","6","7","6","7","8","7","7","6","3","3","6","5","2","7","2","5","2","5","1","6","3","6","6","5","2","5","2","3","6","3","5","2","7","5","5","6","7","7","6","5","3","3","6","3","5","2","5","720215098982924288","刘","693","Male","[""坏他"",""坏我"",""好他"",""好我""]","[""弱他"",""弱我"",""强他"",""强我""]","","","","","","","","9","","","","","","","","","SRET","SRET_math_calculate","","key","9","16.674596638655476","758.3333534223067","422.22223340729164","","","","","18/2= ?","9","1","","","","","","",""
"1847","","7","psychophysics","107","275036","0.0-7.0-5.0-0.4","6","5","5","3","3","5","2","5","4","4","5","1","0","1","2","0","1","1","2","4","5","4","5","4","5","4","5","4","4","7","6","6","7","6","7","8","7","7","6","3","3","6","5","2","7","2","5","2","5","1","6","3","6","6","5","2","5","2","3","6","3","5","2","7","5","5","6","7","7","6","5","3","3","6","3","5","2","5","720215098982924288","刘","693","Male","[""坏他"",""坏我"",""好他"",""好我""]","[""弱他"",""弱我"",""强他"",""强我""]","","","","","","","","7","","","","","","","","","SRET","SRET_math_calculate","","key","7","16.67369369369342","758.3333534223067","422.22223340729164","","","","","2+5= ?","7","1","","","","","","",""
"2139","","2","psychophysics","108","277175","0.0-7.0-5.0-0.5","6","5","5","3","3","5","2","5","4","4","5","1","0","1","2","0","1","1","2","4","5","4","5","4","5","4","5","4","4","7","6","6","7","6","7","8","7","7","6","3","3","6","5","2","7","2","5","2","5","1","6","3","6","6","5","2","5","2","3","6","3","5","2","7","5","5","6","7","7","6","5","3","3","6","3","5","2","5","720215098982924288","刘","693","Male","[""坏他"",""坏我"",""好他"",""好我""]","[""弱他"",""弱我"",""强他"",""强我""]","","","","","","","","2","","","","","","","","","SRET","SRET_math_calculate","","key","2","16.674228346456523","758.3333534223067","422.22223340729164","","","","","29-27= ?","2","1","","","","","","",""
"1844","","4","psychophysics","109","279021","0.0-7.0-5.0-0.6","6","5","5","3","3","5","2","5","4","4","5","1","0","1","2","0","1","1","2","4","5","4","5","4","5","4","5","4","4","7","6","6","7","6","7","8","7","7","6","3","3","6","5","2","7","2","5","2","5","1","6","3","6","6","5","2","5","2","3","6","3","5","2","7","5","5","6","7","7","6","5","3","3","6","3","5","2","5","720215098982924288","刘","693","Male","[""坏他"",""坏我"",""好他"",""好我""]","[""弱他"",""弱我"",""强他"",""强我""]","","","","","","","","4","","","","","","","","","SRET","SRET_math_calculate","","key","4","16.67480909090902","758.3333534223067","422.22223340729164","","","","","3+1= ?","4","1","","","","","","",""
"1859","","8","psychophysics","110","280882","0.0-7.0-5.0-0.7","6","5","5","3","3","5","2","5","4","4","5","1","0","1","2","0","1","1","2","4","5","4","5","4","5","4","5","4","4","7","6","6","7","6","7","8","7","7","6","3","3","6","5","2","7","2","5","2","5","1","6","3","6","6","5","2","5","2","3","6","3","5","2","7","5","5","6","7","7","6","5","3","3","6","3","5","2","5","720215098982924288","刘","693","Male","[""坏他"",""坏我"",""好他"",""好我""]","[""弱他"",""弱我"",""强他"",""强我""]","","","","","","","","8","","","","","","","","","SRET","SRET_math_calculate","","key","8","16.674227272727613","758.3333534223067","422.22223340729164","","","","","7+1= ?","8","1","","","","","","",""
"1853","","2","psychophysics","111","282737","0.0-7.0-5.0-0.8","6","5","5","3","3","5","2","5","4","4","5","1","0","1","2","0","1","1","2","4","5","4","5","4","5","4","5","4","4","7","6","6","7","6","7","8","7","7","6","3","3","6","5","2","7","2","5","2","5","1","6","3","6","6","5","2","5","2","3","6","3","5","2","7","5","5","6","7","7","6","5","3","3","6","3","5","2","5","720215098982924288","刘","693","Male","[""坏他"",""坏我"",""好他"",""好我""]","[""弱他"",""弱我"",""强他"",""强我""]","","","","","","","","2","","","","","","","","","SRET","SRET_math_calculate","","key","2","16.674540540540114","758.3333534223067","422.22223340729164","","","","","1+1= ?","2","1","","","","","","",""
"2023","","8","psychophysics","112","284764","0.0-7.0-5.0-0.9","6","5","5","3","3","5","2","5","4","4","5","1","0","1","2","0","1","1","2","4","5","4","5","4","5","4","5","4","4","7","6","6","7","6","7","8","7","7","6","3","3","6","5","2","7","2","5","2","5","1","6","3","6","6","5","2","5","2","3","6","3","5","2","7","5","5","6","7","7","6","5","3","3","6","3","5","2","5","720215098982924288","刘","693","Male","[""坏他"",""坏我"",""好他"",""好我""]","[""弱他"",""弱我"",""强他"",""强我""]","","","","","","","","8","","","","","","","","","SRET","SRET_math_calculate","","key","8","16.673833333333217","758.3333534223067","422.22223340729164","","","","","2+6= ?","8","1","","","","","","",""
"2098","","0","psychophysics","113","286863","0.0-7.0-5.0-0.10","6","5","5","3","3","5","2","5","4","4","5","1","0","1","2","0","1","1","2","4","5","4","5","4","5","4","5","4","4","7","6","6","7","6","7","8","7","7","6","3","3","6","5","2","7","2","5","2","5","1","6","3","6","6","5","2","5","2","3","6","3","5","2","7","5","5","6","7","7","6","5","3","3","6","3","5","2","5","720215098982924288","刘","693","Male","[""坏他"",""坏我"",""好他"",""好我""]","[""弱他"",""弱我"",""强他"",""强我""]","","","","","","","","0","","","","","","","","","SRET","SRET_math_calculate","","key","0","16.674336000000128","758.3333534223067","422.22223340729164","","","","","7*0= ?","0","1","","","","","","",""
"1922","","4","psychophysics","114","288788","0.0-7.0-5.0-0.11","6","5","5","3","3","5","2","5","4","4","5","1","0","1","2","0","1","1","2","4","5","4","5","4","5","4","5","4","4","7","6","6","7","6","7","8","7","7","6","3","3","6","5","2","7","2","5","2","5","1","6","3","6","6","5","2","5","2","3","6","3","5","2","7","5","5","6","7","7","6","5","3","3","6","3","5","2","5","720215098982924288","刘","693","Male","[""坏他"",""坏我"",""好他"",""好我""]","[""弱他"",""弱我"",""强他"",""强我""]","","","","","","","","4","","","","","","","","","SRET","SRET_math_calculate","","key","4","16.67463157894733","758.3333534223067","422.22223340729164","","","","","9-5= ?","4","1","","","","","","",""
"1950","","9","psychophysics","115","290745","0.0-7.0-5.0-0.12","6","5","5","3","3","5","2","5","4","4","5","1","0","1","2","0","1","1","2","4","5","4","5","4","5","4","5","4","4","7","6","6","7","6","7","8","7","7","6","3","3","6","5","2","7","2","5","2","5","1","6","3","6","6","5","2","5","2","3","6","3","5","2","7","5","5","6","7","7","6","5","3","3","6","3","5","2","5","720215098982924288","刘","693","Male","[""坏他"",""坏我"",""好他"",""好我""]","[""弱他"",""弱我"",""强他"",""强我""]","","","","","","","","9","","","","","","","","","SRET","SRET_math_calculate","","key","9","16.674136752136842","758.3333534223067","422.22223340729164","","","","","7+2= ?","9","1","","","","","","",""
"3797","","8","psychophysics","116","294545","0.0-7.0-5.0-0.13","6","5","5","3","3","5","2","5","4","4","5","1","0","1","2","0","1","1","2","4","5","4","5","4","5","4","5","4","4","7","6","6","7","6","7","8","7","7","6","3","3","6","5","2","7","2","5","2","5","1","6","3","6","6","5","2","5","2","3","6","3","5","2","7","5","5","6","7","7","6","5","3","3","6","3","5","2","5","720215098982924288","刘","693","Male","[""坏他"",""坏我"",""好他"",""好我""]","[""弱他"",""弱我"",""强他"",""强我""]","","","","","","","","8","","","","","","","","","SRET","SRET_math_calculate","","key","8","16.674202643171782","758.3333534223067","422.22223340729164","","","","","13-5= ?","8","1","","","","","","",""
"2369","","0","psychophysics","117","296916","0.0-7.0-5.0-0.14","6","5","5","3","3","5","2","5","4","4","5","1","0","1","2","0","1","1","2","4","5","4","5","4","5","4","5","4","4","7","6","6","7","6","7","8","7","7","6","3","3","6","5","2","7","2","5","2","5","1","6","3","6","6","5","2","5","2","3","6","3","5","2","7","5","5","6","7","7","6","5","3","3","6","3","5","2","5","720215098982924288","刘","693","Male","[""坏他"",""坏我"",""好他"",""好我""]","[""弱他"",""弱我"",""强他"",""强我""]","","","","","","","","0","","","","","","","","","SRET","SRET_math_calculate","","key","0","16.674453900709207","758.3333534223067","422.22223340729164","","","","","32-32= ?","0","1","","","","","","",""
"1812","","8","psychophysics","118","298731","0.0-7.0-5.0-0.15","6","5","5","3","3","5","2","5","4","4","5","1","0","1","2","0","1","1","2","4","5","4","5","4","5","4","5","4","4","7","6","6","7","6","7","8","7","7","6","3","3","6","5","2","7","2","5","2","5","1","6","3","6","6","5","2","5","2","3","6","3","5","2","7","5","5","6","7","7","6","5","3","3","6","3","5","2","5","720215098982924288","刘","693","Male","[""坏他"",""坏我"",""好他"",""好我""]","[""弱他"",""弱我"",""强他"",""强我""]","","","","","","","","8","","","","","","","","","SRET","SRET_math_calculate","","key","8","16.674314814814824","758.3333534223067","422.22223340729164","","","","","1+7= ?","8","1","","","","","","",""
"1801","","9","psychophysics","119","300534","0.0-7.0-5.0-0.16","6","5","5","3","3","5","2","5","4","4","5","1","0","1","2","0","1","1","2","4","5","4","5","4","5","4","5","4","4","7","6","6","7","6","7","8","7","7","6","3","3","6","5","2","7","2","5","2","5","1","6","3","6","6","5","2","5","2","3","6","3","5","2","7","5","5","6","7","7","6","5","3","3","6","3","5","2","5","720215098982924288","刘","693","Male","[""坏他"",""坏我"",""好他"",""好我""]","[""弱他"",""弱我"",""强他"",""强我""]","","","","","","","","9","","","","","","","","","SRET","SRET_math_calculate","","key","9","16.674728971963127","758.3333534223067","422.22223340729164","","","","","4+5= ?","9","1","","","","","","",""
"1803","","3","psychophysics","120","302340","0.0-7.0-5.0-0.17","6","5","5","3","3","5","2","5","4","4","5","1","0","1","2","0","1","1","2","4","5","4","5","4","5","4","5","4","4","7","6","6","7","6","7","8","7","7","6","3","3","6","5","2","7","2","5","2","5","1","6","3","6","6","5","2","5","2","3","6","3","5","2","7","5","5","6","7","7","6","5","3","3","6","3","5","2","5","720215098982924288","刘","693","Male","[""坏他"",""坏我"",""好他"",""好我""]","[""弱他"",""弱我"",""强他"",""强我""]","","","","","","","","3","","","","","","","","","SRET","SRET_math_calculate","","key","3","16.67437383177566","758.3333534223067","422.22223340729164","","","","","2+1= ?","3","1","","","","","","",""
"2037","","5","psychophysics","121","304380","0.0-7.0-5.0-0.18","6","5","5","3","3","5","2","5","4","4","5","1","0","1","2","0","1","1","2","4","5","4","5","4","5","4","5","4","4","7","6","6","7","6","7","8","7","7","6","3","3","6","5","2","7","2","5","2","5","1","6","3","6","6","5","2","5","2","3","6","3","5","2","7","5","5","6","7","7","6","5","3","3","6","3","5","2","5","720215098982924288","刘","693","Male","[""坏他"",""坏我"",""好他"",""好我""]","[""弱他"",""弱我"",""强他"",""强我""]","","","","","","","","5","","","","","","","","","SRET","SRET_math_calculate","","key","5","16.67445454545452","758.3333534223067","422.22223340729164","","","","","14-9= ?","5","1","","","","","","",""
"1866","","0","psychophysics","122","306251","0.0-7.0-5.0-0.19","6","5","5","3","3","5","2","5","4","4","5","1","0","1","2","0","1","1","2","4","5","4","5","4","5","4","5","4","4","7","6","6","7","6","7","8","7","7","6","3","3","6","5","2","7","2","5","2","5","1","6","3","6","6","5","2","5","2","3","6","3","5","2","7","5","5","6","7","7","6","5","3","3","6","3","5","2","5","720215098982924288","刘","693","Male","[""坏他"",""坏我"",""好他"",""好我""]","[""弱他"",""弱我"",""强他"",""强我""]","","","","","","","","0","","","","","","","","","SRET","SRET_math_calculate","","key","0","16.673839285714557","758.3333534223067","422.22223340729164","","","","","6*0= ?","0","1","","","","","","",""
"1754","","3","psychophysics","123","308006","0.0-7.0-5.0-0.20","6","5","5","3","3","5","2","5","4","4","5","1","0","1","2","0","1","1","2","4","5","4","5","4","5","4","5","4","4","7","6","6","7","6","7","8","7","7","6","3","3","6","5","2","7","2","5","2","5","1","6","3","6","6","5","2","5","2","3","6","3","5","2","7","5","5","6","7","7","6","5","3","3","6","3","5","2","5","720215098982924288","刘","693","Male","[""坏他"",""坏我"",""好他"",""好我""]","[""弱他"",""弱我"",""强他"",""强我""]","","","","","","","","3","","","","","","","","","SRET","SRET_math_calculate","","key","3","16.674807692307624","758.3333534223067","422.22223340729164","","","","","1+2= ?","3","1","","","","","","",""
"1853","","8","psychophysics","124","309862","0.0-7.0-5.0-0.21","6","5","5","3","3","5","2","5","4","4","5","1","0","1","2","0","1","1","2","4","5","4","5","4","5","4","5","4","4","7","6","6","7","6","7","8","7","7","6","3","3","6","5","2","7","2","5","2","5","1","6","3","6","6","5","2","5","2","3","6","3","5","2","7","5","5","6","7","7","6","5","3","3","6","3","5","2","5","720215098982924288","刘","693","Male","[""坏他"",""坏我"",""好他"",""好我""]","[""弱他"",""弱我"",""强他"",""强我""]","","","","","","","","8","","","","","","","","","SRET","SRET_math_calculate","","key","8","16.67449090909054","758.3333534223067","422.22223340729164","","","","","6+2= ?","8","1","","","","","","",""
"1774","","5","psychophysics","125","311639","0.0-7.0-5.0-0.22","6","5","5","3","3","5","2","5","4","4","5","1","0","1","2","0","1","1","2","4","5","4","5","4","5","4","5","4","4","7","6","6","7","6","7","8","7","7","6","3","3","6","5","2","7","2","5","2","5","1","6","3","6","6","5","2","5","2","3","6","3","5","2","7","5","5","6","7","7","6","5","3","3","6","3","5","2","5","720215098982924288","刘","693","Male","[""坏他"",""坏我"",""好他"",""好我""]","[""弱他"",""弱我"",""强他"",""强我""]","","","","","","","","5","","","","","","","","","SRET","SRET_math_calculate","","key","5","16.674113207547222","758.3333534223067","422.22223340729164","","","","","10-5= ?","5","1","","","","","","",""
"2024","","3","psychophysics","126","313664","0.0-7.0-5.0-0.23","6","5","5","3","3","5","2","5","4","4","5","1","0","1","2","0","1","1","2","4","5","4","5","4","5","4","5","4","4","7","6","6","7","6","7","8","7","7","6","3","3","6","5","2","7","2","5","2","5","1","6","3","6","6","5","2","5","2","3","6","3","5","2","7","5","5","6","7","7","6","5","3","3","6","3","5","2","5","720215098982924288","刘","693","Male","[""坏他"",""坏我"",""好他"",""好我""]","[""弱他"",""弱我"",""强他"",""强我""]","","","","","","","","3","","","","","","","","","SRET","SRET_math_calculate","","key","3","16.674424999999854","758.3333534223067","422.22223340729164","","","","","6/2= ?","3","1","","","","","","",""
"4311","","8","psychophysics","127","317978","0.0-7.0-5.0-0.24","6","5","5","3","3","5","2","5","4","4","5","1","0","1","2","0","1","1","2","4","5","4","5","4","5","4","5","4","4","7","6","6","7","6","7","8","7","7","6","3","3","6","5","2","7","2","5","2","5","1","6","3","6","6","5","2","5","2","3","6","3","5","2","7","5","5","6","7","7","6","5","3","3","6","3","5","2","5","720215098982924288","刘","693","Male","[""坏他"",""坏我"",""好他"",""好我""]","[""弱他"",""弱我"",""强他"",""强我""]","","","","","","","","8","","","","","","","","","SRET","SRET_math_calculate","","key","8","16.674201550387664","758.3333534223067","422.22223340729164","","","","","72/9= ?","8","1","","","","","","",""
"2993","","2","psychophysics","128","320972","0.0-7.0-5.0-0.25","6","5","5","3","3","5","2","5","4","4","5","1","0","1","2","0","1","1","2","4","5","4","5","4","5","4","5","4","4","7","6","6","7","6","7","8","7","7","6","3","3","6","5","2","7","2","5","2","5","1","6","3","6","6","5","2","5","2","3","6","3","5","2","7","5","5","6","7","7","6","5","3","3","6","3","5","2","5","720215098982924288","刘","693","Male","[""坏他"",""坏我"",""好他"",""好我""]","[""弱他"",""弱我"",""强他"",""强我""]","","","","","","","","2","","","","","","","","","SRET","SRET_math_calculate","","key","2","16.674776536312706","758.3333534223067","422.22223340729164","","","","","19-17= ?","2","1","","","","","","",""
"2087","","7","psychophysics","129","323064","0.0-7.0-5.0-0.26","6","5","5","3","3","5","2","5","4","4","5","1","0","1","2","0","1","1","2","4","5","4","5","4","5","4","5","4","4","7","6","6","7","6","7","8","7","7","6","3","3","6","5","2","7","2","5","2","5","1","6","3","6","6","5","2","5","2","3","6","3","5","2","7","5","5","6","7","7","6","5","3","3","6","3","5","2","5","720215098982924288","刘","693","Male","[""坏他"",""坏我"",""好他"",""好我""]","[""弱他"",""弱我"",""强他"",""强我""]","","","","","","","","7","","","","","","","","","SRET","SRET_math_calculate","","key","7","16.67420161290295","758.3333534223067","422.22223340729164","","","","","9-2= ?","7","1","","","","","","",""
"1904","","8","psychophysics","130","324990","0.0-7.0-5.0-0.27","6","5","5","3","3","5","2","5","4","4","5","1","0","1","2","0","1","1","2","4","5","4","5","4","5","4","5","4","4","7","6","6","7","6","7","8","7","7","6","3","3","6","5","2","7","2","5","2","5","1","6","3","6","6","5","2","5","2","3","6","3","5","2","7","5","5","6","7","7","6","5","3","3","6","3","5","2","5","720215098982924288","刘","693","Male","[""坏他"",""坏我"",""好他"",""好我""]","[""弱他"",""弱我"",""强他"",""强我""]","","","","","","","","8","","","","","","","","","SRET","SRET_math_calculate","","key","8","16.674521739130494","758.3333534223067","422.22223340729164","","","","","4*2= ?","8","1","","","","","","",""
"1895","","9","psychophysics","131","326888","0.0-7.0-5.0-0.28","6","5","5","3","3","5","2","5","4","4","5","1","0","1","2","0","1","1","2","4","5","4","5","4","5","4","5","4","4","7","6","6","7","6","7","8","7","7","6","3","3","6","5","2","7","2","5","2","5","1","6","3","6","6","5","2","5","2","3","6","3","5","2","7","5","5","6","7","7","6","5","3","3","6","3","5","2","5","720215098982924288","刘","693","Male","[""坏他"",""坏我"",""好他"",""好我""]","[""弱他"",""弱我"",""强他"",""强我""]","","","","","","","","9","","","","","","","","","SRET","SRET_math_calculate","","key","9","16.67441071428558","758.3333534223067","422.22223340729164","","","","","3*3= ?","9","1","","","","","","",""
"1877","","9","psychophysics","132","328774","0.0-7.0-5.0-0.29","6","5","5","3","3","5","2","5","4","4","5","1","0","1","2","0","1","1","2","4","5","4","5","4","5","4","5","4","4","7","6","6","7","6","7","8","7","7","6","3","3","6","5","2","7","2","5","2","5","1","6","3","6","6","5","2","5","2","3","6","3","5","2","7","5","5","6","7","7","6","5","3","3","6","3","5","2","5","720215098982924288","刘","693","Male","[""坏他"",""坏我"",""好他"",""好我""]","[""弱他"",""弱我"",""强他"",""强我""]","","","","","","","","9","","","","","","","","","SRET","SRET_math_calculate","","key","9","16.673919642857072","758.3333534223067","422.22223340729164","","","","","8+1= ?","9","1","","","","","","",""
"2113","","2","psychophysics","133","330893","0.0-7.0-5.0-0.30","6","5","5","3","3","5","2","5","4","4","5","1","0","1","2","0","1","1","2","4","5","4","5","4","5","4","5","4","4","7","6","6","7","6","7","8","7","7","6","3","3","6","5","2","7","2","5","2","5","1","6","3","6","6","5","2","5","2","3","6","3","5","2","7","5","5","6","7","7","6","5","3","3","6","3","5","2","5","720215098982924288","刘","693","Male","[""坏他"",""坏我"",""好他"",""好我""]","[""弱他"",""弱我"",""强他"",""强我""]","","","","","","","","2","","","","","","","","","SRET","SRET_math_calculate","","key","2","16.674346456692856","758.3333534223067","422.22223340729164","","","","","18/9= ?","2","1","","","","","","",""
"2897","","8","psychophysics","134","333795","0.0-7.0-5.0-0.31","6","5","5","3","3","5","2","5","4","4","5","1","0","1","2","0","1","1","2","4","5","4","5","4","5","4","5","4","4","7","6","6","7","6","7","8","7","7","6","3","3","6","5","2","7","2","5","2","5","1","6","3","6","6","5","2","5","2","3","6","3","5","2","7","5","5","6","7","7","6","5","3","3","6","3","5","2","5","720215098982924288","刘","693","Male","[""坏他"",""坏我"",""好他"",""好我""]","[""弱他"",""弱我"",""强他"",""强我""]","","","","","","","","8","","","","","","","","","SRET","SRET_math_calculate","","key","8","16.674664739884417","758.3333534223067","422.22223340729164","","","","","11-3= ?","8","1","","","","","","",""
"1959","","0","psychophysics","135","335757","0.0-7.0-5.0-0.32","6","5","5","3","3","5","2","5","4","4","5","1","0","1","2","0","1","1","2","4","5","4","5","4","5","4","5","4","4","7","6","6","7","6","7","8","7","7","6","3","3","6","5","2","7","2","5","2","5","1","6","3","6","6","5","2","5","2","3","6","3","5","2","7","5","5","6","7","7","6","5","3","3","6","3","5","2","5","720215098982924288","刘","693","Male","[""坏他"",""坏我"",""好他"",""好我""]","[""弱他"",""弱我"",""强他"",""强我""]","","","","","","","","0","","","","","","","","","SRET","SRET_math_calculate","","key","0","16.674655172413875","758.3333534223067","422.22223340729164","","","","","9-9= ?","0","1","","","","","","",""
"1848","","1","psychophysics","136","337612","0.0-7.0-5.0-0.33","6","5","5","3","3","5","2","5","4","4","5","1","0","1","2","0","1","1","2","4","5","4","5","4","5","4","5","4","4","7","6","6","7","6","7","8","7","7","6","3","3","6","5","2","7","2","5","2","5","1","6","3","6","6","5","2","5","2","3","6","3","5","2","7","5","5","6","7","7","6","5","3","3","6","3","5","2","5","720215098982924288","刘","693","Male","[""坏他"",""坏我"",""好他"",""好我""]","[""弱他"",""弱我"",""强他"",""强我""]","","","","","","","","1","","","","","","","","","SRET","SRET_math_calculate","","key","1","16.67460000000005","758.3333534223067","422.22223340729164","","","","","10-9= ?","1","1","","","","","","",""
"1846","","5","psychophysics","137","339464","0.0-7.0-5.0-0.34","6","5","5","3","3","5","2","5","4","4","5","1","0","1","2","0","1","1","2","4","5","4","5","4","5","4","5","4","4","7","6","6","7","6","7","8","7","7","6","3","3","6","5","2","7","2","5","2","5","1","6","3","6","6","5","2","5","2","3","6","3","5","2","7","5","5","6","7","7","6","5","3","3","6","3","5","2","5","720215098982924288","刘","693","Male","[""坏他"",""坏我"",""好他"",""好我""]","[""弱他"",""弱我"",""强他"",""强我""]","","","","","","","","5","","","","","","","","","SRET","SRET_math_calculate","","key","5","16.67460360360355","758.3333534223067","422.22223340729164","","","","","15-10= ?","5","1","","","","","","",""
"2132","","0","psychophysics","138","341600","0.0-7.0-5.0-0.35","6","5","5","3","3","5","2","5","4","4","5","1","0","1","2","0","1","1","2","4","5","4","5","4","5","4","5","4","4","7","6","6","7","6","7","8","7","7","6","3","3","6","5","2","7","2","5","2","5","1","6","3","6","6","5","2","5","2","3","6","3","5","2","7","5","5","6","7","7","6","5","3","3","6","3","5","2","5","720215098982924288","刘","693","Male","[""坏他"",""坏我"",""好他"",""好我""]","[""弱他"",""弱我"",""强他"",""强我""]","","","","","","","","0","","","","","","","","","SRET","SRET_math_calculate","","key","0","16.674157480315092","758.3333534223067","422.22223340729164","","","","","1-1= ?","0","1","","","","","","",""
