"rt","stimulus","response","trial_type","trial_index","time_elapsed","internal_node_id","ses_1","ses_2","ses_3","ses_4","ses_5","ses_6","ses_7","ses_8","ses_9","ses_10","coreself_1","coreself_2","coreself_3","coreself_4","coreself_5","coreself_6","coreself_7","coreself_8","coreself_9","coreself_10","SGPS_1","SGPS_2","SGPS_3","SGPS_4","SGPS_5","SGPS_6","SGPS_7","SGPS_8","SGPS_9","NPI1","NPI2","NPI3","NPI4","NPI5","NPI6","NPI7","NPI8","NPI9","NPI10","NPI11","NPI12","NPI13","NPI14","NPI15","hsns_1","hsns_2","hsns_3","hsns_4","hsns_5","trap1","hsns_6","hsns_7","hsns_8","hsns_9","hsns_10","subj_idx","friend_name","ParticipantID","value","success","user_agent","responses","item_order","radio_event_ids","radio_event_times","key_event_times","mouse_event_times","straightlining","zigzagging","honeypot","timeout","failed_images","failed_audio","failed_video","view_history","response_type","key_press","avg_frame_time","center_x","center_y","correct_response","correct","identity","Image","word","condition","task_id","screen_id","time_stamp","version_attrib","version_target","IAT","RT","varname","summary","version_attrib2","version_target2","question_order","correct_answer","trap1_item"
"62768","
   <p><div style = ""color: white;font-size:25px;"">您好，欢迎参加本次实验。</div> </p>
   <p><div style = ""color: white;font-size:25px;"">为充分保障您的权利，请确保您已经知晓并同意《参与实验同意书》以及《数据公开知情同意书》。</div></p>
   <p><div style = ""color: white;font-size:25px;"">如果您未见过上述内容，请咨询实验员。</div></p>
   <p><div style = ""color: white;font-size:25px;"">如果您选择继续实验，则表示您已经清楚两份知情同意书的内容并同意。</div></p>
   <p><div style = ""color: pink;font-size:30px;"">请确保您记得day0的实验编号，您将在本次实验输入该编号，若您忘记，请咨询实验员后作答。</div></p>
   <p><div style = ""color: lightblue;font-size:25px;"">请您尽可能认真地作答，我们将依据您在各问卷和按键任务中的作答质量发放报酬。</div></p>
   <p> <div style = ""color: green;font-size:25px;""><按空格键至下页></div> </p>
   "," ","html-keyboard-response","0","62775","0.0-0.0","4","4","4","4","4","4","4","4","4","4","5","5","5","5","5","5","5","5","5","5","1","1","1","1","1","1","1","1","1","0","1","0","0","1","1","0","1","1","0","0","1","0","1","0","5","1","5","2","1","","4","4","2","5","1","786709021557137410","王","336","","","","","","","","","","","","","","","","","","","","","","","","","","","","","","","","","","","","","","","","","",""
"","","","call-function","1","62783","0.0-1.0-0.0","4","4","4","4","4","4","4","4","4","4","5","5","5","5","5","5","5","5","5","5","1","1","1","1","1","1","1","1","1","0","1","0","0","1","1","0","1","1","0","0","1","0","1","0","5","1","5","2","1","","4","4","2","5","1","786709021557137410","王","336","","","","","","","","","","","","","","","","","","","","","","","","","","","","","","","","","","","","","","","","","",""
"40754","","{""friend_name"":""王"",""ParticipantID"":""336""}","survey-html-form","2","103540","0.0-1.0-1.0","4","4","4","4","4","4","4","4","4","4","5","5","5","5","5","5","5","5","5","5","1","1","1","1","1","1","1","1","1","0","1","0","0","1","1","0","1","1","0","0","1","0","1","0","5","1","5","2","1","","4","4","2","5","1","786709021557137410","王","336","","","","","","","","","","","","","","","","","","","","","","","","","","","","","","","","","","","","","","","","","",""
"","","","fullscreen","3","107319","0.0-2.0","4","4","4","4","4","4","4","4","4","4","5","5","5","5","5","5","5","5","5","5","1","1","1","1","1","1","1","1","1","0","1","0","0","1","1","0","1","1","0","0","1","0","1","0","5","1","5","2","1","","4","4","2","5","1","786709021557137410","王","336","","true","{}","","","","","","","","","","","","","","","","","","","","","","","","","","","","","","","","","","","","","","",""
"30042","","{""Q01"":""4"",""Q02"":""4"",""Q03"":""4"",""Q04"":""4"",""Q05"":""4"",""Q06"":""4"",""Q07"":""4"",""Q08"":""4"",""Q09"":""4"",""Q10"":""4""}","survey-template","4","137387","0.0-3.0","4","4","4","4","4","4","4","4","4","4","5","5","5","5","5","5","5","5","5","5","1","1","1","1","1","1","1","1","1","0","1","0","0","1","1","0","1","1","0","0","1","0","1","0","5","1","5","2","1","","4","4","2","5","1","786709021557137410","王","336","","","","{""Q01"":""4"",""Q02"":""4"",""Q03"":""4"",""Q04"":""4"",""Q05"":""4"",""Q06"":""4"",""Q07"":""4"",""Q08"":""4"",""Q09"":""4"",""Q10"":""4""}","[0,1,2,3,4,5,6,7,8,9]","[""Q01"",""Q02"",""Q03"",""Q04"",""Q05"",""Q06"",""Q07"",""Q08"",""Q09"",""Q10""]","[4113,5404.0999999996275,6956.299999999814,8384.69999999972,10287.899999999907,11779.899999999907,12859.799999999814,18148.299999999814,20456.19999999972,21675.899999999907]","[]","[4113,5404.0999999996275,6956.299999999814,8384.69999999972,10287.899999999907,11779.899999999907,12859.799999999814,18148.299999999814,20456.19999999972,21675.899999999907,30035.799999999814]","0.5","0.5555555555555556","0","","","","","","","","","","","","","","","","","","","","","","","","","","","","","",""
"33522.5","","{""Q01"":""5"",""Q02"":""5"",""Q03"":""5"",""Q04"":""5"",""Q05"":""5"",""Q06"":""5"",""Q07"":""5"",""Q08"":""5"",""Q09"":""5"",""Q10"":""5""}","survey-template","5","170936","0.0-4.0","4","4","4","4","4","4","4","4","4","4","5","5","5","5","5","5","5","5","5","5","1","1","1","1","1","1","1","1","1","0","1","0","0","1","1","0","1","1","0","0","1","0","1","0","5","1","5","2","1","","4","4","2","5","1","786709021557137410","王","336","","","","{""Q01"":""5"",""Q02"":""5"",""Q03"":""5"",""Q04"":""5"",""Q05"":""5"",""Q06"":""5"",""Q07"":""5"",""Q08"":""5"",""Q09"":""5"",""Q10"":""5""}","[0,1,2,3,4,5,6,7,8,9]","[""Q01"",""Q02"",""Q03"",""Q04"",""Q05"",""Q06"",""Q07"",""Q09"",""Q10"",""Q08""]","[3137.899999999907,4694,5797.799999999814,7054,8627.200000000186,10325.399999999907,11677.600000000093,15754.299999999814,17621.399999999907,29065.899999999907]","[]","[3137.899999999907,4694,5797.799999999814,7054,8627.200000000186,10325.399999999907,11677.600000000093,13865.899999999907,15754.299999999814,17621.399999999907,22557.899999999907,28373.899999999907,29065.899999999907,33513.60000000009]","0.6","0.7777777777777778","0","","","","","","","","","","","","","","","","","","","","","","","","","","","","","",""
"","","","preload","6","172100","0.0-5.0","4","4","4","4","4","4","4","4","4","4","5","5","5","5","5","5","5","5","5","5","1","1","1","1","1","1","1","1","1","0","1","0","0","1","1","0","1","1","0","0","1","0","1","0","5","1","5","2","1","","4","4","2","5","1","786709021557137410","王","336","","true","","","","","","","","","","","false","[]","[]","[]","","","","","","","","","","","","","","","","","","","","","","","","","",""
"28180","","","instructions","7","200282","0.0-6.0","4","4","4","4","4","4","4","4","4","4","5","5","5","5","5","5","5","5","5","5","1","1","1","1","1","1","1","1","1","0","1","0","0","1","1","0","1","1","0","0","1","0","1","0","5","1","5","2","1","","4","4","2","5","1","786709021557137410","王","336","","","","","","","","","","","","","","","","","[{""page_index"":0,""viewing_time"":28179}]","","","","","","","","","","","","","","","","","","","","","","","","",""
"63768","","","instructions","8","264057","0.0-7.0-0.0-0.0","4","4","4","4","4","4","4","4","4","4","5","5","5","5","5","5","5","5","5","5","1","1","1","1","1","1","1","1","1","0","1","0","0","1","1","0","1","1","0","0","1","0","1","0","5","1","5","2","1","","4","4","2","5","1","786709021557137410","王","336","","","","","","","","","","","","","","","","","[{""page_index"":0,""viewing_time"":47648},{""page_index"":1,""viewing_time"":13464},{""page_index"":2,""viewing_time"":2656}]","","","","","","","","","","","","","","","","","","","","","","","","",""
"null","","null","psychophysics","9","266275","0.0-7.0-0.0-1.0-0.0-0.0","4","4","4","4","4","4","4","4","4","4","5","5","5","5","5","5","5","5","5","5","1","1","1","1","1","1","1","1","1","0","1","0","0","1","1","0","1","1","0","0","1","0","1","0","5","1","5","2","1","","4","4","2","5","1","786709021557137410","王","336","","","","null","","","","","","","","","","","","","","key","null","16.91564615384604","683","380","j","false","nonmatch","img/triangle.png","六边","三角","ALT1_1","prac_ALT1_1","","","","","","","","","","","",""
"null","<span class='add_' style='color:yellow; font-size: 70px;'> 太慢! </span>","null","html-keyboard-response","10","266779","0.0-7.0-0.0-1.0-0.0-1.0","4","4","4","4","4","4","4","4","4","4","5","5","5","5","5","5","5","5","5","5","1","1","1","1","1","1","1","1","1","0","1","0","0","1","1","0","1","1","0","0","1","0","1","0","5","1","5","2","1","","4","4","2","5","1","786709021557137410","王","336","","","","","","","","","","","","","","","","","","","","","","","","","","","","","","feedback_test","","","","","","","","","","","",""
"1159","","j","psychophysics","11","268944","0.0-7.0-0.0-1.0-0.0-0.1","4","4","4","4","4","4","4","4","4","4","5","5","5","5","5","5","5","5","5","5","1","1","1","1","1","1","1","1","1","0","1","0","0","1","1","0","1","1","0","0","1","0","1","0","5","1","5","2","1","","4","4","2","5","1","786709021557137410","王","336","","","","nonmatch","","","","","","","","","","","","","","key","j","16.663860465116553","683","380","f","false","match","img/hexagon.png","六边","六边","ALT1_1","prac_ALT1_1","","","","","","","","","","","",""
"null","<span style='color:red; font-size: 70px;'>错误! </span>","null","html-keyboard-response","12","269447","0.0-7.0-0.0-1.0-0.0-1.1","4","4","4","4","4","4","4","4","4","4","5","5","5","5","5","5","5","5","5","5","1","1","1","1","1","1","1","1","1","0","1","0","0","1","1","0","1","1","0","0","1","0","1","0","5","1","5","2","1","","4","4","2","5","1","786709021557137410","王","336","","","","","","","","","","","","","","","","","","","","","","","","","","","","","","feedback_test","","","","","","","","","","","",""
"905","","j","psychophysics","13","271356","0.0-7.0-0.0-1.0-0.0-0.2","4","4","4","4","4","4","4","4","4","4","5","5","5","5","5","5","5","5","5","5","1","1","1","1","1","1","1","1","1","0","1","0","0","1","1","0","1","1","0","0","1","0","1","0","5","1","5","2","1","","4","4","2","5","1","786709021557137410","王","336","","","","nonmatch","","","","","","","","","","","","","","key","j","16.663842105262773","683","380","j","true","nonmatch","img/triangle.png","梯形","三角","ALT1_1","prac_ALT1_1","","","","","","","","","","","",""
"null","<span style='color:GreenYellow; font-size: 70px;'>正确! </span>","null","html-keyboard-response","14","271858","0.0-7.0-0.0-1.0-0.0-1.2","4","4","4","4","4","4","4","4","4","4","5","5","5","5","5","5","5","5","5","5","1","1","1","1","1","1","1","1","1","0","1","0","0","1","1","0","1","1","0","0","1","0","1","0","5","1","5","2","1","","4","4","2","5","1","786709021557137410","王","336","","","","","","","","","","","","","","","","","","","","","","","","","","","","","","feedback_test","","","","","","","","","","","",""
"994","","j","psychophysics","15","273855","0.0-7.0-0.0-1.0-0.0-0.3","4","4","4","4","4","4","4","4","4","4","5","5","5","5","5","5","5","5","5","5","1","1","1","1","1","1","1","1","1","0","1","0","0","1","1","0","1","1","0","0","1","0","1","0","5","1","5","2","1","","4","4","2","5","1","786709021557137410","王","336","","","","nonmatch","","","","","","","","","","","","","","key","j","16.663268907563058","683","380","j","true","nonmatch","img/hexagon.png","椭圆","六边","ALT1_1","prac_ALT1_1","","","","","","","","","","","",""
"null","<span style='color:GreenYellow; font-size: 70px;'>正确! </span>","null","html-keyboard-response","16","274357","0.0-7.0-0.0-1.0-0.0-1.3","4","4","4","4","4","4","4","4","4","4","5","5","5","5","5","5","5","5","5","5","1","1","1","1","1","1","1","1","1","0","1","0","0","1","1","0","1","1","0","0","1","0","1","0","5","1","5","2","1","","4","4","2","5","1","786709021557137410","王","336","","","","","","","","","","","","","","","","","","","","","","","","","","","","","","feedback_test","","","","","","","","","","","",""
"909","","f","psychophysics","17","276271","0.0-7.0-0.0-1.0-0.0-0.4","4","4","4","4","4","4","4","4","4","4","5","5","5","5","5","5","5","5","5","5","1","1","1","1","1","1","1","1","1","0","1","0","0","1","1","0","1","1","0","0","1","0","1","0","5","1","5","2","1","","4","4","2","5","1","786709021557137410","王","336","","","","match","","","","","","","","","","","","","","key","f","16.66340350877216","683","380","f","true","match","img/ellipse.png","椭圆","椭圆","ALT1_1","prac_ALT1_1","","","","","","","","","","","",""
"null","<span style='color:GreenYellow; font-size: 70px;'>正确! </span>","null","html-keyboard-response","18","276774","0.0-7.0-0.0-1.0-0.0-1.4","4","4","4","4","4","4","4","4","4","4","5","5","5","5","5","5","5","5","5","5","1","1","1","1","1","1","1","1","1","0","1","0","0","1","1","0","1","1","0","0","1","0","1","0","5","1","5","2","1","","4","4","2","5","1","786709021557137410","王","336","","","","","","","","","","","","","","","","","","","","","","","","","","","","","","feedback_test","","","","","","","","","","","",""
"1110","","j","psychophysics","19","278887","0.0-7.0-0.0-1.0-0.0-0.5","4","4","4","4","4","4","4","4","4","4","5","5","5","5","5","5","5","5","5","5","1","1","1","1","1","1","1","1","1","0","1","0","0","1","1","0","1","1","0","0","1","0","1","0","5","1","5","2","1","","4","4","2","5","1","786709021557137410","王","336","","","","nonmatch","","","","","","","","","","","","","","key","j","16.664412698412818","683","380","j","true","nonmatch","img/triangle.png","椭圆","三角","ALT1_1","prac_ALT1_1","","","","","","","","","","","",""
"null","<span style='color:GreenYellow; font-size: 70px;'>正确! </span>","null","html-keyboard-response","20","279390","0.0-7.0-0.0-1.0-0.0-1.5","4","4","4","4","4","4","4","4","4","4","5","5","5","5","5","5","5","5","5","5","1","1","1","1","1","1","1","1","1","0","1","0","0","1","1","0","1","1","0","0","1","0","1","0","5","1","5","2","1","","4","4","2","5","1","786709021557137410","王","336","","","","","","","","","","","","","","","","","","","","","","","","","","","","","","feedback_test","","","","","","","","","","","",""
"952","","j","psychophysics","21","281344","0.0-7.0-0.0-1.0-0.0-0.6","4","4","4","4","4","4","4","4","4","4","5","5","5","5","5","5","5","5","5","5","1","1","1","1","1","1","1","1","1","0","1","0","0","1","1","0","1","1","0","0","1","0","1","0","5","1","5","2","1","","4","4","2","5","1","786709021557137410","王","336","","","","nonmatch","","","","","","","","","","","","","","key","j","16.662887931034643","683","380","f","false","match","img/triangle.png","三角","三角","ALT1_1","prac_ALT1_1","","","","","","","","","","","",""
"null","<span style='color:red; font-size: 70px;'>错误! </span>","null","html-keyboard-response","22","281846","0.0-7.0-0.0-1.0-0.0-1.6","4","4","4","4","4","4","4","4","4","4","5","5","5","5","5","5","5","5","5","5","1","1","1","1","1","1","1","1","1","0","1","0","0","1","1","0","1","1","0","0","1","0","1","0","5","1","5","2","1","","4","4","2","5","1","786709021557137410","王","336","","","","","","","","","","","","","","","","","","","","","","","","","","","","","","feedback_test","","","","","","","","","","","",""
"945","","j","psychophysics","23","283794","0.0-7.0-0.0-1.0-0.0-0.7","4","4","4","4","4","4","4","4","4","4","5","5","5","5","5","5","5","5","5","5","1","1","1","1","1","1","1","1","1","0","1","0","0","1","1","0","1","1","0","0","1","0","1","0","5","1","5","2","1","","4","4","2","5","1","786709021557137410","王","336","","","","nonmatch","","","","","","","","","","","","","","key","j","16.66444347826106","683","380","f","false","match","img/trapezoid.png","梯形","梯形","ALT1_1","prac_ALT1_1","","","","","","","","","","","",""
"null","<span style='color:red; font-size: 70px;'>错误! </span>","null","html-keyboard-response","24","284297","0.0-7.0-0.0-1.0-0.0-1.7","4","4","4","4","4","4","4","4","4","4","5","5","5","5","5","5","5","5","5","5","1","1","1","1","1","1","1","1","1","0","1","0","0","1","1","0","1","1","0","0","1","0","1","0","5","1","5","2","1","","4","4","2","5","1","786709021557137410","王","336","","","","","","","","","","","","","","","","","","","","","","","","","","","","","","feedback_test","","","","","","","","","","","",""
"1065","","f","psychophysics","25","286366","0.0-7.0-0.0-1.0-0.0-0.8","4","4","4","4","4","4","4","4","4","4","5","5","5","5","5","5","5","5","5","5","1","1","1","1","1","1","1","1","1","0","1","0","0","1","1","0","1","1","0","0","1","0","1","0","5","1","5","2","1","","4","4","2","5","1","786709021557137410","王","336","","","","match","","","","","","","","","","","","","","key","f","16.66326016260167","683","380","f","true","match","img/triangle.png","三角","三角","ALT1_1","prac_ALT1_1","","","","","","","","","","","",""
"null","<span style='color:GreenYellow; font-size: 70px;'>正确! </span>","null","html-keyboard-response","26","286869","0.0-7.0-0.0-1.0-0.0-1.8","4","4","4","4","4","4","4","4","4","4","5","5","5","5","5","5","5","5","5","5","1","1","1","1","1","1","1","1","1","0","1","0","0","1","1","0","1","1","0","0","1","0","1","0","5","1","5","2","1","","4","4","2","5","1","786709021557137410","王","336","","","","","","","","","","","","","","","","","","","","","","","","","","","","","","feedback_test","","","","","","","","","","","",""
"895","","j","psychophysics","27","288768","0.0-7.0-0.0-1.0-0.0-0.9","4","4","4","4","4","4","4","4","4","4","5","5","5","5","5","5","5","5","5","5","1","1","1","1","1","1","1","1","1","0","1","0","0","1","1","0","1","1","0","0","1","0","1","0","5","1","5","2","1","","4","4","2","5","1","786709021557137410","王","336","","","","nonmatch","","","","","","","","","","","","","","key","j","16.66219469026582","683","380","j","true","nonmatch","img/hexagon.png","三角","六边","ALT1_1","prac_ALT1_1","","","","","","","","","","","",""
"null","<span style='color:GreenYellow; font-size: 70px;'>正确! </span>","null","html-keyboard-response","28","289271","0.0-7.0-0.0-1.0-0.0-1.9","4","4","4","4","4","4","4","4","4","4","5","5","5","5","5","5","5","5","5","5","1","1","1","1","1","1","1","1","1","0","1","0","0","1","1","0","1","1","0","0","1","0","1","0","5","1","5","2","1","","4","4","2","5","1","786709021557137410","王","336","","","","","","","","","","","","","","","","","","","","","","","","","","","","","","feedback_test","","","","","","","","","","","",""
"1149","","f","psychophysics","29","291422","0.0-7.0-0.0-1.0-0.0-0.10","4","4","4","4","4","4","4","4","4","4","5","5","5","5","5","5","5","5","5","5","1","1","1","1","1","1","1","1","1","0","1","0","0","1","1","0","1","1","0","0","1","0","1","0","5","1","5","2","1","","4","4","2","5","1","786709021557137410","王","336","","","","match","","","","","","","","","","","","","","key","f","16.663679687500007","683","380","f","true","match","img/hexagon.png","六边","六边","ALT1_1","prac_ALT1_1","","","","","","","","","","","",""
"null","<span style='color:GreenYellow; font-size: 70px;'>正确! </span>","null","html-keyboard-response","30","291925","0.0-7.0-0.0-1.0-0.0-1.10","4","4","4","4","4","4","4","4","4","4","5","5","5","5","5","5","5","5","5","5","1","1","1","1","1","1","1","1","1","0","1","0","0","1","1","0","1","1","0","0","1","0","1","0","5","1","5","2","1","","4","4","2","5","1","786709021557137410","王","336","","","","","","","","","","","","","","","","","","","","","","","","","","","","","","feedback_test","","","","","","","","","","","",""
"939","","j","psychophysics","31","293867","0.0-7.0-0.0-1.0-0.0-0.11","4","4","4","4","4","4","4","4","4","4","5","5","5","5","5","5","5","5","5","5","1","1","1","1","1","1","1","1","1","0","1","0","0","1","1","0","1","1","0","0","1","0","1","0","5","1","5","2","1","","4","4","2","5","1","786709021557137410","王","336","","","","nonmatch","","","","","","","","","","","","","","key","j","16.66247413793061","683","380","j","true","nonmatch","img/trapezoid.png","椭圆","梯形","ALT1_1","prac_ALT1_1","","","","","","","","","","","",""
"null","<span style='color:GreenYellow; font-size: 70px;'>正确! </span>","null","html-keyboard-response","32","294369","0.0-7.0-0.0-1.0-0.0-1.11","4","4","4","4","4","4","4","4","4","4","5","5","5","5","5","5","5","5","5","5","1","1","1","1","1","1","1","1","1","0","1","0","0","1","1","0","1","1","0","0","1","0","1","0","5","1","5","2","1","","4","4","2","5","1","786709021557137410","王","336","","","","","","","","","","","","","","","","","","","","","","","","","","","","","","feedback_test","","","","","","","","","","","",""
"945","","j","psychophysics","33","296316","0.0-7.0-0.0-1.0-0.0-0.12","4","4","4","4","4","4","4","4","4","4","5","5","5","5","5","5","5","5","5","5","1","1","1","1","1","1","1","1","1","0","1","0","0","1","1","0","1","1","0","0","1","0","1","0","5","1","5","2","1","","4","4","2","5","1","786709021557137410","王","336","","","","nonmatch","","","","","","","","","","","","","","key","j","16.662931034482458","683","380","f","false","match","img/trapezoid.png","梯形","梯形","ALT1_1","prac_ALT1_1","","","","","","","","","","","",""
"null","<span style='color:red; font-size: 70px;'>错误! </span>","null","html-keyboard-response","34","296819","0.0-7.0-0.0-1.0-0.0-1.12","4","4","4","4","4","4","4","4","4","4","5","5","5","5","5","5","5","5","5","5","1","1","1","1","1","1","1","1","1","0","1","0","0","1","1","0","1","1","0","0","1","0","1","0","5","1","5","2","1","","4","4","2","5","1","786709021557137410","王","336","","","","","","","","","","","","","","","","","","","","","","","","","","","","","","feedback_test","","","","","","","","","","","",""
"902","","f","psychophysics","35","298724","0.0-7.0-0.0-1.0-0.0-0.13","4","4","4","4","4","4","4","4","4","4","5","5","5","5","5","5","5","5","5","5","1","1","1","1","1","1","1","1","1","0","1","0","0","1","1","0","1","1","0","0","1","0","1","0","5","1","5","2","1","","4","4","2","5","1","786709021557137410","王","336","","","","match","","","","","","","","","","","","","","key","f","16.6637787610618","683","380","f","true","match","img/ellipse.png","椭圆","椭圆","ALT1_1","prac_ALT1_1","","","","","","","","","","","",""
"null","<span style='color:GreenYellow; font-size: 70px;'>正确! </span>","null","html-keyboard-response","36","299231","0.0-7.0-0.0-1.0-0.0-1.13","4","4","4","4","4","4","4","4","4","4","5","5","5","5","5","5","5","5","5","5","1","1","1","1","1","1","1","1","1","0","1","0","0","1","1","0","1","1","0","0","1","0","1","0","5","1","5","2","1","","4","4","2","5","1","786709021557137410","王","336","","","","","","","","","","","","","","","","","","","","","","","","","","","","","","feedback_test","","","","","","","","","","","",""
"1113","","j","psychophysics","37","301349","0.0-7.0-0.0-1.0-0.0-0.14","4","4","4","4","4","4","4","4","4","4","5","5","5","5","5","5","5","5","5","5","1","1","1","1","1","1","1","1","1","0","1","0","0","1","1","0","1","1","0","0","1","0","1","0","5","1","5","2","1","","4","4","2","5","1","786709021557137410","王","336","","","","nonmatch","","","","","","","","","","","","","","key","j","16.66336507936533","683","380","j","true","nonmatch","img/trapezoid.png","三角","梯形","ALT1_1","prac_ALT1_1","","","","","","","","","","","",""
"null","<span style='color:GreenYellow; font-size: 70px;'>正确! </span>","null","html-keyboard-response","38","301852","0.0-7.0-0.0-1.0-0.0-1.14","4","4","4","4","4","4","4","4","4","4","5","5","5","5","5","5","5","5","5","5","1","1","1","1","1","1","1","1","1","0","1","0","0","1","1","0","1","1","0","0","1","0","1","0","5","1","5","2","1","","4","4","2","5","1","786709021557137410","王","336","","","","","","","","","","","","","","","","","","","","","","","","","","","","","","feedback_test","","","","","","","","","","","",""
"912","","f","psychophysics","39","303766","0.0-7.0-0.0-1.0-0.0-0.15","4","4","4","4","4","4","4","4","4","4","5","5","5","5","5","5","5","5","5","5","1","1","1","1","1","1","1","1","1","0","1","0","0","1","1","0","1","1","0","0","1","0","1","0","5","1","5","2","1","","4","4","2","5","1","786709021557137410","王","336","","","","match","","","","","","","","","","","","","","key","f","16.663122807017714","683","380","f","true","match","img/triangle.png","三角","三角","ALT1_1","prac_ALT1_1","","","","","","","","","","","",""
"null","<span style='color:GreenYellow; font-size: 70px;'>正确! </span>","null","html-keyboard-response","40","304268","0.0-7.0-0.0-1.0-0.0-1.15","4","4","4","4","4","4","4","4","4","4","5","5","5","5","5","5","5","5","5","5","1","1","1","1","1","1","1","1","1","0","1","0","0","1","1","0","1","1","0","0","1","0","1","0","5","1","5","2","1","","4","4","2","5","1","786709021557137410","王","336","","","","","","","","","","","","","","","","","","","","","","","","","","","","","","feedback_test","","","","","","","","","","","",""
"664","","f","psychophysics","41","305936","0.0-7.0-0.0-1.0-0.0-0.16","4","4","4","4","4","4","4","4","4","4","5","5","5","5","5","5","5","5","5","5","1","1","1","1","1","1","1","1","1","0","1","0","0","1","1","0","1","1","0","0","1","0","1","0","5","1","5","2","1","","4","4","2","5","1","786709021557137410","王","336","","","","match","","","","","","","","","","","","","","key","f","16.66269696969715","683","380","f","true","match","img/ellipse.png","椭圆","椭圆","ALT1_1","prac_ALT1_1","","","","","","","","","","","",""
"null","<span style='color:GreenYellow; font-size: 70px;'>正确! </span>","null","html-keyboard-response","42","306438","0.0-7.0-0.0-1.0-0.0-1.16","4","4","4","4","4","4","4","4","4","4","5","5","5","5","5","5","5","5","5","5","1","1","1","1","1","1","1","1","1","0","1","0","0","1","1","0","1","1","0","0","1","0","1","0","5","1","5","2","1","","4","4","2","5","1","786709021557137410","王","336","","","","","","","","","","","","","","","","","","","","","","","","","","","","","","feedback_test","","","","","","","","","","","",""
"885","","j","psychophysics","43","308327","0.0-7.0-0.0-1.0-0.0-0.17","4","4","4","4","4","4","4","4","4","4","5","5","5","5","5","5","5","5","5","5","1","1","1","1","1","1","1","1","1","0","1","0","0","1","1","0","1","1","0","0","1","0","1","0","5","1","5","2","1","","4","4","2","5","1","786709021557137410","王","336","","","","nonmatch","","","","","","","","","","","","","","key","j","16.663601769911192","683","380","j","true","nonmatch","img/ellipse.png","六边","椭圆","ALT1_1","prac_ALT1_1","","","","","","","","","","","",""
"null","<span style='color:GreenYellow; font-size: 70px;'>正确! </span>","null","html-keyboard-response","44","308831","0.0-7.0-0.0-1.0-0.0-1.17","4","4","4","4","4","4","4","4","4","4","5","5","5","5","5","5","5","5","5","5","1","1","1","1","1","1","1","1","1","0","1","0","0","1","1","0","1","1","0","0","1","0","1","0","5","1","5","2","1","","4","4","2","5","1","786709021557137410","王","336","","","","","","","","","","","","","","","","","","","","","","","","","","","","","","feedback_test","","","","","","","","","","","",""
"816","","f","psychophysics","45","310651","0.0-7.0-0.0-1.0-0.0-0.18","4","4","4","4","4","4","4","4","4","4","5","5","5","5","5","5","5","5","5","5","1","1","1","1","1","1","1","1","1","0","1","0","0","1","1","0","1","1","0","0","1","0","1","0","5","1","5","2","1","","4","4","2","5","1","786709021557137410","王","336","","","","match","","","","","","","","","","","","","","key","f","16.66345370370362","683","380","f","true","match","img/hexagon.png","六边","六边","ALT1_1","prac_ALT1_1","","","","","","","","","","","",""
"null","<span style='color:GreenYellow; font-size: 70px;'>正确! </span>","null","html-keyboard-response","46","311154","0.0-7.0-0.0-1.0-0.0-1.18","4","4","4","4","4","4","4","4","4","4","5","5","5","5","5","5","5","5","5","5","1","1","1","1","1","1","1","1","1","0","1","0","0","1","1","0","1","1","0","0","1","0","1","0","5","1","5","2","1","","4","4","2","5","1","786709021557137410","王","336","","","","","","","","","","","","","","","","","","","","","","","","","","","","","","feedback_test","","","","","","","","","","","",""
"911","","j","psychophysics","47","313070","0.0-7.0-0.0-1.0-0.0-0.19","4","4","4","4","4","4","4","4","4","4","5","5","5","5","5","5","5","5","5","5","1","1","1","1","1","1","1","1","1","0","1","0","0","1","1","0","1","1","0","0","1","0","1","0","5","1","5","2","1","","4","4","2","5","1","786709021557137410","王","336","","","","nonmatch","","","","","","","","","","","","","","key","j","16.663929824561613","683","380","j","true","nonmatch","img/ellipse.png","梯形","椭圆","ALT1_1","prac_ALT1_1","","","","","","","","","","","",""
"null","<span style='color:GreenYellow; font-size: 70px;'>正确! </span>","null","html-keyboard-response","48","313575","0.0-7.0-0.0-1.0-0.0-1.19","4","4","4","4","4","4","4","4","4","4","5","5","5","5","5","5","5","5","5","5","1","1","1","1","1","1","1","1","1","0","1","0","0","1","1","0","1","1","0","0","1","0","1","0","5","1","5","2","1","","4","4","2","5","1","786709021557137410","王","336","","","","","","","","","","","","","","","","","","","","","","","","","","","","","","feedback_test","","","","","","","","","","","",""
"929","","j","psychophysics","49","315508","0.0-7.0-0.0-1.0-0.0-0.20","4","4","4","4","4","4","4","4","4","4","5","5","5","5","5","5","5","5","5","5","1","1","1","1","1","1","1","1","1","0","1","0","0","1","1","0","1","1","0","0","1","0","1","0","5","1","5","2","1","","4","4","2","5","1","786709021557137410","王","336","","","","nonmatch","","","","","","","","","","","","","","key","j","16.6632807017544","683","380","j","true","nonmatch","img/hexagon.png","梯形","六边","ALT1_1","prac_ALT1_1","","","","","","","","","","","",""
"null","<span style='color:GreenYellow; font-size: 70px;'>正确! </span>","null","html-keyboard-response","50","316011","0.0-7.0-0.0-1.0-0.0-1.20","4","4","4","4","4","4","4","4","4","4","5","5","5","5","5","5","5","5","5","5","1","1","1","1","1","1","1","1","1","0","1","0","0","1","1","0","1","1","0","0","1","0","1","0","5","1","5","2","1","","4","4","2","5","1","786709021557137410","王","336","","","","","","","","","","","","","","","","","","","","","","","","","","","","","","feedback_test","","","","","","","","","","","",""
"1055","","f","psychophysics","51","318069","0.0-7.0-0.0-1.0-0.0-0.21","4","4","4","4","4","4","4","4","4","4","5","5","5","5","5","5","5","5","5","5","1","1","1","1","1","1","1","1","1","0","1","0","0","1","1","0","1","1","0","0","1","0","1","0","5","1","5","2","1","","4","4","2","5","1","786709021557137410","王","336","","","","match","","","","","","","","","","","","","","key","f","16.664073770491743","683","380","f","true","match","img/trapezoid.png","梯形","梯形","ALT1_1","prac_ALT1_1","","","","","","","","","","","",""
"null","<span style='color:GreenYellow; font-size: 70px;'>正确! </span>","null","html-keyboard-response","52","318572","0.0-7.0-0.0-1.0-0.0-1.21","4","4","4","4","4","4","4","4","4","4","5","5","5","5","5","5","5","5","5","5","1","1","1","1","1","1","1","1","1","0","1","0","0","1","1","0","1","1","0","0","1","0","1","0","5","1","5","2","1","","4","4","2","5","1","786709021557137410","王","336","","","","","","","","","","","","","","","","","","","","","","","","","","","","","","feedback_test","","","","","","","","","","","",""
"901","","j","psychophysics","53","320478","0.0-7.0-0.0-1.0-0.0-0.22","4","4","4","4","4","4","4","4","4","4","5","5","5","5","5","5","5","5","5","5","1","1","1","1","1","1","1","1","1","0","1","0","0","1","1","0","1","1","0","0","1","0","1","0","5","1","5","2","1","","4","4","2","5","1","786709021557137410","王","336","","","","nonmatch","","","","","","","","","","","","","","key","j","16.664309734513104","683","380","j","true","nonmatch","img/trapezoid.png","六边","梯形","ALT1_1","prac_ALT1_1","","","","","","","","","","","",""
"null","<span style='color:GreenYellow; font-size: 70px;'>正确! </span>","null","html-keyboard-response","54","320980","0.0-7.0-0.0-1.0-0.0-1.22","4","4","4","4","4","4","4","4","4","4","5","5","5","5","5","5","5","5","5","5","1","1","1","1","1","1","1","1","1","0","1","0","0","1","1","0","1","1","0","0","1","0","1","0","5","1","5","2","1","","4","4","2","5","1","786709021557137410","王","336","","","","","","","","","","","","","","","","","","","","","","","","","","","","","","feedback_test","","","","","","","","","","","",""
"1013","","j","psychophysics","55","322995","0.0-7.0-0.0-1.0-0.0-0.23","4","4","4","4","4","4","4","4","4","4","5","5","5","5","5","5","5","5","5","5","1","1","1","1","1","1","1","1","1","0","1","0","0","1","1","0","1","1","0","0","1","0","1","0","5","1","5","2","1","","4","4","2","5","1","786709021557137410","王","336","","","","nonmatch","","","","","","","","","","","","","","key","j","16.664316666667098","683","380","j","true","nonmatch","img/ellipse.png","三角","椭圆","ALT1_1","prac_ALT1_1","","","","","","","","","","","",""
"null","<span style='color:GreenYellow; font-size: 70px;'>正确! </span>","null","html-keyboard-response","56","323498","0.0-7.0-0.0-1.0-0.0-1.23","4","4","4","4","4","4","4","4","4","4","5","5","5","5","5","5","5","5","5","5","1","1","1","1","1","1","1","1","1","0","1","0","0","1","1","0","1","1","0","0","1","0","1","0","5","1","5","2","1","","4","4","2","5","1","786709021557137410","王","336","","","","","","","","","","","","","","","","","","","","","","","","","","","","","","feedback_test","","","","","","","","","","","",""
"924","","j","psychophysics","57","325430","0.0-7.0-0.0-1.0-0.0-0.24","4","4","4","4","4","4","4","4","4","4","5","5","5","5","5","5","5","5","5","5","1","1","1","1","1","1","1","1","1","0","1","0","0","1","1","0","1","1","0","0","1","0","1","0","5","1","5","2","1","","4","4","2","5","1","786709021557137410","王","336","","","","nonmatch","","","","","","","","","","","","","","key","j","16.663965217391556","683","380","j","true","nonmatch","img/hexagon.png","三角","六边","ALT1_1","prac_ALT1_1","","","","","","","","","","","",""
"null","<span style='color:GreenYellow; font-size: 70px;'>正确! </span>","null","html-keyboard-response","58","325931","0.0-7.0-0.0-1.0-0.0-1.24","4","4","4","4","4","4","4","4","4","4","5","5","5","5","5","5","5","5","5","5","1","1","1","1","1","1","1","1","1","0","1","0","0","1","1","0","1","1","0","0","1","0","1","0","5","1","5","2","1","","4","4","2","5","1","786709021557137410","王","336","","","","","","","","","","","","","","","","","","","","","","","","","","","","","","feedback_test","","","","","","","","","","","",""
"810","","f","psychophysics","59","327744","0.0-7.0-0.0-1.0-0.0-0.25","4","4","4","4","4","4","4","4","4","4","5","5","5","5","5","5","5","5","5","5","1","1","1","1","1","1","1","1","1","0","1","0","0","1","1","0","1","1","0","0","1","0","1","0","5","1","5","2","1","","4","4","2","5","1","786709021557137410","王","336","","","","match","","","","","","","","","","","","","","key","f","16.663898148148157","683","380","f","true","match","img/hexagon.png","六边","六边","ALT1_1","prac_ALT1_1","","","","","","","","","","","",""
"null","<span style='color:GreenYellow; font-size: 70px;'>正确! </span>","null","html-keyboard-response","60","328246","0.0-7.0-0.0-1.0-0.0-1.25","4","4","4","4","4","4","4","4","4","4","5","5","5","5","5","5","5","5","5","5","1","1","1","1","1","1","1","1","1","0","1","0","0","1","1","0","1","1","0","0","1","0","1","0","5","1","5","2","1","","4","4","2","5","1","786709021557137410","王","336","","","","","","","","","","","","","","","","","","","","","","","","","","","","","","feedback_test","","","","","","","","","","","",""
"963","","f","psychophysics","61","330213","0.0-7.0-0.0-1.0-0.0-0.26","4","4","4","4","4","4","4","4","4","4","5","5","5","5","5","5","5","5","5","5","1","1","1","1","1","1","1","1","1","0","1","0","0","1","1","0","1","1","0","0","1","0","1","0","5","1","5","2","1","","4","4","2","5","1","786709021557137410","王","336","","","","match","","","","","","","","","","","","","","key","f","16.663189655172353","683","380","f","true","match","img/trapezoid.png","梯形","梯形","ALT1_1","prac_ALT1_1","","","","","","","","","","","",""
"null","<span style='color:GreenYellow; font-size: 70px;'>正确! </span>","null","html-keyboard-response","62","330715","0.0-7.0-0.0-1.0-0.0-1.26","4","4","4","4","4","4","4","4","4","4","5","5","5","5","5","5","5","5","5","5","1","1","1","1","1","1","1","1","1","0","1","0","0","1","1","0","1","1","0","0","1","0","1","0","5","1","5","2","1","","4","4","2","5","1","786709021557137410","王","336","","","","","","","","","","","","","","","","","","","","","","","","","","","","","","feedback_test","","","","","","","","","","","",""
"886","","j","psychophysics","63","332607","0.0-7.0-0.0-1.0-0.0-0.27","4","4","4","4","4","4","4","4","4","4","5","5","5","5","5","5","5","5","5","5","1","1","1","1","1","1","1","1","1","0","1","0","0","1","1","0","1","1","0","0","1","0","1","0","5","1","5","2","1","","4","4","2","5","1","786709021557137410","王","336","","","","nonmatch","","","","","","","","","","","","","","key","j","16.662911504424645","683","380","j","true","nonmatch","img/triangle.png","六边","三角","ALT1_1","prac_ALT1_1","","","","","","","","","","","",""
"null","<span style='color:GreenYellow; font-size: 70px;'>正确! </span>","null","html-keyboard-response","64","333110","0.0-7.0-0.0-1.0-0.0-1.27","4","4","4","4","4","4","4","4","4","4","5","5","5","5","5","5","5","5","5","5","1","1","1","1","1","1","1","1","1","0","1","0","0","1","1","0","1","1","0","0","1","0","1","0","5","1","5","2","1","","4","4","2","5","1","786709021557137410","王","336","","","","","","","","","","","","","","","","","","","","","","","","","","","","","","feedback_test","","","","","","","","","","","",""
"1090","","f","psychophysics","65","335204","0.0-7.0-0.0-1.0-0.0-0.28","4","4","4","4","4","4","4","4","4","4","5","5","5","5","5","5","5","5","5","5","1","1","1","1","1","1","1","1","1","0","1","0","0","1","1","0","1","1","0","0","1","0","1","0","5","1","5","2","1","","4","4","2","5","1","786709021557137410","王","336","","","","match","","","","","","","","","","","","","","key","f","16.663087999999988","683","380","f","true","match","img/trapezoid.png","梯形","梯形","ALT1_1","prac_ALT1_1","","","","","","","","","","","",""
"null","<span style='color:GreenYellow; font-size: 70px;'>正确! </span>","null","html-keyboard-response","66","335709","0.0-7.0-0.0-1.0-0.0-1.28","4","4","4","4","4","4","4","4","4","4","5","5","5","5","5","5","5","5","5","5","1","1","1","1","1","1","1","1","1","0","1","0","0","1","1","0","1","1","0","0","1","0","1","0","5","1","5","2","1","","4","4","2","5","1","786709021557137410","王","336","","","","","","","","","","","","","","","","","","","","","","","","","","","","","","feedback_test","","","","","","","","","","","",""
"893","","f","psychophysics","67","337605","0.0-7.0-0.0-1.0-0.0-0.29","4","4","4","4","4","4","4","4","4","4","5","5","5","5","5","5","5","5","5","5","1","1","1","1","1","1","1","1","1","0","1","0","0","1","1","0","1","1","0","0","1","0","1","0","5","1","5","2","1","","4","4","2","5","1","786709021557137410","王","336","","","","match","","","","","","","","","","","","","","key","f","16.663716814159294","683","380","f","true","match","img/triangle.png","三角","三角","ALT1_1","prac_ALT1_1","","","","","","","","","","","",""
"null","<span style='color:GreenYellow; font-size: 70px;'>正确! </span>","null","html-keyboard-response","68","338107","0.0-7.0-0.0-1.0-0.0-1.29","4","4","4","4","4","4","4","4","4","4","5","5","5","5","5","5","5","5","5","5","1","1","1","1","1","1","1","1","1","0","1","0","0","1","1","0","1","1","0","0","1","0","1","0","5","1","5","2","1","","4","4","2","5","1","786709021557137410","王","336","","","","","","","","","","","","","","","","","","","","","","","","","","","","","","feedback_test","","","","","","","","","","","",""
"975","","j","psychophysics","69","340086","0.0-7.0-0.0-1.0-0.0-0.30","4","4","4","4","4","4","4","4","4","4","5","5","5","5","5","5","5","5","5","5","1","1","1","1","1","1","1","1","1","0","1","0","0","1","1","0","1","1","0","0","1","0","1","0","5","1","5","2","1","","4","4","2","5","1","786709021557137410","王","336","","","","nonmatch","","","","","","","","","","","","","","key","j","16.66387288135593","683","380","j","true","nonmatch","img/triangle.png","椭圆","三角","ALT1_1","prac_ALT1_1","","","","","","","","","","","",""
"null","<span style='color:GreenYellow; font-size: 70px;'>正确! </span>","null","html-keyboard-response","70","340589","0.0-7.0-0.0-1.0-0.0-1.30","4","4","4","4","4","4","4","4","4","4","5","5","5","5","5","5","5","5","5","5","1","1","1","1","1","1","1","1","1","0","1","0","0","1","1","0","1","1","0","0","1","0","1","0","5","1","5","2","1","","4","4","2","5","1","786709021557137410","王","336","","","","","","","","","","","","","","","","","","","","","","","","","","","","","","feedback_test","","","","","","","","","","","",""
"980","","j","psychophysics","71","342572","0.0-7.0-0.0-1.0-0.0-0.31","4","4","4","4","4","4","4","4","4","4","5","5","5","5","5","5","5","5","5","5","1","1","1","1","1","1","1","1","1","0","1","0","0","1","1","0","1","1","0","0","1","0","1","0","5","1","5","2","1","","4","4","2","5","1","786709021557137410","王","336","","","","nonmatch","","","","","","","","","","","","","","key","j","16.663661016949444","683","380","j","true","nonmatch","img/trapezoid.png","三角","梯形","ALT1_1","prac_ALT1_1","","","","","","","","","","","",""
"null","<span style='color:GreenYellow; font-size: 70px;'>正确! </span>","null","html-keyboard-response","72","343074","0.0-7.0-0.0-1.0-0.0-1.31","4","4","4","4","4","4","4","4","4","4","5","5","5","5","5","5","5","5","5","5","1","1","1","1","1","1","1","1","1","0","1","0","0","1","1","0","1","1","0","0","1","0","1","0","5","1","5","2","1","","4","4","2","5","1","786709021557137410","王","336","","","","","","","","","","","","","","","","","","","","","","","","","","","","","","feedback_test","","","","","","","","","","","",""
"842","","j","psychophysics","73","344920","0.0-7.0-0.0-1.0-0.0-0.32","4","4","4","4","4","4","4","4","4","4","5","5","5","5","5","5","5","5","5","5","1","1","1","1","1","1","1","1","1","0","1","0","0","1","1","0","1","1","0","0","1","0","1","0","5","1","5","2","1","","4","4","2","5","1","786709021557137410","王","336","","","","nonmatch","","","","","","","","","","","","","","key","j","16.664154545454288","683","380","j","true","nonmatch","img/triangle.png","梯形","三角","ALT1_1","prac_ALT1_1","","","","","","","","","","","",""
"null","<span style='color:GreenYellow; font-size: 70px;'>正确! </span>","null","html-keyboard-response","74","345423","0.0-7.0-0.0-1.0-0.0-1.32","4","4","4","4","4","4","4","4","4","4","5","5","5","5","5","5","5","5","5","5","1","1","1","1","1","1","1","1","1","0","1","0","0","1","1","0","1","1","0","0","1","0","1","0","5","1","5","2","1","","4","4","2","5","1","786709021557137410","王","336","","","","","","","","","","","","","","","","","","","","","","","","","","","","","","feedback_test","","","","","","","","","","","",""
"934","","j","psychophysics","75","347360","0.0-7.0-0.0-1.0-0.0-0.33","4","4","4","4","4","4","4","4","4","4","5","5","5","5","5","5","5","5","5","5","1","1","1","1","1","1","1","1","1","0","1","0","0","1","1","0","1","1","0","0","1","0","1","0","5","1","5","2","1","","4","4","2","5","1","786709021557137410","王","336","","","","nonmatch","","","","","","","","","","","","","","key","j","16.66279999999957","683","380","j","true","nonmatch","img/hexagon.png","椭圆","六边","ALT1_1","prac_ALT1_1","","","","","","","","","","","",""
"null","<span style='color:GreenYellow; font-size: 70px;'>正确! </span>","null","html-keyboard-response","76","347862","0.0-7.0-0.0-1.0-0.0-1.33","4","4","4","4","4","4","4","4","4","4","5","5","5","5","5","5","5","5","5","5","1","1","1","1","1","1","1","1","1","0","1","0","0","1","1","0","1","1","0","0","1","0","1","0","5","1","5","2","1","","4","4","2","5","1","786709021557137410","王","336","","","","","","","","","","","","","","","","","","","","","","","","","","","","","","feedback_test","","","","","","","","","","","",""
"956","","j","psychophysics","77","349822","0.0-7.0-0.0-1.0-0.0-0.34","4","4","4","4","4","4","4","4","4","4","5","5","5","5","5","5","5","5","5","5","1","1","1","1","1","1","1","1","1","0","1","0","0","1","1","0","1","1","0","0","1","0","1","0","5","1","5","2","1","","4","4","2","5","1","786709021557137410","王","336","","","","nonmatch","","","","","","","","","","","","","","key","j","16.66329310344811","683","380","j","true","nonmatch","img/ellipse.png","六边","椭圆","ALT1_1","prac_ALT1_1","","","","","","","","","","","",""
"null","<span style='color:GreenYellow; font-size: 70px;'>正确! </span>","null","html-keyboard-response","78","350325","0.0-7.0-0.0-1.0-0.0-1.34","4","4","4","4","4","4","4","4","4","4","5","5","5","5","5","5","5","5","5","5","1","1","1","1","1","1","1","1","1","0","1","0","0","1","1","0","1","1","0","0","1","0","1","0","5","1","5","2","1","","4","4","2","5","1","786709021557137410","王","336","","","","","","","","","","","","","","","","","","","","","","","","","","","","","","feedback_test","","","","","","","","","","","",""
"1022","","f","psychophysics","79","352349","0.0-7.0-0.0-1.0-0.0-0.35","4","4","4","4","4","4","4","4","4","4","5","5","5","5","5","5","5","5","5","5","1","1","1","1","1","1","1","1","1","0","1","0","0","1","1","0","1","1","0","0","1","0","1","0","5","1","5","2","1","","4","4","2","5","1","786709021557137410","王","336","","","","match","","","","","","","","","","","","","","key","f","16.66323140495859","683","380","f","true","match","img/triangle.png","三角","三角","ALT1_1","prac_ALT1_1","","","","","","","","","","","",""
"null","<span style='color:GreenYellow; font-size: 70px;'>正确! </span>","null","html-keyboard-response","80","352852","0.0-7.0-0.0-1.0-0.0-1.35","4","4","4","4","4","4","4","4","4","4","5","5","5","5","5","5","5","5","5","5","1","1","1","1","1","1","1","1","1","0","1","0","0","1","1","0","1","1","0","0","1","0","1","0","5","1","5","2","1","","4","4","2","5","1","786709021557137410","王","336","","","","","","","","","","","","","","","","","","","","","","","","","","","","","","feedback_test","","","","","","","","","","","",""
"1197","","f","psychophysics","81","355052","0.0-7.0-0.0-1.0-0.0-0.36","4","4","4","4","4","4","4","4","4","4","5","5","5","5","5","5","5","5","5","5","1","1","1","1","1","1","1","1","1","0","1","0","0","1","1","0","1","1","0","0","1","0","1","0","5","1","5","2","1","","4","4","2","5","1","786709021557137410","王","336","","","","match","","","","","","","","","","","","","","key","f","16.663419847328658","683","380","j","false","nonmatch","img/hexagon.png","梯形","六边","ALT1_1","prac_ALT1_1","","","","","","","","","","","",""
"null","<span style='color:red; font-size: 70px;'>错误! </span>","null","html-keyboard-response","82","355555","0.0-7.0-0.0-1.0-0.0-1.36","4","4","4","4","4","4","4","4","4","4","5","5","5","5","5","5","5","5","5","5","1","1","1","1","1","1","1","1","1","0","1","0","0","1","1","0","1","1","0","0","1","0","1","0","5","1","5","2","1","","4","4","2","5","1","786709021557137410","王","336","","","","","","","","","","","","","","","","","","","","","","","","","","","","","","feedback_test","","","","","","","","","","","",""
"1132","","f","psychophysics","83","357690","0.0-7.0-0.0-1.0-0.0-0.37","4","4","4","4","4","4","4","4","4","4","5","5","5","5","5","5","5","5","5","5","1","1","1","1","1","1","1","1","1","0","1","0","0","1","1","0","1","1","0","0","1","0","1","0","5","1","5","2","1","","4","4","2","5","1","786709021557137410","王","336","","","","match","","","","","","","","","","","","","","key","f","16.66230708661427","683","380","f","true","match","img/trapezoid.png","梯形","梯形","ALT1_1","prac_ALT1_1","","","","","","","","","","","",""
"null","<span style='color:GreenYellow; font-size: 70px;'>正确! </span>","null","html-keyboard-response","84","358194","0.0-7.0-0.0-1.0-0.0-1.37","4","4","4","4","4","4","4","4","4","4","5","5","5","5","5","5","5","5","5","5","1","1","1","1","1","1","1","1","1","0","1","0","0","1","1","0","1","1","0","0","1","0","1","0","5","1","5","2","1","","4","4","2","5","1","786709021557137410","王","336","","","","","","","","","","","","","","","","","","","","","","","","","","","","","","feedback_test","","","","","","","","","","","",""
"1008","","j","psychophysics","85","360206","0.0-7.0-0.0-1.0-0.0-0.38","4","4","4","4","4","4","4","4","4","4","5","5","5","5","5","5","5","5","5","5","1","1","1","1","1","1","1","1","1","0","1","0","0","1","1","0","1","1","0","0","1","0","1","0","5","1","5","2","1","","4","4","2","5","1","786709021557137410","王","336","","","","nonmatch","","","","","","","","","","","","","","key","j","16.6635798319329","683","380","j","true","nonmatch","img/ellipse.png","梯形","椭圆","ALT1_1","prac_ALT1_1","","","","","","","","","","","",""
"null","<span style='color:GreenYellow; font-size: 70px;'>正确! </span>","null","html-keyboard-response","86","360709","0.0-7.0-0.0-1.0-0.0-1.38","4","4","4","4","4","4","4","4","4","4","5","5","5","5","5","5","5","5","5","5","1","1","1","1","1","1","1","1","1","0","1","0","0","1","1","0","1","1","0","0","1","0","1","0","5","1","5","2","1","","4","4","2","5","1","786709021557137410","王","336","","","","","","","","","","","","","","","","","","","","","","","","","","","","","","feedback_test","","","","","","","","","","","",""
"1062","","j","psychophysics","87","362774","0.0-7.0-0.0-1.0-0.0-0.39","4","4","4","4","4","4","4","4","4","4","5","5","5","5","5","5","5","5","5","5","1","1","1","1","1","1","1","1","1","0","1","0","0","1","1","0","1","1","0","0","1","0","1","0","5","1","5","2","1","","4","4","2","5","1","786709021557137410","王","336","","","","nonmatch","","","","","","","","","","","","","","key","j","16.66284426229531","683","380","j","true","nonmatch","img/ellipse.png","三角","椭圆","ALT1_1","prac_ALT1_1","","","","","","","","","","","",""
"null","<span style='color:GreenYellow; font-size: 70px;'>正确! </span>","null","html-keyboard-response","88","363280","0.0-7.0-0.0-1.0-0.0-1.39","4","4","4","4","4","4","4","4","4","4","5","5","5","5","5","5","5","5","5","5","1","1","1","1","1","1","1","1","1","0","1","0","0","1","1","0","1","1","0","0","1","0","1","0","5","1","5","2","1","","4","4","2","5","1","786709021557137410","王","336","","","","","","","","","","","","","","","","","","","","","","","","","","","","","","feedback_test","","","","","","","","","","","",""
"832","","f","psychophysics","89","365116","0.0-7.0-0.0-1.0-0.0-0.40","4","4","4","4","4","4","4","4","4","4","5","5","5","5","5","5","5","5","5","5","1","1","1","1","1","1","1","1","1","0","1","0","0","1","1","0","1","1","0","0","1","0","1","0","5","1","5","2","1","","4","4","2","5","1","786709021557137410","王","336","","","","match","","","","","","","","","","","","","","key","f","16.663642201834858","683","380","f","true","match","img/triangle.png","三角","三角","ALT1_1","prac_ALT1_1","","","","","","","","","","","",""
"null","<span style='color:GreenYellow; font-size: 70px;'>正确! </span>","null","html-keyboard-response","90","365619","0.0-7.0-0.0-1.0-0.0-1.40","4","4","4","4","4","4","4","4","4","4","5","5","5","5","5","5","5","5","5","5","1","1","1","1","1","1","1","1","1","0","1","0","0","1","1","0","1","1","0","0","1","0","1","0","5","1","5","2","1","","4","4","2","5","1","786709021557137410","王","336","","","","","","","","","","","","","","","","","","","","","","","","","","","","","","feedback_test","","","","","","","","","","","",""
"965","","j","psychophysics","91","367587","0.0-7.0-0.0-1.0-0.0-0.41","4","4","4","4","4","4","4","4","4","4","5","5","5","5","5","5","5","5","5","5","1","1","1","1","1","1","1","1","1","0","1","0","0","1","1","0","1","1","0","0","1","0","1","0","5","1","5","2","1","","4","4","2","5","1","786709021557137410","王","336","","","","nonmatch","","","","","","","","","","","","","","key","j","16.663735042735098","683","380","j","true","nonmatch","img/trapezoid.png","椭圆","梯形","ALT1_1","prac_ALT1_1","","","","","","","","","","","",""
"null","<span style='color:GreenYellow; font-size: 70px;'>正确! </span>","null","html-keyboard-response","92","368089","0.0-7.0-0.0-1.0-0.0-1.41","4","4","4","4","4","4","4","4","4","4","5","5","5","5","5","5","5","5","5","5","1","1","1","1","1","1","1","1","1","0","1","0","0","1","1","0","1","1","0","0","1","0","1","0","5","1","5","2","1","","4","4","2","5","1","786709021557137410","王","336","","","","","","","","","","","","","","","","","","","","","","","","","","","","","","feedback_test","","","","","","","","","","","",""
"1078","","f","psychophysics","93","370173","0.0-7.0-0.0-1.0-0.0-0.42","4","4","4","4","4","4","4","4","4","4","5","5","5","5","5","5","5","5","5","5","1","1","1","1","1","1","1","1","1","0","1","0","0","1","1","0","1","1","0","0","1","0","1","0","5","1","5","2","1","","4","4","2","5","1","786709021557137410","王","336","","","","match","","","","","","","","","","","","","","key","f","16.663096774193917","683","380","f","true","match","img/ellipse.png","椭圆","椭圆","ALT1_1","prac_ALT1_1","","","","","","","","","","","",""
"null","<span style='color:GreenYellow; font-size: 70px;'>正确! </span>","null","html-keyboard-response","94","370677","0.0-7.0-0.0-1.0-0.0-1.42","4","4","4","4","4","4","4","4","4","4","5","5","5","5","5","5","5","5","5","5","1","1","1","1","1","1","1","1","1","0","1","0","0","1","1","0","1","1","0","0","1","0","1","0","5","1","5","2","1","","4","4","2","5","1","786709021557137410","王","336","","","","","","","","","","","","","","","","","","","","","","","","","","","","","","feedback_test","","","","","","","","","","","",""
"809","","f","psychophysics","95","372491","0.0-7.0-0.0-1.0-0.0-0.43","4","4","4","4","4","4","4","4","4","4","5","5","5","5","5","5","5","5","5","5","1","1","1","1","1","1","1","1","1","0","1","0","0","1","1","0","1","1","0","0","1","0","1","0","5","1","5","2","1","","4","4","2","5","1","786709021557137410","王","336","","","","match","","","","","","","","","","","","","","key","f","16.66461682242992","683","380","f","true","match","img/hexagon.png","六边","六边","ALT1_1","prac_ALT1_1","","","","","","","","","","","",""
"null","<span style='color:GreenYellow; font-size: 70px;'>正确! </span>","null","html-keyboard-response","96","372994","0.0-7.0-0.0-1.0-0.0-1.43","4","4","4","4","4","4","4","4","4","4","5","5","5","5","5","5","5","5","5","5","1","1","1","1","1","1","1","1","1","0","1","0","0","1","1","0","1","1","0","0","1","0","1","0","5","1","5","2","1","","4","4","2","5","1","786709021557137410","王","336","","","","","","","","","","","","","","","","","","","","","","","","","","","","","","feedback_test","","","","","","","","","","","",""
"872","","f","psychophysics","97","374869","0.0-7.0-0.0-1.0-0.0-0.44","4","4","4","4","4","4","4","4","4","4","5","5","5","5","5","5","5","5","5","5","1","1","1","1","1","1","1","1","1","0","1","0","0","1","1","0","1","1","0","0","1","0","1","0","5","1","5","2","1","","4","4","2","5","1","786709021557137410","王","336","","","","match","","","","","","","","","","","","","","key","f","16.663405405405726","683","380","f","true","match","img/ellipse.png","椭圆","椭圆","ALT1_1","prac_ALT1_1","","","","","","","","","","","",""
"null","<span style='color:GreenYellow; font-size: 70px;'>正确! </span>","null","html-keyboard-response","98","375372","0.0-7.0-0.0-1.0-0.0-1.44","4","4","4","4","4","4","4","4","4","4","5","5","5","5","5","5","5","5","5","5","1","1","1","1","1","1","1","1","1","0","1","0","0","1","1","0","1","1","0","0","1","0","1","0","5","1","5","2","1","","4","4","2","5","1","786709021557137410","王","336","","","","","","","","","","","","","","","","","","","","","","","","","","","","","","feedback_test","","","","","","","","","","","",""
"849","","f","psychophysics","99","377224","0.0-7.0-0.0-1.0-0.0-0.45","4","4","4","4","4","4","4","4","4","4","5","5","5","5","5","5","5","5","5","5","1","1","1","1","1","1","1","1","1","0","1","0","0","1","1","0","1","1","0","0","1","0","1","0","5","1","5","2","1","","4","4","2","5","1","786709021557137410","王","336","","","","match","","","","","","","","","","","","","","key","f","16.663394495412824","683","380","f","true","match","img/ellipse.png","椭圆","椭圆","ALT1_1","prac_ALT1_1","","","","","","","","","","","",""
"null","<span style='color:GreenYellow; font-size: 70px;'>正确! </span>","null","html-keyboard-response","100","377727","0.0-7.0-0.0-1.0-0.0-1.45","4","4","4","4","4","4","4","4","4","4","5","5","5","5","5","5","5","5","5","5","1","1","1","1","1","1","1","1","1","0","1","0","0","1","1","0","1","1","0","0","1","0","1","0","5","1","5","2","1","","4","4","2","5","1","786709021557137410","王","336","","","","","","","","","","","","","","","","","","","","","","","","","","","","","","feedback_test","","","","","","","","","","","",""
"751","","f","psychophysics","101","379481","0.0-7.0-0.0-1.0-0.0-0.46","4","4","4","4","4","4","4","4","4","4","5","5","5","5","5","5","5","5","5","5","1","1","1","1","1","1","1","1","1","0","1","0","0","1","1","0","1","1","0","0","1","0","1","0","5","1","5","2","1","","4","4","2","5","1","786709021557137410","王","336","","","","match","","","","","","","","","","","","","","key","f","16.66322115384649","683","380","f","true","match","img/hexagon.png","六边","六边","ALT1_1","prac_ALT1_1","","","","","","","","","","","",""
"null","<span style='color:GreenYellow; font-size: 70px;'>正确! </span>","null","html-keyboard-response","102","379983","0.0-7.0-0.0-1.0-0.0-1.46","4","4","4","4","4","4","4","4","4","4","5","5","5","5","5","5","5","5","5","5","1","1","1","1","1","1","1","1","1","0","1","0","0","1","1","0","1","1","0","0","1","0","1","0","5","1","5","2","1","","4","4","2","5","1","786709021557137410","王","336","","","","","","","","","","","","","","","","","","","","","","","","","","","","","","feedback_test","","","","","","","","","","","",""
"872","","j","psychophysics","103","381859","0.0-7.0-0.0-1.0-0.0-0.47","4","4","4","4","4","4","4","4","4","4","5","5","5","5","5","5","5","5","5","5","1","1","1","1","1","1","1","1","1","0","1","0","0","1","1","0","1","1","0","0","1","0","1","0","5","1","5","2","1","","4","4","2","5","1","786709021557137410","王","336","","","","nonmatch","","","","","","","","","","","","","","key","j","16.66446428571414","683","380","j","true","nonmatch","img/trapezoid.png","六边","梯形","ALT1_1","prac_ALT1_1","","","","","","","","","","","",""
"null","<span style='color:GreenYellow; font-size: 70px;'>正确! </span>","null","html-keyboard-response","104","382363","0.0-7.0-0.0-1.0-0.0-1.47","4","4","4","4","4","4","4","4","4","4","5","5","5","5","5","5","5","5","5","5","1","1","1","1","1","1","1","1","1","0","1","0","0","1","1","0","1","1","0","0","1","0","1","0","5","1","5","2","1","","4","4","2","5","1","786709021557137410","王","336","","","","","","","","","","","","","","","","","","","","","","","","","","","","","","feedback_test","","","","","","","","","","","",""
"109187","<style>.context{color:white; font-size: 35px; line-height:40px}</style>                            <div><p class='context'>您正确回答了88% 的试次。</p><p class='context'>您的平均反应时为942毫秒。</p><p class='context'>恭喜您完成练习。按空格键进入正式实验。</p><p class='footer' style='font-size: 35px; line-height:40px;'>请在进入正式实验之前将您的<span style='color: lightgreen;'>食指</span>放在电脑键盘的相应键位上进行按键。</p>"," ","html-keyboard-response","105","491562","0.0-7.0-0.0-2.0","4","4","4","4","4","4","4","4","4","4","5","5","5","5","5","5","5","5","5","5","1","1","1","1","1","1","1","1","1","0","1","0","0","1","1","0","1","1","0","0","1","0","1","0","5","1","5","2","1","","4","4","2","5","1","786709021557137410","王","336","","","","","","","","","","","","","","","","","","","","","","","","","","","","","","","","","","","","","","","","","",""
"2967","
    <p style='color: white; font-size: 22px'>请您将手指放在按键上，准备进入正式的匹配任务。</p>
    <p> <div style = ""color: green""><按空格键进入下一阶段的匹配任务></div></p>
    "," ","html-keyboard-response","106","494538","0.0-7.0-0.0-3.0","4","4","4","4","4","4","4","4","4","4","5","5","5","5","5","5","5","5","5","5","1","1","1","1","1","1","1","1","1","0","1","0","0","1","1","0","1","1","0","0","1","0","1","0","5","1","5","2","1","","4","4","2","5","1","786709021557137410","王","336","","","","","","","","","","","","","","","","","","","","","","","","","","","","","","","","","","","","","","","","","",""
"893","","j","psychophysics","107","496438","0.0-7.0-0.0-4.0-0.0-0.0","4","4","4","4","4","4","4","4","4","4","5","5","5","5","5","5","5","5","5","5","1","1","1","1","1","1","1","1","1","0","1","0","0","1","1","0","1","1","0","0","1","0","1","0","5","1","5","2","1","","4","4","2","5","1","786709021557137410","王","336","","","","nonmatch","","","","","","","","","","","","","","key","j","16.661619469026864","683","380","j","true","nonmatch","img/ellipse.png","六边","椭圆","ALT1","formal_ALT1_1","","","","","","","","","","","",""
"null","<span style='color:GreenYellow; font-size: 70px;'>正确! </span>","null","html-keyboard-response","108","496941","0.0-7.0-0.0-4.0-0.0-1.0","4","4","4","4","4","4","4","4","4","4","5","5","5","5","5","5","5","5","5","5","1","1","1","1","1","1","1","1","1","0","1","0","0","1","1","0","1","1","0","0","1","0","1","0","5","1","5","2","1","","4","4","2","5","1","786709021557137410","王","336","","","","","","","","","","","","","","","","","","","","","","","","","","","","","","feedback_test","","","","","","","","","","","",""
"967","","f","psychophysics","109","498911","0.0-7.0-0.0-4.0-0.0-0.1","4","4","4","4","4","4","4","4","4","4","5","5","5","5","5","5","5","5","5","5","1","1","1","1","1","1","1","1","1","0","1","0","0","1","1","0","1","1","0","0","1","0","1","0","5","1","5","2","1","","4","4","2","5","1","786709021557137410","王","336","","","","match","","","","","","","","","","","","","","key","f","16.66279487179455","683","380","f","true","match","img/trapezoid.png","梯形","梯形","ALT1","formal_ALT1_1","","","","","","","","","","","",""
"null","<span style='color:GreenYellow; font-size: 70px;'>正确! </span>","null","html-keyboard-response","110","499413","0.0-7.0-0.0-4.0-0.0-1.1","4","4","4","4","4","4","4","4","4","4","5","5","5","5","5","5","5","5","5","5","1","1","1","1","1","1","1","1","1","0","1","0","0","1","1","0","1","1","0","0","1","0","1","0","5","1","5","2","1","","4","4","2","5","1","786709021557137410","王","336","","","","","","","","","","","","","","","","","","","","","","","","","","","","","","feedback_test","","","","","","","","","","","",""
"839","","f","psychophysics","111","501255","0.0-7.0-0.0-4.0-0.0-0.2","4","4","4","4","4","4","4","4","4","4","5","5","5","5","5","5","5","5","5","5","1","1","1","1","1","1","1","1","1","0","1","0","0","1","1","0","1","1","0","0","1","0","1","0","5","1","5","2","1","","4","4","2","5","1","786709021557137410","王","336","","","","match","","","","","","","","","","","","","","key","f","16.663174311926273","683","380","f","true","match","img/hexagon.png","六边","六边","ALT1","formal_ALT1_1","","","","","","","","","","","",""
"null","<span style='color:GreenYellow; font-size: 70px;'>正确! </span>","null","html-keyboard-response","112","501757","0.0-7.0-0.0-4.0-0.0-1.2","4","4","4","4","4","4","4","4","4","4","5","5","5","5","5","5","5","5","5","5","1","1","1","1","1","1","1","1","1","0","1","0","0","1","1","0","1","1","0","0","1","0","1","0","5","1","5","2","1","","4","4","2","5","1","786709021557137410","王","336","","","","","","","","","","","","","","","","","","","","","","","","","","","","","","feedback_test","","","","","","","","","","","",""
"890","","j","psychophysics","113","503650","0.0-7.0-0.0-4.0-0.0-0.3","4","4","4","4","4","4","4","4","4","4","5","5","5","5","5","5","5","5","5","5","1","1","1","1","1","1","1","1","1","0","1","0","0","1","1","0","1","1","0","0","1","0","1","0","5","1","5","2","1","","4","4","2","5","1","786709021557137410","王","336","","","","nonmatch","","","","","","","","","","","","","","key","j","16.66319642857135","683","380","j","true","nonmatch","img/hexagon.png","三角","六边","ALT1","formal_ALT1_1","","","","","","","","","","","",""
"null","<span style='color:GreenYellow; font-size: 70px;'>正确! </span>","null","html-keyboard-response","114","504152","0.0-7.0-0.0-4.0-0.0-1.3","4","4","4","4","4","4","4","4","4","4","5","5","5","5","5","5","5","5","5","5","1","1","1","1","1","1","1","1","1","0","1","0","0","1","1","0","1","1","0","0","1","0","1","0","5","1","5","2","1","","4","4","2","5","1","786709021557137410","王","336","","","","","","","","","","","","","","","","","","","","","","","","","","","","","","feedback_test","","","","","","","","","","","",""
"874","","j","psychophysics","115","506033","0.0-7.0-0.0-4.0-0.0-0.4","4","4","4","4","4","4","4","4","4","4","5","5","5","5","5","5","5","5","5","5","1","1","1","1","1","1","1","1","1","0","1","0","0","1","1","0","1","1","0","0","1","0","1","0","5","1","5","2","1","","4","4","2","5","1","786709021557137410","王","336","","","","nonmatch","","","","","","","","","","","","","","key","j","16.663526785714307","683","380","j","true","nonmatch","img/trapezoid.png","六边","梯形","ALT1","formal_ALT1_1","","","","","","","","","","","",""
"null","<span style='color:GreenYellow; font-size: 70px;'>正确! </span>","null","html-keyboard-response","116","506535","0.0-7.0-0.0-4.0-0.0-1.4","4","4","4","4","4","4","4","4","4","4","5","5","5","5","5","5","5","5","5","5","1","1","1","1","1","1","1","1","1","0","1","0","0","1","1","0","1","1","0","0","1","0","1","0","5","1","5","2","1","","4","4","2","5","1","786709021557137410","王","336","","","","","","","","","","","","","","","","","","","","","","","","","","","","","","feedback_test","","","","","","","","","","","",""
"840","","f","psychophysics","117","508382","0.0-7.0-0.0-4.0-0.0-0.5","4","4","4","4","4","4","4","4","4","4","5","5","5","5","5","5","5","5","5","5","1","1","1","1","1","1","1","1","1","0","1","0","0","1","1","0","1","1","0","0","1","0","1","0","5","1","5","2","1","","4","4","2","5","1","786709021557137410","王","336","","","","match","","","","","","","","","","","","","","key","f","16.66386363636385","683","380","f","true","match","img/ellipse.png","椭圆","椭圆","ALT1","formal_ALT1_1","","","","","","","","","","","",""
"null","<span style='color:GreenYellow; font-size: 70px;'>正确! </span>","null","html-keyboard-response","118","508884","0.0-7.0-0.0-4.0-0.0-1.5","4","4","4","4","4","4","4","4","4","4","5","5","5","5","5","5","5","5","5","5","1","1","1","1","1","1","1","1","1","0","1","0","0","1","1","0","1","1","0","0","1","0","1","0","5","1","5","2","1","","4","4","2","5","1","786709021557137410","王","336","","","","","","","","","","","","","","","","","","","","","","","","","","","","","","feedback_test","","","","","","","","","","","",""
"879","","f","psychophysics","119","510765","0.0-7.0-0.0-4.0-0.0-0.6","4","4","4","4","4","4","4","4","4","4","5","5","5","5","5","5","5","5","5","5","1","1","1","1","1","1","1","1","1","0","1","0","0","1","1","0","1","1","0","0","1","0","1","0","5","1","5","2","1","","4","4","2","5","1","786709021557137410","王","336","","","","match","","","","","","","","","","","","","","key","f","16.662607142857137","683","380","f","true","match","img/triangle.png","三角","三角","ALT1","formal_ALT1_1","","","","","","","","","","","",""
"null","<span style='color:GreenYellow; font-size: 70px;'>正确! </span>","null","html-keyboard-response","120","511267","0.0-7.0-0.0-4.0-0.0-1.6","4","4","4","4","4","4","4","4","4","4","5","5","5","5","5","5","5","5","5","5","1","1","1","1","1","1","1","1","1","0","1","0","0","1","1","0","1","1","0","0","1","0","1","0","5","1","5","2","1","","4","4","2","5","1","786709021557137410","王","336","","","","","","","","","","","","","","","","","","","","","","","","","","","","","","feedback_test","","","","","","","","","","","",""
"955","","j","psychophysics","121","513226","0.0-7.0-0.0-4.0-0.0-0.7","4","4","4","4","4","4","4","4","4","4","5","5","5","5","5","5","5","5","5","5","1","1","1","1","1","1","1","1","1","0","1","0","0","1","1","0","1","1","0","0","1","0","1","0","5","1","5","2","1","","4","4","2","5","1","786709021557137410","王","336","","","","nonmatch","","","","","","","","","","","","","","key","j","16.663512820512768","683","380","j","true","nonmatch","img/ellipse.png","梯形","椭圆","ALT1","formal_ALT1_1","","","","","","","","","","","",""
"null","<span style='color:GreenYellow; font-size: 70px;'>正确! </span>","null","html-keyboard-response","122","513729","0.0-7.0-0.0-4.0-0.0-1.7","4","4","4","4","4","4","4","4","4","4","5","5","5","5","5","5","5","5","5","5","1","1","1","1","1","1","1","1","1","0","1","0","0","1","1","0","1","1","0","0","1","0","1","0","5","1","5","2","1","","4","4","2","5","1","786709021557137410","王","336","","","","","","","","","","","","","","","","","","","","","","","","","","","","","","feedback_test","","","","","","","","","","","",""
"931","","j","psychophysics","123","515664","0.0-7.0-0.0-4.0-0.0-0.8","4","4","4","4","4","4","4","4","4","4","5","5","5","5","5","5","5","5","5","5","1","1","1","1","1","1","1","1","1","0","1","0","0","1","1","0","1","1","0","0","1","0","1","0","5","1","5","2","1","","4","4","2","5","1","786709021557137410","王","336","","","","nonmatch","","","","","","","","","","","","","","key","j","16.663991304347796","683","380","j","true","nonmatch","img/triangle.png","椭圆","三角","ALT1","formal_ALT1_1","","","","","","","","","","","",""
"null","<span style='color:GreenYellow; font-size: 70px;'>正确! </span>","null","html-keyboard-response","124","516167","0.0-7.0-0.0-4.0-0.0-1.8","4","4","4","4","4","4","4","4","4","4","5","5","5","5","5","5","5","5","5","5","1","1","1","1","1","1","1","1","1","0","1","0","0","1","1","0","1","1","0","0","1","0","1","0","5","1","5","2","1","","4","4","2","5","1","786709021557137410","王","336","","","","","","","","","","","","","","","","","","","","","","","","","","","","","","feedback_test","","","","","","","","","","","",""
"850","","f","psychophysics","125","518023","0.0-7.0-0.0-4.0-0.0-0.9","4","4","4","4","4","4","4","4","4","4","5","5","5","5","5","5","5","5","5","5","1","1","1","1","1","1","1","1","1","0","1","0","0","1","1","0","1","1","0","0","1","0","1","0","5","1","5","2","1","","4","4","2","5","1","786709021557137410","王","336","","","","match","","","","","","","","","","","","","","key","f","16.662621621621945","683","380","f","true","match","img/hexagon.png","六边","六边","ALT1","formal_ALT1_1","","","","","","","","","","","",""
"null","<span style='color:GreenYellow; font-size: 70px;'>正确! </span>","null","html-keyboard-response","126","518526","0.0-7.0-0.0-4.0-0.0-1.9","4","4","4","4","4","4","4","4","4","4","5","5","5","5","5","5","5","5","5","5","1","1","1","1","1","1","1","1","1","0","1","0","0","1","1","0","1","1","0","0","1","0","1","0","5","1","5","2","1","","4","4","2","5","1","786709021557137410","王","336","","","","","","","","","","","","","","","","","","","","","","","","","","","","","","feedback_test","","","","","","","","","","","",""
"997","","f","psychophysics","127","520526","0.0-7.0-0.0-4.0-0.0-0.10","4","4","4","4","4","4","4","4","4","4","5","5","5","5","5","5","5","5","5","5","1","1","1","1","1","1","1","1","1","0","1","0","0","1","1","0","1","1","0","0","1","0","1","0","5","1","5","2","1","","4","4","2","5","1","786709021557137410","王","336","","","","match","","","","","","","","","","","","","","key","f","16.662983193277466","683","380","j","false","nonmatch","img/triangle.png","六边","三角","ALT1","formal_ALT1_1","","","","","","","","","","","",""
"null","<span style='color:red; font-size: 70px;'>错误! </span>","null","html-keyboard-response","128","521028","0.0-7.0-0.0-4.0-0.0-1.10","4","4","4","4","4","4","4","4","4","4","5","5","5","5","5","5","5","5","5","5","1","1","1","1","1","1","1","1","1","0","1","0","0","1","1","0","1","1","0","0","1","0","1","0","5","1","5","2","1","","4","4","2","5","1","786709021557137410","王","336","","","","","","","","","","","","","","","","","","","","","","","","","","","","","","feedback_test","","","","","","","","","","","",""
"1025","","j","psychophysics","129","523056","0.0-7.0-0.0-4.0-0.0-0.11","4","4","4","4","4","4","4","4","4","4","5","5","5","5","5","5","5","5","5","5","1","1","1","1","1","1","1","1","1","0","1","0","0","1","1","0","1","1","0","0","1","0","1","0","5","1","5","2","1","","4","4","2","5","1","786709021557137410","王","336","","","","nonmatch","","","","","","","","","","","","","","key","j","16.66417355371941","683","380","j","true","nonmatch","img/trapezoid.png","椭圆","梯形","ALT1","formal_ALT1_1","","","","","","","","","","","",""
"null","<span style='color:GreenYellow; font-size: 70px;'>正确! </span>","null","html-keyboard-response","130","523557","0.0-7.0-0.0-4.0-0.0-1.11","4","4","4","4","4","4","4","4","4","4","5","5","5","5","5","5","5","5","5","5","1","1","1","1","1","1","1","1","1","0","1","0","0","1","1","0","1","1","0","0","1","0","1","0","5","1","5","2","1","","4","4","2","5","1","786709021557137410","王","336","","","","","","","","","","","","","","","","","","","","","","","","","","","","","","feedback_test","","","","","","","","","","","",""
"813","","f","psychophysics","131","525374","0.0-7.0-0.0-4.0-0.0-0.12","4","4","4","4","4","4","4","4","4","4","5","5","5","5","5","5","5","5","5","5","1","1","1","1","1","1","1","1","1","0","1","0","0","1","1","0","1","1","0","0","1","0","1","0","5","1","5","2","1","","4","4","2","5","1","786709021557137410","王","336","","","","match","","","","","","","","","","","","","","key","f","16.662851851851748","683","380","f","true","match","img/hexagon.png","六边","六边","ALT1","formal_ALT1_1","","","","","","","","","","","",""
"null","<span style='color:GreenYellow; font-size: 70px;'>正确! </span>","null","html-keyboard-response","132","525876","0.0-7.0-0.0-4.0-0.0-1.12","4","4","4","4","4","4","4","4","4","4","5","5","5","5","5","5","5","5","5","5","1","1","1","1","1","1","1","1","1","0","1","0","0","1","1","0","1","1","0","0","1","0","1","0","5","1","5","2","1","","4","4","2","5","1","786709021557137410","王","336","","","","","","","","","","","","","","","","","","","","","","","","","","","","","","feedback_test","","","","","","","","","","","",""
"942","","j","psychophysics","133","527821","0.0-7.0-0.0-4.0-0.0-0.13","4","4","4","4","4","4","4","4","4","4","5","5","5","5","5","5","5","5","5","5","1","1","1","1","1","1","1","1","1","0","1","0","0","1","1","0","1","1","0","0","1","0","1","0","5","1","5","2","1","","4","4","2","5","1","786709021557137410","王","336","","","","nonmatch","","","","","","","","","","","","","","key","j","16.66462068965534","683","380","j","true","nonmatch","img/ellipse.png","三角","椭圆","ALT1","formal_ALT1_1","","","","","","","","","","","",""
"null","<span style='color:GreenYellow; font-size: 70px;'>正确! </span>","null","html-keyboard-response","134","528324","0.0-7.0-0.0-4.0-0.0-1.13","4","4","4","4","4","4","4","4","4","4","5","5","5","5","5","5","5","5","5","5","1","1","1","1","1","1","1","1","1","0","1","0","0","1","1","0","1","1","0","0","1","0","1","0","5","1","5","2","1","","4","4","2","5","1","786709021557137410","王","336","","","","","","","","","","","","","","","","","","","","","","","","","","","","","","feedback_test","","","","","","","","","","","",""
"880","","j","psychophysics","135","530208","0.0-7.0-0.0-4.0-0.0-0.14","4","4","4","4","4","4","4","4","4","4","5","5","5","5","5","5","5","5","5","5","1","1","1","1","1","1","1","1","1","0","1","0","0","1","1","0","1","1","0","0","1","0","1","0","5","1","5","2","1","","4","4","2","5","1","786709021557137410","王","336","","","","nonmatch","","","","","","","","","","","","","","key","j","16.816700000000527","683","380","j","true","nonmatch","img/triangle.png","梯形","三角","ALT1","formal_ALT1_1","","","","","","","","","","","",""
"null","<span style='color:GreenYellow; font-size: 70px;'>正确! </span>","null","html-keyboard-response","136","530711","0.0-7.0-0.0-4.0-0.0-1.14","4","4","4","4","4","4","4","4","4","4","5","5","5","5","5","5","5","5","5","5","1","1","1","1","1","1","1","1","1","0","1","0","0","1","1","0","1","1","0","0","1","0","1","0","5","1","5","2","1","","4","4","2","5","1","786709021557137410","王","336","","","","","","","","","","","","","","","","","","","","","","","","","","","","","","feedback_test","","","","","","","","","","","",""
"932","","f","psychophysics","137","532646","0.0-7.0-0.0-4.0-0.0-0.15","4","4","4","4","4","4","4","4","4","4","5","5","5","5","5","5","5","5","5","5","1","1","1","1","1","1","1","1","1","0","1","0","0","1","1","0","1","1","0","0","1","0","1","0","5","1","5","2","1","","4","4","2","5","1","786709021557137410","王","336","","","","match","","","","","","","","","","","","","","key","f","16.664878260869653","683","380","f","true","match","img/trapezoid.png","梯形","梯形","ALT1","formal_ALT1_1","","","","","","","","","","","",""
"null","<span style='color:GreenYellow; font-size: 70px;'>正确! </span>","null","html-keyboard-response","138","533149","0.0-7.0-0.0-4.0-0.0-1.15","4","4","4","4","4","4","4","4","4","4","5","5","5","5","5","5","5","5","5","5","1","1","1","1","1","1","1","1","1","0","1","0","0","1","1","0","1","1","0","0","1","0","1","0","5","1","5","2","1","","4","4","2","5","1","786709021557137410","王","336","","","","","","","","","","","","","","","","","","","","","","","","","","","","","","feedback_test","","","","","","","","","","","",""
"903","","f","psychophysics","139","535054","0.0-7.0-0.0-4.0-0.0-0.16","4","4","4","4","4","4","4","4","4","4","5","5","5","5","5","5","5","5","5","5","1","1","1","1","1","1","1","1","1","0","1","0","0","1","1","0","1","1","0","0","1","0","1","0","5","1","5","2","1","","4","4","2","5","1","786709021557137410","王","336","","","","match","","","","","","","","","","","","","","key","f","16.663318584070424","683","380","f","true","match","img/ellipse.png","椭圆","椭圆","ALT1","formal_ALT1_1","","","","","","","","","","","",""
"null","<span style='color:GreenYellow; font-size: 70px;'>正确! </span>","null","html-keyboard-response","140","535555","0.0-7.0-0.0-4.0-0.0-1.16","4","4","4","4","4","4","4","4","4","4","5","5","5","5","5","5","5","5","5","5","1","1","1","1","1","1","1","1","1","0","1","0","0","1","1","0","1","1","0","0","1","0","1","0","5","1","5","2","1","","4","4","2","5","1","786709021557137410","王","336","","","","","","","","","","","","","","","","","","","","","","","","","","","","","","feedback_test","","","","","","","","","","","",""
"859","","j","psychophysics","141","537417","0.0-7.0-0.0-4.0-0.0-0.17","4","4","4","4","4","4","4","4","4","4","5","5","5","5","5","5","5","5","5","5","1","1","1","1","1","1","1","1","1","0","1","0","0","1","1","0","1","1","0","0","1","0","1","0","5","1","5","2","1","","4","4","2","5","1","786709021557137410","王","336","","","","nonmatch","","","","","","","","","","","","","","key","j","16.662783783783944","683","380","j","true","nonmatch","img/trapezoid.png","三角","梯形","ALT1","formal_ALT1_1","","","","","","","","","","","",""
"null","<span style='color:GreenYellow; font-size: 70px;'>正确! </span>","null","html-keyboard-response","142","537920","0.0-7.0-0.0-4.0-0.0-1.17","4","4","4","4","4","4","4","4","4","4","5","5","5","5","5","5","5","5","5","5","1","1","1","1","1","1","1","1","1","0","1","0","0","1","1","0","1","1","0","0","1","0","1","0","5","1","5","2","1","","4","4","2","5","1","786709021557137410","王","336","","","","","","","","","","","","","","","","","","","","","","","","","","","","","","feedback_test","","","","","","","","","","","",""
"905","","f","psychophysics","143","539829","0.0-7.0-0.0-4.0-0.0-0.18","4","4","4","4","4","4","4","4","4","4","5","5","5","5","5","5","5","5","5","5","1","1","1","1","1","1","1","1","1","0","1","0","0","1","1","0","1","1","0","0","1","0","1","0","5","1","5","2","1","","4","4","2","5","1","786709021557137410","王","336","","","","match","","","","","","","","","","","","","","key","f","16.66333628318631","683","380","j","false","nonmatch","img/hexagon.png","梯形","六边","ALT1","formal_ALT1_1","","","","","","","","","","","",""
"null","<span style='color:red; font-size: 70px;'>错误! </span>","null","html-keyboard-response","144","540333","0.0-7.0-0.0-4.0-0.0-1.18","4","4","4","4","4","4","4","4","4","4","5","5","5","5","5","5","5","5","5","5","1","1","1","1","1","1","1","1","1","0","1","0","0","1","1","0","1","1","0","0","1","0","1","0","5","1","5","2","1","","4","4","2","5","1","786709021557137410","王","336","","","","","","","","","","","","","","","","","","","","","","","","","","","","","","feedback_test","","","","","","","","","","","",""
"863","","f","psychophysics","145","542200","0.0-7.0-0.0-4.0-0.0-0.19","4","4","4","4","4","4","4","4","4","4","5","5","5","5","5","5","5","5","5","5","1","1","1","1","1","1","1","1","1","0","1","0","0","1","1","0","1","1","0","0","1","0","1","0","5","1","5","2","1","","4","4","2","5","1","786709021557137410","王","336","","","","match","","","","","","","","","","","","","","key","f","16.66337837837846","683","380","f","true","match","img/triangle.png","三角","三角","ALT1","formal_ALT1_1","","","","","","","","","","","",""
"null","<span style='color:GreenYellow; font-size: 70px;'>正确! </span>","null","html-keyboard-response","146","542702","0.0-7.0-0.0-4.0-0.0-1.19","4","4","4","4","4","4","4","4","4","4","5","5","5","5","5","5","5","5","5","5","1","1","1","1","1","1","1","1","1","0","1","0","0","1","1","0","1","1","0","0","1","0","1","0","5","1","5","2","1","","4","4","2","5","1","786709021557137410","王","336","","","","","","","","","","","","","","","","","","","","","","","","","","","","","","feedback_test","","","","","","","","","","","",""
"1014","","j","psychophysics","147","544718","0.0-7.0-0.0-4.0-0.0-0.20","4","4","4","4","4","4","4","4","4","4","5","5","5","5","5","5","5","5","5","5","1","1","1","1","1","1","1","1","1","0","1","0","0","1","1","0","1","1","0","0","1","0","1","0","5","1","5","2","1","","4","4","2","5","1","786709021557137410","王","336","","","","nonmatch","","","","","","","","","","","","","","key","j","16.663274999999945","683","380","j","true","nonmatch","img/hexagon.png","椭圆","六边","ALT1","formal_ALT1_1","","","","","","","","","","","",""
"null","<span style='color:GreenYellow; font-size: 70px;'>正确! </span>","null","html-keyboard-response","148","545221","0.0-7.0-0.0-4.0-0.0-1.20","4","4","4","4","4","4","4","4","4","4","5","5","5","5","5","5","5","5","5","5","1","1","1","1","1","1","1","1","1","0","1","0","0","1","1","0","1","1","0","0","1","0","1","0","5","1","5","2","1","","4","4","2","5","1","786709021557137410","王","336","","","","","","","","","","","","","","","","","","","","","","","","","","","","","","feedback_test","","","","","","","","","","","",""
"905","","f","psychophysics","149","547130","0.0-7.0-0.0-4.0-0.0-0.21","4","4","4","4","4","4","4","4","4","4","5","5","5","5","5","5","5","5","5","5","1","1","1","1","1","1","1","1","1","0","1","0","0","1","1","0","1","1","0","0","1","0","1","0","5","1","5","2","1","","4","4","2","5","1","786709021557137410","王","336","","","","match","","","","","","","","","","","","","","key","f","16.66404424778771","683","380","f","true","match","img/triangle.png","三角","三角","ALT1","formal_ALT1_1","","","","","","","","","","","",""
"null","<span style='color:GreenYellow; font-size: 70px;'>正确! </span>","null","html-keyboard-response","150","547633","0.0-7.0-0.0-4.0-0.0-1.21","4","4","4","4","4","4","4","4","4","4","5","5","5","5","5","5","5","5","5","5","1","1","1","1","1","1","1","1","1","0","1","0","0","1","1","0","1","1","0","0","1","0","1","0","5","1","5","2","1","","4","4","2","5","1","786709021557137410","王","336","","","","","","","","","","","","","","","","","","","","","","","","","","","","","","feedback_test","","","","","","","","","","","",""
"746","","f","psychophysics","151","549382","0.0-7.0-0.0-4.0-0.0-0.22","4","4","4","4","4","4","4","4","4","4","5","5","5","5","5","5","5","5","5","5","1","1","1","1","1","1","1","1","1","0","1","0","0","1","1","0","1","1","0","0","1","0","1","0","5","1","5","2","1","","4","4","2","5","1","786709021557137410","王","336","","","","match","","","","","","","","","","","","","","key","f","16.663432692307442","683","380","f","true","match","img/ellipse.png","椭圆","椭圆","ALT1","formal_ALT1_1","","","","","","","","","","","",""
"null","<span style='color:GreenYellow; font-size: 70px;'>正确! </span>","null","html-keyboard-response","152","549884","0.0-7.0-0.0-4.0-0.0-1.22","4","4","4","4","4","4","4","4","4","4","5","5","5","5","5","5","5","5","5","5","1","1","1","1","1","1","1","1","1","0","1","0","0","1","1","0","1","1","0","0","1","0","1","0","5","1","5","2","1","","4","4","2","5","1","786709021557137410","王","336","","","","","","","","","","","","","","","","","","","","","","","","","","","","","","feedback_test","","","","","","","","","","","",""
"978","","f","psychophysics","153","551865","0.0-7.0-0.0-4.0-0.0-0.23","4","4","4","4","4","4","4","4","4","4","5","5","5","5","5","5","5","5","5","5","1","1","1","1","1","1","1","1","1","0","1","0","0","1","1","0","1","1","0","0","1","0","1","0","5","1","5","2","1","","4","4","2","5","1","786709021557137410","王","336","","","","match","","","","","","","","","","","","","","key","f","16.662347457627174","683","380","f","true","match","img/trapezoid.png","梯形","梯形","ALT1","formal_ALT1_1","","","","","","","","","","","",""
"null","<span style='color:GreenYellow; font-size: 70px;'>正确! </span>","null","html-keyboard-response","154","552368","0.0-7.0-0.0-4.0-0.0-1.23","4","4","4","4","4","4","4","4","4","4","5","5","5","5","5","5","5","5","5","5","1","1","1","1","1","1","1","1","1","0","1","0","0","1","1","0","1","1","0","0","1","0","1","0","5","1","5","2","1","","4","4","2","5","1","786709021557137410","王","336","","","","","","","","","","","","","","","","","","","","","","","","","","","","","","feedback_test","","","","","","","","","","","",""
"995","","j","psychophysics","155","554370","0.0-7.0-0.0-4.0-0.0-0.24","4","4","4","4","4","4","4","4","4","4","5","5","5","5","5","5","5","5","5","5","1","1","1","1","1","1","1","1","1","0","1","0","0","1","1","0","1","1","0","0","1","0","1","0","5","1","5","2","1","","4","4","2","5","1","786709021557137410","王","336","","","","nonmatch","","","","","","","","","","","","","","key","j","16.662252100840007","683","380","j","true","nonmatch","img/hexagon.png","梯形","六边","ALT1","formal_ALT1_1","","","","","","","","","","","",""
"null","<span style='color:GreenYellow; font-size: 70px;'>正确! </span>","null","html-keyboard-response","156","554871","0.0-7.0-0.0-4.0-0.0-1.24","4","4","4","4","4","4","4","4","4","4","5","5","5","5","5","5","5","5","5","5","1","1","1","1","1","1","1","1","1","0","1","0","0","1","1","0","1","1","0","0","1","0","1","0","5","1","5","2","1","","4","4","2","5","1","786709021557137410","王","336","","","","","","","","","","","","","","","","","","","","","","","","","","","","","","feedback_test","","","","","","","","","","","",""
"991","","j","psychophysics","157","556865","0.0-7.0-0.0-4.0-0.0-0.25","4","4","4","4","4","4","4","4","4","4","5","5","5","5","5","5","5","5","5","5","1","1","1","1","1","1","1","1","1","0","1","0","0","1","1","0","1","1","0","0","1","0","1","0","5","1","5","2","1","","4","4","2","5","1","786709021557137410","王","336","","","","nonmatch","","","","","","","","","","","","","","key","j","16.662815126050422","683","380","j","true","nonmatch","img/hexagon.png","三角","六边","ALT1","formal_ALT1_1","","","","","","","","","","","",""
"null","<span style='color:GreenYellow; font-size: 70px;'>正确! </span>","null","html-keyboard-response","158","557367","0.0-7.0-0.0-4.0-0.0-1.25","4","4","4","4","4","4","4","4","4","4","5","5","5","5","5","5","5","5","5","5","1","1","1","1","1","1","1","1","1","0","1","0","0","1","1","0","1","1","0","0","1","0","1","0","5","1","5","2","1","","4","4","2","5","1","786709021557137410","王","336","","","","","","","","","","","","","","","","","","","","","","","","","","","","","","feedback_test","","","","","","","","","","","",""
"840","","f","psychophysics","159","559210","0.0-7.0-0.0-4.0-0.0-0.26","4","4","4","4","4","4","4","4","4","4","5","5","5","5","5","5","5","5","5","5","1","1","1","1","1","1","1","1","1","0","1","0","0","1","1","0","1","1","0","0","1","0","1","0","5","1","5","2","1","","4","4","2","5","1","786709021557137410","王","336","","","","match","","","","","","","","","","","","","","key","f","16.66209174311878","683","380","f","true","match","img/hexagon.png","六边","六边","ALT1","formal_ALT1_1","","","","","","","","","","","",""
"null","<span style='color:GreenYellow; font-size: 70px;'>正确! </span>","null","html-keyboard-response","160","559712","0.0-7.0-0.0-4.0-0.0-1.26","4","4","4","4","4","4","4","4","4","4","5","5","5","5","5","5","5","5","5","5","1","1","1","1","1","1","1","1","1","0","1","0","0","1","1","0","1","1","0","0","1","0","1","0","5","1","5","2","1","","4","4","2","5","1","786709021557137410","王","336","","","","","","","","","","","","","","","","","","","","","","","","","","","","","","feedback_test","","","","","","","","","","","",""
"938","","j","psychophysics","161","561653","0.0-7.0-0.0-4.0-0.0-0.27","4","4","4","4","4","4","4","4","4","4","5","5","5","5","5","5","5","5","5","5","1","1","1","1","1","1","1","1","1","0","1","0","0","1","1","0","1","1","0","0","1","0","1","0","5","1","5","2","1","","4","4","2","5","1","786709021557137410","王","336","","","","nonmatch","","","","","","","","","","","","","","key","j","16.663860869564562","683","380","j","true","nonmatch","img/ellipse.png","六边","椭圆","ALT1","formal_ALT1_1","","","","","","","","","","","",""
"null","<span style='color:GreenYellow; font-size: 70px;'>正确! </span>","null","html-keyboard-response","162","562156","0.0-7.0-0.0-4.0-0.0-1.27","4","4","4","4","4","4","4","4","4","4","5","5","5","5","5","5","5","5","5","5","1","1","1","1","1","1","1","1","1","0","1","0","0","1","1","0","1","1","0","0","1","0","1","0","5","1","5","2","1","","4","4","2","5","1","786709021557137410","王","336","","","","","","","","","","","","","","","","","","","","","","","","","","","","","","feedback_test","","","","","","","","","","","",""
"893","","j","psychophysics","163","564053","0.0-7.0-0.0-4.0-0.0-0.28","4","4","4","4","4","4","4","4","4","4","5","5","5","5","5","5","5","5","5","5","1","1","1","1","1","1","1","1","1","0","1","0","0","1","1","0","1","1","0","0","1","0","1","0","5","1","5","2","1","","4","4","2","5","1","786709021557137410","王","336","","","","nonmatch","","","","","","","","","","","","","","key","j","16.664017857142817","683","380","j","true","nonmatch","img/triangle.png","梯形","三角","ALT1","formal_ALT1_1","","","","","","","","","","","",""
"null","<span style='color:GreenYellow; font-size: 70px;'>正确! </span>","null","html-keyboard-response","164","564556","0.0-7.0-0.0-4.0-0.0-1.28","4","4","4","4","4","4","4","4","4","4","5","5","5","5","5","5","5","5","5","5","1","1","1","1","1","1","1","1","1","0","1","0","0","1","1","0","1","1","0","0","1","0","1","0","5","1","5","2","1","","4","4","2","5","1","786709021557137410","王","336","","","","","","","","","","","","","","","","","","","","","","","","","","","","","","feedback_test","","","","","","","","","","","",""
"925","","j","psychophysics","165","566484","0.0-7.0-0.0-4.0-0.0-0.29","4","4","4","4","4","4","4","4","4","4","5","5","5","5","5","5","5","5","5","5","1","1","1","1","1","1","1","1","1","0","1","0","0","1","1","0","1","1","0","0","1","0","1","0","5","1","5","2","1","","4","4","2","5","1","786709021557137410","王","336","","","","nonmatch","","","","","","","","","","","","","","key","j","16.662280701754387","683","380","j","true","nonmatch","img/hexagon.png","椭圆","六边","ALT1","formal_ALT1_1","","","","","","","","","","","",""
"null","<span style='color:GreenYellow; font-size: 70px;'>正确! </span>","null","html-keyboard-response","166","566986","0.0-7.0-0.0-4.0-0.0-1.29","4","4","4","4","4","4","4","4","4","4","5","5","5","5","5","5","5","5","5","5","1","1","1","1","1","1","1","1","1","0","1","0","0","1","1","0","1","1","0","0","1","0","1","0","5","1","5","2","1","","4","4","2","5","1","786709021557137410","王","336","","","","","","","","","","","","","","","","","","","","","","","","","","","","","","feedback_test","","","","","","","","","","","",""
"877","","f","psychophysics","167","568869","0.0-7.0-0.0-4.0-0.0-0.30","4","4","4","4","4","4","4","4","4","4","5","5","5","5","5","5","5","5","5","5","1","1","1","1","1","1","1","1","1","0","1","0","0","1","1","0","1","1","0","0","1","0","1","0","5","1","5","2","1","","4","4","2","5","1","786709021557137410","王","336","","","","match","","","","","","","","","","","","","","key","f","16.663151785714685","683","380","f","true","match","img/hexagon.png","六边","六边","ALT1","formal_ALT1_1","","","","","","","","","","","",""
"null","<span style='color:GreenYellow; font-size: 70px;'>正确! </span>","null","html-keyboard-response","168","569371","0.0-7.0-0.0-4.0-0.0-1.30","4","4","4","4","4","4","4","4","4","4","5","5","5","5","5","5","5","5","5","5","1","1","1","1","1","1","1","1","1","0","1","0","0","1","1","0","1","1","0","0","1","0","1","0","5","1","5","2","1","","4","4","2","5","1","786709021557137410","王","336","","","","","","","","","","","","","","","","","","","","","","","","","","","","","","feedback_test","","","","","","","","","","","",""
"882","","f","psychophysics","169","571257","0.0-7.0-0.0-4.0-0.0-0.31","4","4","4","4","4","4","4","4","4","4","5","5","5","5","5","5","5","5","5","5","1","1","1","1","1","1","1","1","1","0","1","0","0","1","1","0","1","1","0","0","1","0","1","0","5","1","5","2","1","","4","4","2","5","1","786709021557137410","王","336","","","","match","","","","","","","","","","","","","","key","f","16.663414414414113","683","380","f","true","match","img/hexagon.png","六边","六边","ALT1","formal_ALT1_1","","","","","","","","","","","",""
"null","<span style='color:GreenYellow; font-size: 70px;'>正确! </span>","null","html-keyboard-response","170","571759","0.0-7.0-0.0-4.0-0.0-1.31","4","4","4","4","4","4","4","4","4","4","5","5","5","5","5","5","5","5","5","5","1","1","1","1","1","1","1","1","1","0","1","0","0","1","1","0","1","1","0","0","1","0","1","0","5","1","5","2","1","","4","4","2","5","1","786709021557137410","王","336","","","","","","","","","","","","","","","","","","","","","","","","","","","","","","feedback_test","","","","","","","","","","","",""
"839","","j","psychophysics","171","573600","0.0-7.0-0.0-4.0-0.0-0.32","4","4","4","4","4","4","4","4","4","4","5","5","5","5","5","5","5","5","5","5","1","1","1","1","1","1","1","1","1","0","1","0","0","1","1","0","1","1","0","0","1","0","1","0","5","1","5","2","1","","4","4","2","5","1","786709021557137410","王","336","","","","nonmatch","","","","","","","","","","","","","","key","j","16.66343119266067","683","380","j","true","nonmatch","img/triangle.png","六边","三角","ALT1","formal_ALT1_1","","","","","","","","","","","",""
"null","<span style='color:GreenYellow; font-size: 70px;'>正确! </span>","null","html-keyboard-response","172","574104","0.0-7.0-0.0-4.0-0.0-1.32","4","4","4","4","4","4","4","4","4","4","5","5","5","5","5","5","5","5","5","5","1","1","1","1","1","1","1","1","1","0","1","0","0","1","1","0","1","1","0","0","1","0","1","0","5","1","5","2","1","","4","4","2","5","1","786709021557137410","王","336","","","","","","","","","","","","","","","","","","","","","","","","","","","","","","feedback_test","","","","","","","","","","","",""
"1085","","j","psychophysics","173","576193","0.0-7.0-0.0-4.0-0.0-0.33","4","4","4","4","4","4","4","4","4","4","5","5","5","5","5","5","5","5","5","5","1","1","1","1","1","1","1","1","1","0","1","0","0","1","1","0","1","1","0","0","1","0","1","0","5","1","5","2","1","","4","4","2","5","1","786709021557137410","王","336","","","","nonmatch","","","","","","","","","","","","","","key","j","16.66387096774246","683","380","j","true","nonmatch","img/trapezoid.png","三角","梯形","ALT1","formal_ALT1_1","","","","","","","","","","","",""
"null","<span style='color:GreenYellow; font-size: 70px;'>正确! </span>","null","html-keyboard-response","174","576696","0.0-7.0-0.0-4.0-0.0-1.33","4","4","4","4","4","4","4","4","4","4","5","5","5","5","5","5","5","5","5","5","1","1","1","1","1","1","1","1","1","0","1","0","0","1","1","0","1","1","0","0","1","0","1","0","5","1","5","2","1","","4","4","2","5","1","786709021557137410","王","336","","","","","","","","","","","","","","","","","","","","","","","","","","","","","","feedback_test","","","","","","","","","","","",""
"925","","f","psychophysics","175","578624","0.0-7.0-0.0-4.0-0.0-0.34","4","4","4","4","4","4","4","4","4","4","5","5","5","5","5","5","5","5","5","5","1","1","1","1","1","1","1","1","1","0","1","0","0","1","1","0","1","1","0","0","1","0","1","0","5","1","5","2","1","","4","4","2","5","1","786709021557137410","王","336","","","","match","","","","","","","","","","","","","","key","f","16.66454782608755","683","380","f","true","match","img/trapezoid.png","梯形","梯形","ALT1","formal_ALT1_1","","","","","","","","","","","",""
"null","<span style='color:GreenYellow; font-size: 70px;'>正确! </span>","null","html-keyboard-response","176","579127","0.0-7.0-0.0-4.0-0.0-1.34","4","4","4","4","4","4","4","4","4","4","5","5","5","5","5","5","5","5","5","5","1","1","1","1","1","1","1","1","1","0","1","0","0","1","1","0","1","1","0","0","1","0","1","0","5","1","5","2","1","","4","4","2","5","1","786709021557137410","王","336","","","","","","","","","","","","","","","","","","","","","","","","","","","","","","feedback_test","","","","","","","","","","","",""
"920","","j","psychophysics","177","581050","0.0-7.0-0.0-4.0-0.0-0.35","4","4","4","4","4","4","4","4","4","4","5","5","5","5","5","5","5","5","5","5","1","1","1","1","1","1","1","1","1","0","1","0","0","1","1","0","1","1","0","0","1","0","1","0","5","1","5","2","1","","4","4","2","5","1","786709021557137410","王","336","","","","nonmatch","","","","","","","","","","","","","","key","j","16.66207017543881","683","380","j","true","nonmatch","img/trapezoid.png","六边","梯形","ALT1","formal_ALT1_1","","","","","","","","","","","",""
"null","<span style='color:GreenYellow; font-size: 70px;'>正确! </span>","null","html-keyboard-response","178","581555","0.0-7.0-0.0-4.0-0.0-1.35","4","4","4","4","4","4","4","4","4","4","5","5","5","5","5","5","5","5","5","5","1","1","1","1","1","1","1","1","1","0","1","0","0","1","1","0","1","1","0","0","1","0","1","0","5","1","5","2","1","","4","4","2","5","1","786709021557137410","王","336","","","","","","","","","","","","","","","","","","","","","","","","","","","","","","feedback_test","","","","","","","","","","","",""
"1099","","f","psychophysics","179","583657","0.0-7.0-0.0-4.0-0.0-0.36","4","4","4","4","4","4","4","4","4","4","5","5","5","5","5","5","5","5","5","5","1","1","1","1","1","1","1","1","1","0","1","0","0","1","1","0","1","1","0","0","1","0","1","0","5","1","5","2","1","","4","4","2","5","1","786709021557137410","王","336","","","","match","","","","","","","","","","","","","","key","f","16.66383199999947","683","380","f","true","match","img/triangle.png","三角","三角","ALT1","formal_ALT1_1","","","","","","","","","","","",""
"null","<span style='color:GreenYellow; font-size: 70px;'>正确! </span>","null","html-keyboard-response","180","584161","0.0-7.0-0.0-4.0-0.0-1.36","4","4","4","4","4","4","4","4","4","4","5","5","5","5","5","5","5","5","5","5","1","1","1","1","1","1","1","1","1","0","1","0","0","1","1","0","1","1","0","0","1","0","1","0","5","1","5","2","1","","4","4","2","5","1","786709021557137410","王","336","","","","","","","","","","","","","","","","","","","","","","","","","","","","","","feedback_test","","","","","","","","","","","",""
"902","","j","psychophysics","181","586065","0.0-7.0-0.0-4.0-0.0-0.37","4","4","4","4","4","4","4","4","4","4","5","5","5","5","5","5","5","5","5","5","1","1","1","1","1","1","1","1","1","0","1","0","0","1","1","0","1","1","0","0","1","0","1","0","5","1","5","2","1","","4","4","2","5","1","786709021557137410","王","336","","","","nonmatch","","","","","","","","","","","","","","key","j","16.66411504424713","683","380","j","true","nonmatch","img/ellipse.png","三角","椭圆","ALT1","formal_ALT1_1","","","","","","","","","","","",""
