"rt","stimulus","response","trial_type","trial_index","time_elapsed","internal_node_id","ses_1","ses_2","ses_3","ses_4","ses_5","ses_6","ses_7","ses_8","ses_9","ses_10","coreself_1","coreself_2","coreself_3","coreself_4","coreself_5","coreself_6","coreself_7","coreself_8","coreself_9","coreself_10","SGPS_1","SGPS_2","SGPS_3","SGPS_4","SGPS_5","SGPS_6","SGPS_7","SGPS_8","SGPS_9","NPI1","NPI2","NPI3","NPI4","NPI5","NPI6","NPI7","NPI8","NPI9","NPI10","NPI11","NPI12","NPI13","NPI14","NPI15","hsns_1","hsns_2","hsns_3","hsns_4","hsns_5","trap1","hsns_6","hsns_7","hsns_8","hsns_9","hsns_10","subj_idx","friend_name","ParticipantID","value","success","user_agent","responses","item_order","radio_event_ids","radio_event_times","key_event_times","mouse_event_times","straightlining","zigzagging","honeypot","timeout","failed_images","failed_audio","failed_video","view_history","response_type","key_press","avg_frame_time","center_x","center_y","correct_response","correct","identity","Image","word","condition","task_id","screen_id","time_stamp","version_attrib","version_target","IAT","RT","varname","summary","version_attrib2","version_target2","question_order","correct_answer","trap1_item"
"7755","
   <p><div style = ""color: white;font-size:25px;"">您好，欢迎参加本次实验。</div> </p>
   <p><div style = ""color: white;font-size:25px;"">为充分保障您的权利，请确保您已经知晓并同意《参与实验同意书》以及《数据公开知情同意书》。</div></p>
   <p><div style = ""color: white;font-size:25px;"">如果您未见过上述内容，请咨询实验员。</div></p>
   <p><div style = ""color: white;font-size:25px;"">如果您选择继续实验，则表示您已经清楚两份知情同意书的内容并同意。</div></p>
   <p><div style = ""color: pink;font-size:30px;"">请确保您记得day0的实验编号，您将在本次实验输入该编号，若您忘记，请咨询实验员后作答。</div></p>
   <p><div style = ""color: lightblue;font-size:25px;"">请您尽可能认真地作答，我们将依据您在各问卷和按键任务中的作答质量发放报酬。</div></p>
   <p> <div style = ""color: green;font-size:25px;""><按空格键至下页></div> </p>
   "," ","html-keyboard-response","0","7757","0.0-0.0","4","4","4","4","4","4","4","4","4","4","5","5","5","5","5","5","5","5","5","5","1","1","2","1","2","1","1","4","1","0","1","0","1","0","1","0","0","0","0","1","0","0","0","0","4","1","1","1","2","","2","1","1","3","1","598867196789129216","郭","361","","","","","","","","","","","","","","","","","","","","","","","","","","","","","","","","","","","","","","","","","",""
"","","","call-function","1","7757","0.0-1.0-0.0","4","4","4","4","4","4","4","4","4","4","5","5","5","5","5","5","5","5","5","5","1","1","2","1","2","1","1","4","1","0","1","0","1","0","1","0","0","0","0","1","0","0","0","0","4","1","1","1","2","","2","1","1","3","1","598867196789129216","郭","361","","","","","","","","","","","","","","","","","","","","","","","","","","","","","","","","","","","","","","","","","",""
"24030","","{""friend_name"":""郭"",""ParticipantID"":""361""}","survey-html-form","2","31788","0.0-1.0-1.0","4","4","4","4","4","4","4","4","4","4","5","5","5","5","5","5","5","5","5","5","1","1","2","1","2","1","1","4","1","0","1","0","1","0","1","0","0","0","0","1","0","0","0","0","4","1","1","1","2","","2","1","1","3","1","598867196789129216","郭","361","","","","","","","","","","","","","","","","","","","","","","","","","","","","","","","","","","","","","","","","","",""
"","","","fullscreen","3","33921","0.0-2.0","4","4","4","4","4","4","4","4","4","4","5","5","5","5","5","5","5","5","5","5","1","1","2","1","2","1","1","4","1","0","1","0","1","0","1","0","0","0","0","1","0","0","0","0","4","1","1","1","2","","2","1","1","3","1","598867196789129216","郭","361","","true","{}","","","","","","","","","","","","","","","","","","","","","","","","","","","","","","","","","","","","","","",""
"26753.5","","{""Q01"":""4"",""Q02"":""4"",""Q03"":""4"",""Q04"":""4"",""Q05"":""4"",""Q06"":""4"",""Q07"":""4"",""Q08"":""4"",""Q09"":""4"",""Q10"":""4""}","survey-template","4","60677","0.0-3.0","4","4","4","4","4","4","4","4","4","4","5","5","5","5","5","5","5","5","5","5","1","1","2","1","2","1","1","4","1","0","1","0","1","0","1","0","0","0","0","1","0","0","0","0","4","1","1","1","2","","2","1","1","3","1","598867196789129216","郭","361","","","","{""Q01"":""4"",""Q02"":""4"",""Q03"":""4"",""Q04"":""4"",""Q05"":""4"",""Q06"":""4"",""Q07"":""4"",""Q08"":""4"",""Q09"":""4"",""Q10"":""4""}","[0,1,2,3,4,5,6,7,8,9]","[""Q01"",""Q02"",""Q03"",""Q04"",""Q05"",""Q07"",""Q06"",""Q08"",""Q09"",""Q10""]","[2736.5,4648.5,5912.5,7080.600000023842,8200.600000023842,9824.799999952316,10608.5,11584.5,12600.5,13072.399999976158]","[]","[2736.5,4648.5,5912.5,7080.600000023842,8200.600000023842,9040.5,9824.799999952316,10321.200000047684,10608.5,11584.5,12600.5,13072.399999976158,26752.399999976158]","0.5","0.5555555555555556","0","","","","","","","","","","","","","","","","","","","","","","","","","","","","","",""
"19692.300000071526","","{""Q01"":""5"",""Q02"":""5"",""Q03"":""5"",""Q04"":""5"",""Q05"":""5"",""Q06"":""5"",""Q07"":""5"",""Q08"":""5"",""Q09"":""5"",""Q10"":""5""}","survey-template","5","80374","0.0-4.0","4","4","4","4","4","4","4","4","4","4","5","5","5","5","5","5","5","5","5","5","1","1","2","1","2","1","1","4","1","0","1","0","1","0","1","0","0","0","0","1","0","0","0","0","4","1","1","1","2","","2","1","1","3","1","598867196789129216","郭","361","","","","{""Q01"":""5"",""Q02"":""5"",""Q03"":""5"",""Q04"":""5"",""Q05"":""5"",""Q06"":""5"",""Q07"":""5"",""Q08"":""5"",""Q09"":""5"",""Q10"":""5""}","[0,1,2,3,4,5,6,7,8,9]","[""Q01"",""Q02"",""Q03"",""Q04"",""Q05"",""Q06"",""Q07"",""Q08"",""Q09"",""Q10""]","[1379.7000000476837,2354.2000000476837,3186.3000000715256,4298.200000047684,5306.300000071526,6258.300000071526,7466.300000071526,8538.300000071526,9874.900000095367,11026.200000047684]","[]","[1379.7000000476837,2354.2000000476837,3186.3000000715256,4298.200000047684,5306.300000071526,6258.300000071526,7466.300000071526,8538.300000071526,9874.900000095367,11026.200000047684,19691.400000095367]","0.6","0.7777777777777778","0","","","","","","","","","","","","","","","","","","","","","","","","","","","","","",""
"","","","preload","6","80676","0.0-5.0","4","4","4","4","4","4","4","4","4","4","5","5","5","5","5","5","5","5","5","5","1","1","2","1","2","1","1","4","1","0","1","0","1","0","1","0","0","0","0","1","0","0","0","0","4","1","1","1","2","","2","1","1","3","1","598867196789129216","郭","361","","true","","","","","","","","","","","false","[]","[]","[]","","","","","","","","","","","","","","","","","","","","","","","","","",""
"1351","","","instructions","7","82028","0.0-6.0","4","4","4","4","4","4","4","4","4","4","5","5","5","5","5","5","5","5","5","5","1","1","2","1","2","1","1","4","1","0","1","0","1","0","1","0","0","0","0","1","0","0","0","0","4","1","1","1","2","","2","1","1","3","1","598867196789129216","郭","361","","","","","","","","","","","","","","","","","[{""page_index"":0,""viewing_time"":1351}]","","","","","","","","","","","","","","","","","","","","","","","","",""
"48655","","","instructions","8","130683","0.0-7.0-0.0-0.0","4","4","4","4","4","4","4","4","4","4","5","5","5","5","5","5","5","5","5","5","1","1","2","1","2","1","1","4","1","0","1","0","1","0","1","0","0","0","0","1","0","0","0","0","4","1","1","1","2","","2","1","1","3","1","598867196789129216","郭","361","","","","","","","","","","","","","","","","","[{""page_index"":0,""viewing_time"":44583},{""page_index"":1,""viewing_time"":2184},{""page_index"":2,""viewing_time"":1888}]","","","","","","","","","","","","","","","","","","","","","","","","",""
"876","","j","psychophysics","9","132564","0.0-7.0-0.0-1.0-0.0-0.0","4","4","4","4","4","4","4","4","4","4","5","5","5","5","5","5","5","5","5","5","1","1","2","1","2","1","1","4","1","0","1","0","1","0","1","0","0","0","0","1","0","0","0","0","4","1","1","1","2","","2","1","1","3","1","598867196789129216","郭","361","","","","match","","","","","","","","","","","","","","key","j","16.66607142857148","768","428","j","true","match","img/square.png","方形","方形","ALT1_1","prac_ALT1_1","","","","","","","","","","","",""
"null","<span style='color:GreenYellow; font-size: 70px;'>正确! </span>","null","html-keyboard-response","10","133080","0.0-7.0-0.0-1.0-0.0-1.0","4","4","4","4","4","4","4","4","4","4","5","5","5","5","5","5","5","5","5","5","1","1","2","1","2","1","1","4","1","0","1","0","1","0","1","0","0","0","0","1","0","0","0","0","4","1","1","1","2","","2","1","1","3","1","598867196789129216","郭","361","","","","","","","","","","","","","","","","","","","","","","","","","","","","","","feedback_test","","","","","","","","","","","",""
"905","","f","psychophysics","11","134987","0.0-7.0-0.0-1.0-0.0-0.1","4","4","4","4","4","4","4","4","4","4","5","5","5","5","5","5","5","5","5","5","1","1","2","1","2","1","1","4","1","0","1","0","1","0","1","0","0","0","0","1","0","0","0","0","4","1","1","1","2","","2","1","1","3","1","598867196789129216","郭","361","","","","nonmatch","","","","","","","","","","","","","","key","f","16.66548672566382","768","428","f","true","nonmatch","img/square.png","三角","方形","ALT1_1","prac_ALT1_1","","","","","","","","","","","",""
"null","<span style='color:GreenYellow; font-size: 70px;'>正确! </span>","null","html-keyboard-response","12","135489","0.0-7.0-0.0-1.0-0.0-1.1","4","4","4","4","4","4","4","4","4","4","5","5","5","5","5","5","5","5","5","5","1","1","2","1","2","1","1","4","1","0","1","0","1","0","1","0","0","0","0","1","0","0","0","0","4","1","1","1","2","","2","1","1","3","1","598867196789129216","郭","361","","","","","","","","","","","","","","","","","","","","","","","","","","","","","","feedback_test","","","","","","","","","","","",""
"754","","f","psychophysics","13","137244","0.0-7.0-0.0-1.0-0.0-0.2","4","4","4","4","4","4","4","4","4","4","5","5","5","5","5","5","5","5","5","5","1","1","2","1","2","1","1","4","1","0","1","0","1","0","1","0","0","0","0","1","0","0","0","0","4","1","1","1","2","","2","1","1","3","1","598867196789129216","郭","361","","","","nonmatch","","","","","","","","","","","","","","key","f","16.665384615384447","768","428","f","true","nonmatch","img/triangle.png","方形","三角","ALT1_1","prac_ALT1_1","","","","","","","","","","","",""
"null","<span style='color:GreenYellow; font-size: 70px;'>正确! </span>","null","html-keyboard-response","14","137745","0.0-7.0-0.0-1.0-0.0-1.2","4","4","4","4","4","4","4","4","4","4","5","5","5","5","5","5","5","5","5","5","1","1","2","1","2","1","1","4","1","0","1","0","1","0","1","0","0","0","0","1","0","0","0","0","4","1","1","1","2","","2","1","1","3","1","598867196789129216","郭","361","","","","","","","","","","","","","","","","","","","","","","","","","","","","","","feedback_test","","","","","","","","","","","",""
"978","","j","psychophysics","15","139724","0.0-7.0-0.0-1.0-0.0-0.3","4","4","4","4","4","4","4","4","4","4","5","5","5","5","5","5","5","5","5","5","1","1","2","1","2","1","1","4","1","0","1","0","1","0","1","0","0","0","0","1","0","0","0","0","4","1","1","1","2","","2","1","1","3","1","598867196789129216","郭","361","","","","match","","","","","","","","","","","","","","key","j","16.664957264957167","768","428","j","true","match","img/ellipse.png","椭圆","椭圆","ALT1_1","prac_ALT1_1","","","","","","","","","","","",""
"null","<span style='color:GreenYellow; font-size: 70px;'>正确! </span>","null","html-keyboard-response","16","140226","0.0-7.0-0.0-1.0-0.0-1.3","4","4","4","4","4","4","4","4","4","4","5","5","5","5","5","5","5","5","5","5","1","1","2","1","2","1","1","4","1","0","1","0","1","0","1","0","0","0","0","1","0","0","0","0","4","1","1","1","2","","2","1","1","3","1","598867196789129216","郭","361","","","","","","","","","","","","","","","","","","","","","","","","","","","","","","feedback_test","","","","","","","","","","","",""
"768","","f","psychophysics","17","141996","0.0-7.0-0.0-1.0-0.0-0.4","4","4","4","4","4","4","4","4","4","4","5","5","5","5","5","5","5","5","5","5","1","1","2","1","2","1","1","4","1","0","1","0","1","0","1","0","0","0","0","1","0","0","0","0","4","1","1","1","2","","2","1","1","3","1","598867196789129216","郭","361","","","","nonmatch","","","","","","","","","","","","","","key","f","16.66509433962264","768","428","f","true","nonmatch","img/square.png","椭圆","方形","ALT1_1","prac_ALT1_1","","","","","","","","","","","",""
"null","<span style='color:GreenYellow; font-size: 70px;'>正确! </span>","null","html-keyboard-response","18","142497","0.0-7.0-0.0-1.0-0.0-1.4","4","4","4","4","4","4","4","4","4","4","5","5","5","5","5","5","5","5","5","5","1","1","2","1","2","1","1","4","1","0","1","0","1","0","1","0","0","0","0","1","0","0","0","0","4","1","1","1","2","","2","1","1","3","1","598867196789129216","郭","361","","","","","","","","","","","","","","","","","","","","","","","","","","","","","","feedback_test","","","","","","","","","","","",""
"787","","j","psychophysics","19","144285","0.0-7.0-0.0-1.0-0.0-0.5","4","4","4","4","4","4","4","4","4","4","5","5","5","5","5","5","5","5","5","5","1","1","2","1","2","1","1","4","1","0","1","0","1","0","1","0","0","0","0","1","0","0","0","0","4","1","1","1","2","","2","1","1","3","1","598867196789129216","郭","361","","","","match","","","","","","","","","","","","","","key","j","16.664150943396173","768","428","j","true","match","img/ellipse.png","椭圆","椭圆","ALT1_1","prac_ALT1_1","","","","","","","","","","","",""
"null","<span style='color:GreenYellow; font-size: 70px;'>正确! </span>","null","html-keyboard-response","20","144786","0.0-7.0-0.0-1.0-0.0-1.5","4","4","4","4","4","4","4","4","4","4","5","5","5","5","5","5","5","5","5","5","1","1","2","1","2","1","1","4","1","0","1","0","1","0","1","0","0","0","0","1","0","0","0","0","4","1","1","1","2","","2","1","1","3","1","598867196789129216","郭","361","","","","","","","","","","","","","","","","","","","","","","","","","","","","","","feedback_test","","","","","","","","","","","",""
"689","","f","psychophysics","21","146475","0.0-7.0-0.0-1.0-0.0-0.6","4","4","4","4","4","4","4","4","4","4","5","5","5","5","5","5","5","5","5","5","1","1","2","1","2","1","1","4","1","0","1","0","1","0","1","0","0","0","0","1","0","0","0","0","4","1","1","1","2","","2","1","1","3","1","598867196789129216","郭","361","","","","nonmatch","","","","","","","","","","","","","","key","f","16.665","768","428","f","true","nonmatch","img/triangle.png","五边","三角","ALT1_1","prac_ALT1_1","","","","","","","","","","","",""
"null","<span style='color:GreenYellow; font-size: 70px;'>正确! </span>","null","html-keyboard-response","22","146978","0.0-7.0-0.0-1.0-0.0-1.6","4","4","4","4","4","4","4","4","4","4","5","5","5","5","5","5","5","5","5","5","1","1","2","1","2","1","1","4","1","0","1","0","1","0","1","0","0","0","0","1","0","0","0","0","4","1","1","1","2","","2","1","1","3","1","598867196789129216","郭","361","","","","","","","","","","","","","","","","","","","","","","","","","","","","","","feedback_test","","","","","","","","","","","",""
"657","","j","psychophysics","23","148637","0.0-7.0-0.0-1.0-0.0-0.7","4","4","4","4","4","4","4","4","4","4","5","5","5","5","5","5","5","5","5","5","1","1","2","1","2","1","1","4","1","0","1","0","1","0","1","0","0","0","0","1","0","0","0","0","4","1","1","1","2","","2","1","1","3","1","598867196789129216","郭","361","","","","match","","","","","","","","","","","","","","key","j","16.664285714285775","768","428","j","true","match","img/pentagon.png","五边","五边","ALT1_1","prac_ALT1_1","","","","","","","","","","","",""
"null","<span style='color:GreenYellow; font-size: 70px;'>正确! </span>","null","html-keyboard-response","24","149138","0.0-7.0-0.0-1.0-0.0-1.7","4","4","4","4","4","4","4","4","4","4","5","5","5","5","5","5","5","5","5","5","1","1","2","1","2","1","1","4","1","0","1","0","1","0","1","0","0","0","0","1","0","0","0","0","4","1","1","1","2","","2","1","1","3","1","598867196789129216","郭","361","","","","","","","","","","","","","","","","","","","","","","","","","","","","","","feedback_test","","","","","","","","","","","",""
"528","","f","psychophysics","25","150668","0.0-7.0-0.0-1.0-0.0-0.8","4","4","4","4","4","4","4","4","4","4","5","5","5","5","5","5","5","5","5","5","1","1","2","1","2","1","1","4","1","0","1","0","1","0","1","0","0","0","0","1","0","0","0","0","4","1","1","1","2","","2","1","1","3","1","598867196789129216","郭","361","","","","nonmatch","","","","","","","","","","","","","","key","f","16.667032967033094","768","428","f","true","nonmatch","img/pentagon.png","椭圆","五边","ALT1_1","prac_ALT1_1","","","","","","","","","","","",""
"null","<span style='color:GreenYellow; font-size: 70px;'>正确! </span>","null","html-keyboard-response","26","151169","0.0-7.0-0.0-1.0-0.0-1.8","4","4","4","4","4","4","4","4","4","4","5","5","5","5","5","5","5","5","5","5","1","1","2","1","2","1","1","4","1","0","1","0","1","0","1","0","0","0","0","1","0","0","0","0","4","1","1","1","2","","2","1","1","3","1","598867196789129216","郭","361","","","","","","","","","","","","","","","","","","","","","","","","","","","","","","feedback_test","","","","","","","","","","","",""
"546","","j","psychophysics","27","152716","0.0-7.0-0.0-1.0-0.0-0.9","4","4","4","4","4","4","4","4","4","4","5","5","5","5","5","5","5","5","5","5","1","1","2","1","2","1","1","4","1","0","1","0","1","0","1","0","0","0","0","1","0","0","0","0","4","1","1","1","2","","2","1","1","3","1","598867196789129216","郭","361","","","","match","","","","","","","","","","","","","","key","j","16.665217391304157","768","428","j","true","match","img/pentagon.png","五边","五边","ALT1_1","prac_ALT1_1","","","","","","","","","","","",""
"null","<span style='color:GreenYellow; font-size: 70px;'>正确! </span>","null","html-keyboard-response","28","153218","0.0-7.0-0.0-1.0-0.0-1.9","4","4","4","4","4","4","4","4","4","4","5","5","5","5","5","5","5","5","5","5","1","1","2","1","2","1","1","4","1","0","1","0","1","0","1","0","0","0","0","1","0","0","0","0","4","1","1","1","2","","2","1","1","3","1","598867196789129216","郭","361","","","","","","","","","","","","","","","","","","","","","","","","","","","","","","feedback_test","","","","","","","","","","","",""
"689","","j","psychophysics","29","154909","0.0-7.0-0.0-1.0-0.0-0.10","4","4","4","4","4","4","4","4","4","4","5","5","5","5","5","5","5","5","5","5","1","1","2","1","2","1","1","4","1","0","1","0","1","0","1","0","0","0","0","1","0","0","0","0","4","1","1","1","2","","2","1","1","3","1","598867196789129216","郭","361","","","","match","","","","","","","","","","","","","","key","j","16.665","768","428","f","false","nonmatch","img/pentagon.png","三角","五边","ALT1_1","prac_ALT1_1","","","","","","","","","","","",""
"null","<span style='color:red; font-size: 70px;'>错误! </span>","null","html-keyboard-response","30","155410","0.0-7.0-0.0-1.0-0.0-1.10","4","4","4","4","4","4","4","4","4","4","5","5","5","5","5","5","5","5","5","5","1","1","2","1","2","1","1","4","1","0","1","0","1","0","1","0","0","0","0","1","0","0","0","0","4","1","1","1","2","","2","1","1","3","1","598867196789129216","郭","361","","","","","","","","","","","","","","","","","","","","","","","","","","","","","","feedback_test","","","","","","","","","","","",""
"672","","f","psychophysics","31","157083","0.0-7.0-0.0-1.0-0.0-0.11","4","4","4","4","4","4","4","4","4","4","5","5","5","5","5","5","5","5","5","5","1","1","2","1","2","1","1","4","1","0","1","0","1","0","1","0","0","0","0","1","0","0","0","0","4","1","1","1","2","","2","1","1","3","1","598867196789129216","郭","361","","","","nonmatch","","","","","","","","","","","","","","key","f","16.66565656565651","768","428","f","true","nonmatch","img/ellipse.png","方形","椭圆","ALT1_1","prac_ALT1_1","","","","","","","","","","","",""
"null","<span style='color:GreenYellow; font-size: 70px;'>正确! </span>","null","html-keyboard-response","32","157584","0.0-7.0-0.0-1.0-0.0-1.11","4","4","4","4","4","4","4","4","4","4","5","5","5","5","5","5","5","5","5","5","1","1","2","1","2","1","1","4","1","0","1","0","1","0","1","0","0","0","0","1","0","0","0","0","4","1","1","1","2","","2","1","1","3","1","598867196789129216","郭","361","","","","","","","","","","","","","","","","","","","","","","","","","","","","","","feedback_test","","","","","","","","","","","",""
"633","","f","psychophysics","33","159219","0.0-7.0-0.0-1.0-0.0-0.12","4","4","4","4","4","4","4","4","4","4","5","5","5","5","5","5","5","5","5","5","1","1","2","1","2","1","1","4","1","0","1","0","1","0","1","0","0","0","0","1","0","0","0","0","4","1","1","1","2","","2","1","1","3","1","598867196789129216","郭","361","","","","nonmatch","","","","","","","","","","","","","","key","f","16.66701030927847","768","428","f","true","nonmatch","img/triangle.png","椭圆","三角","ALT1_1","prac_ALT1_1","","","","","","","","","","","",""
"null","<span style='color:GreenYellow; font-size: 70px;'>正确! </span>","null","html-keyboard-response","34","159721","0.0-7.0-0.0-1.0-0.0-1.12","4","4","4","4","4","4","4","4","4","4","5","5","5","5","5","5","5","5","5","5","1","1","2","1","2","1","1","4","1","0","1","0","1","0","1","0","0","0","0","1","0","0","0","0","4","1","1","1","2","","2","1","1","3","1","598867196789129216","郭","361","","","","","","","","","","","","","","","","","","","","","","","","","","","","","","feedback_test","","","","","","","","","","","",""
"563","","j","psychophysics","35","161285","0.0-7.0-0.0-1.0-0.0-0.13","4","4","4","4","4","4","4","4","4","4","5","5","5","5","5","5","5","5","5","5","1","1","2","1","2","1","1","4","1","0","1","0","1","0","1","0","0","0","0","1","0","0","0","0","4","1","1","1","2","","2","1","1","3","1","598867196789129216","郭","361","","","","match","","","","","","","","","","","","","","key","j","16.666666666666668","768","428","j","true","match","img/square.png","方形","方形","ALT1_1","prac_ALT1_1","","","","","","","","","","","",""
"null","<span style='color:GreenYellow; font-size: 70px;'>正确! </span>","null","html-keyboard-response","36","161786","0.0-7.0-0.0-1.0-0.0-1.13","4","4","4","4","4","4","4","4","4","4","5","5","5","5","5","5","5","5","5","5","1","1","2","1","2","1","1","4","1","0","1","0","1","0","1","0","0","0","0","1","0","0","0","0","4","1","1","1","2","","2","1","1","3","1","598867196789129216","郭","361","","","","","","","","","","","","","","","","","","","","","","","","","","","","","","feedback_test","","","","","","","","","","","",""
"592","","f","psychophysics","37","163380","0.0-7.0-0.0-1.0-0.0-0.14","4","4","4","4","4","4","4","4","4","4","5","5","5","5","5","5","5","5","5","5","1","1","2","1","2","1","1","4","1","0","1","0","1","0","1","0","0","0","0","1","0","0","0","0","4","1","1","1","2","","2","1","1","3","1","598867196789129216","郭","361","","","","nonmatch","","","","","","","","","","","","","","key","f","16.66631578947356","768","428","f","true","nonmatch","img/ellipse.png","五边","椭圆","ALT1_1","prac_ALT1_1","","","","","","","","","","","",""
"null","<span style='color:GreenYellow; font-size: 70px;'>正确! </span>","null","html-keyboard-response","38","163882","0.0-7.0-0.0-1.0-0.0-1.14","4","4","4","4","4","4","4","4","4","4","5","5","5","5","5","5","5","5","5","5","1","1","2","1","2","1","1","4","1","0","1","0","1","0","1","0","0","0","0","1","0","0","0","0","4","1","1","1","2","","2","1","1","3","1","598867196789129216","郭","361","","","","","","","","","","","","","","","","","","","","","","","","","","","","","","feedback_test","","","","","","","","","","","",""
"576","","j","psychophysics","39","165460","0.0-7.0-0.0-1.0-0.0-0.15","4","4","4","4","4","4","4","4","4","4","5","5","5","5","5","5","5","5","5","5","1","1","2","1","2","1","1","4","1","0","1","0","1","0","1","0","0","0","0","1","0","0","0","0","4","1","1","1","2","","2","1","1","3","1","598867196789129216","郭","361","","","","match","","","","","","","","","","","","","","key","j","16.664893617021278","768","428","j","true","match","img/triangle.png","三角","三角","ALT1_1","prac_ALT1_1","","","","","","","","","","","",""
"null","<span style='color:GreenYellow; font-size: 70px;'>正确! </span>","null","html-keyboard-response","40","165960","0.0-7.0-0.0-1.0-0.0-1.15","4","4","4","4","4","4","4","4","4","4","5","5","5","5","5","5","5","5","5","5","1","1","2","1","2","1","1","4","1","0","1","0","1","0","1","0","0","0","0","1","0","0","0","0","4","1","1","1","2","","2","1","1","3","1","598867196789129216","郭","361","","","","","","","","","","","","","","","","","","","","","","","","","","","","","","feedback_test","","","","","","","","","","","",""
"570","","j","psychophysics","41","167532","0.0-7.0-0.0-1.0-0.0-0.16","4","4","4","4","4","4","4","4","4","4","5","5","5","5","5","5","5","5","5","5","1","1","2","1","2","1","1","4","1","0","1","0","1","0","1","0","0","0","0","1","0","0","0","0","4","1","1","1","2","","2","1","1","3","1","598867196789129216","郭","361","","","","match","","","","","","","","","","","","","","key","j","16.666666666666668","768","428","j","true","match","img/triangle.png","三角","三角","ALT1_1","prac_ALT1_1","","","","","","","","","","","",""
"null","<span style='color:GreenYellow; font-size: 70px;'>正确! </span>","null","html-keyboard-response","42","168034","0.0-7.0-0.0-1.0-0.0-1.16","4","4","4","4","4","4","4","4","4","4","5","5","5","5","5","5","5","5","5","5","1","1","2","1","2","1","1","4","1","0","1","0","1","0","1","0","0","0","0","1","0","0","0","0","4","1","1","1","2","","2","1","1","3","1","598867196789129216","郭","361","","","","","","","","","","","","","","","","","","","","","","","","","","","","","","feedback_test","","","","","","","","","","","",""
"529","","j","psychophysics","43","169564","0.0-7.0-0.0-1.0-0.0-0.17","4","4","4","4","4","4","4","4","4","4","5","5","5","5","5","5","5","5","5","5","1","1","2","1","2","1","1","4","1","0","1","0","1","0","1","0","0","0","0","1","0","0","0","0","4","1","1","1","2","","2","1","1","3","1","598867196789129216","郭","361","","","","match","","","","","","","","","","","","","","key","j","16.667032967033094","768","428","j","true","match","img/triangle.png","三角","三角","ALT1_1","prac_ALT1_1","","","","","","","","","","","",""
"null","<span style='color:GreenYellow; font-size: 70px;'>正确! </span>","null","html-keyboard-response","44","170067","0.0-7.0-0.0-1.0-0.0-1.17","4","4","4","4","4","4","4","4","4","4","5","5","5","5","5","5","5","5","5","5","1","1","2","1","2","1","1","4","1","0","1","0","1","0","1","0","0","0","0","1","0","0","0","0","4","1","1","1","2","","2","1","1","3","1","598867196789129216","郭","361","","","","","","","","","","","","","","","","","","","","","","","","","","","","","","feedback_test","","","","","","","","","","","",""
"632","","j","psychophysics","45","171699","0.0-7.0-0.0-1.0-0.0-0.18","4","4","4","4","4","4","4","4","4","4","5","5","5","5","5","5","5","5","5","5","1","1","2","1","2","1","1","4","1","0","1","0","1","0","1","0","0","0","0","1","0","0","0","0","4","1","1","1","2","","2","1","1","3","1","598867196789129216","郭","361","","","","match","","","","","","","","","","","","","","key","j","16.66701030927847","768","428","j","true","match","img/ellipse.png","椭圆","椭圆","ALT1_1","prac_ALT1_1","","","","","","","","","","","",""
"null","<span style='color:GreenYellow; font-size: 70px;'>正确! </span>","null","html-keyboard-response","46","172200","0.0-7.0-0.0-1.0-0.0-1.18","4","4","4","4","4","4","4","4","4","4","5","5","5","5","5","5","5","5","5","5","1","1","2","1","2","1","1","4","1","0","1","0","1","0","1","0","0","0","0","1","0","0","0","0","4","1","1","1","2","","2","1","1","3","1","598867196789129216","郭","361","","","","","","","","","","","","","","","","","","","","","","","","","","","","","","feedback_test","","","","","","","","","","","",""
"619","","j","psychophysics","47","173820","0.0-7.0-0.0-1.0-0.0-0.19","4","4","4","4","4","4","4","4","4","4","5","5","5","5","5","5","5","5","5","5","1","1","2","1","2","1","1","4","1","0","1","0","1","0","1","0","0","0","0","1","0","0","0","0","4","1","1","1","2","","2","1","1","3","1","598867196789129216","郭","361","","","","match","","","","","","","","","","","","","","key","j","16.665624999999938","768","428","j","true","match","img/square.png","方形","方形","ALT1_1","prac_ALT1_1","","","","","","","","","","","",""
"null","<span style='color:GreenYellow; font-size: 70px;'>正确! </span>","null","html-keyboard-response","48","174323","0.0-7.0-0.0-1.0-0.0-1.19","4","4","4","4","4","4","4","4","4","4","5","5","5","5","5","5","5","5","5","5","1","1","2","1","2","1","1","4","1","0","1","0","1","0","1","0","0","0","0","1","0","0","0","0","4","1","1","1","2","","2","1","1","3","1","598867196789129216","郭","361","","","","","","","","","","","","","","","","","","","","","","","","","","","","","","feedback_test","","","","","","","","","","","",""
"560","","f","psychophysics","49","175884","0.0-7.0-0.0-1.0-0.0-0.20","4","4","4","4","4","4","4","4","4","4","5","5","5","5","5","5","5","5","5","5","1","1","2","1","2","1","1","4","1","0","1","0","1","0","1","0","0","0","0","1","0","0","0","0","4","1","1","1","2","","2","1","1","3","1","598867196789129216","郭","361","","","","nonmatch","","","","","","","","","","","","","","key","f","16.663440860214866","768","428","f","true","nonmatch","img/ellipse.png","三角","椭圆","ALT1_1","prac_ALT1_1","","","","","","","","","","","",""
"null","<span style='color:GreenYellow; font-size: 70px;'>正确! </span>","null","html-keyboard-response","50","176385","0.0-7.0-0.0-1.0-0.0-1.20","4","4","4","4","4","4","4","4","4","4","5","5","5","5","5","5","5","5","5","5","1","1","2","1","2","1","1","4","1","0","1","0","1","0","1","0","0","0","0","1","0","0","0","0","4","1","1","1","2","","2","1","1","3","1","598867196789129216","郭","361","","","","","","","","","","","","","","","","","","","","","","","","","","","","","","feedback_test","","","","","","","","","","","",""
"648","","j","psychophysics","51","178035","0.0-7.0-0.0-1.0-0.0-0.21","4","4","4","4","4","4","4","4","4","4","5","5","5","5","5","5","5","5","5","5","1","1","2","1","2","1","1","4","1","0","1","0","1","0","1","0","0","0","0","1","0","0","0","0","4","1","1","1","2","","2","1","1","3","1","598867196789129216","郭","361","","","","match","","","","","","","","","","","","","","key","j","16.666326530612423","768","428","f","false","nonmatch","img/square.png","五边","方形","ALT1_1","prac_ALT1_1","","","","","","","","","","","",""
"null","<span style='color:red; font-size: 70px;'>错误! </span>","null","html-keyboard-response","52","178537","0.0-7.0-0.0-1.0-0.0-1.21","4","4","4","4","4","4","4","4","4","4","5","5","5","5","5","5","5","5","5","5","1","1","2","1","2","1","1","4","1","0","1","0","1","0","1","0","0","0","0","1","0","0","0","0","4","1","1","1","2","","2","1","1","3","1","598867196789129216","郭","361","","","","","","","","","","","","","","","","","","","","","","","","","","","","","","feedback_test","","","","","","","","","","","",""
"586","","j","psychophysics","53","180124","0.0-7.0-0.0-1.0-0.0-0.22","4","4","4","4","4","4","4","4","4","4","5","5","5","5","5","5","5","5","5","5","1","1","2","1","2","1","1","4","1","0","1","0","1","0","1","0","0","0","0","1","0","0","0","0","4","1","1","1","2","","2","1","1","3","1","598867196789129216","郭","361","","","","match","","","","","","","","","","","","","","key","j","16.665263157894554","768","428","j","true","match","img/pentagon.png","五边","五边","ALT1_1","prac_ALT1_1","","","","","","","","","","","",""
"null","<span style='color:GreenYellow; font-size: 70px;'>正确! </span>","null","html-keyboard-response","54","180626","0.0-7.0-0.0-1.0-0.0-1.22","4","4","4","4","4","4","4","4","4","4","5","5","5","5","5","5","5","5","5","5","1","1","2","1","2","1","1","4","1","0","1","0","1","0","1","0","0","0","0","1","0","0","0","0","4","1","1","1","2","","2","1","1","3","1","598867196789129216","郭","361","","","","","","","","","","","","","","","","","","","","","","","","","","","","","","feedback_test","","","","","","","","","","","",""
"577","","f","psychophysics","55","182204","0.0-7.0-0.0-1.0-0.0-0.23","4","4","4","4","4","4","4","4","4","4","5","5","5","5","5","5","5","5","5","5","1","1","2","1","2","1","1","4","1","0","1","0","1","0","1","0","0","0","0","1","0","0","0","0","4","1","1","1","2","","2","1","1","3","1","598867196789129216","郭","361","","","","nonmatch","","","","","","","","","","","","","","key","f","16.664516129032133","768","428","f","true","nonmatch","img/pentagon.png","方形","五边","ALT1_1","prac_ALT1_1","","","","","","","","","","","",""
"null","<span style='color:GreenYellow; font-size: 70px;'>正确! </span>","null","html-keyboard-response","56","182706","0.0-7.0-0.0-1.0-0.0-1.23","4","4","4","4","4","4","4","4","4","4","5","5","5","5","5","5","5","5","5","5","1","1","2","1","2","1","1","4","1","0","1","0","1","0","1","0","0","0","0","1","0","0","0","0","4","1","1","1","2","","2","1","1","3","1","598867196789129216","郭","361","","","","","","","","","","","","","","","","","","","","","","","","","","","","","","feedback_test","","","","","","","","","","","",""
"650","","j","psychophysics","57","184357","0.0-7.0-0.0-1.0-0.0-0.24","4","4","4","4","4","4","4","4","4","4","5","5","5","5","5","5","5","5","5","5","1","1","2","1","2","1","1","4","1","0","1","0","1","0","1","0","0","0","0","1","0","0","0","0","4","1","1","1","2","","2","1","1","3","1","598867196789129216","郭","361","","","","match","","","","","","","","","","","","","","key","j","16.657142857142798","768","428","j","true","match","img/pentagon.png","五边","五边","ALT1_1","prac_ALT1_1","","","","","","","","","","","",""
"null","<span style='color:GreenYellow; font-size: 70px;'>正确! </span>","null","html-keyboard-response","58","184858","0.0-7.0-0.0-1.0-0.0-1.24","4","4","4","4","4","4","4","4","4","4","5","5","5","5","5","5","5","5","5","5","1","1","2","1","2","1","1","4","1","0","1","0","1","0","1","0","0","0","0","1","0","0","0","0","4","1","1","1","2","","2","1","1","3","1","598867196789129216","郭","361","","","","","","","","","","","","","","","","","","","","","","","","","","","","","","feedback_test","","","","","","","","","","","",""
"625","","f","psychophysics","59","186485","0.0-7.0-0.0-1.0-0.0-0.25","4","4","4","4","4","4","4","4","4","4","5","5","5","5","5","5","5","5","5","5","1","1","2","1","2","1","1","4","1","0","1","0","1","0","1","0","0","0","0","1","0","0","0","0","4","1","1","1","2","","2","1","1","3","1","598867196789129216","郭","361","","","","nonmatch","","","","","","","","","","","","","","key","f","16.664583333333514","768","428","f","true","nonmatch","img/triangle.png","椭圆","三角","ALT1_1","prac_ALT1_1","","","","","","","","","","","",""
"null","<span style='color:GreenYellow; font-size: 70px;'>正确! </span>","null","html-keyboard-response","60","186986","0.0-7.0-0.0-1.0-0.0-1.25","4","4","4","4","4","4","4","4","4","4","5","5","5","5","5","5","5","5","5","5","1","1","2","1","2","1","1","4","1","0","1","0","1","0","1","0","0","0","0","1","0","0","0","0","4","1","1","1","2","","2","1","1","3","1","598867196789129216","郭","361","","","","","","","","","","","","","","","","","","","","","","","","","","","","","","feedback_test","","","","","","","","","","","",""
"624","","f","psychophysics","61","188611","0.0-7.0-0.0-1.0-0.0-0.26","4","4","4","4","4","4","4","4","4","4","5","5","5","5","5","5","5","5","5","5","1","1","2","1","2","1","1","4","1","0","1","0","1","0","1","0","0","0","0","1","0","0","0","0","4","1","1","1","2","","2","1","1","3","1","598867196789129216","郭","361","","","","nonmatch","","","","","","","","","","","","","","key","f","16.662886597938325","768","428","f","true","nonmatch","img/pentagon.png","椭圆","五边","ALT1_1","prac_ALT1_1","","","","","","","","","","","",""
"null","<span style='color:GreenYellow; font-size: 70px;'>正确! </span>","null","html-keyboard-response","62","189114","0.0-7.0-0.0-1.0-0.0-1.26","4","4","4","4","4","4","4","4","4","4","5","5","5","5","5","5","5","5","5","5","1","1","2","1","2","1","1","4","1","0","1","0","1","0","1","0","0","0","0","1","0","0","0","0","4","1","1","1","2","","2","1","1","3","1","598867196789129216","郭","361","","","","","","","","","","","","","","","","","","","","","","","","","","","","","","feedback_test","","","","","","","","","","","",""
"601","","j","psychophysics","63","190716","0.0-7.0-0.0-1.0-0.0-0.27","4","4","4","4","4","4","4","4","4","4","5","5","5","5","5","5","5","5","5","5","1","1","2","1","2","1","1","4","1","0","1","0","1","0","1","0","0","0","0","1","0","0","0","0","4","1","1","1","2","","2","1","1","3","1","598867196789129216","郭","361","","","","match","","","","","","","","","","","","","","key","j","16.664210526315852","768","428","j","true","match","img/triangle.png","三角","三角","ALT1_1","prac_ALT1_1","","","","","","","","","","","",""
"null","<span style='color:GreenYellow; font-size: 70px;'>正确! </span>","null","html-keyboard-response","64","191217","0.0-7.0-0.0-1.0-0.0-1.27","4","4","4","4","4","4","4","4","4","4","5","5","5","5","5","5","5","5","5","5","1","1","2","1","2","1","1","4","1","0","1","0","1","0","1","0","0","0","0","1","0","0","0","0","4","1","1","1","2","","2","1","1","3","1","598867196789129216","郭","361","","","","","","","","","","","","","","","","","","","","","","","","","","","","","","feedback_test","","","","","","","","","","","",""
"665","","j","psychophysics","65","192884","0.0-7.0-0.0-1.0-0.0-0.28","4","4","4","4","4","4","4","4","4","4","5","5","5","5","5","5","5","5","5","5","1","1","2","1","2","1","1","4","1","0","1","0","1","0","1","0","0","0","0","1","0","0","0","0","4","1","1","1","2","","2","1","1","3","1","598867196789129216","郭","361","","","","match","","","","","","","","","","","","","","key","j","16.666666666666668","768","428","j","true","match","img/ellipse.png","椭圆","椭圆","ALT1_1","prac_ALT1_1","","","","","","","","","","","",""
"null","<span style='color:GreenYellow; font-size: 70px;'>正确! </span>","null","html-keyboard-response","66","193386","0.0-7.0-0.0-1.0-0.0-1.28","4","4","4","4","4","4","4","4","4","4","5","5","5","5","5","5","5","5","5","5","1","1","2","1","2","1","1","4","1","0","1","0","1","0","1","0","0","0","0","1","0","0","0","0","4","1","1","1","2","","2","1","1","3","1","598867196789129216","郭","361","","","","","","","","","","","","","","","","","","","","","","","","","","","","","","feedback_test","","","","","","","","","","","",""
"586","","f","psychophysics","67","194973","0.0-7.0-0.0-1.0-0.0-0.29","4","4","4","4","4","4","4","4","4","4","5","5","5","5","5","5","5","5","5","5","1","1","2","1","2","1","1","4","1","0","1","0","1","0","1","0","0","0","0","1","0","0","0","0","4","1","1","1","2","","2","1","1","3","1","598867196789129216","郭","361","","","","nonmatch","","","","","","","","","","","","","","key","f","16.665263157894554","768","428","f","true","nonmatch","img/pentagon.png","三角","五边","ALT1_1","prac_ALT1_1","","","","","","","","","","","",""
"null","<span style='color:GreenYellow; font-size: 70px;'>正确! </span>","null","html-keyboard-response","68","195475","0.0-7.0-0.0-1.0-0.0-1.29","4","4","4","4","4","4","4","4","4","4","5","5","5","5","5","5","5","5","5","5","1","1","2","1","2","1","1","4","1","0","1","0","1","0","1","0","0","0","0","1","0","0","0","0","4","1","1","1","2","","2","1","1","3","1","598867196789129216","郭","361","","","","","","","","","","","","","","","","","","","","","","","","","","","","","","feedback_test","","","","","","","","","","","",""
"558","","j","psychophysics","69","197036","0.0-7.0-0.0-1.0-0.0-0.30","4","4","4","4","4","4","4","4","4","4","5","5","5","5","5","5","5","5","5","5","1","1","2","1","2","1","1","4","1","0","1","0","1","0","1","0","0","0","0","1","0","0","0","0","4","1","1","1","2","","2","1","1","3","1","598867196789129216","郭","361","","","","match","","","","","","","","","","","","","","key","j","16.66630434782596","768","428","j","true","match","img/square.png","方形","方形","ALT1_1","prac_ALT1_1","","","","","","","","","","","",""
"null","<span style='color:GreenYellow; font-size: 70px;'>正确! </span>","null","html-keyboard-response","70","197538","0.0-7.0-0.0-1.0-0.0-1.30","4","4","4","4","4","4","4","4","4","4","5","5","5","5","5","5","5","5","5","5","1","1","2","1","2","1","1","4","1","0","1","0","1","0","1","0","0","0","0","1","0","0","0","0","4","1","1","1","2","","2","1","1","3","1","598867196789129216","郭","361","","","","","","","","","","","","","","","","","","","","","","","","","","","","","","feedback_test","","","","","","","","","","","",""
"791","","f","psychophysics","71","199332","0.0-7.0-0.0-1.0-0.0-0.31","4","4","4","4","4","4","4","4","4","4","5","5","5","5","5","5","5","5","5","5","1","1","2","1","2","1","1","4","1","0","1","0","1","0","1","0","0","0","0","1","0","0","0","0","4","1","1","1","2","","2","1","1","3","1","598867196789129216","郭","361","","","","nonmatch","","","","","","","","","","","","","","key","f","16.66509433962264","768","428","f","true","nonmatch","img/square.png","五边","方形","ALT1_1","prac_ALT1_1","","","","","","","","","","","",""
"null","<span style='color:GreenYellow; font-size: 70px;'>正确! </span>","null","html-keyboard-response","72","199833","0.0-7.0-0.0-1.0-0.0-1.31","4","4","4","4","4","4","4","4","4","4","5","5","5","5","5","5","5","5","5","5","1","1","2","1","2","1","1","4","1","0","1","0","1","0","1","0","0","0","0","1","0","0","0","0","4","1","1","1","2","","2","1","1","3","1","598867196789129216","郭","361","","","","","","","","","","","","","","","","","","","","","","","","","","","","","","feedback_test","","","","","","","","","","","",""
"623","","j","psychophysics","73","201461","0.0-7.0-0.0-1.0-0.0-0.32","4","4","4","4","4","4","4","4","4","4","5","5","5","5","5","5","5","5","5","5","1","1","2","1","2","1","1","4","1","0","1","0","1","0","1","0","0","0","0","1","0","0","0","0","4","1","1","1","2","","2","1","1","3","1","598867196789129216","郭","361","","","","match","","","","","","","","","","","","","","key","j","16.66597938144336","768","428","f","false","nonmatch","img/triangle.png","方形","三角","ALT1_1","prac_ALT1_1","","","","","","","","","","","",""
"null","<span style='color:red; font-size: 70px;'>错误! </span>","null","html-keyboard-response","74","201961","0.0-7.0-0.0-1.0-0.0-1.32","4","4","4","4","4","4","4","4","4","4","5","5","5","5","5","5","5","5","5","5","1","1","2","1","2","1","1","4","1","0","1","0","1","0","1","0","0","0","0","1","0","0","0","0","4","1","1","1","2","","2","1","1","3","1","598867196789129216","郭","361","","","","","","","","","","","","","","","","","","","","","","","","","","","","","","feedback_test","","","","","","","","","","","",""
"712","","f","psychophysics","75","203676","0.0-7.0-0.0-1.0-0.0-0.33","4","4","4","4","4","4","4","4","4","4","5","5","5","5","5","5","5","5","5","5","1","1","2","1","2","1","1","4","1","0","1","0","1","0","1","0","0","0","0","1","0","0","0","0","4","1","1","1","2","","2","1","1","3","1","598867196789129216","郭","361","","","","nonmatch","","","","","","","","","","","","","","key","f","16.669607843137427","768","428","f","true","nonmatch","img/triangle.png","五边","三角","ALT1_1","prac_ALT1_1","","","","","","","","","","","",""
"null","<span style='color:GreenYellow; font-size: 70px;'>正确! </span>","null","html-keyboard-response","76","204176","0.0-7.0-0.0-1.0-0.0-1.33","4","4","4","4","4","4","4","4","4","4","5","5","5","5","5","5","5","5","5","5","1","1","2","1","2","1","1","4","1","0","1","0","1","0","1","0","0","0","0","1","0","0","0","0","4","1","1","1","2","","2","1","1","3","1","598867196789129216","郭","361","","","","","","","","","","","","","","","","","","","","","","","","","","","","","","feedback_test","","","","","","","","","","","",""
"634","","j","psychophysics","77","205813","0.0-7.0-0.0-1.0-0.0-0.34","4","4","4","4","4","4","4","4","4","4","5","5","5","5","5","5","5","5","5","5","1","1","2","1","2","1","1","4","1","0","1","0","1","0","1","0","0","0","0","1","0","0","0","0","4","1","1","1","2","","2","1","1","3","1","598867196789129216","郭","361","","","","match","","","","","","","","","","","","","","key","j","16.66597938144336","768","428","j","true","match","img/triangle.png","三角","三角","ALT1_1","prac_ALT1_1","","","","","","","","","","","",""
"null","<span style='color:GreenYellow; font-size: 70px;'>正确! </span>","null","html-keyboard-response","78","206314","0.0-7.0-0.0-1.0-0.0-1.34","4","4","4","4","4","4","4","4","4","4","5","5","5","5","5","5","5","5","5","5","1","1","2","1","2","1","1","4","1","0","1","0","1","0","1","0","0","0","0","1","0","0","0","0","4","1","1","1","2","","2","1","1","3","1","598867196789129216","郭","361","","","","","","","","","","","","","","","","","","","","","","","","","","","","","","feedback_test","","","","","","","","","","","",""
"480","","f","psychophysics","79","207796","0.0-7.0-0.0-1.0-0.0-0.35","4","4","4","4","4","4","4","4","4","4","5","5","5","5","5","5","5","5","5","5","1","1","2","1","2","1","1","4","1","0","1","0","1","0","1","0","0","0","0","1","0","0","0","0","4","1","1","1","2","","2","1","1","3","1","598867196789129216","郭","361","","","","nonmatch","","","","","","","","","","","","","","key","f","16.665909090909157","768","428","f","true","nonmatch","img/ellipse.png","方形","椭圆","ALT1_1","prac_ALT1_1","","","","","","","","","","","",""
"null","<span style='color:GreenYellow; font-size: 70px;'>正确! </span>","null","html-keyboard-response","80","208297","0.0-7.0-0.0-1.0-0.0-1.35","4","4","4","4","4","4","4","4","4","4","5","5","5","5","5","5","5","5","5","5","1","1","2","1","2","1","1","4","1","0","1","0","1","0","1","0","0","0","0","1","0","0","0","0","4","1","1","1","2","","2","1","1","3","1","598867196789129216","郭","361","","","","","","","","","","","","","","","","","","","","","","","","","","","","","","feedback_test","","","","","","","","","","","",""
"579","","j","psychophysics","81","209877","0.0-7.0-0.0-1.0-0.0-0.36","4","4","4","4","4","4","4","4","4","4","5","5","5","5","5","5","5","5","5","5","1","1","2","1","2","1","1","4","1","0","1","0","1","0","1","0","0","0","0","1","0","0","0","0","4","1","1","1","2","","2","1","1","3","1","598867196789129216","郭","361","","","","match","","","","","","","","","","","","","","key","j","16.664893617021278","768","428","j","true","match","img/square.png","方形","方形","ALT1_1","prac_ALT1_1","","","","","","","","","","","",""
"null","<span style='color:GreenYellow; font-size: 70px;'>正确! </span>","null","html-keyboard-response","82","210378","0.0-7.0-0.0-1.0-0.0-1.36","4","4","4","4","4","4","4","4","4","4","5","5","5","5","5","5","5","5","5","5","1","1","2","1","2","1","1","4","1","0","1","0","1","0","1","0","0","0","0","1","0","0","0","0","4","1","1","1","2","","2","1","1","3","1","598867196789129216","郭","361","","","","","","","","","","","","","","","","","","","","","","","","","","","","","","feedback_test","","","","","","","","","","","",""
"633","","j","psychophysics","83","212013","0.0-7.0-0.0-1.0-0.0-0.37","4","4","4","4","4","4","4","4","4","4","5","5","5","5","5","5","5","5","5","5","1","1","2","1","2","1","1","4","1","0","1","0","1","0","1","0","0","0","0","1","0","0","0","0","4","1","1","1","2","","2","1","1","3","1","598867196789129216","郭","361","","","","match","","","","","","","","","","","","","","key","j","16.66597938144336","768","428","j","true","match","img/pentagon.png","五边","五边","ALT1_1","prac_ALT1_1","","","","","","","","","","","",""
"null","<span style='color:GreenYellow; font-size: 70px;'>正确! </span>","null","html-keyboard-response","84","212513","0.0-7.0-0.0-1.0-0.0-1.37","4","4","4","4","4","4","4","4","4","4","5","5","5","5","5","5","5","5","5","5","1","1","2","1","2","1","1","4","1","0","1","0","1","0","1","0","0","0","0","1","0","0","0","0","4","1","1","1","2","","2","1","1","3","1","598867196789129216","郭","361","","","","","","","","","","","","","","","","","","","","","","","","","","","","","","feedback_test","","","","","","","","","","","",""
"602","","f","psychophysics","85","214116","0.0-7.0-0.0-1.0-0.0-0.38","4","4","4","4","4","4","4","4","4","4","5","5","5","5","5","5","5","5","5","5","1","1","2","1","2","1","1","4","1","0","1","0","1","0","1","0","0","0","0","1","0","0","0","0","4","1","1","1","2","","2","1","1","3","1","598867196789129216","郭","361","","","","nonmatch","","","","","","","","","","","","","","key","f","16.665263157894554","768","428","f","true","nonmatch","img/ellipse.png","五边","椭圆","ALT1_1","prac_ALT1_1","","","","","","","","","","","",""
"null","<span style='color:GreenYellow; font-size: 70px;'>正确! </span>","null","html-keyboard-response","86","214618","0.0-7.0-0.0-1.0-0.0-1.38","4","4","4","4","4","4","4","4","4","4","5","5","5","5","5","5","5","5","5","5","1","1","2","1","2","1","1","4","1","0","1","0","1","0","1","0","0","0","0","1","0","0","0","0","4","1","1","1","2","","2","1","1","3","1","598867196789129216","郭","361","","","","","","","","","","","","","","","","","","","","","","","","","","","","","","feedback_test","","","","","","","","","","","",""
"657","","f","psychophysics","87","216276","0.0-7.0-0.0-1.0-0.0-0.39","4","4","4","4","4","4","4","4","4","4","5","5","5","5","5","5","5","5","5","5","1","1","2","1","2","1","1","4","1","0","1","0","1","0","1","0","0","0","0","1","0","0","0","0","4","1","1","1","2","","2","1","1","3","1","598867196789129216","郭","361","","","","nonmatch","","","","","","","","","","","","","","key","f","16.663636363636186","768","428","f","true","nonmatch","img/square.png","三角","方形","ALT1_1","prac_ALT1_1","","","","","","","","","","","",""
"null","<span style='color:GreenYellow; font-size: 70px;'>正确! </span>","null","html-keyboard-response","88","216777","0.0-7.0-0.0-1.0-0.0-1.39","4","4","4","4","4","4","4","4","4","4","5","5","5","5","5","5","5","5","5","5","1","1","2","1","2","1","1","4","1","0","1","0","1","0","1","0","0","0","0","1","0","0","0","0","4","1","1","1","2","","2","1","1","3","1","598867196789129216","郭","361","","","","","","","","","","","","","","","","","","","","","","","","","","","","","","feedback_test","","","","","","","","","","","",""
"633","","f","psychophysics","89","218413","0.0-7.0-0.0-1.0-0.0-0.40","4","4","4","4","4","4","4","4","4","4","5","5","5","5","5","5","5","5","5","5","1","1","2","1","2","1","1","4","1","0","1","0","1","0","1","0","0","0","0","1","0","0","0","0","4","1","1","1","2","","2","1","1","3","1","598867196789129216","郭","361","","","","nonmatch","","","","","","","","","","","","","","key","f","16.66597938144336","768","428","f","true","nonmatch","img/square.png","椭圆","方形","ALT1_1","prac_ALT1_1","","","","","","","","","","","",""
"null","<span style='color:GreenYellow; font-size: 70px;'>正确! </span>","null","html-keyboard-response","90","218914","0.0-7.0-0.0-1.0-0.0-1.40","4","4","4","4","4","4","4","4","4","4","5","5","5","5","5","5","5","5","5","5","1","1","2","1","2","1","1","4","1","0","1","0","1","0","1","0","0","0","0","1","0","0","0","0","4","1","1","1","2","","2","1","1","3","1","598867196789129216","郭","361","","","","","","","","","","","","","","","","","","","","","","","","","","","","","","feedback_test","","","","","","","","","","","",""
"584","","f","psychophysics","91","220501","0.0-7.0-0.0-1.0-0.0-0.41","4","4","4","4","4","4","4","4","4","4","5","5","5","5","5","5","5","5","5","5","1","1","2","1","2","1","1","4","1","0","1","0","1","0","1","0","0","0","0","1","0","0","0","0","4","1","1","1","2","","2","1","1","3","1","598867196789129216","郭","361","","","","nonmatch","","","","","","","","","","","","","","key","f","16.664893617021278","768","428","f","true","nonmatch","img/ellipse.png","三角","椭圆","ALT1_1","prac_ALT1_1","","","","","","","","","","","",""
"null","<span style='color:GreenYellow; font-size: 70px;'>正确! </span>","null","html-keyboard-response","92","221002","0.0-7.0-0.0-1.0-0.0-1.41","4","4","4","4","4","4","4","4","4","4","5","5","5","5","5","5","5","5","5","5","1","1","2","1","2","1","1","4","1","0","1","0","1","0","1","0","0","0","0","1","0","0","0","0","4","1","1","1","2","","2","1","1","3","1","598867196789129216","郭","361","","","","","","","","","","","","","","","","","","","","","","","","","","","","","","feedback_test","","","","","","","","","","","",""
"650","","j","psychophysics","93","222652","0.0-7.0-0.0-1.0-0.0-0.42","4","4","4","4","4","4","4","4","4","4","5","5","5","5","5","5","5","5","5","5","1","1","2","1","2","1","1","4","1","0","1","0","1","0","1","0","0","0","0","1","0","0","0","0","4","1","1","1","2","","2","1","1","3","1","598867196789129216","郭","361","","","","match","","","","","","","","","","","","","","key","j","16.666326530612125","768","428","j","true","match","img/pentagon.png","五边","五边","ALT1_1","prac_ALT1_1","","","","","","","","","","","",""
"null","<span style='color:GreenYellow; font-size: 70px;'>正确! </span>","null","html-keyboard-response","94","223154","0.0-7.0-0.0-1.0-0.0-1.42","4","4","4","4","4","4","4","4","4","4","5","5","5","5","5","5","5","5","5","5","1","1","2","1","2","1","1","4","1","0","1","0","1","0","1","0","0","0","0","1","0","0","0","0","4","1","1","1","2","","2","1","1","3","1","598867196789129216","郭","361","","","","","","","","","","","","","","","","","","","","","","","","","","","","","","feedback_test","","","","","","","","","","","",""
"689","","j","psychophysics","95","224844","0.0-7.0-0.0-1.0-0.0-0.43","4","4","4","4","4","4","4","4","4","4","5","5","5","5","5","5","5","5","5","5","1","1","2","1","2","1","1","4","1","0","1","0","1","0","1","0","0","0","0","1","0","0","0","0","4","1","1","1","2","","2","1","1","3","1","598867196789129216","郭","361","","","","match","","","","","","","","","","","","","","key","j","16.666000000000057","768","428","j","true","match","img/ellipse.png","椭圆","椭圆","ALT1_1","prac_ALT1_1","","","","","","","","","","","",""
"null","<span style='color:GreenYellow; font-size: 70px;'>正确! </span>","null","html-keyboard-response","96","225346","0.0-7.0-0.0-1.0-0.0-1.43","4","4","4","4","4","4","4","4","4","4","5","5","5","5","5","5","5","5","5","5","1","1","2","1","2","1","1","4","1","0","1","0","1","0","1","0","0","0","0","1","0","0","0","0","4","1","1","1","2","","2","1","1","3","1","598867196789129216","郭","361","","","","","","","","","","","","","","","","","","","","","","","","","","","","","","feedback_test","","","","","","","","","","","",""
"648","","j","psychophysics","97","226996","0.0-7.0-0.0-1.0-0.0-0.44","4","4","4","4","4","4","4","4","4","4","5","5","5","5","5","5","5","5","5","5","1","1","2","1","2","1","1","4","1","0","1","0","1","0","1","0","0","0","0","1","0","0","0","0","4","1","1","1","2","","2","1","1","3","1","598867196789129216","郭","361","","","","match","","","","","","","","","","","","","","key","j","16.666326530612125","768","428","j","true","match","img/ellipse.png","椭圆","椭圆","ALT1_1","prac_ALT1_1","","","","","","","","","","","",""
"null","<span style='color:GreenYellow; font-size: 70px;'>正确! </span>","null","html-keyboard-response","98","227498","0.0-7.0-0.0-1.0-0.0-1.44","4","4","4","4","4","4","4","4","4","4","5","5","5","5","5","5","5","5","5","5","1","1","2","1","2","1","1","4","1","0","1","0","1","0","1","0","0","0","0","1","0","0","0","0","4","1","1","1","2","","2","1","1","3","1","598867196789129216","郭","361","","","","","","","","","","","","","","","","","","","","","","","","","","","","","","feedback_test","","","","","","","","","","","",""
"599","","f","psychophysics","99","229099","0.0-7.0-0.0-1.0-0.0-0.45","4","4","4","4","4","4","4","4","4","4","5","5","5","5","5","5","5","5","5","5","1","1","2","1","2","1","1","4","1","0","1","0","1","0","1","0","0","0","0","1","0","0","0","0","4","1","1","1","2","","2","1","1","3","1","598867196789129216","郭","361","","","","nonmatch","","","","","","","","","","","","","","key","f","16.666315789473867","768","428","f","true","nonmatch","img/pentagon.png","方形","五边","ALT1_1","prac_ALT1_1","","","","","","","","","","","",""
"null","<span style='color:GreenYellow; font-size: 70px;'>正确! </span>","null","html-keyboard-response","100","229600","0.0-7.0-0.0-1.0-0.0-1.45","4","4","4","4","4","4","4","4","4","4","5","5","5","5","5","5","5","5","5","5","1","1","2","1","2","1","1","4","1","0","1","0","1","0","1","0","0","0","0","1","0","0","0","0","4","1","1","1","2","","2","1","1","3","1","598867196789129216","郭","361","","","","","","","","","","","","","","","","","","","","","","","","","","","","","","feedback_test","","","","","","","","","","","",""
"610","","j","psychophysics","101","231212","0.0-7.0-0.0-1.0-0.0-0.46","4","4","4","4","4","4","4","4","4","4","5","5","5","5","5","5","5","5","5","5","1","1","2","1","2","1","1","4","1","0","1","0","1","0","1","0","0","0","0","1","0","0","0","0","4","1","1","1","2","","2","1","1","3","1","598867196789129216","郭","361","","","","match","","","","","","","","","","","","","","key","j","16.66526315789486","768","428","j","true","match","img/triangle.png","三角","三角","ALT1_1","prac_ALT1_1","","","","","","","","","","","",""
"null","<span style='color:GreenYellow; font-size: 70px;'>正确! </span>","null","html-keyboard-response","102","231713","0.0-7.0-0.0-1.0-0.0-1.46","4","4","4","4","4","4","4","4","4","4","5","5","5","5","5","5","5","5","5","5","1","1","2","1","2","1","1","4","1","0","1","0","1","0","1","0","0","0","0","1","0","0","0","0","4","1","1","1","2","","2","1","1","3","1","598867196789129216","郭","361","","","","","","","","","","","","","","","","","","","","","","","","","","","","","","feedback_test","","","","","","","","","","","",""
"571","","j","psychophysics","103","233285","0.0-7.0-0.0-1.0-0.0-0.47","4","4","4","4","4","4","4","4","4","4","5","5","5","5","5","5","5","5","5","5","1","1","2","1","2","1","1","4","1","0","1","0","1","0","1","0","0","0","0","1","0","0","0","0","4","1","1","1","2","","2","1","1","3","1","598867196789129216","郭","361","","","","match","","","","","","","","","","","","","","key","j","16.665957446808573","768","428","j","true","match","img/square.png","方形","方形","ALT1_1","prac_ALT1_1","","","","","","","","","","","",""
"null","<span style='color:GreenYellow; font-size: 70px;'>正确! </span>","null","html-keyboard-response","104","233786","0.0-7.0-0.0-1.0-0.0-1.47","4","4","4","4","4","4","4","4","4","4","5","5","5","5","5","5","5","5","5","5","1","1","2","1","2","1","1","4","1","0","1","0","1","0","1","0","0","0","0","1","0","0","0","0","4","1","1","1","2","","2","1","1","3","1","598867196789129216","郭","361","","","","","","","","","","","","","","","","","","","","","","","","","","","","","","feedback_test","","","","","","","","","","","",""
"1201","<style>.context{color:white; font-size: 35px; line-height:40px}</style>                            <div><p class='context'>您正确回答了94% 的试次。</p><p class='context'>您的平均反应时为644毫秒。</p><p class='context'>恭喜您完成练习。按空格键进入正式实验。</p><p class='footer' style='font-size: 35px; line-height:40px;'>请在进入正式实验之前将您的<span style='color: lightgreen;'>食指</span>放在电脑键盘的相应键位上进行按键。</p>"," ","html-keyboard-response","105","234988","0.0-7.0-0.0-2.0","4","4","4","4","4","4","4","4","4","4","5","5","5","5","5","5","5","5","5","5","1","1","2","1","2","1","1","4","1","0","1","0","1","0","1","0","0","0","0","1","0","0","0","0","4","1","1","1","2","","2","1","1","3","1","598867196789129216","郭","361","","","","","","","","","","","","","","","","","","","","","","","","","","","","","","","","","","","","","","","","","",""
"1958","
    <p style='color: white; font-size: 22px'>请您将手指放在按键上，准备进入正式的匹配任务。</p>
    <p> <div style = ""color: green""><按空格键进入下一阶段的匹配任务></div></p>
    "," ","html-keyboard-response","106","236948","0.0-7.0-0.0-3.0","4","4","4","4","4","4","4","4","4","4","5","5","5","5","5","5","5","5","5","5","1","1","2","1","2","1","1","4","1","0","1","0","1","0","1","0","0","0","0","1","0","0","0","0","4","1","1","1","2","","2","1","1","3","1","598867196789129216","郭","361","","","","","","","","","","","","","","","","","","","","","","","","","","","","","","","","","","","","","","","","","",""
"751","","f","psychophysics","107","238700","0.0-7.0-0.0-4.0-0.0-0.0","4","4","4","4","4","4","4","4","4","4","5","5","5","5","5","5","5","5","5","5","1","1","2","1","2","1","1","4","1","0","1","0","1","0","1","0","0","0","0","1","0","0","0","0","4","1","1","1","2","","2","1","1","3","1","598867196789129216","郭","361","","","","nonmatch","","","","","","","","","","","","","","key","f","16.66476190476207","768","428","f","true","nonmatch","img/pentagon.png","椭圆","五边","ALT1","formal_ALT1_1","","","","","","","","","","","",""
"null","<span style='color:GreenYellow; font-size: 70px;'>正确! </span>","null","html-keyboard-response","108","239203","0.0-7.0-0.0-4.0-0.0-1.0","4","4","4","4","4","4","4","4","4","4","5","5","5","5","5","5","5","5","5","5","1","1","2","1","2","1","1","4","1","0","1","0","1","0","1","0","0","0","0","1","0","0","0","0","4","1","1","1","2","","2","1","1","3","1","598867196789129216","郭","361","","","","","","","","","","","","","","","","","","","","","","","","","","","","","","feedback_test","","","","","","","","","","","",""
"616","","j","psychophysics","109","240820","0.0-7.0-0.0-4.0-0.0-0.1","4","4","4","4","4","4","4","4","4","4","5","5","5","5","5","5","5","5","5","5","1","1","2","1","2","1","1","4","1","0","1","0","1","0","1","0","0","0","0","1","0","0","0","0","4","1","1","1","2","","2","1","1","3","1","598867196789129216","郭","361","","","","match","","","","","","","","","","","","","","key","j","16.665624999999938","768","428","j","true","match","img/square.png","方形","方形","ALT1","formal_ALT1_1","","","","","","","","","","","",""
"null","<span style='color:GreenYellow; font-size: 70px;'>正确! </span>","null","html-keyboard-response","110","241322","0.0-7.0-0.0-4.0-0.0-1.1","4","4","4","4","4","4","4","4","4","4","5","5","5","5","5","5","5","5","5","5","1","1","2","1","2","1","1","4","1","0","1","0","1","0","1","0","0","0","0","1","0","0","0","0","4","1","1","1","2","","2","1","1","3","1","598867196789129216","郭","361","","","","","","","","","","","","","","","","","","","","","","","","","","","","","","feedback_test","","","","","","","","","","","",""
"575","","j","psychophysics","111","242900","0.0-7.0-0.0-4.0-0.0-0.2","4","4","4","4","4","4","4","4","4","4","5","5","5","5","5","5","5","5","5","5","1","1","2","1","2","1","1","4","1","0","1","0","1","0","1","0","0","0","0","1","0","0","0","0","4","1","1","1","2","","2","1","1","3","1","598867196789129216","郭","361","","","","match","","","","","","","","","","","","","","key","j","16.664893617021278","768","428","j","true","match","img/ellipse.png","椭圆","椭圆","ALT1","formal_ALT1_1","","","","","","","","","","","",""
"null","<span style='color:GreenYellow; font-size: 70px;'>正确! </span>","null","html-keyboard-response","112","243400","0.0-7.0-0.0-4.0-0.0-1.2","4","4","4","4","4","4","4","4","4","4","5","5","5","5","5","5","5","5","5","5","1","1","2","1","2","1","1","4","1","0","1","0","1","0","1","0","0","0","0","1","0","0","0","0","4","1","1","1","2","","2","1","1","3","1","598867196789129216","郭","361","","","","","","","","","","","","","","","","","","","","","","","","","","","","","","feedback_test","","","","","","","","","","","",""
"562","","j","psychophysics","113","244964","0.0-7.0-0.0-4.0-0.0-0.3","4","4","4","4","4","4","4","4","4","4","5","5","5","5","5","5","5","5","5","5","1","1","2","1","2","1","1","4","1","0","1","0","1","0","1","0","0","0","0","1","0","0","0","0","4","1","1","1","2","","2","1","1","3","1","598867196789129216","郭","361","","","","match","","","","","","","","","","","","","","key","j","16.66413043478267","768","428","j","true","match","img/pentagon.png","五边","五边","ALT1","formal_ALT1_1","","","","","","","","","","","",""
"null","<span style='color:GreenYellow; font-size: 70px;'>正确! </span>","null","html-keyboard-response","114","245466","0.0-7.0-0.0-4.0-0.0-1.3","4","4","4","4","4","4","4","4","4","4","5","5","5","5","5","5","5","5","5","5","1","1","2","1","2","1","1","4","1","0","1","0","1","0","1","0","0","0","0","1","0","0","0","0","4","1","1","1","2","","2","1","1","3","1","598867196789129216","郭","361","","","","","","","","","","","","","","","","","","","","","","","","","","","","","","feedback_test","","","","","","","","","","","",""
"651","","f","psychophysics","115","247117","0.0-7.0-0.0-4.0-0.0-0.4","4","4","4","4","4","4","4","4","4","4","5","5","5","5","5","5","5","5","5","5","1","1","2","1","2","1","1","4","1","0","1","0","1","0","1","0","0","0","0","1","0","0","0","0","4","1","1","1","2","","2","1","1","3","1","598867196789129216","郭","361","","","","nonmatch","","","","","","","","","","","","","","key","f","16.664285714285477","768","428","f","true","nonmatch","img/triangle.png","五边","三角","ALT1","formal_ALT1_1","","","","","","","","","","","",""
"null","<span style='color:GreenYellow; font-size: 70px;'>正确! </span>","null","html-keyboard-response","116","247619","0.0-7.0-0.0-4.0-0.0-1.4","4","4","4","4","4","4","4","4","4","4","5","5","5","5","5","5","5","5","5","5","1","1","2","1","2","1","1","4","1","0","1","0","1","0","1","0","0","0","0","1","0","0","0","0","4","1","1","1","2","","2","1","1","3","1","598867196789129216","郭","361","","","","","","","","","","","","","","","","","","","","","","","","","","","","","","feedback_test","","","","","","","","","","","",""
"559","","f","psychophysics","117","249180","0.0-7.0-0.0-4.0-0.0-0.5","4","4","4","4","4","4","4","4","4","4","5","5","5","5","5","5","5","5","5","5","1","1","2","1","2","1","1","4","1","0","1","0","1","0","1","0","0","0","0","1","0","0","0","0","4","1","1","1","2","","2","1","1","3","1","598867196789129216","郭","361","","","","nonmatch","","","","","","","","","","","","","","key","f","16.665217391304473","768","428","f","true","nonmatch","img/pentagon.png","三角","五边","ALT1","formal_ALT1_1","","","","","","","","","","","",""
"null","<span style='color:GreenYellow; font-size: 70px;'>正确! </span>","null","html-keyboard-response","118","249681","0.0-7.0-0.0-4.0-0.0-1.5","4","4","4","4","4","4","4","4","4","4","5","5","5","5","5","5","5","5","5","5","1","1","2","1","2","1","1","4","1","0","1","0","1","0","1","0","0","0","0","1","0","0","0","0","4","1","1","1","2","","2","1","1","3","1","598867196789129216","郭","361","","","","","","","","","","","","","","","","","","","","","","","","","","","","","","feedback_test","","","","","","","","","","","",""
"658","","f","psychophysics","119","251341","0.0-7.0-0.0-4.0-0.0-0.6","4","4","4","4","4","4","4","4","4","4","5","5","5","5","5","5","5","5","5","5","1","1","2","1","2","1","1","4","1","0","1","0","1","0","1","0","0","0","0","1","0","0","0","0","4","1","1","1","2","","2","1","1","3","1","598867196789129216","郭","361","","","","nonmatch","","","","","","","","","","","","","","key","f","16.664646464646346","768","428","f","true","nonmatch","img/square.png","椭圆","方形","ALT1","formal_ALT1_1","","","","","","","","","","","",""
"null","<span style='color:GreenYellow; font-size: 70px;'>正确! </span>","null","html-keyboard-response","120","251846","0.0-7.0-0.0-4.0-0.0-1.6","4","4","4","4","4","4","4","4","4","4","5","5","5","5","5","5","5","5","5","5","1","1","2","1","2","1","1","4","1","0","1","0","1","0","1","0","0","0","0","1","0","0","0","0","4","1","1","1","2","","2","1","1","3","1","598867196789129216","郭","361","","","","","","","","","","","","","","","","","","","","","","","","","","","","","","feedback_test","","","","","","","","","","","",""
"629","","j","psychophysics","121","253477","0.0-7.0-0.0-4.0-0.0-0.7","4","4","4","4","4","4","4","4","4","4","5","5","5","5","5","5","5","5","5","5","1","1","2","1","2","1","1","4","1","0","1","0","1","0","1","0","0","0","0","1","0","0","0","0","4","1","1","1","2","","2","1","1","3","1","598867196789129216","郭","361","","","","match","","","","","","","","","","","","","","key","j","16.663917525773137","768","428","j","true","match","img/triangle.png","三角","三角","ALT1","formal_ALT1_1","","","","","","","","","","","",""
"null","<span style='color:GreenYellow; font-size: 70px;'>正确! </span>","null","html-keyboard-response","122","253979","0.0-7.0-0.0-4.0-0.0-1.7","4","4","4","4","4","4","4","4","4","4","5","5","5","5","5","5","5","5","5","5","1","1","2","1","2","1","1","4","1","0","1","0","1","0","1","0","0","0","0","1","0","0","0","0","4","1","1","1","2","","2","1","1","3","1","598867196789129216","郭","361","","","","","","","","","","","","","","","","","","","","","","","","","","","","","","feedback_test","","","","","","","","","","","",""
"536","","f","psychophysics","123","255517","0.0-7.0-0.0-4.0-0.0-0.8","4","4","4","4","4","4","4","4","4","4","5","5","5","5","5","5","5","5","5","5","1","1","2","1","2","1","1","4","1","0","1","0","1","0","1","0","0","0","0","1","0","0","0","0","4","1","1","1","2","","2","1","1","3","1","598867196789129216","郭","361","","","","nonmatch","","","","","","","","","","","","","","key","f","16.665217391304157","768","428","f","true","nonmatch","img/ellipse.png","五边","椭圆","ALT1","formal_ALT1_1","","","","","","","","","","","",""
"null","<span style='color:GreenYellow; font-size: 70px;'>正确! </span>","null","html-keyboard-response","124","256019","0.0-7.0-0.0-4.0-0.0-1.8","4","4","4","4","4","4","4","4","4","4","5","5","5","5","5","5","5","5","5","5","1","1","2","1","2","1","1","4","1","0","1","0","1","0","1","0","0","0","0","1","0","0","0","0","4","1","1","1","2","","2","1","1","3","1","598867196789129216","郭","361","","","","","","","","","","","","","","","","","","","","","","","","","","","","","","feedback_test","","","","","","","","","","","",""
"752","","j","psychophysics","125","257772","0.0-7.0-0.0-4.0-0.0-0.9","4","4","4","4","4","4","4","4","4","4","5","5","5","5","5","5","5","5","5","5","1","1","2","1","2","1","1","4","1","0","1","0","1","0","1","0","0","0","0","1","0","0","0","0","4","1","1","1","2","","2","1","1","3","1","598867196789129216","郭","361","","","","match","","","","","","","","","","","","","","key","j","16.665384615384728","768","428","j","true","match","img/ellipse.png","椭圆","椭圆","ALT1","formal_ALT1_1","","","","","","","","","","","",""
"null","<span style='color:GreenYellow; font-size: 70px;'>正确! </span>","null","html-keyboard-response","126","258274","0.0-7.0-0.0-4.0-0.0-1.9","4","4","4","4","4","4","4","4","4","4","5","5","5","5","5","5","5","5","5","5","1","1","2","1","2","1","1","4","1","0","1","0","1","0","1","0","0","0","0","1","0","0","0","0","4","1","1","1","2","","2","1","1","3","1","598867196789129216","郭","361","","","","","","","","","","","","","","","","","","","","","","","","","","","","","","feedback_test","","","","","","","","","","","",""
"681","","f","psychophysics","127","259956","0.0-7.0-0.0-4.0-0.0-0.10","4","4","4","4","4","4","4","4","4","4","5","5","5","5","5","5","5","5","5","5","1","1","2","1","2","1","1","4","1","0","1","0","1","0","1","0","0","0","0","1","0","0","0","0","4","1","1","1","2","","2","1","1","3","1","598867196789129216","郭","361","","","","nonmatch","","","","","","","","","","","","","","key","f","16.665999999999766","768","428","f","true","nonmatch","img/triangle.png","方形","三角","ALT1","formal_ALT1_1","","","","","","","","","","","",""
"null","<span style='color:GreenYellow; font-size: 70px;'>正确! </span>","null","html-keyboard-response","128","260456","0.0-7.0-0.0-4.0-0.0-1.10","4","4","4","4","4","4","4","4","4","4","5","5","5","5","5","5","5","5","5","5","1","1","2","1","2","1","1","4","1","0","1","0","1","0","1","0","0","0","0","1","0","0","0","0","4","1","1","1","2","","2","1","1","3","1","598867196789129216","郭","361","","","","","","","","","","","","","","","","","","","","","","","","","","","","","","feedback_test","","","","","","","","","","","",""
"602","","j","psychophysics","129","262061","0.0-7.0-0.0-4.0-0.0-0.11","4","4","4","4","4","4","4","4","4","4","5","5","5","5","5","5","5","5","5","5","1","1","2","1","2","1","1","4","1","0","1","0","1","0","1","0","0","0","0","1","0","0","0","0","4","1","1","1","2","","2","1","1","3","1","598867196789129216","郭","361","","","","match","","","","","","","","","","","","","","key","j","16.66631578947356","768","428","j","true","match","img/square.png","方形","方形","ALT1","formal_ALT1_1","","","","","","","","","","","",""
"null","<span style='color:GreenYellow; font-size: 70px;'>正确! </span>","null","html-keyboard-response","130","262562","0.0-7.0-0.0-4.0-0.0-1.11","4","4","4","4","4","4","4","4","4","4","5","5","5","5","5","5","5","5","5","5","1","1","2","1","2","1","1","4","1","0","1","0","1","0","1","0","0","0","0","1","0","0","0","0","4","1","1","1","2","","2","1","1","3","1","598867196789129216","郭","361","","","","","","","","","","","","","","","","","","","","","","","","","","","","","","feedback_test","","","","","","","","","","","",""
"656","","j","psychophysics","131","264221","0.0-7.0-0.0-4.0-0.0-0.12","4","4","4","4","4","4","4","4","4","4","5","5","5","5","5","5","5","5","5","5","1","1","2","1","2","1","1","4","1","0","1","0","1","0","1","0","0","0","0","1","0","0","0","0","4","1","1","1","2","","2","1","1","3","1","598867196789129216","郭","361","","","","match","","","","","","","","","","","","","","key","j","16.66363636363648","768","428","j","true","match","img/pentagon.png","五边","五边","ALT1","formal_ALT1_1","","","","","","","","","","","",""
"null","<span style='color:GreenYellow; font-size: 70px;'>正确! </span>","null","html-keyboard-response","132","264722","0.0-7.0-0.0-4.0-0.0-1.12","4","4","4","4","4","4","4","4","4","4","5","5","5","5","5","5","5","5","5","5","1","1","2","1","2","1","1","4","1","0","1","0","1","0","1","0","0","0","0","1","0","0","0","0","4","1","1","1","2","","2","1","1","3","1","598867196789129216","郭","361","","","","","","","","","","","","","","","","","","","","","","","","","","","","","","feedback_test","","","","","","","","","","","",""
"562","","j","psychophysics","133","266284","0.0-7.0-0.0-4.0-0.0-0.13","4","4","4","4","4","4","4","4","4","4","5","5","5","5","5","5","5","5","5","5","1","1","2","1","2","1","1","4","1","0","1","0","1","0","1","0","0","0","0","1","0","0","0","0","4","1","1","1","2","","2","1","1","3","1","598867196789129216","郭","361","","","","match","","","","","","","","","","","","","","key","j","16.664516129032133","768","428","j","true","match","img/ellipse.png","椭圆","椭圆","ALT1","formal_ALT1_1","","","","","","","","","","","",""
"null","<span style='color:GreenYellow; font-size: 70px;'>正确! </span>","null","html-keyboard-response","134","266797","0.0-7.0-0.0-4.0-0.0-1.13","4","4","4","4","4","4","4","4","4","4","5","5","5","5","5","5","5","5","5","5","1","1","2","1","2","1","1","4","1","0","1","0","1","0","1","0","0","0","0","1","0","0","0","0","4","1","1","1","2","","2","1","1","3","1","598867196789129216","郭","361","","","","","","","","","","","","","","","","","","","","","","","","","","","","","","feedback_test","","","","","","","","","","","",""
"551","","j","psychophysics","135","268349","0.0-7.0-0.0-4.0-0.0-0.14","4","4","4","4","4","4","4","4","4","4","5","5","5","5","5","5","5","5","5","5","1","1","2","1","2","1","1","4","1","0","1","0","1","0","1","0","0","0","0","1","0","0","0","0","4","1","1","1","2","","2","1","1","3","1","598867196789129216","郭","361","","","","match","","","","","","","","","","","","","","key","j","16.665217391304473","768","428","j","true","match","img/square.png","方形","方形","ALT1","formal_ALT1_1","","","","","","","","","","","",""
"null","<span style='color:GreenYellow; font-size: 70px;'>正确! </span>","null","html-keyboard-response","136","268849","0.0-7.0-0.0-4.0-0.0-1.14","4","4","4","4","4","4","4","4","4","4","5","5","5","5","5","5","5","5","5","5","1","1","2","1","2","1","1","4","1","0","1","0","1","0","1","0","0","0","0","1","0","0","0","0","4","1","1","1","2","","2","1","1","3","1","598867196789129216","郭","361","","","","","","","","","","","","","","","","","","","","","","","","","","","","","","feedback_test","","","","","","","","","","","",""
"570","","f","psychophysics","137","270421","0.0-7.0-0.0-4.0-0.0-0.15","4","4","4","4","4","4","4","4","4","4","5","5","5","5","5","5","5","5","5","5","1","1","2","1","2","1","1","4","1","0","1","0","1","0","1","0","0","0","0","1","0","0","0","0","4","1","1","1","2","","2","1","1","3","1","598867196789129216","郭","361","","","","nonmatch","","","","","","","","","","","","","","key","f","16.665591397849713","768","428","f","true","nonmatch","img/triangle.png","椭圆","三角","ALT1","formal_ALT1_1","","","","","","","","","","","",""
"null","<span style='color:GreenYellow; font-size: 70px;'>正确! </span>","null","html-keyboard-response","138","270922","0.0-7.0-0.0-4.0-0.0-1.15","4","4","4","4","4","4","4","4","4","4","5","5","5","5","5","5","5","5","5","5","1","1","2","1","2","1","1","4","1","0","1","0","1","0","1","0","0","0","0","1","0","0","0","0","4","1","1","1","2","","2","1","1","3","1","598867196789129216","郭","361","","","","","","","","","","","","","","","","","","","","","","","","","","","","","","feedback_test","","","","","","","","","","","",""
"634","","j","psychophysics","139","272564","0.0-7.0-0.0-4.0-0.0-0.16","4","4","4","4","4","4","4","4","4","4","5","5","5","5","5","5","5","5","5","5","1","1","2","1","2","1","1","4","1","0","1","0","1","0","1","0","0","0","0","1","0","0","0","0","4","1","1","1","2","","2","1","1","3","1","598867196789129216","郭","361","","","","match","","","","","","","","","","","","","","key","j","16.666326530612125","768","428","j","true","match","img/pentagon.png","五边","五边","ALT1","formal_ALT1_1","","","","","","","","","","","",""
"null","<span style='color:GreenYellow; font-size: 70px;'>正确! </span>","null","html-keyboard-response","140","273064","0.0-7.0-0.0-4.0-0.0-1.16","4","4","4","4","4","4","4","4","4","4","5","5","5","5","5","5","5","5","5","5","1","1","2","1","2","1","1","4","1","0","1","0","1","0","1","0","0","0","0","1","0","0","0","0","4","1","1","1","2","","2","1","1","3","1","598867196789129216","郭","361","","","","","","","","","","","","","","","","","","","","","","","","","","","","","","feedback_test","","","","","","","","","","","",""
"491","","j","psychophysics","141","274556","0.0-7.0-0.0-4.0-0.0-0.17","4","4","4","4","4","4","4","4","4","4","5","5","5","5","5","5","5","5","5","5","1","1","2","1","2","1","1","4","1","0","1","0","1","0","1","0","0","0","0","1","0","0","0","0","4","1","1","1","2","","2","1","1","3","1","598867196789129216","郭","361","","","","match","","","","","","","","","","","","","","key","j","16.665909090908826","768","428","j","true","match","img/triangle.png","三角","三角","ALT1","formal_ALT1_1","","","","","","","","","","","",""
"null","<span style='color:GreenYellow; font-size: 70px;'>正确! </span>","null","html-keyboard-response","142","275057","0.0-7.0-0.0-4.0-0.0-1.17","4","4","4","4","4","4","4","4","4","4","5","5","5","5","5","5","5","5","5","5","1","1","2","1","2","1","1","4","1","0","1","0","1","0","1","0","0","0","0","1","0","0","0","0","4","1","1","1","2","","2","1","1","3","1","598867196789129216","郭","361","","","","","","","","","","","","","","","","","","","","","","","","","","","","","","feedback_test","","","","","","","","","","","",""
"523","","j","psychophysics","143","276581","0.0-7.0-0.0-4.0-0.0-0.18","4","4","4","4","4","4","4","4","4","4","5","5","5","5","5","5","5","5","5","5","1","1","2","1","2","1","1","4","1","0","1","0","1","0","1","0","0","0","0","1","0","0","0","0","4","1","1","1","2","","2","1","1","3","1","598867196789129216","郭","361","","","","match","","","","","","","","","","","","","","key","j","16.667032967033094","768","428","j","true","match","img/triangle.png","三角","三角","ALT1","formal_ALT1_1","","","","","","","","","","","",""
"null","<span style='color:GreenYellow; font-size: 70px;'>正确! </span>","null","html-keyboard-response","144","277082","0.0-7.0-0.0-4.0-0.0-1.18","4","4","4","4","4","4","4","4","4","4","5","5","5","5","5","5","5","5","5","5","1","1","2","1","2","1","1","4","1","0","1","0","1","0","1","0","0","0","0","1","0","0","0","0","4","1","1","1","2","","2","1","1","3","1","598867196789129216","郭","361","","","","","","","","","","","","","","","","","","","","","","","","","","","","","","feedback_test","","","","","","","","","","","",""
"689","","f","psychophysics","145","278772","0.0-7.0-0.0-4.0-0.0-0.19","4","4","4","4","4","4","4","4","4","4","5","5","5","5","5","5","5","5","5","5","1","1","2","1","2","1","1","4","1","0","1","0","1","0","1","0","0","0","0","1","0","0","0","0","4","1","1","1","2","","2","1","1","3","1","598867196789129216","郭","361","","","","nonmatch","","","","","","","","","","","","","","key","f","16.665999999999766","768","428","f","true","nonmatch","img/square.png","五边","方形","ALT1","formal_ALT1_1","","","","","","","","","","","",""
"null","<span style='color:GreenYellow; font-size: 70px;'>正确! </span>","null","html-keyboard-response","146","279273","0.0-7.0-0.0-4.0-0.0-1.19","4","4","4","4","4","4","4","4","4","4","5","5","5","5","5","5","5","5","5","5","1","1","2","1","2","1","1","4","1","0","1","0","1","0","1","0","0","0","0","1","0","0","0","0","4","1","1","1","2","","2","1","1","3","1","598867196789129216","郭","361","","","","","","","","","","","","","","","","","","","","","","","","","","","","","","feedback_test","","","","","","","","","","","",""
"577","","f","psychophysics","147","280852","0.0-7.0-0.0-4.0-0.0-0.20","4","4","4","4","4","4","4","4","4","4","5","5","5","5","5","5","5","5","5","5","1","1","2","1","2","1","1","4","1","0","1","0","1","0","1","0","0","0","0","1","0","0","0","0","4","1","1","1","2","","2","1","1","3","1","598867196789129216","郭","361","","","","nonmatch","","","","","","","","","","","","","","key","f","16.665957446808264","768","428","f","true","nonmatch","img/square.png","三角","方形","ALT1","formal_ALT1_1","","","","","","","","","","","",""
"null","<span style='color:GreenYellow; font-size: 70px;'>正确! </span>","null","html-keyboard-response","148","281354","0.0-7.0-0.0-4.0-0.0-1.20","4","4","4","4","4","4","4","4","4","4","5","5","5","5","5","5","5","5","5","5","1","1","2","1","2","1","1","4","1","0","1","0","1","0","1","0","0","0","0","1","0","0","0","0","4","1","1","1","2","","2","1","1","3","1","598867196789129216","郭","361","","","","","","","","","","","","","","","","","","","","","","","","","","","","","","feedback_test","","","","","","","","","","","",""
"576","","f","psychophysics","149","282932","0.0-7.0-0.0-4.0-0.0-0.21","4","4","4","4","4","4","4","4","4","4","5","5","5","5","5","5","5","5","5","5","1","1","2","1","2","1","1","4","1","0","1","0","1","0","1","0","0","0","0","1","0","0","0","0","4","1","1","1","2","","2","1","1","3","1","598867196789129216","郭","361","","","","nonmatch","","","","","","","","","","","","","","key","f","16.665957446808264","768","428","f","true","nonmatch","img/ellipse.png","三角","椭圆","ALT1","formal_ALT1_1","","","","","","","","","","","",""
"null","<span style='color:GreenYellow; font-size: 70px;'>正确! </span>","null","html-keyboard-response","150","283433","0.0-7.0-0.0-4.0-0.0-1.21","4","4","4","4","4","4","4","4","4","4","5","5","5","5","5","5","5","5","5","5","1","1","2","1","2","1","1","4","1","0","1","0","1","0","1","0","0","0","0","1","0","0","0","0","4","1","1","1","2","","2","1","1","3","1","598867196789129216","郭","361","","","","","","","","","","","","","","","","","","","","","","","","","","","","","","feedback_test","","","","","","","","","","","",""
"658","","f","psychophysics","151","285092","0.0-7.0-0.0-4.0-0.0-0.22","4","4","4","4","4","4","4","4","4","4","5","5","5","5","5","5","5","5","5","5","1","1","2","1","2","1","1","4","1","0","1","0","1","0","1","0","0","0","0","1","0","0","0","0","4","1","1","1","2","","2","1","1","3","1","598867196789129216","郭","361","","","","nonmatch","","","","","","","","","","","","","","key","f","16.666326530612125","768","428","f","true","nonmatch","img/pentagon.png","方形","五边","ALT1","formal_ALT1_1","","","","","","","","","","","",""
"null","<span style='color:GreenYellow; font-size: 70px;'>正确! </span>","null","html-keyboard-response","152","285594","0.0-7.0-0.0-4.0-0.0-1.22","4","4","4","4","4","4","4","4","4","4","5","5","5","5","5","5","5","5","5","5","1","1","2","1","2","1","1","4","1","0","1","0","1","0","1","0","0","0","0","1","0","0","0","0","4","1","1","1","2","","2","1","1","3","1","598867196789129216","郭","361","","","","","","","","","","","","","","","","","","","","","","","","","","","","","","feedback_test","","","","","","","","","","","",""
"569","","f","psychophysics","153","287164","0.0-7.0-0.0-4.0-0.0-0.23","4","4","4","4","4","4","4","4","4","4","5","5","5","5","5","5","5","5","5","5","1","1","2","1","2","1","1","4","1","0","1","0","1","0","1","0","0","0","0","1","0","0","0","0","4","1","1","1","2","","2","1","1","3","1","598867196789129216","郭","361","","","","nonmatch","","","","","","","","","","","","","","key","f","16.659139784946113","768","428","f","true","nonmatch","img/ellipse.png","方形","椭圆","ALT1","formal_ALT1_1","","","","","","","","","","","",""
"null","<span style='color:GreenYellow; font-size: 70px;'>正确! </span>","null","html-keyboard-response","154","287664","0.0-7.0-0.0-4.0-0.0-1.23","4","4","4","4","4","4","4","4","4","4","5","5","5","5","5","5","5","5","5","5","1","1","2","1","2","1","1","4","1","0","1","0","1","0","1","0","0","0","0","1","0","0","0","0","4","1","1","1","2","","2","1","1","3","1","598867196789129216","郭","361","","","","","","","","","","","","","","","","","","","","","","","","","","","","","","feedback_test","","","","","","","","","","","",""
"635","","f","psychophysics","155","289301","0.0-7.0-0.0-4.0-0.0-0.24","4","4","4","4","4","4","4","4","4","4","5","5","5","5","5","5","5","5","5","5","1","1","2","1","2","1","1","4","1","0","1","0","1","0","1","0","0","0","0","1","0","0","0","0","4","1","1","1","2","","2","1","1","3","1","598867196789129216","郭","361","","","","nonmatch","","","","","","","","","","","","","","key","f","16.664948453608247","768","428","f","true","nonmatch","img/triangle.png","方形","三角","ALT1","formal_ALT1_1","","","","","","","","","","","",""
"null","<span style='color:GreenYellow; font-size: 70px;'>正确! </span>","null","html-keyboard-response","156","289808","0.0-7.0-0.0-4.0-0.0-1.24","4","4","4","4","4","4","4","4","4","4","5","5","5","5","5","5","5","5","5","5","1","1","2","1","2","1","1","4","1","0","1","0","1","0","1","0","0","0","0","1","0","0","0","0","4","1","1","1","2","","2","1","1","3","1","598867196789129216","郭","361","","","","","","","","","","","","","","","","","","","","","","","","","","","","","","feedback_test","","","","","","","","","","","",""
"610","","f","psychophysics","157","291420","0.0-7.0-0.0-4.0-0.0-0.25","4","4","4","4","4","4","4","4","4","4","5","5","5","5","5","5","5","5","5","5","1","1","2","1","2","1","1","4","1","0","1","0","1","0","1","0","0","0","0","1","0","0","0","0","4","1","1","1","2","","2","1","1","3","1","598867196789129216","郭","361","","","","nonmatch","","","","","","","","","","","","","","key","f","16.664583333333212","768","428","f","true","nonmatch","img/ellipse.png","五边","椭圆","ALT1","formal_ALT1_1","","","","","","","","","","","",""
"null","<span style='color:GreenYellow; font-size: 70px;'>正确! </span>","null","html-keyboard-response","158","291921","0.0-7.0-0.0-4.0-0.0-1.25","4","4","4","4","4","4","4","4","4","4","5","5","5","5","5","5","5","5","5","5","1","1","2","1","2","1","1","4","1","0","1","0","1","0","1","0","0","0","0","1","0","0","0","0","4","1","1","1","2","","2","1","1","3","1","598867196789129216","郭","361","","","","","","","","","","","","","","","","","","","","","","","","","","","","","","feedback_test","","","","","","","","","","","",""
"625","","f","psychophysics","159","293549","0.0-7.0-0.0-4.0-0.0-0.26","4","4","4","4","4","4","4","4","4","4","5","5","5","5","5","5","5","5","5","5","1","1","2","1","2","1","1","4","1","0","1","0","1","0","1","0","0","0","0","1","0","0","0","0","4","1","1","1","2","","2","1","1","3","1","598867196789129216","郭","361","","","","nonmatch","","","","","","","","","","","","","","key","f","16.664948453608247","768","428","f","true","nonmatch","img/pentagon.png","椭圆","五边","ALT1","formal_ALT1_1","","","","","","","","","","","",""
"null","<span style='color:GreenYellow; font-size: 70px;'>正确! </span>","null","html-keyboard-response","160","294050","0.0-7.0-0.0-4.0-0.0-1.26","4","4","4","4","4","4","4","4","4","4","5","5","5","5","5","5","5","5","5","5","1","1","2","1","2","1","1","4","1","0","1","0","1","0","1","0","0","0","0","1","0","0","0","0","4","1","1","1","2","","2","1","1","3","1","598867196789129216","郭","361","","","","","","","","","","","","","","","","","","","","","","","","","","","","","","feedback_test","","","","","","","","","","","",""
"649","","f","psychophysics","161","295701","0.0-7.0-0.0-4.0-0.0-0.27","4","4","4","4","4","4","4","4","4","4","5","5","5","5","5","5","5","5","5","5","1","1","2","1","2","1","1","4","1","0","1","0","1","0","1","0","0","0","0","1","0","0","0","0","4","1","1","1","2","","2","1","1","3","1","598867196789129216","郭","361","","","","nonmatch","","","","","","","","","","","","","","key","f","16.666326530612125","768","428","j","false","match","img/pentagon.png","五边","五边","ALT1","formal_ALT1_1","","","","","","","","","","","",""
"null","<span style='color:red; font-size: 70px;'>错误! </span>","null","html-keyboard-response","162","296201","0.0-7.0-0.0-4.0-0.0-1.27","4","4","4","4","4","4","4","4","4","4","5","5","5","5","5","5","5","5","5","5","1","1","2","1","2","1","1","4","1","0","1","0","1","0","1","0","0","0","0","1","0","0","0","0","4","1","1","1","2","","2","1","1","3","1","598867196789129216","郭","361","","","","","","","","","","","","","","","","","","","","","","","","","","","","","","feedback_test","","","","","","","","","","","",""
"521","","j","psychophysics","163","297725","0.0-7.0-0.0-4.0-0.0-0.28","4","4","4","4","4","4","4","4","4","4","5","5","5","5","5","5","5","5","5","5","1","1","2","1","2","1","1","4","1","0","1","0","1","0","1","0","0","0","0","1","0","0","0","0","4","1","1","1","2","","2","1","1","3","1","598867196789129216","郭","361","","","","match","","","","","","","","","","","","","","key","j","16.664444444444314","768","428","j","true","match","img/triangle.png","三角","三角","ALT1","formal_ALT1_1","","","","","","","","","","","",""
"null","<span style='color:GreenYellow; font-size: 70px;'>正确! </span>","null","html-keyboard-response","164","298225","0.0-7.0-0.0-4.0-0.0-1.28","4","4","4","4","4","4","4","4","4","4","5","5","5","5","5","5","5","5","5","5","1","1","2","1","2","1","1","4","1","0","1","0","1","0","1","0","0","0","0","1","0","0","0","0","4","1","1","1","2","","2","1","1","3","1","598867196789129216","郭","361","","","","","","","","","","","","","","","","","","","","","","","","","","","","","","feedback_test","","","","","","","","","","","",""
"522","","j","psychophysics","165","299749","0.0-7.0-0.0-4.0-0.0-0.29","4","4","4","4","4","4","4","4","4","4","5","5","5","5","5","5","5","5","5","5","1","1","2","1","2","1","1","4","1","0","1","0","1","0","1","0","0","0","0","1","0","0","0","0","4","1","1","1","2","","2","1","1","3","1","598867196789129216","郭","361","","","","match","","","","","","","","","","","","","","key","j","16.66373626373652","768","428","j","true","match","img/triangle.png","三角","三角","ALT1","formal_ALT1_1","","","","","","","","","","","",""
"null","<span style='color:GreenYellow; font-size: 70px;'>正确! </span>","null","html-keyboard-response","166","300250","0.0-7.0-0.0-4.0-0.0-1.29","4","4","4","4","4","4","4","4","4","4","5","5","5","5","5","5","5","5","5","5","1","1","2","1","2","1","1","4","1","0","1","0","1","0","1","0","0","0","0","1","0","0","0","0","4","1","1","1","2","","2","1","1","3","1","598867196789129216","郭","361","","","","","","","","","","","","","","","","","","","","","","","","","","","","","","feedback_test","","","","","","","","","","","",""
"634","","f","psychophysics","167","301885","0.0-7.0-0.0-4.0-0.0-0.30","4","4","4","4","4","4","4","4","4","4","5","5","5","5","5","5","5","5","5","5","1","1","2","1","2","1","1","4","1","0","1","0","1","0","1","0","0","0","0","1","0","0","0","0","4","1","1","1","2","","2","1","1","3","1","598867196789129216","郭","361","","","","nonmatch","","","","","","","","","","","","","","key","f","16.664948453608247","768","428","f","true","nonmatch","img/ellipse.png","三角","椭圆","ALT1","formal_ALT1_1","","","","","","","","","","","",""
"null","<span style='color:GreenYellow; font-size: 70px;'>正确! </span>","null","html-keyboard-response","168","302387","0.0-7.0-0.0-4.0-0.0-1.30","4","4","4","4","4","4","4","4","4","4","5","5","5","5","5","5","5","5","5","5","1","1","2","1","2","1","1","4","1","0","1","0","1","0","1","0","0","0","0","1","0","0","0","0","4","1","1","1","2","","2","1","1","3","1","598867196789129216","郭","361","","","","","","","","","","","","","","","","","","","","","","","","","","","","","","feedback_test","","","","","","","","","","","",""
"407","","f","psychophysics","169","303796","0.0-7.0-0.0-4.0-0.0-0.31","4","4","4","4","4","4","4","4","4","4","5","5","5","5","5","5","5","5","5","5","1","1","2","1","2","1","1","4","1","0","1","0","1","0","1","0","0","0","0","1","0","0","0","0","4","1","1","1","2","","2","1","1","3","1","598867196789129216","郭","361","","","","nonmatch","","","","","","","","","","","","","","key","f","16.666666666666668","768","428","f","true","nonmatch","img/triangle.png","椭圆","三角","ALT1","formal_ALT1_1","","","","","","","","","","","",""
"null","<span style='color:GreenYellow; font-size: 70px;'>正确! </span>","null","html-keyboard-response","170","304296","0.0-7.0-0.0-4.0-0.0-1.31","4","4","4","4","4","4","4","4","4","4","5","5","5","5","5","5","5","5","5","5","1","1","2","1","2","1","1","4","1","0","1","0","1","0","1","0","0","0","0","1","0","0","0","0","4","1","1","1","2","","2","1","1","3","1","598867196789129216","郭","361","","","","","","","","","","","","","","","","","","","","","","","","","","","","","","feedback_test","","","","","","","","","","","",""
"307","","f","psychophysics","171","305604","0.0-7.0-0.0-4.0-0.0-0.32","4","4","4","4","4","4","4","4","4","4","5","5","5","5","5","5","5","5","5","5","1","1","2","1","2","1","1","4","1","0","1","0","1","0","1","0","0","0","0","1","0","0","0","0","4","1","1","1","2","","2","1","1","3","1","598867196789129216","郭","361","","","","nonmatch","","","","","","","","","","","","","","key","f","16.66493506493446","768","428","j","false","match","img/square.png","方形","方形","ALT1","formal_ALT1_1","","","","","","","","","","","",""
"null","<span style='color:red; font-size: 70px;'>错误! </span>","null","html-keyboard-response","172","306104","0.0-7.0-0.0-4.0-0.0-1.32","4","4","4","4","4","4","4","4","4","4","5","5","5","5","5","5","5","5","5","5","1","1","2","1","2","1","1","4","1","0","1","0","1","0","1","0","0","0","0","1","0","0","0","0","4","1","1","1","2","","2","1","1","3","1","598867196789129216","郭","361","","","","","","","","","","","","","","","","","","","","","","","","","","","","","","feedback_test","","","","","","","","","","","",""
"747","","f","psychophysics","173","307852","0.0-7.0-0.0-4.0-0.0-0.33","4","4","4","4","4","4","4","4","4","4","5","5","5","5","5","5","5","5","5","5","1","1","2","1","2","1","1","4","1","0","1","0","1","0","1","0","0","0","0","1","0","0","0","0","4","1","1","1","2","","2","1","1","3","1","598867196789129216","郭","361","","","","nonmatch","","","","","","","","","","","","","","key","f","16.665384615384728","768","428","f","true","nonmatch","img/square.png","五边","方形","ALT1","formal_ALT1_1","","","","","","","","","","","",""
"null","<span style='color:GreenYellow; font-size: 70px;'>正确! </span>","null","html-keyboard-response","174","308353","0.0-7.0-0.0-4.0-0.0-1.33","4","4","4","4","4","4","4","4","4","4","5","5","5","5","5","5","5","5","5","5","1","1","2","1","2","1","1","4","1","0","1","0","1","0","1","0","0","0","0","1","0","0","0","0","4","1","1","1","2","","2","1","1","3","1","598867196789129216","郭","361","","","","","","","","","","","","","","","","","","","","","","","","","","","","","","feedback_test","","","","","","","","","","","",""
"602","","f","psychophysics","175","309956","0.0-7.0-0.0-4.0-0.0-0.34","4","4","4","4","4","4","4","4","4","4","5","5","5","5","5","5","5","5","5","5","1","1","2","1","2","1","1","4","1","0","1","0","1","0","1","0","0","0","0","1","0","0","0","0","4","1","1","1","2","","2","1","1","3","1","598867196789129216","郭","361","","","","nonmatch","","","","","","","","","","","","","","key","f","16.667368421052263","768","428","f","true","nonmatch","img/triangle.png","五边","三角","ALT1","formal_ALT1_1","","","","","","","","","","","",""
"null","<span style='color:GreenYellow; font-size: 70px;'>正确! </span>","null","html-keyboard-response","176","310458","0.0-7.0-0.0-4.0-0.0-1.34","4","4","4","4","4","4","4","4","4","4","5","5","5","5","5","5","5","5","5","5","1","1","2","1","2","1","1","4","1","0","1","0","1","0","1","0","0","0","0","1","0","0","0","0","4","1","1","1","2","","2","1","1","3","1","598867196789129216","郭","361","","","","","","","","","","","","","","","","","","","","","","","","","","","","","","feedback_test","","","","","","","","","","","",""
"746","","j","psychophysics","177","312205","0.0-7.0-0.0-4.0-0.0-0.35","4","4","4","4","4","4","4","4","4","4","5","5","5","5","5","5","5","5","5","5","1","1","2","1","2","1","1","4","1","0","1","0","1","0","1","0","0","0","0","1","0","0","0","0","4","1","1","1","2","","2","1","1","3","1","598867196789129216","郭","361","","","","match","","","","","","","","","","","","","","key","j","16.658252427184355","768","428","j","true","match","img/pentagon.png","五边","五边","ALT1","formal_ALT1_1","","","","","","","","","","","",""
"null","<span style='color:GreenYellow; font-size: 70px;'>正确! </span>","null","html-keyboard-response","178","312706","0.0-7.0-0.0-4.0-0.0-1.35","4","4","4","4","4","4","4","4","4","4","5","5","5","5","5","5","5","5","5","5","1","1","2","1","2","1","1","4","1","0","1","0","1","0","1","0","0","0","0","1","0","0","0","0","4","1","1","1","2","","2","1","1","3","1","598867196789129216","郭","361","","","","","","","","","","","","","","","","","","","","","","","","","","","","","","feedback_test","","","","","","","","","","","",""
"545","","j","psychophysics","179","314253","0.0-7.0-0.0-4.0-0.0-0.36","4","4","4","4","4","4","4","4","4","4","5","5","5","5","5","5","5","5","5","5","1","1","2","1","2","1","1","4","1","0","1","0","1","0","1","0","0","0","0","1","0","0","0","0","4","1","1","1","2","","2","1","1","3","1","598867196789129216","郭","361","","","","match","","","","","","","","","","","","","","key","j","16.66521739130384","768","428","j","true","match","img/pentagon.png","五边","五边","ALT1","formal_ALT1_1","","","","","","","","","","","",""
"null","<span style='color:GreenYellow; font-size: 70px;'>正确! </span>","null","html-keyboard-response","180","314754","0.0-7.0-0.0-4.0-0.0-1.36","4","4","4","4","4","4","4","4","4","4","5","5","5","5","5","5","5","5","5","5","1","1","2","1","2","1","1","4","1","0","1","0","1","0","1","0","0","0","0","1","0","0","0","0","4","1","1","1","2","","2","1","1","3","1","598867196789129216","郭","361","","","","","","","","","","","","","","","","","","","","","","","","","","","","","","feedback_test","","","","","","","","","","","",""
"640","","f","psychophysics","181","316396","0.0-7.0-0.0-4.0-0.0-0.37","4","4","4","4","4","4","4","4","4","4","5","5","5","5","5","5","5","5","5","5","1","1","2","1","2","1","1","4","1","0","1","0","1","0","1","0","0","0","0","1","0","0","0","0","4","1","1","1","2","","2","1","1","3","1","598867196789129216","郭","361","","","","nonmatch","","","","","","","","","","","","","","key","f","16.667346938775747","768","428","f","true","nonmatch","img/pentagon.png","方形","五边","ALT1","formal_ALT1_1","","","","","","","","","","","",""
