"rt","stimulus","response","trial_type","trial_index","time_elapsed","internal_node_id","ses_1","ses_2","ses_3","ses_4","ses_5","ses_6","ses_7","ses_8","ses_9","ses_10","coreself_1","coreself_2","coreself_3","coreself_4","coreself_5","coreself_6","coreself_7","coreself_8","coreself_9","coreself_10","SGPS_1","SGPS_2","SGPS_3","SGPS_4","SGPS_5","SGPS_6","SGPS_7","SGPS_8","SGPS_9","NPI1","NPI2","NPI3","NPI4","NPI5","NPI6","NPI7","NPI8","NPI9","NPI10","NPI11","NPI12","NPI13","NPI14","NPI15","hsns_1","hsns_2","hsns_3","hsns_4","hsns_5","trap1","hsns_6","hsns_7","hsns_8","hsns_9","hsns_10","subj_idx","friend_name","ParticipantID","value","success","user_agent","responses","item_order","radio_event_ids","radio_event_times","key_event_times","mouse_event_times","straightlining","zigzagging","honeypot","timeout","failed_images","failed_audio","failed_video","version_attrib","version_target","correct","IAT","screen_id","task_id","RT","condition","word","varname","summary","version_attrib2","version_target2","time_stamp","view_history","response_type","key_press","avg_frame_time","center_x","center_y","correct_response","identity","Image","question_order","correct_answer","trap1_item"
"3836","
   <p><div style = ""color: white;font-size:25px;"">您好，欢迎参加本次实验。</div> </p>
   <p><div style = ""color: white;font-size:25px;"">为充分保障您的权利，请确保您已经知晓并同意《参与实验同意书》以及《数据公开知情同意书》。</div></p>
   <p><div style = ""color: white;font-size:25px;"">如果您未见过上述内容，请咨询实验员。</div></p>
   <p><div style = ""color: white;font-size:25px;"">如果您选择继续实验，则表示您已经清楚两份知情同意书的内容并同意。</div></p>
   <p><div style = ""color: pink;font-size:30px;"">请确保您记得day0的实验编号，您将在本次实验输入该编号，若您忘记，请咨询实验员后作答。</div></p>
   <p><div style = ""color: lightblue;font-size:25px;"">请您尽可能认真地作答，我们将依据您在各问卷和按键任务中的作答质量发放报酬。</div></p>
   <p> <div style = ""color: green;font-size:25px;""><按空格键至下页></div> </p>
   "," ","html-keyboard-response","0","3839","0.0-0.0","4","4","4","3","4","4","4","3","4","4","4","5","5","5","5","4","4","4","4","5","1","1","2","2","2","2","2","4","2","1","0","1","0","0","1","0","1","0","1","1","0","1","0","0","5","2","3","2","3","2","1","1","2","3","2","757367705316888578","张","139","","","","","","","","","","","","","","","","","","","","","","","","","","","","","","","","","","","","","","","","","",""
"","","","call-function","1","3840","0.0-1.0-0.0","4","4","4","3","4","4","4","3","4","4","4","5","5","5","5","4","4","4","4","5","1","1","2","2","2","2","2","4","2","1","0","1","0","0","1","0","1","0","1","1","0","1","0","0","5","2","3","2","3","2","1","1","2","3","2","757367705316888578","张","139","","","","","","","","","","","","","","","","","","","","","","","","","","","","","","","","","","","","","","","","","",""
"38835","","{""friend_name"":""张"",""ParticipantID"":""139""}","survey-html-form","2","42676","0.0-1.0-1.0","4","4","4","3","4","4","4","3","4","4","4","5","5","5","5","4","4","4","4","5","1","1","2","2","2","2","2","4","2","1","0","1","0","0","1","0","1","0","1","1","0","1","0","0","5","2","3","2","3","2","1","1","2","3","2","757367705316888578","张","139","","","","","","","","","","","","","","","","","","","","","","","","","","","","","","","","","","","","","","","","","",""
"","","","fullscreen","3","61636","0.0-2.0","4","4","4","3","4","4","4","3","4","4","4","5","5","5","5","4","4","4","4","5","1","1","2","2","2","2","2","4","2","1","0","1","0","0","1","0","1","0","1","1","0","1","0","0","5","2","3","2","3","2","1","1","2","3","2","757367705316888578","张","139","","true","{}","","","","","","","","","","","","","","","","","","","","","","","","","","","","","","","","","","","","","","",""
"33076.5","","{""Q01"":""4"",""Q02"":""4"",""Q03"":""4"",""Q04"":""3"",""Q05"":""4"",""Q06"":""4"",""Q07"":""4"",""Q08"":""3"",""Q09"":""4"",""Q10"":""4""}","survey-template","4","94717","0.0-3.0","4","4","4","3","4","4","4","3","4","4","4","5","5","5","5","4","4","4","4","5","1","1","2","2","2","2","2","4","2","1","0","1","0","0","1","0","1","0","1","1","0","1","0","0","5","2","3","2","3","2","1","1","2","3","2","757367705316888578","张","139","","","","{""Q01"":""4"",""Q02"":""4"",""Q03"":""4"",""Q04"":""3"",""Q05"":""4"",""Q06"":""4"",""Q07"":""4"",""Q08"":""3"",""Q09"":""4"",""Q10"":""4""}","[0,1,2,3,4,5,6,7,8,9]","[""Q01"",""Q02"",""Q03"",""Q04"",""Q05"",""Q06"",""Q07"",""Q08"",""Q09"",""Q10""]","[8226.400000095367,10317.900000095367,12478,13867.799999952316,15510.400000095367,18413.5,20408,23375.900000095367,26009.400000095367,27920.299999952316]","[]","[8226.400000095367,10317.900000095367,12478,13867.799999952316,15510.400000095367,18413.5,20408,23375.900000095367,26009.400000095367,27920.299999952316,33075]","0.4","0.3333333333333333","0","","","","","","","","","","","","","","","","","","","","","","","","","","","","","",""
"19244.5","","{""Q01"":""4"",""Q02"":""5"",""Q03"":""5"",""Q04"":""5"",""Q05"":""5"",""Q06"":""4"",""Q07"":""4"",""Q08"":""4"",""Q09"":""4"",""Q10"":""5""}","survey-template","5","113968","0.0-4.0","4","4","4","3","4","4","4","3","4","4","4","5","5","5","5","4","4","4","4","5","1","1","2","2","2","2","2","4","2","1","0","1","0","0","1","0","1","0","1","1","0","1","0","0","5","2","3","2","3","2","1","1","2","3","2","757367705316888578","张","139","","","","{""Q01"":""4"",""Q02"":""5"",""Q03"":""5"",""Q04"":""5"",""Q05"":""5"",""Q06"":""4"",""Q07"":""4"",""Q08"":""4"",""Q09"":""4"",""Q10"":""5""}","[0,1,2,3,4,5,6,7,8,9]","[""Q01"",""Q02"",""Q03"",""Q04"",""Q05"",""Q06"",""Q07"",""Q08"",""Q09"",""Q10""]","[2066.7000000476837,3419.7999999523163,4624,7359.900000095367,10024.299999952316,11351,13196.200000047684,14930.5,17097.900000095367,18448.299999952316]","[]","[2066.7000000476837,3419.7999999523163,4624,6898.299999952316,7359.900000095367,10024.299999952316,11351,13196.200000047684,14930.5,17097.900000095367,18448.299999952316,19242.900000095367]","0.4","0.2222222222222222","0","","","","","","","","","","","","","","","","","","","","","","","","","","","","","",""
"","","","preload","6","114494","0.0-5.0","4","4","4","3","4","4","4","3","4","4","4","5","5","5","5","4","4","4","4","5","1","1","2","2","2","2","2","4","2","1","0","1","0","0","1","0","1","0","1","1","0","1","0","0","5","2","3","2","3","2","1","1","2","3","2","757367705316888578","张","139","","true","","","","","","","","","","","false","[]","[]","[]","","","","","","","","","","","","","","","","","","","","","","","","","",""
"16458","
    <h3>词语分类任务</h3>
    <p>在接下来的任务中，你需要对一系列词语进行分类。</p>
    <p>请先熟悉这些词语，这有利于你完成接下来的任务。</p>
    <table align=""center"" border=1 cellpadding=3 cellspacing=0>
    <tr> <th>类别</th> <th>词语</th> </tr>
    <tr> <td>&emsp;积极&emsp;</td> <td>&emsp;能干、全能、全才、高效、精干、天才&emsp;</td> </tr>
    <tr> <td>&emsp;消极&emsp;</td> <td>&emsp;无能、低能、废物、拙笨、愚钝、蠢笨&emsp;</td> </tr>
    <tr> <td>&emsp;自我&emsp;</td> <td>&emsp;我、我的、自己、自己的、本人、本人的&emsp;</td> </tr>
    <tr> <td>&emsp;他人&emsp;</td> <td>&emsp;他、他的、别人、别人的、他人、他人的&emsp;</td> </tr>
    </table><br/>","0","html-button-response","7","130953","0.0-6.0-0.0-0.0","4","4","4","3","4","4","4","3","4","4","4","5","5","5","5","4","4","4","4","5","1","1","2","2","2","2","2","4","2","1","0","1","0","0","1","0","1","0","1","1","0","1","0","0","5","2","3","2","3","2","1","1","2","3","2","757367705316888578","张","139","","","","","","","","","","","","","","","","","2","1","","","","","","","","","","","","","","","","","","","","","","","",""
"11238","
    <div class=""tag-bottom"">
    <p> —— 任务1：对“自我”词和“他人”词分类 ——<p/>
    不同词语会出现在屏幕中央，类别标签将始终显示在屏幕上方<p/>   
    <span style=""color:#FFD866""><b>请根据上方标签的提示，尽可能正确并且快速地做出按键反应</b></span><p/>
    当按键错误时屏幕中会出现<span style=""color:red""> X </span>，需要按另一个键纠正才能继续<br/><p/>
    请把双手食指分别放在键盘的“E”键和“I”键上<p/>
    按<空格键>开始
    </p></div>"," ","html-keyboard-response","8","142195","0.0-6.0-0.0-1.0","4","4","4","3","4","4","4","3","4","4","4","5","5","5","5","4","4","4","4","5","1","1","2","2","2","2","2","4","2","1","0","1","0","0","1","0","1","0","1","1","0","1","0","0","5","2","3","2","3","2","1","1","2","3","2","757367705316888578","张","139","","","","","","","","","","","","","","","","","","","","","","","","","","","","","","","","","","","","","","","","","",""
"null","","null","html-keyboard-response","9","142446","0.0-6.0-0.0-2.0-0.0","4","4","4","3","4","4","4","3","4","4","4","5","5","5","5","4","4","4","4","5","1","1","2","2","2","2","2","4","2","1","0","1","0","0","1","0","1","0","1","1","0","1","0","0","5","2","3","2","3","2","1","1","2","3","2","757367705316888578","张","139","","","","","","","","","","","","","","","","","","","","","","","","","","","","","","","","","","","","","","","","","",""
"839","<p style=""color:rgb(150, 250, 100); font-size: 35px;"">我的</p>","e","categorize-html","10","143289","0.0-6.0-0.0-2.0-1.0","4","4","4","3","4","4","4","3","4","4","4","5","5","5","5","4","4","4","4","5","1","1","2","2","2","2","2","4","2","1","0","1","0","0","1","0","1","0","1","1","0","1","0","0","5","2","3","2","3","2","1","1","2","3","2","757367705316888578","张","139","","","","","","","","","","","","","","","","","","","true","1","1","ability","839","self","我的","","","","","","","","","","","","","","","","",""
"null","","null","html-keyboard-response","11","143542","0.0-6.0-0.0-2.0-0.1","4","4","4","3","4","4","4","3","4","4","4","5","5","5","5","4","4","4","4","5","1","1","2","2","2","2","2","4","2","1","0","1","0","0","1","0","1","0","1","1","0","1","0","0","5","2","3","2","3","2","1","1","2","3","2","757367705316888578","张","139","","","","","","","","","","","","","","","","","","","","","","","","","","","","","","","","","","","","","","","","","",""
"689","<p style=""color:rgb(150, 250, 100); font-size: 35px;"">他人</p>","i","categorize-html","12","144232","0.0-6.0-0.0-2.0-1.1","4","4","4","3","4","4","4","3","4","4","4","5","5","5","5","4","4","4","4","5","1","1","2","2","2","2","2","4","2","1","0","1","0","0","1","0","1","0","1","1","0","1","0","0","5","2","3","2","3","2","1","1","2","3","2","757367705316888578","张","139","","","","","","","","","","","","","","","","","","","true","1","1","ability","689","other","他人","","","","","","","","","","","","","","","","",""
"null","","null","html-keyboard-response","13","144490","0.0-6.0-0.0-2.0-0.2","4","4","4","3","4","4","4","3","4","4","4","5","5","5","5","4","4","4","4","5","1","1","2","2","2","2","2","4","2","1","0","1","0","0","1","0","1","0","1","1","0","1","0","0","5","2","3","2","3","2","1","1","2","3","2","757367705316888578","张","139","","","","","","","","","","","","","","","","","","","","","","","","","","","","","","","","","","","","","","","","","",""
"479","<p style=""color:rgb(150, 250, 100); font-size: 35px;"">自己</p>","e","categorize-html","14","144971","0.0-6.0-0.0-2.0-1.2","4","4","4","3","4","4","4","3","4","4","4","5","5","5","5","4","4","4","4","5","1","1","2","2","2","2","2","4","2","1","0","1","0","0","1","0","1","0","1","1","0","1","0","0","5","2","3","2","3","2","1","1","2","3","2","757367705316888578","张","139","","","","","","","","","","","","","","","","","","","true","1","1","ability","479","self","自己","","","","","","","","","","","","","","","","",""
"null","","null","html-keyboard-response","15","145223","0.0-6.0-0.0-2.0-0.3","4","4","4","3","4","4","4","3","4","4","4","5","5","5","5","4","4","4","4","5","1","1","2","2","2","2","2","4","2","1","0","1","0","0","1","0","1","0","1","1","0","1","0","0","5","2","3","2","3","2","1","1","2","3","2","757367705316888578","张","139","","","","","","","","","","","","","","","","","","","","","","","","","","","","","","","","","","","","","","","","","",""
"472","<p style=""color:rgb(150, 250, 100); font-size: 35px;"">我</p>","e","categorize-html","16","145698","0.0-6.0-0.0-2.0-1.3","4","4","4","3","4","4","4","3","4","4","4","5","5","5","5","4","4","4","4","5","1","1","2","2","2","2","2","4","2","1","0","1","0","0","1","0","1","0","1","1","0","1","0","0","5","2","3","2","3","2","1","1","2","3","2","757367705316888578","张","139","","","","","","","","","","","","","","","","","","","true","1","1","ability","472","self","我","","","","","","","","","","","","","","","","",""
"null","","null","html-keyboard-response","17","145949","0.0-6.0-0.0-2.0-0.4","4","4","4","3","4","4","4","3","4","4","4","5","5","5","5","4","4","4","4","5","1","1","2","2","2","2","2","4","2","1","0","1","0","0","1","0","1","0","1","1","0","1","0","0","5","2","3","2","3","2","1","1","2","3","2","757367705316888578","张","139","","","","","","","","","","","","","","","","","","","","","","","","","","","","","","","","","","","","","","","","","",""
"453","<p style=""color:rgb(150, 250, 100); font-size: 35px;"">自己的</p>","e","categorize-html","18","146404","0.0-6.0-0.0-2.0-1.4","4","4","4","3","4","4","4","3","4","4","4","5","5","5","5","4","4","4","4","5","1","1","2","2","2","2","2","4","2","1","0","1","0","0","1","0","1","0","1","1","0","1","0","0","5","2","3","2","3","2","1","1","2","3","2","757367705316888578","张","139","","","","","","","","","","","","","","","","","","","true","1","1","ability","453","self","自己的","","","","","","","","","","","","","","","","",""
"null","","null","html-keyboard-response","19","146655","0.0-6.0-0.0-2.0-0.5","4","4","4","3","4","4","4","3","4","4","4","5","5","5","5","4","4","4","4","5","1","1","2","2","2","2","2","4","2","1","0","1","0","0","1","0","1","0","1","1","0","1","0","0","5","2","3","2","3","2","1","1","2","3","2","757367705316888578","张","139","","","","","","","","","","","","","","","","","","","","","","","","","","","","","","","","","","","","","","","","","",""
"542","<p style=""color:rgb(150, 250, 100); font-size: 35px;"">别人的</p>","i","categorize-html","20","147201","0.0-6.0-0.0-2.0-1.5","4","4","4","3","4","4","4","3","4","4","4","5","5","5","5","4","4","4","4","5","1","1","2","2","2","2","2","4","2","1","0","1","0","0","1","0","1","0","1","1","0","1","0","0","5","2","3","2","3","2","1","1","2","3","2","757367705316888578","张","139","","","","","","","","","","","","","","","","","","","true","1","1","ability","542","other","别人的","","","","","","","","","","","","","","","","",""
"null","","null","html-keyboard-response","21","147452","0.0-6.0-0.0-2.0-0.6","4","4","4","3","4","4","4","3","4","4","4","5","5","5","5","4","4","4","4","5","1","1","2","2","2","2","2","4","2","1","0","1","0","0","1","0","1","0","1","1","0","1","0","0","5","2","3","2","3","2","1","1","2","3","2","757367705316888578","张","139","","","","","","","","","","","","","","","","","","","","","","","","","","","","","","","","","","","","","","","","","",""
"441","<p style=""color:rgb(150, 250, 100); font-size: 35px;"">本人</p>","e","categorize-html","22","147895","0.0-6.0-0.0-2.0-1.6","4","4","4","3","4","4","4","3","4","4","4","5","5","5","5","4","4","4","4","5","1","1","2","2","2","2","2","4","2","1","0","1","0","0","1","0","1","0","1","1","0","1","0","0","5","2","3","2","3","2","1","1","2","3","2","757367705316888578","张","139","","","","","","","","","","","","","","","","","","","true","1","1","ability","441","self","本人","","","","","","","","","","","","","","","","",""
"null","","null","html-keyboard-response","23","148147","0.0-6.0-0.0-2.0-0.7","4","4","4","3","4","4","4","3","4","4","4","5","5","5","5","4","4","4","4","5","1","1","2","2","2","2","2","4","2","1","0","1","0","0","1","0","1","0","1","1","0","1","0","0","5","2","3","2","3","2","1","1","2","3","2","757367705316888578","张","139","","","","","","","","","","","","","","","","","","","","","","","","","","","","","","","","","","","","","","","","","",""
"525","<p style=""color:rgb(150, 250, 100); font-size: 35px;"">他的</p>","i","categorize-html","24","148674","0.0-6.0-0.0-2.0-1.7","4","4","4","3","4","4","4","3","4","4","4","5","5","5","5","4","4","4","4","5","1","1","2","2","2","2","2","4","2","1","0","1","0","0","1","0","1","0","1","1","0","1","0","0","5","2","3","2","3","2","1","1","2","3","2","757367705316888578","张","139","","","","","","","","","","","","","","","","","","","true","1","1","ability","525","other","他的","","","","","","","","","","","","","","","","",""
"null","","null","html-keyboard-response","25","148926","0.0-6.0-0.0-2.0-0.8","4","4","4","3","4","4","4","3","4","4","4","5","5","5","5","4","4","4","4","5","1","1","2","2","2","2","2","4","2","1","0","1","0","0","1","0","1","0","1","1","0","1","0","0","5","2","3","2","3","2","1","1","2","3","2","757367705316888578","张","139","","","","","","","","","","","","","","","","","","","","","","","","","","","","","","","","","","","","","","","","","",""
"511","<p style=""color:rgb(150, 250, 100); font-size: 35px;"">他</p>","i","categorize-html","26","149438","0.0-6.0-0.0-2.0-1.8","4","4","4","3","4","4","4","3","4","4","4","5","5","5","5","4","4","4","4","5","1","1","2","2","2","2","2","4","2","1","0","1","0","0","1","0","1","0","1","1","0","1","0","0","5","2","3","2","3","2","1","1","2","3","2","757367705316888578","张","139","","","","","","","","","","","","","","","","","","","true","1","1","ability","511","other","他","","","","","","","","","","","","","","","","",""
"null","","null","html-keyboard-response","27","149689","0.0-6.0-0.0-2.0-0.9","4","4","4","3","4","4","4","3","4","4","4","5","5","5","5","4","4","4","4","5","1","1","2","2","2","2","2","4","2","1","0","1","0","0","1","0","1","0","1","1","0","1","0","0","5","2","3","2","3","2","1","1","2","3","2","757367705316888578","张","139","","","","","","","","","","","","","","","","","","","","","","","","","","","","","","","","","","","","","","","","","",""
"533","<p style=""color:rgb(150, 250, 100); font-size: 35px;"">别人</p>","i","categorize-html","28","150223","0.0-6.0-0.0-2.0-1.9","4","4","4","3","4","4","4","3","4","4","4","5","5","5","5","4","4","4","4","5","1","1","2","2","2","2","2","4","2","1","0","1","0","0","1","0","1","0","1","1","0","1","0","0","5","2","3","2","3","2","1","1","2","3","2","757367705316888578","张","139","","","","","","","","","","","","","","","","","","","true","1","1","ability","533","other","别人","","","","","","","","","","","","","","","","",""
"null","","null","html-keyboard-response","29","150476","0.0-6.0-0.0-2.0-0.10","4","4","4","3","4","4","4","3","4","4","4","5","5","5","5","4","4","4","4","5","1","1","2","2","2","2","2","4","2","1","0","1","0","0","1","0","1","0","1","1","0","1","0","0","5","2","3","2","3","2","1","1","2","3","2","757367705316888578","张","139","","","","","","","","","","","","","","","","","","","","","","","","","","","","","","","","","","","","","","","","","",""
"613","<p style=""color:rgb(150, 250, 100); font-size: 35px;"">他人的</p>","i","categorize-html","30","151091","0.0-6.0-0.0-2.0-1.10","4","4","4","3","4","4","4","3","4","4","4","5","5","5","5","4","4","4","4","5","1","1","2","2","2","2","2","4","2","1","0","1","0","0","1","0","1","0","1","1","0","1","0","0","5","2","3","2","3","2","1","1","2","3","2","757367705316888578","张","139","","","","","","","","","","","","","","","","","","","true","1","1","ability","613","other","他人的","","","","","","","","","","","","","","","","",""
"null","","null","html-keyboard-response","31","151342","0.0-6.0-0.0-2.0-0.11","4","4","4","3","4","4","4","3","4","4","4","5","5","5","5","4","4","4","4","5","1","1","2","2","2","2","2","4","2","1","0","1","0","0","1","0","1","0","1","1","0","1","0","0","5","2","3","2","3","2","1","1","2","3","2","757367705316888578","张","139","","","","","","","","","","","","","","","","","","","","","","","","","","","","","","","","","","","","","","","","","",""
"551","<p style=""color:rgb(150, 250, 100); font-size: 35px;"">本人的</p>","e","categorize-html","32","151896","0.0-6.0-0.0-2.0-1.11","4","4","4","3","4","4","4","3","4","4","4","5","5","5","5","4","4","4","4","5","1","1","2","2","2","2","2","4","2","1","0","1","0","0","1","0","1","0","1","1","0","1","0","0","5","2","3","2","3","2","1","1","2","3","2","757367705316888578","张","139","","","","","","","","","","","","","","","","","","","true","1","1","ability","551","self","本人的","","","","","","","","","","","","","","","","",""
"3786","
    <div class=""tag-bottom""><p>
    —— 任务2：对“消极”词和“积极”词分类 ——<p/>   
    <span style=""color:#78DCE8""><b>注意上方，类别标签和需要分类的词语都已经改变</b></span><p/>
    <span style=""color:#FFD866""><b>请根据上方标签的提示，尽可能正确并且快速地做出按键反应</b></span><p/>
    当按键错误时屏幕中会出现<span style=""color:red""> X </span>，需要按另一个键纠正才能继续<br/><p/>
    请把双手食指分别放在键盘的“E”键和“I”键上<p/>
    按<空格键>开始
    </p></div>"," ","html-keyboard-response","33","155682","0.0-6.0-0.0-3.0","4","4","4","3","4","4","4","3","4","4","4","5","5","5","5","4","4","4","4","5","1","1","2","2","2","2","2","4","2","1","0","1","0","0","1","0","1","0","1","1","0","1","0","0","5","2","3","2","3","2","1","1","2","3","2","757367705316888578","张","139","","","","","","","","","","","","","","","","","","","","","","","","","","","","","","","","","","","","","","","","","",""
"null","","null","html-keyboard-response","34","155933","0.0-6.0-0.0-4.0-0.0","4","4","4","3","4","4","4","3","4","4","4","5","5","5","5","4","4","4","4","5","1","1","2","2","2","2","2","4","2","1","0","1","0","0","1","0","1","0","1","1","0","1","0","0","5","2","3","2","3","2","1","1","2","3","2","757367705316888578","张","139","","","","","","","","","","","","","","","","","","","","","","","","","","","","","","","","","","","","","","","","","",""
"772","<p style=""color:white; font-size: 35px;"">全能</p>","i","categorize-html","35","156709","0.0-6.0-0.0-4.0-1.0","4","4","4","3","4","4","4","3","4","4","4","5","5","5","5","4","4","4","4","5","1","1","2","2","2","2","2","4","2","1","0","1","0","0","1","0","1","0","1","1","0","1","0","0","5","2","3","2","3","2","1","1","2","3","2","757367705316888578","张","139","","","","","","","","","","","","","","","","","","","true","2","2","ability","772","positive","全能","","","","","","","","","","","","","","","","",""
"null","","null","html-keyboard-response","36","156962","0.0-6.0-0.0-4.0-0.1","4","4","4","3","4","4","4","3","4","4","4","5","5","5","5","4","4","4","4","5","1","1","2","2","2","2","2","4","2","1","0","1","0","0","1","0","1","0","1","1","0","1","0","0","5","2","3","2","3","2","1","1","2","3","2","757367705316888578","张","139","","","","","","","","","","","","","","","","","","","","","","","","","","","","","","","","","","","","","","","","","",""
"552","<p style=""color:white; font-size: 35px;"">蠢笨</p>","e","categorize-html","37","157517","0.0-6.0-0.0-4.0-1.1","4","4","4","3","4","4","4","3","4","4","4","5","5","5","5","4","4","4","4","5","1","1","2","2","2","2","2","4","2","1","0","1","0","0","1","0","1","0","1","1","0","1","0","0","5","2","3","2","3","2","1","1","2","3","2","757367705316888578","张","139","","","","","","","","","","","","","","","","","","","true","2","2","ability","552","negative","蠢笨","","","","","","","","","","","","","","","","",""
"null","","null","html-keyboard-response","38","157769","0.0-6.0-0.0-4.0-0.2","4","4","4","3","4","4","4","3","4","4","4","5","5","5","5","4","4","4","4","5","1","1","2","2","2","2","2","4","2","1","0","1","0","0","1","0","1","0","1","1","0","1","0","0","5","2","3","2","3","2","1","1","2","3","2","757367705316888578","张","139","","","","","","","","","","","","","","","","","","","","","","","","","","","","","","","","","","","","","","","","","",""
"557","<p style=""color:white; font-size: 35px;"">拙笨</p>","e","categorize-html","39","158330","0.0-6.0-0.0-4.0-1.2","4","4","4","3","4","4","4","3","4","4","4","5","5","5","5","4","4","4","4","5","1","1","2","2","2","2","2","4","2","1","0","1","0","0","1","0","1","0","1","1","0","1","0","0","5","2","3","2","3","2","1","1","2","3","2","757367705316888578","张","139","","","","","","","","","","","","","","","","","","","true","2","2","ability","557","negative","拙笨","","","","","","","","","","","","","","","","",""
"null","","null","html-keyboard-response","40","158581","0.0-6.0-0.0-4.0-0.3","4","4","4","3","4","4","4","3","4","4","4","5","5","5","5","4","4","4","4","5","1","1","2","2","2","2","2","4","2","1","0","1","0","0","1","0","1","0","1","1","0","1","0","0","5","2","3","2","3","2","1","1","2","3","2","757367705316888578","张","139","","","","","","","","","","","","","","","","","","","","","","","","","","","","","","","","","","","","","","","","","",""
"528","<p style=""color:white; font-size: 35px;"">全才</p>","i","categorize-html","41","159112","0.0-6.0-0.0-4.0-1.3","4","4","4","3","4","4","4","3","4","4","4","5","5","5","5","4","4","4","4","5","1","1","2","2","2","2","2","4","2","1","0","1","0","0","1","0","1","0","1","1","0","1","0","0","5","2","3","2","3","2","1","1","2","3","2","757367705316888578","张","139","","","","","","","","","","","","","","","","","","","true","2","2","ability","528","positive","全才","","","","","","","","","","","","","","","","",""
"null","","null","html-keyboard-response","42","159363","0.0-6.0-0.0-4.0-0.4","4","4","4","3","4","4","4","3","4","4","4","5","5","5","5","4","4","4","4","5","1","1","2","2","2","2","2","4","2","1","0","1","0","0","1","0","1","0","1","1","0","1","0","0","5","2","3","2","3","2","1","1","2","3","2","757367705316888578","张","139","","","","","","","","","","","","","","","","","","","","","","","","","","","","","","","","","","","","","","","","","",""
"511","<p style=""color:white; font-size: 35px;"">愚钝</p>","e","categorize-html","43","159876","0.0-6.0-0.0-4.0-1.4","4","4","4","3","4","4","4","3","4","4","4","5","5","5","5","4","4","4","4","5","1","1","2","2","2","2","2","4","2","1","0","1","0","0","1","0","1","0","1","1","0","1","0","0","5","2","3","2","3","2","1","1","2","3","2","757367705316888578","张","139","","","","","","","","","","","","","","","","","","","true","2","2","ability","511","negative","愚钝","","","","","","","","","","","","","","","","",""
"null","","null","html-keyboard-response","44","160127","0.0-6.0-0.0-4.0-0.5","4","4","4","3","4","4","4","3","4","4","4","5","5","5","5","4","4","4","4","5","1","1","2","2","2","2","2","4","2","1","0","1","0","0","1","0","1","0","1","1","0","1","0","0","5","2","3","2","3","2","1","1","2","3","2","757367705316888578","张","139","","","","","","","","","","","","","","","","","","","","","","","","","","","","","","","","","","","","","","","","","",""
"546","<p style=""color:white; font-size: 35px;"">废物</p>","e","categorize-html","45","160676","0.0-6.0-0.0-4.0-1.5","4","4","4","3","4","4","4","3","4","4","4","5","5","5","5","4","4","4","4","5","1","1","2","2","2","2","2","4","2","1","0","1","0","0","1","0","1","0","1","1","0","1","0","0","5","2","3","2","3","2","1","1","2","3","2","757367705316888578","张","139","","","","","","","","","","","","","","","","","","","true","2","2","ability","546","negative","废物","","","","","","","","","","","","","","","","",""
"null","","null","html-keyboard-response","46","160927","0.0-6.0-0.0-4.0-0.6","4","4","4","3","4","4","4","3","4","4","4","5","5","5","5","4","4","4","4","5","1","1","2","2","2","2","2","4","2","1","0","1","0","0","1","0","1","0","1","1","0","1","0","0","5","2","3","2","3","2","1","1","2","3","2","757367705316888578","张","139","","","","","","","","","","","","","","","","","","","","","","","","","","","","","","","","","","","","","","","","","",""
"531","<p style=""color:white; font-size: 35px;"">能干</p>","i","categorize-html","47","161460","0.0-6.0-0.0-4.0-1.6","4","4","4","3","4","4","4","3","4","4","4","5","5","5","5","4","4","4","4","5","1","1","2","2","2","2","2","4","2","1","0","1","0","0","1","0","1","0","1","1","0","1","0","0","5","2","3","2","3","2","1","1","2","3","2","757367705316888578","张","139","","","","","","","","","","","","","","","","","","","true","2","2","ability","531","positive","能干","","","","","","","","","","","","","","","","",""
"null","","null","html-keyboard-response","48","161712","0.0-6.0-0.0-4.0-0.7","4","4","4","3","4","4","4","3","4","4","4","5","5","5","5","4","4","4","4","5","1","1","2","2","2","2","2","4","2","1","0","1","0","0","1","0","1","0","1","1","0","1","0","0","5","2","3","2","3","2","1","1","2","3","2","757367705316888578","张","139","","","","","","","","","","","","","","","","","","","","","","","","","","","","","","","","","","","","","","","","","",""
"547","<p style=""color:white; font-size: 35px;"">高效</p>","i","categorize-html","49","162261","0.0-6.0-0.0-4.0-1.7","4","4","4","3","4","4","4","3","4","4","4","5","5","5","5","4","4","4","4","5","1","1","2","2","2","2","2","4","2","1","0","1","0","0","1","0","1","0","1","1","0","1","0","0","5","2","3","2","3","2","1","1","2","3","2","757367705316888578","张","139","","","","","","","","","","","","","","","","","","","true","2","2","ability","547","positive","高效","","","","","","","","","","","","","","","","",""
"null","","null","html-keyboard-response","50","162513","0.0-6.0-0.0-4.0-0.8","4","4","4","3","4","4","4","3","4","4","4","5","5","5","5","4","4","4","4","5","1","1","2","2","2","2","2","4","2","1","0","1","0","0","1","0","1","0","1","1","0","1","0","0","5","2","3","2","3","2","1","1","2","3","2","757367705316888578","张","139","","","","","","","","","","","","","","","","","","","","","","","","","","","","","","","","","","","","","","","","","",""
"455","<p style=""color:white; font-size: 35px;"">精干</p>","i","categorize-html","51","162970","0.0-6.0-0.0-4.0-1.8","4","4","4","3","4","4","4","3","4","4","4","5","5","5","5","4","4","4","4","5","1","1","2","2","2","2","2","4","2","1","0","1","0","0","1","0","1","0","1","1","0","1","0","0","5","2","3","2","3","2","1","1","2","3","2","757367705316888578","张","139","","","","","","","","","","","","","","","","","","","true","2","2","ability","455","positive","精干","","","","","","","","","","","","","","","","",""
"null","","null","html-keyboard-response","52","163234","0.0-6.0-0.0-4.0-0.9","4","4","4","3","4","4","4","3","4","4","4","5","5","5","5","4","4","4","4","5","1","1","2","2","2","2","2","4","2","1","0","1","0","0","1","0","1","0","1","1","0","1","0","0","5","2","3","2","3","2","1","1","2","3","2","757367705316888578","张","139","","","","","","","","","","","","","","","","","","","","","","","","","","","","","","","","","","","","","","","","","",""
"505","<p style=""color:white; font-size: 35px;"">天才</p>","i","categorize-html","53","163741","0.0-6.0-0.0-4.0-1.9","4","4","4","3","4","4","4","3","4","4","4","5","5","5","5","4","4","4","4","5","1","1","2","2","2","2","2","4","2","1","0","1","0","0","1","0","1","0","1","1","0","1","0","0","5","2","3","2","3","2","1","1","2","3","2","757367705316888578","张","139","","","","","","","","","","","","","","","","","","","true","2","2","ability","505","positive","天才","","","","","","","","","","","","","","","","",""
"null","","null","html-keyboard-response","54","163992","0.0-6.0-0.0-4.0-0.10","4","4","4","3","4","4","4","3","4","4","4","5","5","5","5","4","4","4","4","5","1","1","2","2","2","2","2","4","2","1","0","1","0","0","1","0","1","0","1","1","0","1","0","0","5","2","3","2","3","2","1","1","2","3","2","757367705316888578","张","139","","","","","","","","","","","","","","","","","","","","","","","","","","","","","","","","","","","","","","","","","",""
"543","<p style=""color:white; font-size: 35px;"">低能</p>","e","categorize-html","55","164537","0.0-6.0-0.0-4.0-1.10","4","4","4","3","4","4","4","3","4","4","4","5","5","5","5","4","4","4","4","5","1","1","2","2","2","2","2","4","2","1","0","1","0","0","1","0","1","0","1","1","0","1","0","0","5","2","3","2","3","2","1","1","2","3","2","757367705316888578","张","139","","","","","","","","","","","","","","","","","","","true","2","2","ability","543","negative","低能","","","","","","","","","","","","","","","","",""
"null","","null","html-keyboard-response","56","164789","0.0-6.0-0.0-4.0-0.11","4","4","4","3","4","4","4","3","4","4","4","5","5","5","5","4","4","4","4","5","1","1","2","2","2","2","2","4","2","1","0","1","0","0","1","0","1","0","1","1","0","1","0","0","5","2","3","2","3","2","1","1","2","3","2","757367705316888578","张","139","","","","","","","","","","","","","","","","","","","","","","","","","","","","","","","","","","","","","","","","","",""
"482","<p style=""color:white; font-size: 35px;"">无能</p>","e","categorize-html","57","165273","0.0-6.0-0.0-4.0-1.11","4","4","4","3","4","4","4","3","4","4","4","5","5","5","5","4","4","4","4","5","1","1","2","2","2","2","2","4","2","1","0","1","0","0","1","0","1","0","1","1","0","1","0","0","5","2","3","2","3","2","1","1","2","3","2","757367705316888578","张","139","","","","","","","","","","","","","","","","","","","true","2","2","ability","482","negative","无能","","","","","","","","","","","","","","","","",""
"6643","
    <div class=""tag-bottom""><p>
    —— 任务3：对“自我/消极”词和“他人/积极”词分类 ——<p/>
    <span style=""color:#78DCE8""><b>注意上方，之前的四类词语将混合在一起交替呈现</b></span><p/>
    <span style=""color:#FFD866""><b>请根据上方标签的提示，尽可能正确并且快速地做出按键反应</b></span><p/>
    当按键错误时屏幕中会出现<span style=""color:red""> X </span>，需要按另一个键纠正才能继续<br/><p/>
    请把双手食指分别放在键盘的“E”键和“I”键上<p/>
    按<空格键>开始
    </p></div>"," ","html-keyboard-response","58","171916","0.0-6.0-0.0-5.0","4","4","4","3","4","4","4","3","4","4","4","5","5","5","5","4","4","4","4","5","1","1","2","2","2","2","2","4","2","1","0","1","0","0","1","0","1","0","1","1","0","1","0","0","5","2","3","2","3","2","1","1","2","3","2","757367705316888578","张","139","","","","","","","","","","","","","","","","","","","","","","","","","","","","","","","","","","","","","","","","","",""
"null","","null","html-keyboard-response","59","172167","0.0-6.0-0.0-6.0-0.0","4","4","4","3","4","4","4","3","4","4","4","5","5","5","5","4","4","4","4","5","1","1","2","2","2","2","2","4","2","1","0","1","0","0","1","0","1","0","1","1","0","1","0","0","5","2","3","2","3","2","1","1","2","3","2","757367705316888578","张","139","","","","","","","","","","","","","","","","","","","","","","","","","","","","","","","","","","","","","","","","","",""
"919","<p style=""color:rgb(150, 250, 100); font-size: 35px;"">他的</p>","i","categorize-html","60","173089","0.0-6.0-0.0-6.0-1.0","4","4","4","3","4","4","4","3","4","4","4","5","5","5","5","4","4","4","4","5","1","1","2","2","2","2","2","4","2","1","0","1","0","0","1","0","1","0","1","1","0","1","0","0","5","2","3","2","3","2","1","1","2","3","2","757367705316888578","张","139","","","","","","","","","","","","","","","","","","","true","3","3","ability","919","other","他的","","","","","","","","","","","","","","","","",""
"null","","null","html-keyboard-response","61","173341","0.0-6.0-0.0-6.0-0.1","4","4","4","3","4","4","4","3","4","4","4","5","5","5","5","4","4","4","4","5","1","1","2","2","2","2","2","4","2","1","0","1","0","0","1","0","1","0","1","1","0","1","0","0","5","2","3","2","3","2","1","1","2","3","2","757367705316888578","张","139","","","","","","","","","","","","","","","","","","","","","","","","","","","","","","","","","","","","","","","","","",""
"1615","<p style=""color:white; font-size: 35px;"">高效</p>","i","categorize-html","62","174958","0.0-6.0-0.0-6.0-1.1","4","4","4","3","4","4","4","3","4","4","4","5","5","5","5","4","4","4","4","5","1","1","2","2","2","2","2","4","2","1","0","1","0","0","1","0","1","0","1","1","0","1","0","0","5","2","3","2","3","2","1","1","2","3","2","757367705316888578","张","139","","","","","","","","","","","","","","","","","","","true","3","3","ability","1615","positive","高效","","","","","","","","","","","","","","","","",""
"null","","null","html-keyboard-response","63","175210","0.0-6.0-0.0-6.0-0.2","4","4","4","3","4","4","4","3","4","4","4","5","5","5","5","4","4","4","4","5","1","1","2","2","2","2","2","4","2","1","0","1","0","0","1","0","1","0","1","1","0","1","0","0","5","2","3","2","3","2","1","1","2","3","2","757367705316888578","张","139","","","","","","","","","","","","","","","","","","","","","","","","","","","","","","","","","","","","","","","","","",""
"1095","<p style=""color:rgb(150, 250, 100); font-size: 35px;"">本人</p>","e","categorize-html","64","176308","0.0-6.0-0.0-6.0-1.2","4","4","4","3","4","4","4","3","4","4","4","5","5","5","5","4","4","4","4","5","1","1","2","2","2","2","2","4","2","1","0","1","0","0","1","0","1","0","1","1","0","1","0","0","5","2","3","2","3","2","1","1","2","3","2","757367705316888578","张","139","","","","","","","","","","","","","","","","","","","true","3","3","ability","1095","self","本人","","","","","","","","","","","","","","","","",""
"null","","null","html-keyboard-response","65","176560","0.0-6.0-0.0-6.0-0.3","4","4","4","3","4","4","4","3","4","4","4","5","5","5","5","4","4","4","4","5","1","1","2","2","2","2","2","4","2","1","0","1","0","0","1","0","1","0","1","1","0","1","0","0","5","2","3","2","3","2","1","1","2","3","2","757367705316888578","张","139","","","","","","","","","","","","","","","","","","","","","","","","","","","","","","","","","","","","","","","","","",""
"1181","<p style=""color:white; font-size: 35px;"">废物</p>","e","categorize-html","66","177744","0.0-6.0-0.0-6.0-1.3","4","4","4","3","4","4","4","3","4","4","4","5","5","5","5","4","4","4","4","5","1","1","2","2","2","2","2","4","2","1","0","1","0","0","1","0","1","0","1","1","0","1","0","0","5","2","3","2","3","2","1","1","2","3","2","757367705316888578","张","139","","","","","","","","","","","","","","","","","","","true","3","3","ability","1181","negative","废物","","","","","","","","","","","","","","","","",""
"null","","null","html-keyboard-response","67","177996","0.0-6.0-0.0-6.0-0.4","4","4","4","3","4","4","4","3","4","4","4","5","5","5","5","4","4","4","4","5","1","1","2","2","2","2","2","4","2","1","0","1","0","0","1","0","1","0","1","1","0","1","0","0","5","2","3","2","3","2","1","1","2","3","2","757367705316888578","张","139","","","","","","","","","","","","","","","","","","","","","","","","","","","","","","","","","","","","","","","","","",""
"598","<p style=""color:rgb(150, 250, 100); font-size: 35px;"">自己的</p>","e","categorize-html","68","178597","0.0-6.0-0.0-6.0-1.4","4","4","4","3","4","4","4","3","4","4","4","5","5","5","5","4","4","4","4","5","1","1","2","2","2","2","2","4","2","1","0","1","0","0","1","0","1","0","1","1","0","1","0","0","5","2","3","2","3","2","1","1","2","3","2","757367705316888578","张","139","","","","","","","","","","","","","","","","","","","true","3","3","ability","598","self","自己的","","","","","","","","","","","","","","","","",""
"null","","null","html-keyboard-response","69","178849","0.0-6.0-0.0-6.0-0.5","4","4","4","3","4","4","4","3","4","4","4","5","5","5","5","4","4","4","4","5","1","1","2","2","2","2","2","4","2","1","0","1","0","0","1","0","1","0","1","1","0","1","0","0","5","2","3","2","3","2","1","1","2","3","2","757367705316888578","张","139","","","","","","","","","","","","","","","","","","","","","","","","","","","","","","","","","","","","","","","","","",""
"510","<p style=""color:white; font-size: 35px;"">全能</p>","i","categorize-html","70","179362","0.0-6.0-0.0-6.0-1.5","4","4","4","3","4","4","4","3","4","4","4","5","5","5","5","4","4","4","4","5","1","1","2","2","2","2","2","4","2","1","0","1","0","0","1","0","1","0","1","1","0","1","0","0","5","2","3","2","3","2","1","1","2","3","2","757367705316888578","张","139","","","","","","","","","","","","","","","","","","","true","3","3","ability","510","positive","全能","","","","","","","","","","","","","","","","",""
"null","","null","html-keyboard-response","71","179613","0.0-6.0-0.0-6.0-0.6","4","4","4","3","4","4","4","3","4","4","4","5","5","5","5","4","4","4","4","5","1","1","2","2","2","2","2","4","2","1","0","1","0","0","1","0","1","0","1","1","0","1","0","0","5","2","3","2","3","2","1","1","2","3","2","757367705316888578","张","139","","","","","","","","","","","","","","","","","","","","","","","","","","","","","","","","","","","","","","","","","",""
"638","<p style=""color:rgb(150, 250, 100); font-size: 35px;"">他人</p>","i","categorize-html","72","180254","0.0-6.0-0.0-6.0-1.6","4","4","4","3","4","4","4","3","4","4","4","5","5","5","5","4","4","4","4","5","1","1","2","2","2","2","2","4","2","1","0","1","0","0","1","0","1","0","1","1","0","1","0","0","5","2","3","2","3","2","1","1","2","3","2","757367705316888578","张","139","","","","","","","","","","","","","","","","","","","true","3","3","ability","638","other","他人","","","","","","","","","","","","","","","","",""
"null","","null","html-keyboard-response","73","180506","0.0-6.0-0.0-6.0-0.7","4","4","4","3","4","4","4","3","4","4","4","5","5","5","5","4","4","4","4","5","1","1","2","2","2","2","2","4","2","1","0","1","0","0","1","0","1","0","1","1","0","1","0","0","5","2","3","2","3","2","1","1","2","3","2","757367705316888578","张","139","","","","","","","","","","","","","","","","","","","","","","","","","","","","","","","","","","","","","","","","","",""
"490","<p style=""color:white; font-size: 35px;"">无能</p>","i","categorize-html","74","181431","0.0-6.0-0.0-6.0-1.7","4","4","4","3","4","4","4","3","4","4","4","5","5","5","5","4","4","4","4","5","1","1","2","2","2","2","2","4","2","1","0","1","0","0","1","0","1","0","1","1","0","1","0","0","5","2","3","2","3","2","1","1","2","3","2","757367705316888578","张","139","","","","","","","","","","","","","","","","","","","false","3","3","ability","1475.608695652174","negative","无能","","","","","","","","","","","","","","","","",""
"null","","null","html-keyboard-response","75","181683","0.0-6.0-0.0-6.0-0.8","4","4","4","3","4","4","4","3","4","4","4","5","5","5","5","4","4","4","4","5","1","1","2","2","2","2","2","4","2","1","0","1","0","0","1","0","1","0","1","1","0","1","0","0","5","2","3","2","3","2","1","1","2","3","2","757367705316888578","张","139","","","","","","","","","","","","","","","","","","","","","","","","","","","","","","","","","","","","","","","","","",""
"1855","<p style=""color:rgb(150, 250, 100); font-size: 35px;"">我的</p>","e","categorize-html","76","183541","0.0-6.0-0.0-6.0-1.8","4","4","4","3","4","4","4","3","4","4","4","5","5","5","5","4","4","4","4","5","1","1","2","2","2","2","2","4","2","1","0","1","0","0","1","0","1","0","1","1","0","1","0","0","5","2","3","2","3","2","1","1","2","3","2","757367705316888578","张","139","","","","","","","","","","","","","","","","","","","true","3","3","ability","1855","self","我的","","","","","","","","","","","","","","","","",""
"null","","null","html-keyboard-response","77","183792","0.0-6.0-0.0-6.0-0.9","4","4","4","3","4","4","4","3","4","4","4","5","5","5","5","4","4","4","4","5","1","1","2","2","2","2","2","4","2","1","0","1","0","0","1","0","1","0","1","1","0","1","0","0","5","2","3","2","3","2","1","1","2","3","2","757367705316888578","张","139","","","","","","","","","","","","","","","","","","","","","","","","","","","","","","","","","","","","","","","","","",""
"1387","<p style=""color:white; font-size: 35px;"">蠢笨</p>","e","categorize-html","78","185182","0.0-6.0-0.0-6.0-1.9","4","4","4","3","4","4","4","3","4","4","4","5","5","5","5","4","4","4","4","5","1","1","2","2","2","2","2","4","2","1","0","1","0","0","1","0","1","0","1","1","0","1","0","0","5","2","3","2","3","2","1","1","2","3","2","757367705316888578","张","139","","","","","","","","","","","","","","","","","","","true","3","3","ability","1387","negative","蠢笨","","","","","","","","","","","","","","","","",""
"null","","null","html-keyboard-response","79","185444","0.0-6.0-0.0-6.0-0.10","4","4","4","3","4","4","4","3","4","4","4","5","5","5","5","4","4","4","4","5","1","1","2","2","2","2","2","4","2","1","0","1","0","0","1","0","1","0","1","1","0","1","0","0","5","2","3","2","3","2","1","1","2","3","2","757367705316888578","张","139","","","","","","","","","","","","","","","","","","","","","","","","","","","","","","","","","","","","","","","","","",""
"768","<p style=""color:rgb(150, 250, 100); font-size: 35px;"">他人的</p>","i","categorize-html","80","186215","0.0-6.0-0.0-6.0-1.10","4","4","4","3","4","4","4","3","4","4","4","5","5","5","5","4","4","4","4","5","1","1","2","2","2","2","2","4","2","1","0","1","0","0","1","0","1","0","1","1","0","1","0","0","5","2","3","2","3","2","1","1","2","3","2","757367705316888578","张","139","","","","","","","","","","","","","","","","","","","true","3","3","ability","768","other","他人的","","","","","","","","","","","","","","","","",""
"null","","null","html-keyboard-response","81","186466","0.0-6.0-0.0-6.0-0.11","4","4","4","3","4","4","4","3","4","4","4","5","5","5","5","4","4","4","4","5","1","1","2","2","2","2","2","4","2","1","0","1","0","0","1","0","1","0","1","1","0","1","0","0","5","2","3","2","3","2","1","1","2","3","2","757367705316888578","张","139","","","","","","","","","","","","","","","","","","","","","","","","","","","","","","","","","","","","","","","","","",""
"711","<p style=""color:white; font-size: 35px;"">能干</p>","i","categorize-html","82","187181","0.0-6.0-0.0-6.0-1.11","4","4","4","3","4","4","4","3","4","4","4","5","5","5","5","4","4","4","4","5","1","1","2","2","2","2","2","4","2","1","0","1","0","0","1","0","1","0","1","1","0","1","0","0","5","2","3","2","3","2","1","1","2","3","2","757367705316888578","张","139","","","","","","","","","","","","","","","","","","","true","3","3","ability","711","positive","能干","","","","","","","","","","","","","","","","",""
"null","","null","html-keyboard-response","83","187432","0.0-6.0-0.0-6.0-0.12","4","4","4","3","4","4","4","3","4","4","4","5","5","5","5","4","4","4","4","5","1","1","2","2","2","2","2","4","2","1","0","1","0","0","1","0","1","0","1","1","0","1","0","0","5","2","3","2","3","2","1","1","2","3","2","757367705316888578","张","139","","","","","","","","","","","","","","","","","","","","","","","","","","","","","","","","","","","","","","","","","",""
"613","<p style=""color:rgb(150, 250, 100); font-size: 35px;"">我</p>","e","categorize-html","84","188047","0.0-6.0-0.0-6.0-1.12","4","4","4","3","4","4","4","3","4","4","4","5","5","5","5","4","4","4","4","5","1","1","2","2","2","2","2","4","2","1","0","1","0","0","1","0","1","0","1","1","0","1","0","0","5","2","3","2","3","2","1","1","2","3","2","757367705316888578","张","139","","","","","","","","","","","","","","","","","","","true","3","3","ability","613","self","我","","","","","","","","","","","","","","","","",""
"null","","null","html-keyboard-response","85","188298","0.0-6.0-0.0-6.0-0.13","4","4","4","3","4","4","4","3","4","4","4","5","5","5","5","4","4","4","4","5","1","1","2","2","2","2","2","4","2","1","0","1","0","0","1","0","1","0","1","1","0","1","0","0","5","2","3","2","3","2","1","1","2","3","2","757367705316888578","张","139","","","","","","","","","","","","","","","","","","","","","","","","","","","","","","","","","","","","","","","","","",""
"884","<p style=""color:white; font-size: 35px;"">精干</p>","i","categorize-html","86","189185","0.0-6.0-0.0-6.0-1.13","4","4","4","3","4","4","4","3","4","4","4","5","5","5","5","4","4","4","4","5","1","1","2","2","2","2","2","4","2","1","0","1","0","0","1","0","1","0","1","1","0","1","0","0","5","2","3","2","3","2","1","1","2","3","2","757367705316888578","张","139","","","","","","","","","","","","","","","","","","","true","3","3","ability","884","positive","精干","","","","","","","","","","","","","","","","",""
"null","","null","html-keyboard-response","87","189436","0.0-6.0-0.0-6.0-0.14","4","4","4","3","4","4","4","3","4","4","4","5","5","5","5","4","4","4","4","5","1","1","2","2","2","2","2","4","2","1","0","1","0","0","1","0","1","0","1","1","0","1","0","0","5","2","3","2","3","2","1","1","2","3","2","757367705316888578","张","139","","","","","","","","","","","","","","","","","","","","","","","","","","","","","","","","","","","","","","","","","",""
"617","<p style=""color:rgb(150, 250, 100); font-size: 35px;"">他</p>","i","categorize-html","88","190055","0.0-6.0-0.0-6.0-1.14","4","4","4","3","4","4","4","3","4","4","4","5","5","5","5","4","4","4","4","5","1","1","2","2","2","2","2","4","2","1","0","1","0","0","1","0","1","0","1","1","0","1","0","0","5","2","3","2","3","2","1","1","2","3","2","757367705316888578","张","139","","","","","","","","","","","","","","","","","","","true","3","3","ability","617","other","他","","","","","","","","","","","","","","","","",""
"null","","null","html-keyboard-response","89","190306","0.0-6.0-0.0-6.0-0.15","4","4","4","3","4","4","4","3","4","4","4","5","5","5","5","4","4","4","4","5","1","1","2","2","2","2","2","4","2","1","0","1","0","0","1","0","1","0","1","1","0","1","0","0","5","2","3","2","3","2","1","1","2","3","2","757367705316888578","张","139","","","","","","","","","","","","","","","","","","","","","","","","","","","","","","","","","","","","","","","","","",""
"653","<p style=""color:white; font-size: 35px;"">拙笨</p>","e","categorize-html","90","190961","0.0-6.0-0.0-6.0-1.15","4","4","4","3","4","4","4","3","4","4","4","5","5","5","5","4","4","4","4","5","1","1","2","2","2","2","2","4","2","1","0","1","0","0","1","0","1","0","1","1","0","1","0","0","5","2","3","2","3","2","1","1","2","3","2","757367705316888578","张","139","","","","","","","","","","","","","","","","","","","true","3","3","ability","653","negative","拙笨","","","","","","","","","","","","","","","","",""
"null","","null","html-keyboard-response","91","191213","0.0-6.0-0.0-6.0-0.16","4","4","4","3","4","4","4","3","4","4","4","5","5","5","5","4","4","4","4","5","1","1","2","2","2","2","2","4","2","1","0","1","0","0","1","0","1","0","1","1","0","1","0","0","5","2","3","2","3","2","1","1","2","3","2","757367705316888578","张","139","","","","","","","","","","","","","","","","","","","","","","","","","","","","","","","","","","","","","","","","","",""
"685","<p style=""color:rgb(150, 250, 100); font-size: 35px;"">别人的</p>","i","categorize-html","92","191901","0.0-6.0-0.0-6.0-1.16","4","4","4","3","4","4","4","3","4","4","4","5","5","5","5","4","4","4","4","5","1","1","2","2","2","2","2","4","2","1","0","1","0","0","1","0","1","0","1","1","0","1","0","0","5","2","3","2","3","2","1","1","2","3","2","757367705316888578","张","139","","","","","","","","","","","","","","","","","","","true","3","3","ability","685","other","别人的","","","","","","","","","","","","","","","","",""
"null","","null","html-keyboard-response","93","192152","0.0-6.0-0.0-6.0-0.17","4","4","4","3","4","4","4","3","4","4","4","5","5","5","5","4","4","4","4","5","1","1","2","2","2","2","2","4","2","1","0","1","0","0","1","0","1","0","1","1","0","1","0","0","5","2","3","2","3","2","1","1","2","3","2","757367705316888578","张","139","","","","","","","","","","","","","","","","","","","","","","","","","","","","","","","","","","","","","","","","","",""
"704","<p style=""color:white; font-size: 35px;"">愚钝</p>","e","categorize-html","94","192859","0.0-6.0-0.0-6.0-1.17","4","4","4","3","4","4","4","3","4","4","4","5","5","5","5","4","4","4","4","5","1","1","2","2","2","2","2","4","2","1","0","1","0","0","1","0","1","0","1","1","0","1","0","0","5","2","3","2","3","2","1","1","2","3","2","757367705316888578","张","139","","","","","","","","","","","","","","","","","","","true","3","3","ability","704","negative","愚钝","","","","","","","","","","","","","","","","",""
"null","","null","html-keyboard-response","95","193111","0.0-6.0-0.0-6.0-0.18","4","4","4","3","4","4","4","3","4","4","4","5","5","5","5","4","4","4","4","5","1","1","2","2","2","2","2","4","2","1","0","1","0","0","1","0","1","0","1","1","0","1","0","0","5","2","3","2","3","2","1","1","2","3","2","757367705316888578","张","139","","","","","","","","","","","","","","","","","","","","","","","","","","","","","","","","","","","","","","","","","",""
"644","<p style=""color:rgb(150, 250, 100); font-size: 35px;"">自己</p>","e","categorize-html","96","193757","0.0-6.0-0.0-6.0-1.18","4","4","4","3","4","4","4","3","4","4","4","5","5","5","5","4","4","4","4","5","1","1","2","2","2","2","2","4","2","1","0","1","0","0","1","0","1","0","1","1","0","1","0","0","5","2","3","2","3","2","1","1","2","3","2","757367705316888578","张","139","","","","","","","","","","","","","","","","","","","true","3","3","ability","644","self","自己","","","","","","","","","","","","","","","","",""
"null","","null","html-keyboard-response","97","194009","0.0-6.0-0.0-6.0-0.19","4","4","4","3","4","4","4","3","4","4","4","5","5","5","5","4","4","4","4","5","1","1","2","2","2","2","2","4","2","1","0","1","0","0","1","0","1","0","1","1","0","1","0","0","5","2","3","2","3","2","1","1","2","3","2","757367705316888578","张","139","","","","","","","","","","","","","","","","","","","","","","","","","","","","","","","","","","","","","","","","","",""
"599","<p style=""color:white; font-size: 35px;"">天才</p>","i","categorize-html","98","194611","0.0-6.0-0.0-6.0-1.19","4","4","4","3","4","4","4","3","4","4","4","5","5","5","5","4","4","4","4","5","1","1","2","2","2","2","2","4","2","1","0","1","0","0","1","0","1","0","1","1","0","1","0","0","5","2","3","2","3","2","1","1","2","3","2","757367705316888578","张","139","","","","","","","","","","","","","","","","","","","true","3","3","ability","599","positive","天才","","","","","","","","","","","","","","","","",""
"null","","null","html-keyboard-response","99","194862","0.0-6.0-0.0-6.0-0.20","4","4","4","3","4","4","4","3","4","4","4","5","5","5","5","4","4","4","4","5","1","1","2","2","2","2","2","4","2","1","0","1","0","0","1","0","1","0","1","1","0","1","0","0","5","2","3","2","3","2","1","1","2","3","2","757367705316888578","张","139","","","","","","","","","","","","","","","","","","","","","","","","","","","","","","","","","","","","","","","","","",""
"571","<p style=""color:rgb(150, 250, 100); font-size: 35px;"">本人的</p>","e","categorize-html","100","195436","0.0-6.0-0.0-6.0-1.20","4","4","4","3","4","4","4","3","4","4","4","5","5","5","5","4","4","4","4","5","1","1","2","2","2","2","2","4","2","1","0","1","0","0","1","0","1","0","1","1","0","1","0","0","5","2","3","2","3","2","1","1","2","3","2","757367705316888578","张","139","","","","","","","","","","","","","","","","","","","true","3","3","ability","571","self","本人的","","","","","","","","","","","","","","","","",""
"null","","null","html-keyboard-response","101","195688","0.0-6.0-0.0-6.0-0.21","4","4","4","3","4","4","4","3","4","4","4","5","5","5","5","4","4","4","4","5","1","1","2","2","2","2","2","4","2","1","0","1","0","0","1","0","1","0","1","1","0","1","0","0","5","2","3","2","3","2","1","1","2","3","2","757367705316888578","张","139","","","","","","","","","","","","","","","","","","","","","","","","","","","","","","","","","","","","","","","","","",""
"807","<p style=""color:white; font-size: 35px;"">低能</p>","e","categorize-html","102","196498","0.0-6.0-0.0-6.0-1.21","4","4","4","3","4","4","4","3","4","4","4","5","5","5","5","4","4","4","4","5","1","1","2","2","2","2","2","4","2","1","0","1","0","0","1","0","1","0","1","1","0","1","0","0","5","2","3","2","3","2","1","1","2","3","2","757367705316888578","张","139","","","","","","","","","","","","","","","","","","","true","3","3","ability","807","negative","低能","","","","","","","","","","","","","","","","",""
"null","","null","html-keyboard-response","103","196760","0.0-6.0-0.0-6.0-0.22","4","4","4","3","4","4","4","3","4","4","4","5","5","5","5","4","4","4","4","5","1","1","2","2","2","2","2","4","2","1","0","1","0","0","1","0","1","0","1","1","0","1","0","0","5","2","3","2","3","2","1","1","2","3","2","757367705316888578","张","139","","","","","","","","","","","","","","","","","","","","","","","","","","","","","","","","","","","","","","","","","",""
"580","<p style=""color:rgb(150, 250, 100); font-size: 35px;"">别人</p>","i","categorize-html","104","197343","0.0-6.0-0.0-6.0-1.22","4","4","4","3","4","4","4","3","4","4","4","5","5","5","5","4","4","4","4","5","1","1","2","2","2","2","2","4","2","1","0","1","0","0","1","0","1","0","1","1","0","1","0","0","5","2","3","2","3","2","1","1","2","3","2","757367705316888578","张","139","","","","","","","","","","","","","","","","","","","true","3","3","ability","580","other","别人","","","","","","","","","","","","","","","","",""
"null","","null","html-keyboard-response","105","197595","0.0-6.0-0.0-6.0-0.23","4","4","4","3","4","4","4","3","4","4","4","5","5","5","5","4","4","4","4","5","1","1","2","2","2","2","2","4","2","1","0","1","0","0","1","0","1","0","1","1","0","1","0","0","5","2","3","2","3","2","1","1","2","3","2","757367705316888578","张","139","","","","","","","","","","","","","","","","","","","","","","","","","","","","","","","","","","","","","","","","","",""
"1505","<p style=""color:white; font-size: 35px;"">全才</p>","i","categorize-html","106","199102","0.0-6.0-0.0-6.0-1.23","4","4","4","3","4","4","4","3","4","4","4","5","5","5","5","4","4","4","4","5","1","1","2","2","2","2","2","4","2","1","0","1","0","0","1","0","1","0","1","1","0","1","0","0","5","2","3","2","3","2","1","1","2","3","2","757367705316888578","张","139","","","","","","","","","","","","","","","","","","","true","3","3","ability","1505","positive","全才","","","","","","","","","","","","","","","","",""
"4189","
    <div class=""tag-bottom""><p>
    —— 任务4：对“自我/消极”词和“他人/积极”词分类 ——<p/>
    <span style=""color:#78DCE8""><b>与刚才的任务完全相同，请再次对这四类词语分类</b></span><p/>
    <span style=""color:#FFD866""><b>请根据上方标签的提示，尽可能正确并且快速地做出按键反应</b></span><p/>
    当按键错误时屏幕中会出现<span style=""color:red""> X </span>，需要按另一个键纠正才能继续<br/><p/>
    请把双手食指分别放在键盘的“E”键和“I”键上<p/>
    按<空格键>开始
    </p></div>"," ","html-keyboard-response","107","203292","0.0-6.0-0.0-7.0","4","4","4","3","4","4","4","3","4","4","4","5","5","5","5","4","4","4","4","5","1","1","2","2","2","2","2","4","2","1","0","1","0","0","1","0","1","0","1","1","0","1","0","0","5","2","3","2","3","2","1","1","2","3","2","757367705316888578","张","139","","","","","","","","","","","","","","","","","","","","","","","","","","","","","","","","","","","","","","","","","",""
"null","","null","html-keyboard-response","108","203544","0.0-6.0-0.0-8.0-0.0","4","4","4","3","4","4","4","3","4","4","4","5","5","5","5","4","4","4","4","5","1","1","2","2","2","2","2","4","2","1","0","1","0","0","1","0","1","0","1","1","0","1","0","0","5","2","3","2","3","2","1","1","2","3","2","757367705316888578","张","139","","","","","","","","","","","","","","","","","","","","","","","","","","","","","","","","","","","","","","","","","",""
"609","<p style=""color:rgb(150, 250, 100); font-size: 35px;"">我</p>","e","categorize-html","109","204155","0.0-6.0-0.0-8.0-1.0","4","4","4","3","4","4","4","3","4","4","4","5","5","5","5","4","4","4","4","5","1","1","2","2","2","2","2","4","2","1","0","1","0","0","1","0","1","0","1","1","0","1","0","0","5","2","3","2","3","2","1","1","2","3","2","757367705316888578","张","139","","","","","","","","","","","","","","","","","","","true","4","4","ability","609","self","我","","","","","","","","","","","","","","","","",""
"null","","null","html-keyboard-response","110","204408","0.0-6.0-0.0-8.0-0.1","4","4","4","3","4","4","4","3","4","4","4","5","5","5","5","4","4","4","4","5","1","1","2","2","2","2","2","4","2","1","0","1","0","0","1","0","1","0","1","1","0","1","0","0","5","2","3","2","3","2","1","1","2","3","2","757367705316888578","张","139","","","","","","","","","","","","","","","","","","","","","","","","","","","","","","","","","","","","","","","","","",""
"695","<p style=""color:white; font-size: 35px;"">蠢笨</p>","e","categorize-html","111","205105","0.0-6.0-0.0-8.0-1.1","4","4","4","3","4","4","4","3","4","4","4","5","5","5","5","4","4","4","4","5","1","1","2","2","2","2","2","4","2","1","0","1","0","0","1","0","1","0","1","1","0","1","0","0","5","2","3","2","3","2","1","1","2","3","2","757367705316888578","张","139","","","","","","","","","","","","","","","","","","","true","4","4","ability","695","negative","蠢笨","","","","","","","","","","","","","","","","",""
"null","","null","html-keyboard-response","112","205357","0.0-6.0-0.0-8.0-0.2","4","4","4","3","4","4","4","3","4","4","4","5","5","5","5","4","4","4","4","5","1","1","2","2","2","2","2","4","2","1","0","1","0","0","1","0","1","0","1","1","0","1","0","0","5","2","3","2","3","2","1","1","2","3","2","757367705316888578","张","139","","","","","","","","","","","","","","","","","","","","","","","","","","","","","","","","","","","","","","","","","",""
"482","<p style=""color:rgb(150, 250, 100); font-size: 35px;"">他的</p>","i","categorize-html","113","205842","0.0-6.0-0.0-8.0-1.2","4","4","4","3","4","4","4","3","4","4","4","5","5","5","5","4","4","4","4","5","1","1","2","2","2","2","2","4","2","1","0","1","0","0","1","0","1","0","1","1","0","1","0","0","5","2","3","2","3","2","1","1","2","3","2","757367705316888578","张","139","","","","","","","","","","","","","","","","","","","true","4","4","ability","482","other","他的","","","","","","","","","","","","","","","","",""
"null","","null","html-keyboard-response","114","206093","0.0-6.0-0.0-8.0-0.3","4","4","4","3","4","4","4","3","4","4","4","5","5","5","5","4","4","4","4","5","1","1","2","2","2","2","2","4","2","1","0","1","0","0","1","0","1","0","1","1","0","1","0","0","5","2","3","2","3","2","1","1","2","3","2","757367705316888578","张","139","","","","","","","","","","","","","","","","","","","","","","","","","","","","","","","","","","","","","","","","","",""
"485","<p style=""color:white; font-size: 35px;"">天才</p>","i","categorize-html","115","206581","0.0-6.0-0.0-8.0-1.3","4","4","4","3","4","4","4","3","4","4","4","5","5","5","5","4","4","4","4","5","1","1","2","2","2","2","2","4","2","1","0","1","0","0","1","0","1","0","1","1","0","1","0","0","5","2","3","2","3","2","1","1","2","3","2","757367705316888578","张","139","","","","","","","","","","","","","","","","","","","true","4","4","ability","485","positive","天才","","","","","","","","","","","","","","","","",""
"null","","null","html-keyboard-response","116","206833","0.0-6.0-0.0-8.0-0.4","4","4","4","3","4","4","4","3","4","4","4","5","5","5","5","4","4","4","4","5","1","1","2","2","2","2","2","4","2","1","0","1","0","0","1","0","1","0","1","1","0","1","0","0","5","2","3","2","3","2","1","1","2","3","2","757367705316888578","张","139","","","","","","","","","","","","","","","","","","","","","","","","","","","","","","","","","","","","","","","","","",""
"523","<p style=""color:rgb(150, 250, 100); font-size: 35px;"">别人</p>","i","categorize-html","117","207358","0.0-6.0-0.0-8.0-1.4","4","4","4","3","4","4","4","3","4","4","4","5","5","5","5","4","4","4","4","5","1","1","2","2","2","2","2","4","2","1","0","1","0","0","1","0","1","0","1","1","0","1","0","0","5","2","3","2","3","2","1","1","2","3","2","757367705316888578","张","139","","","","","","","","","","","","","","","","","","","true","4","4","ability","523","other","别人","","","","","","","","","","","","","","","","",""
"null","","null","html-keyboard-response","118","207610","0.0-6.0-0.0-8.0-0.5","4","4","4","3","4","4","4","3","4","4","4","5","5","5","5","4","4","4","4","5","1","1","2","2","2","2","2","4","2","1","0","1","0","0","1","0","1","0","1","1","0","1","0","0","5","2","3","2","3","2","1","1","2","3","2","757367705316888578","张","139","","","","","","","","","","","","","","","","","","","","","","","","","","","","","","","","","","","","","","","","","",""
"549","<p style=""color:white; font-size: 35px;"">全才</p>","i","categorize-html","119","208162","0.0-6.0-0.0-8.0-1.5","4","4","4","3","4","4","4","3","4","4","4","5","5","5","5","4","4","4","4","5","1","1","2","2","2","2","2","4","2","1","0","1","0","0","1","0","1","0","1","1","0","1","0","0","5","2","3","2","3","2","1","1","2","3","2","757367705316888578","张","139","","","","","","","","","","","","","","","","","","","true","4","4","ability","549","positive","全才","","","","","","","","","","","","","","","","",""
"null","","null","html-keyboard-response","120","208413","0.0-6.0-0.0-8.0-0.6","4","4","4","3","4","4","4","3","4","4","4","5","5","5","5","4","4","4","4","5","1","1","2","2","2","2","2","4","2","1","0","1","0","0","1","0","1","0","1","1","0","1","0","0","5","2","3","2","3","2","1","1","2","3","2","757367705316888578","张","139","","","","","","","","","","","","","","","","","","","","","","","","","","","","","","","","","","","","","","","","","",""
"693","<p style=""color:rgb(150, 250, 100); font-size: 35px;"">自己的</p>","e","categorize-html","121","209108","0.0-6.0-0.0-8.0-1.6","4","4","4","3","4","4","4","3","4","4","4","5","5","5","5","4","4","4","4","5","1","1","2","2","2","2","2","4","2","1","0","1","0","0","1","0","1","0","1","1","0","1","0","0","5","2","3","2","3","2","1","1","2","3","2","757367705316888578","张","139","","","","","","","","","","","","","","","","","","","true","4","4","ability","693","self","自己的","","","","","","","","","","","","","","","","",""
"null","","null","html-keyboard-response","122","209359","0.0-6.0-0.0-8.0-0.7","4","4","4","3","4","4","4","3","4","4","4","5","5","5","5","4","4","4","4","5","1","1","2","2","2","2","2","4","2","1","0","1","0","0","1","0","1","0","1","1","0","1","0","0","5","2","3","2","3","2","1","1","2","3","2","757367705316888578","张","139","","","","","","","","","","","","","","","","","","","","","","","","","","","","","","","","","","","","","","","","","",""
"422","<p style=""color:white; font-size: 35px;"">拙笨</p>","e","categorize-html","123","209784","0.0-6.0-0.0-8.0-1.7","4","4","4","3","4","4","4","3","4","4","4","5","5","5","5","4","4","4","4","5","1","1","2","2","2","2","2","4","2","1","0","1","0","0","1","0","1","0","1","1","0","1","0","0","5","2","3","2","3","2","1","1","2","3","2","757367705316888578","张","139","","","","","","","","","","","","","","","","","","","true","4","4","ability","422","negative","拙笨","","","","","","","","","","","","","","","","",""
"null","","null","html-keyboard-response","124","210035","0.0-6.0-0.0-8.0-0.8","4","4","4","3","4","4","4","3","4","4","4","5","5","5","5","4","4","4","4","5","1","1","2","2","2","2","2","4","2","1","0","1","0","0","1","0","1","0","1","1","0","1","0","0","5","2","3","2","3","2","1","1","2","3","2","757367705316888578","张","139","","","","","","","","","","","","","","","","","","","","","","","","","","","","","","","","","","","","","","","","","",""
"450","<p style=""color:rgb(150, 250, 100); font-size: 35px;"">他</p>","i","categorize-html","125","210488","0.0-6.0-0.0-8.0-1.8","4","4","4","3","4","4","4","3","4","4","4","5","5","5","5","4","4","4","4","5","1","1","2","2","2","2","2","4","2","1","0","1","0","0","1","0","1","0","1","1","0","1","0","0","5","2","3","2","3","2","1","1","2","3","2","757367705316888578","张","139","","","","","","","","","","","","","","","","","","","true","4","4","ability","450","other","他","","","","","","","","","","","","","","","","",""
"null","","null","html-keyboard-response","126","210739","0.0-6.0-0.0-8.0-0.9","4","4","4","3","4","4","4","3","4","4","4","5","5","5","5","4","4","4","4","5","1","1","2","2","2","2","2","4","2","1","0","1","0","0","1","0","1","0","1","1","0","1","0","0","5","2","3","2","3","2","1","1","2","3","2","757367705316888578","张","139","","","","","","","","","","","","","","","","","","","","","","","","","","","","","","","","","","","","","","","","","",""
"576","<p style=""color:white; font-size: 35px;"">愚钝</p>","e","categorize-html","127","211317","0.0-6.0-0.0-8.0-1.9","4","4","4","3","4","4","4","3","4","4","4","5","5","5","5","4","4","4","4","5","1","1","2","2","2","2","2","4","2","1","0","1","0","0","1","0","1","0","1","1","0","1","0","0","5","2","3","2","3","2","1","1","2","3","2","757367705316888578","张","139","","","","","","","","","","","","","","","","","","","true","4","4","ability","576","negative","愚钝","","","","","","","","","","","","","","","","",""
"null","","null","html-keyboard-response","128","211568","0.0-6.0-0.0-8.0-0.10","4","4","4","3","4","4","4","3","4","4","4","5","5","5","5","4","4","4","4","5","1","1","2","2","2","2","2","4","2","1","0","1","0","0","1","0","1","0","1","1","0","1","0","0","5","2","3","2","3","2","1","1","2","3","2","757367705316888578","张","139","","","","","","","","","","","","","","","","","","","","","","","","","","","","","","","","","","","","","","","","","",""
"528","<p style=""color:rgb(150, 250, 100); font-size: 35px;"">自己</p>","e","categorize-html","129","212099","0.0-6.0-0.0-8.0-1.10","4","4","4","3","4","4","4","3","4","4","4","5","5","5","5","4","4","4","4","5","1","1","2","2","2","2","2","4","2","1","0","1","0","0","1","0","1","0","1","1","0","1","0","0","5","2","3","2","3","2","1","1","2","3","2","757367705316888578","张","139","","","","","","","","","","","","","","","","","","","true","4","4","ability","528","self","自己","","","","","","","","","","","","","","","","",""
"null","","null","html-keyboard-response","130","212350","0.0-6.0-0.0-8.0-0.11","4","4","4","3","4","4","4","3","4","4","4","5","5","5","5","4","4","4","4","5","1","1","2","2","2","2","2","4","2","1","0","1","0","0","1","0","1","0","1","1","0","1","0","0","5","2","3","2","3","2","1","1","2","3","2","757367705316888578","张","139","","","","","","","","","","","","","","","","","","","","","","","","","","","","","","","","","","","","","","","","","",""
"1173","<p style=""color:white; font-size: 35px;"">全才</p>","i","categorize-html","131","213526","0.0-6.0-0.0-8.0-1.11","4","4","4","3","4","4","4","3","4","4","4","5","5","5","5","4","4","4","4","5","1","1","2","2","2","2","2","4","2","1","0","1","0","0","1","0","1","0","1","1","0","1","0","0","5","2","3","2","3","2","1","1","2","3","2","757367705316888578","张","139","","","","","","","","","","","","","","","","","","","true","4","4","ability","1173","positive","全才","","","","","","","","","","","","","","","","",""
"null","","null","html-keyboard-response","132","213778","0.0-6.0-0.0-8.0-0.12","4","4","4","3","4","4","4","3","4","4","4","5","5","5","5","4","4","4","4","5","1","1","2","2","2","2","2","4","2","1","0","1","0","0","1","0","1","0","1","1","0","1","0","0","5","2","3","2","3","2","1","1","2","3","2","757367705316888578","张","139","","","","","","","","","","","","","","","","","","","","","","","","","","","","","","","","","","","","","","","","","",""
"557","<p style=""color:rgb(150, 250, 100); font-size: 35px;"">本人</p>","e","categorize-html","133","214339","0.0-6.0-0.0-8.0-1.12","4","4","4","3","4","4","4","3","4","4","4","5","5","5","5","4","4","4","4","5","1","1","2","2","2","2","2","4","2","1","0","1","0","0","1","0","1","0","1","1","0","1","0","0","5","2","3","2","3","2","1","1","2","3","2","757367705316888578","张","139","","","","","","","","","","","","","","","","","","","true","4","4","ability","557","self","本人","","","","","","","","","","","","","","","","",""
"null","","null","html-keyboard-response","134","214590","0.0-6.0-0.0-8.0-0.13","4","4","4","3","4","4","4","3","4","4","4","5","5","5","5","4","4","4","4","5","1","1","2","2","2","2","2","4","2","1","0","1","0","0","1","0","1","0","1","1","0","1","0","0","5","2","3","2","3","2","1","1","2","3","2","757367705316888578","张","139","","","","","","","","","","","","","","","","","","","","","","","","","","","","","","","","","","","","","","","","","",""
"547","<p style=""color:white; font-size: 35px;"">愚钝</p>","e","categorize-html","135","215140","0.0-6.0-0.0-8.0-1.13","4","4","4","3","4","4","4","3","4","4","4","5","5","5","5","4","4","4","4","5","1","1","2","2","2","2","2","4","2","1","0","1","0","0","1","0","1","0","1","1","0","1","0","0","5","2","3","2","3","2","1","1","2","3","2","757367705316888578","张","139","","","","","","","","","","","","","","","","","","","true","4","4","ability","547","negative","愚钝","","","","","","","","","","","","","","","","",""
"null","","null","html-keyboard-response","136","215391","0.0-6.0-0.0-8.0-0.14","4","4","4","3","4","4","4","3","4","4","4","5","5","5","5","4","4","4","4","5","1","1","2","2","2","2","2","4","2","1","0","1","0","0","1","0","1","0","1","1","0","1","0","0","5","2","3","2","3","2","1","1","2","3","2","757367705316888578","张","139","","","","","","","","","","","","","","","","","","","","","","","","","","","","","","","","","","","","","","","","","",""
"541","<p style=""color:rgb(150, 250, 100); font-size: 35px;"">他人的</p>","i","categorize-html","137","215935","0.0-6.0-0.0-8.0-1.14","4","4","4","3","4","4","4","3","4","4","4","5","5","5","5","4","4","4","4","5","1","1","2","2","2","2","2","4","2","1","0","1","0","0","1","0","1","0","1","1","0","1","0","0","5","2","3","2","3","2","1","1","2","3","2","757367705316888578","张","139","","","","","","","","","","","","","","","","","","","true","4","4","ability","541","other","他人的","","","","","","","","","","","","","","","","",""
"null","","null","html-keyboard-response","138","216186","0.0-6.0-0.0-8.0-0.15","4","4","4","3","4","4","4","3","4","4","4","5","5","5","5","4","4","4","4","5","1","1","2","2","2","2","2","4","2","1","0","1","0","0","1","0","1","0","1","1","0","1","0","0","5","2","3","2","3","2","1","1","2","3","2","757367705316888578","张","139","","","","","","","","","","","","","","","","","","","","","","","","","","","","","","","","","","","","","","","","","",""
"636","<p style=""color:white; font-size: 35px;"">高效</p>","i","categorize-html","139","216825","0.0-6.0-0.0-8.0-1.15","4","4","4","3","4","4","4","3","4","4","4","5","5","5","5","4","4","4","4","5","1","1","2","2","2","2","2","4","2","1","0","1","0","0","1","0","1","0","1","1","0","1","0","0","5","2","3","2","3","2","1","1","2","3","2","757367705316888578","张","139","","","","","","","","","","","","","","","","","","","true","4","4","ability","636","positive","高效","","","","","","","","","","","","","","","","",""
"null","","null","html-keyboard-response","140","217077","0.0-6.0-0.0-8.0-0.16","4","4","4","3","4","4","4","3","4","4","4","5","5","5","5","4","4","4","4","5","1","1","2","2","2","2","2","4","2","1","0","1","0","0","1","0","1","0","1","1","0","1","0","0","5","2","3","2","3","2","1","1","2","3","2","757367705316888578","张","139","","","","","","","","","","","","","","","","","","","","","","","","","","","","","","","","","","","","","","","","","",""
"506","<p style=""color:rgb(150, 250, 100); font-size: 35px;"">自己的</p>","e","categorize-html","141","217586","0.0-6.0-0.0-8.0-1.16","4","4","4","3","4","4","4","3","4","4","4","5","5","5","5","4","4","4","4","5","1","1","2","2","2","2","2","4","2","1","0","1","0","0","1","0","1","0","1","1","0","1","0","0","5","2","3","2","3","2","1","1","2","3","2","757367705316888578","张","139","","","","","","","","","","","","","","","","","","","true","4","4","ability","506","self","自己的","","","","","","","","","","","","","","","","",""
"null","","null","html-keyboard-response","142","217839","0.0-6.0-0.0-8.0-0.17","4","4","4","3","4","4","4","3","4","4","4","5","5","5","5","4","4","4","4","5","1","1","2","2","2","2","2","4","2","1","0","1","0","0","1","0","1","0","1","1","0","1","0","0","5","2","3","2","3","2","1","1","2","3","2","757367705316888578","张","139","","","","","","","","","","","","","","","","","","","","","","","","","","","","","","","","","","","","","","","","","",""
"605","<p style=""color:white; font-size: 35px;"">全能</p>","i","categorize-html","143","218446","0.0-6.0-0.0-8.0-1.17","4","4","4","3","4","4","4","3","4","4","4","5","5","5","5","4","4","4","4","5","1","1","2","2","2","2","2","4","2","1","0","1","0","0","1","0","1","0","1","1","0","1","0","0","5","2","3","2","3","2","1","1","2","3","2","757367705316888578","张","139","","","","","","","","","","","","","","","","","","","true","4","4","ability","605","positive","全能","","","","","","","","","","","","","","","","",""
"null","","null","html-keyboard-response","144","218698","0.0-6.0-0.0-8.0-0.18","4","4","4","3","4","4","4","3","4","4","4","5","5","5","5","4","4","4","4","5","1","1","2","2","2","2","2","4","2","1","0","1","0","0","1","0","1","0","1","1","0","1","0","0","5","2","3","2","3","2","1","1","2","3","2","757367705316888578","张","139","","","","","","","","","","","","","","","","","","","","","","","","","","","","","","","","","","","","","","","","","",""
"792","<p style=""color:rgb(150, 250, 100); font-size: 35px;"">他人</p>","i","categorize-html","145","219493","0.0-6.0-0.0-8.0-1.18","4","4","4","3","4","4","4","3","4","4","4","5","5","5","5","4","4","4","4","5","1","1","2","2","2","2","2","4","2","1","0","1","0","0","1","0","1","0","1","1","0","1","0","0","5","2","3","2","3","2","1","1","2","3","2","757367705316888578","张","139","","","","","","","","","","","","","","","","","","","true","4","4","ability","792","other","他人","","","","","","","","","","","","","","","","",""
"null","","null","html-keyboard-response","146","219745","0.0-6.0-0.0-8.0-0.19","4","4","4","3","4","4","4","3","4","4","4","5","5","5","5","4","4","4","4","5","1","1","2","2","2","2","2","4","2","1","0","1","0","0","1","0","1","0","1","1","0","1","0","0","5","2","3","2","3","2","1","1","2","3","2","757367705316888578","张","139","","","","","","","","","","","","","","","","","","","","","","","","","","","","","","","","","","","","","","","","","",""
"507","<p style=""color:white; font-size: 35px;"">低能</p>","e","categorize-html","147","220254","0.0-6.0-0.0-8.0-1.19","4","4","4","3","4","4","4","3","4","4","4","5","5","5","5","4","4","4","4","5","1","1","2","2","2","2","2","4","2","1","0","1","0","0","1","0","1","0","1","1","0","1","0","0","5","2","3","2","3","2","1","1","2","3","2","757367705316888578","张","139","","","","","","","","","","","","","","","","","","","true","4","4","ability","507","negative","低能","","","","","","","","","","","","","","","","",""
"null","","null","html-keyboard-response","148","220514","0.0-6.0-0.0-8.0-0.20","4","4","4","3","4","4","4","3","4","4","4","5","5","5","5","4","4","4","4","5","1","1","2","2","2","2","2","4","2","1","0","1","0","0","1","0","1","0","1","1","0","1","0","0","5","2","3","2","3","2","1","1","2","3","2","757367705316888578","张","139","","","","","","","","","","","","","","","","","","","","","","","","","","","","","","","","","","","","","","","","","",""
"740","<p style=""color:rgb(150, 250, 100); font-size: 35px;"">别人</p>","i","categorize-html","149","221257","0.0-6.0-0.0-8.0-1.20","4","4","4","3","4","4","4","3","4","4","4","5","5","5","5","4","4","4","4","5","1","1","2","2","2","2","2","4","2","1","0","1","0","0","1","0","1","0","1","1","0","1","0","0","5","2","3","2","3","2","1","1","2","3","2","757367705316888578","张","139","","","","","","","","","","","","","","","","","","","true","4","4","ability","740","other","别人","","","","","","","","","","","","","","","","",""
"null","","null","html-keyboard-response","150","221508","0.0-6.0-0.0-8.0-0.21","4","4","4","3","4","4","4","3","4","4","4","5","5","5","5","4","4","4","4","5","1","1","2","2","2","2","2","4","2","1","0","1","0","0","1","0","1","0","1","1","0","1","0","0","5","2","3","2","3","2","1","1","2","3","2","757367705316888578","张","139","","","","","","","","","","","","","","","","","","","","","","","","","","","","","","","","","","","","","","","","","",""
"647","<p style=""color:white; font-size: 35px;"">拙笨</p>","e","categorize-html","151","222157","0.0-6.0-0.0-8.0-1.21","4","4","4","3","4","4","4","3","4","4","4","5","5","5","5","4","4","4","4","5","1","1","2","2","2","2","2","4","2","1","0","1","0","0","1","0","1","0","1","1","0","1","0","0","5","2","3","2","3","2","1","1","2","3","2","757367705316888578","张","139","","","","","","","","","","","","","","","","","","","true","4","4","ability","647","negative","拙笨","","","","","","","","","","","","","","","","",""
"null","","null","html-keyboard-response","152","222409","0.0-6.0-0.0-8.0-0.22","4","4","4","3","4","4","4","3","4","4","4","5","5","5","5","4","4","4","4","5","1","1","2","2","2","2","2","4","2","1","0","1","0","0","1","0","1","0","1","1","0","1","0","0","5","2","3","2","3","2","1","1","2","3","2","757367705316888578","张","139","","","","","","","","","","","","","","","","","","","","","","","","","","","","","","","","","","","","","","","","","",""
"672","<p style=""color:rgb(150, 250, 100); font-size: 35px;"">我的</p>","e","categorize-html","153","223084","0.0-6.0-0.0-8.0-1.22","4","4","4","3","4","4","4","3","4","4","4","5","5","5","5","4","4","4","4","5","1","1","2","2","2","2","2","4","2","1","0","1","0","0","1","0","1","0","1","1","0","1","0","0","5","2","3","2","3","2","1","1","2","3","2","757367705316888578","张","139","","","","","","","","","","","","","","","","","","","true","4","4","ability","672","self","我的","","","","","","","","","","","","","","","","",""
"null","","null","html-keyboard-response","154","223336","0.0-6.0-0.0-8.0-0.23","4","4","4","3","4","4","4","3","4","4","4","5","5","5","5","4","4","4","4","5","1","1","2","2","2","2","2","4","2","1","0","1","0","0","1","0","1","0","1","1","0","1","0","0","5","2","3","2","3","2","1","1","2","3","2","757367705316888578","张","139","","","","","","","","","","","","","","","","","","","","","","","","","","","","","","","","","","","","","","","","","",""
"612","<p style=""color:white; font-size: 35px;"">精干</p>","i","categorize-html","155","223951","0.0-6.0-0.0-8.0-1.23","4","4","4","3","4","4","4","3","4","4","4","5","5","5","5","4","4","4","4","5","1","1","2","2","2","2","2","4","2","1","0","1","0","0","1","0","1","0","1","1","0","1","0","0","5","2","3","2","3","2","1","1","2","3","2","757367705316888578","张","139","","","","","","","","","","","","","","","","","","","true","4","4","ability","612","positive","精干","","","","","","","","","","","","","","","","",""
"null","","null","html-keyboard-response","156","224202","0.0-6.0-0.0-8.0-0.24","4","4","4","3","4","4","4","3","4","4","4","5","5","5","5","4","4","4","4","5","1","1","2","2","2","2","2","4","2","1","0","1","0","0","1","0","1","0","1","1","0","1","0","0","5","2","3","2","3","2","1","1","2","3","2","757367705316888578","张","139","","","","","","","","","","","","","","","","","","","","","","","","","","","","","","","","","","","","","","","","","",""
"691","<p style=""color:rgb(150, 250, 100); font-size: 35px;"">他</p>","i","categorize-html","157","224896","0.0-6.0-0.0-8.0-1.24","4","4","4","3","4","4","4","3","4","4","4","5","5","5","5","4","4","4","4","5","1","1","2","2","2","2","2","4","2","1","0","1","0","0","1","0","1","0","1","1","0","1","0","0","5","2","3","2","3","2","1","1","2","3","2","757367705316888578","张","139","","","","","","","","","","","","","","","","","","","true","4","4","ability","691","other","他","","","","","","","","","","","","","","","","",""
"null","","null","html-keyboard-response","158","225148","0.0-6.0-0.0-8.0-0.25","4","4","4","3","4","4","4","3","4","4","4","5","5","5","5","4","4","4","4","5","1","1","2","2","2","2","2","4","2","1","0","1","0","0","1","0","1","0","1","1","0","1","0","0","5","2","3","2","3","2","1","1","2","3","2","757367705316888578","张","139","","","","","","","","","","","","","","","","","","","","","","","","","","","","","","","","","","","","","","","","","",""
"596","<p style=""color:white; font-size: 35px;"">能干</p>","i","categorize-html","159","225746","0.0-6.0-0.0-8.0-1.25","4","4","4","3","4","4","4","3","4","4","4","5","5","5","5","4","4","4","4","5","1","1","2","2","2","2","2","4","2","1","0","1","0","0","1","0","1","0","1","1","0","1","0","0","5","2","3","2","3","2","1","1","2","3","2","757367705316888578","张","139","","","","","","","","","","","","","","","","","","","true","4","4","ability","596","positive","能干","","","","","","","","","","","","","","","","",""
"null","","null","html-keyboard-response","160","225999","0.0-6.0-0.0-8.0-0.26","4","4","4","3","4","4","4","3","4","4","4","5","5","5","5","4","4","4","4","5","1","1","2","2","2","2","2","4","2","1","0","1","0","0","1","0","1","0","1","1","0","1","0","0","5","2","3","2","3","2","1","1","2","3","2","757367705316888578","张","139","","","","","","","","","","","","","","","","","","","","","","","","","","","","","","","","","","","","","","","","","",""
"980","<p style=""color:rgb(150, 250, 100); font-size: 35px;"">我</p>","e","categorize-html","161","226981","0.0-6.0-0.0-8.0-1.26","4","4","4","3","4","4","4","3","4","4","4","5","5","5","5","4","4","4","4","5","1","1","2","2","2","2","2","4","2","1","0","1","0","0","1","0","1","0","1","1","0","1","0","0","5","2","3","2","3","2","1","1","2","3","2","757367705316888578","张","139","","","","","","","","","","","","","","","","","","","true","4","4","ability","980","self","我","","","","","","","","","","","","","","","","",""
"null","","null","html-keyboard-response","162","227233","0.0-6.0-0.0-8.0-0.27","4","4","4","3","4","4","4","3","4","4","4","5","5","5","5","4","4","4","4","5","1","1","2","2","2","2","2","4","2","1","0","1","0","0","1","0","1","0","1","1","0","1","0","0","5","2","3","2","3","2","1","1","2","3","2","757367705316888578","张","139","","","","","","","","","","","","","","","","","","","","","","","","","","","","","","","","","","","","","","","","","",""
"590","<p style=""color:white; font-size: 35px;"">蠢笨</p>","e","categorize-html","163","227826","0.0-6.0-0.0-8.0-1.27","4","4","4","3","4","4","4","3","4","4","4","5","5","5","5","4","4","4","4","5","1","1","2","2","2","2","2","4","2","1","0","1","0","0","1","0","1","0","1","1","0","1","0","0","5","2","3","2","3","2","1","1","2","3","2","757367705316888578","张","139","","","","","","","","","","","","","","","","","","","true","4","4","ability","590","negative","蠢笨","","","","","","","","","","","","","","","","",""
"null","","null","html-keyboard-response","164","228078","0.0-6.0-0.0-8.0-0.28","4","4","4","3","4","4","4","3","4","4","4","5","5","5","5","4","4","4","4","5","1","1","2","2","2","2","2","4","2","1","0","1","0","0","1","0","1","0","1","1","0","1","0","0","5","2","3","2","3","2","1","1","2","3","2","757367705316888578","张","139","","","","","","","","","","","","","","","","","","","","","","","","","","","","","","","","","","","","","","","","","",""
"577","<p style=""color:rgb(150, 250, 100); font-size: 35px;"">别人的</p>","i","categorize-html","165","228658","0.0-6.0-0.0-8.0-1.28","4","4","4","3","4","4","4","3","4","4","4","5","5","5","5","4","4","4","4","5","1","1","2","2","2","2","2","4","2","1","0","1","0","0","1","0","1","0","1","1","0","1","0","0","5","2","3","2","3","2","1","1","2","3","2","757367705316888578","张","139","","","","","","","","","","","","","","","","","","","true","4","4","ability","577","other","别人的","","","","","","","","","","","","","","","","",""
"null","","null","html-keyboard-response","166","228910","0.0-6.0-0.0-8.0-0.29","4","4","4","3","4","4","4","3","4","4","4","5","5","5","5","4","4","4","4","5","1","1","2","2","2","2","2","4","2","1","0","1","0","0","1","0","1","0","1","1","0","1","0","0","5","2","3","2","3","2","1","1","2","3","2","757367705316888578","张","139","","","","","","","","","","","","","","","","","","","","","","","","","","","","","","","","","","","","","","","","","",""
"538","<p style=""color:white; font-size: 35px;"">精干</p>","i","categorize-html","167","229451","0.0-6.0-0.0-8.0-1.29","4","4","4","3","4","4","4","3","4","4","4","5","5","5","5","4","4","4","4","5","1","1","2","2","2","2","2","4","2","1","0","1","0","0","1","0","1","0","1","1","0","1","0","0","5","2","3","2","3","2","1","1","2","3","2","757367705316888578","张","139","","","","","","","","","","","","","","","","","","","true","4","4","ability","538","positive","精干","","","","","","","","","","","","","","","","",""
"null","","null","html-keyboard-response","168","229701","0.0-6.0-0.0-8.0-0.30","4","4","4","3","4","4","4","3","4","4","4","5","5","5","5","4","4","4","4","5","1","1","2","2","2","2","2","4","2","1","0","1","0","0","1","0","1","0","1","1","0","1","0","0","5","2","3","2","3","2","1","1","2","3","2","757367705316888578","张","139","","","","","","","","","","","","","","","","","","","","","","","","","","","","","","","","","","","","","","","","","",""
"462","<p style=""color:rgb(150, 250, 100); font-size: 35px;"">本人的</p>","e","categorize-html","169","230167","0.0-6.0-0.0-8.0-1.30","4","4","4","3","4","4","4","3","4","4","4","5","5","5","5","4","4","4","4","5","1","1","2","2","2","2","2","4","2","1","0","1","0","0","1","0","1","0","1","1","0","1","0","0","5","2","3","2","3","2","1","1","2","3","2","757367705316888578","张","139","","","","","","","","","","","","","","","","","","","true","4","4","ability","462","self","本人的","","","","","","","","","","","","","","","","",""
"null","","null","html-keyboard-response","170","230418","0.0-6.0-0.0-8.0-0.31","4","4","4","3","4","4","4","3","4","4","4","5","5","5","5","4","4","4","4","5","1","1","2","2","2","2","2","4","2","1","0","1","0","0","1","0","1","0","1","1","0","1","0","0","5","2","3","2","3","2","1","1","2","3","2","757367705316888578","张","139","","","","","","","","","","","","","","","","","","","","","","","","","","","","","","","","","","","","","","","","","",""
"513","<p style=""color:white; font-size: 35px;"">无能</p>","e","categorize-html","171","230934","0.0-6.0-0.0-8.0-1.31","4","4","4","3","4","4","4","3","4","4","4","5","5","5","5","4","4","4","4","5","1","1","2","2","2","2","2","4","2","1","0","1","0","0","1","0","1","0","1","1","0","1","0","0","5","2","3","2","3","2","1","1","2","3","2","757367705316888578","张","139","","","","","","","","","","","","","","","","","","","true","4","4","ability","513","negative","无能","","","","","","","","","","","","","","","","",""
"null","","null","html-keyboard-response","172","231185","0.0-6.0-0.0-8.0-0.32","4","4","4","3","4","4","4","3","4","4","4","5","5","5","5","4","4","4","4","5","1","1","2","2","2","2","2","4","2","1","0","1","0","0","1","0","1","0","1","1","0","1","0","0","5","2","3","2","3","2","1","1","2","3","2","757367705316888578","张","139","","","","","","","","","","","","","","","","","","","","","","","","","","","","","","","","","","","","","","","","","",""
"559","<p style=""color:rgb(150, 250, 100); font-size: 35px;"">自己</p>","e","categorize-html","173","231746","0.0-6.0-0.0-8.0-1.32","4","4","4","3","4","4","4","3","4","4","4","5","5","5","5","4","4","4","4","5","1","1","2","2","2","2","2","4","2","1","0","1","0","0","1","0","1","0","1","1","0","1","0","0","5","2","3","2","3","2","1","1","2","3","2","757367705316888578","张","139","","","","","","","","","","","","","","","","","","","true","4","4","ability","559","self","自己","","","","","","","","","","","","","","","","",""
"null","","null","html-keyboard-response","174","231998","0.0-6.0-0.0-8.0-0.33","4","4","4","3","4","4","4","3","4","4","4","5","5","5","5","4","4","4","4","5","1","1","2","2","2","2","2","4","2","1","0","1","0","0","1","0","1","0","1","1","0","1","0","0","5","2","3","2","3","2","1","1","2","3","2","757367705316888578","张","139","","","","","","","","","","","","","","","","","","","","","","","","","","","","","","","","","","","","","","","","","",""
"417","<p style=""color:white; font-size: 35px;"">天才</p>","e","categorize-html","175","232834","0.0-6.0-0.0-8.0-1.33","4","4","4","3","4","4","4","3","4","4","4","5","5","5","5","4","4","4","4","5","1","1","2","2","2","2","2","4","2","1","0","1","0","0","1","0","1","0","1","1","0","1","0","0","5","2","3","2","3","2","1","1","2","3","2","757367705316888578","张","139","","","","","","","","","","","","","","","","","","","false","4","4","ability","1248.4","positive","天才","","","","","","","","","","","","","","","","",""
"null","","null","html-keyboard-response","176","233087","0.0-6.0-0.0-8.0-0.34","4","4","4","3","4","4","4","3","4","4","4","5","5","5","5","4","4","4","4","5","1","1","2","2","2","2","2","4","2","1","0","1","0","0","1","0","1","0","1","1","0","1","0","0","5","2","3","2","3","2","1","1","2","3","2","757367705316888578","张","139","","","","","","","","","","","","","","","","","","","","","","","","","","","","","","","","","","","","","","","","","",""
"828","<p style=""color:rgb(150, 250, 100); font-size: 35px;"">他人</p>","i","categorize-html","177","233918","0.0-6.0-0.0-8.0-1.34","4","4","4","3","4","4","4","3","4","4","4","5","5","5","5","4","4","4","4","5","1","1","2","2","2","2","2","4","2","1","0","1","0","0","1","0","1","0","1","1","0","1","0","0","5","2","3","2","3","2","1","1","2","3","2","757367705316888578","张","139","","","","","","","","","","","","","","","","","","","true","4","4","ability","828","other","他人","","","","","","","","","","","","","","","","",""
"null","","null","html-keyboard-response","178","234169","0.0-6.0-0.0-8.0-0.35","4","4","4","3","4","4","4","3","4","4","4","5","5","5","5","4","4","4","4","5","1","1","2","2","2","2","2","4","2","1","0","1","0","0","1","0","1","0","1","1","0","1","0","0","5","2","3","2","3","2","1","1","2","3","2","757367705316888578","张","139","","","","","","","","","","","","","","","","","","","","","","","","","","","","","","","","","","","","","","","","","",""
"1044","<p style=""color:white; font-size: 35px;"">低能</p>","i","categorize-html","179","235436","0.0-6.0-0.0-8.0-1.35","4","4","4","3","4","4","4","3","4","4","4","5","5","5","5","4","4","4","4","5","1","1","2","2","2","2","2","4","2","1","0","1","0","0","1","0","1","0","1","1","0","1","0","0","5","2","3","2","3","2","1","1","2","3","2","757367705316888578","张","139","","","","","","","","","","","","","","","","","","","false","4","4","ability","1248.4","negative","低能","","","","","","","","","","","","","","","","",""
"null","","null","html-keyboard-response","180","235688","0.0-6.0-0.0-8.0-0.36","4","4","4","3","4","4","4","3","4","4","4","5","5","5","5","4","4","4","4","5","1","1","2","2","2","2","2","4","2","1","0","1","0","0","1","0","1","0","1","1","0","1","0","0","5","2","3","2","3","2","1","1","2","3","2","757367705316888578","张","139","","","","","","","","","","","","","","","","","","","","","","","","","","","","","","","","","","","","","","","","","",""
"838","<p style=""color:rgb(150, 250, 100); font-size: 35px;"">别人的</p>","i","categorize-html","181","236529","0.0-6.0-0.0-8.0-1.36","4","4","4","3","4","4","4","3","4","4","4","5","5","5","5","4","4","4","4","5","1","1","2","2","2","2","2","4","2","1","0","1","0","0","1","0","1","0","1","1","0","1","0","0","5","2","3","2","3","2","1","1","2","3","2","757367705316888578","张","139","","","","","","","","","","","","","","","","","","","true","4","4","ability","838","other","别人的","","","","","","","","","","","","","","","","",""
"null","","null","html-keyboard-response","182","236781","0.0-6.0-0.0-8.0-0.37","4","4","4","3","4","4","4","3","4","4","4","5","5","5","5","4","4","4","4","5","1","1","2","2","2","2","2","4","2","1","0","1","0","0","1","0","1","0","1","1","0","1","0","0","5","2","3","2","3","2","1","1","2","3","2","757367705316888578","张","139","","","","","","","","","","","","","","","","","","","","","","","","","","","","","","","","","","","","","","","","","",""
"1055","<p style=""color:white; font-size: 35px;"">能干</p>","e","categorize-html","183","238266","0.0-6.0-0.0-8.0-1.37","4","4","4","3","4","4","4","3","4","4","4","5","5","5","5","4","4","4","4","5","1","1","2","2","2","2","2","4","2","1","0","1","0","0","1","0","1","0","1","1","0","1","0","0","5","2","3","2","3","2","1","1","2","3","2","757367705316888578","张","139","","","","","","","","","","","","","","","","","","","false","4","4","ability","1248.4","positive","能干","","","","","","","","","","","","","","","","",""
"null","","null","html-keyboard-response","184","238517","0.0-6.0-0.0-8.0-0.38","4","4","4","3","4","4","4","3","4","4","4","5","5","5","5","4","4","4","4","5","1","1","2","2","2","2","2","4","2","1","0","1","0","0","1","0","1","0","1","1","0","1","0","0","5","2","3","2","3","2","1","1","2","3","2","757367705316888578","张","139","","","","","","","","","","","","","","","","","","","","","","","","","","","","","","","","","","","","","","","","","",""
"739","<p style=""color:rgb(150, 250, 100); font-size: 35px;"">我的</p>","e","categorize-html","185","239259","0.0-6.0-0.0-8.0-1.38","4","4","4","3","4","4","4","3","4","4","4","5","5","5","5","4","4","4","4","5","1","1","2","2","2","2","2","4","2","1","0","1","0","0","1","0","1","0","1","1","0","1","0","0","5","2","3","2","3","2","1","1","2","3","2","757367705316888578","张","139","","","","","","","","","","","","","","","","","","","true","4","4","ability","739","self","我的","","","","","","","","","","","","","","","","",""
"null","","null","html-keyboard-response","186","239511","0.0-6.0-0.0-8.0-0.39","4","4","4","3","4","4","4","3","4","4","4","5","5","5","5","4","4","4","4","5","1","1","2","2","2","2","2","4","2","1","0","1","0","0","1","0","1","0","1","1","0","1","0","0","5","2","3","2","3","2","1","1","2","3","2","757367705316888578","张","139","","","","","","","","","","","","","","","","","","","","","","","","","","","","","","","","","","","","","","","","","",""
"681","<p style=""color:white; font-size: 35px;"">废物</p>","e","categorize-html","187","240196","0.0-6.0-0.0-8.0-1.39","4","4","4","3","4","4","4","3","4","4","4","5","5","5","5","4","4","4","4","5","1","1","2","2","2","2","2","4","2","1","0","1","0","0","1","0","1","0","1","1","0","1","0","0","5","2","3","2","3","2","1","1","2","3","2","757367705316888578","张","139","","","","","","","","","","","","","","","","","","","true","4","4","ability","681","negative","废物","","","","","","","","","","","","","","","","",""
"null","","null","html-keyboard-response","188","240447","0.0-6.0-0.0-8.0-0.40","4","4","4","3","4","4","4","3","4","4","4","5","5","5","5","4","4","4","4","5","1","1","2","2","2","2","2","4","2","1","0","1","0","0","1","0","1","0","1","1","0","1","0","0","5","2","3","2","3","2","1","1","2","3","2","757367705316888578","张","139","","","","","","","","","","","","","","","","","","","","","","","","","","","","","","","","","","","","","","","","","",""
"530","<p style=""color:rgb(150, 250, 100); font-size: 35px;"">本人的</p>","e","categorize-html","189","240980","0.0-6.0-0.0-8.0-1.40","4","4","4","3","4","4","4","3","4","4","4","5","5","5","5","4","4","4","4","5","1","1","2","2","2","2","2","4","2","1","0","1","0","0","1","0","1","0","1","1","0","1","0","0","5","2","3","2","3","2","1","1","2","3","2","757367705316888578","张","139","","","","","","","","","","","","","","","","","","","true","4","4","ability","530","self","本人的","","","","","","","","","","","","","","","","",""
"null","","null","html-keyboard-response","190","241231","0.0-6.0-0.0-8.0-0.41","4","4","4","3","4","4","4","3","4","4","4","5","5","5","5","4","4","4","4","5","1","1","2","2","2","2","2","4","2","1","0","1","0","0","1","0","1","0","1","1","0","1","0","0","5","2","3","2","3","2","1","1","2","3","2","757367705316888578","张","139","","","","","","","","","","","","","","","","","","","","","","","","","","","","","","","","","","","","","","","","","",""
"1285","<p style=""color:white; font-size: 35px;"">全能</p>","i","categorize-html","191","242518","0.0-6.0-0.0-8.0-1.41","4","4","4","3","4","4","4","3","4","4","4","5","5","5","5","4","4","4","4","5","1","1","2","2","2","2","2","4","2","1","0","1","0","0","1","0","1","0","1","1","0","1","0","0","5","2","3","2","3","2","1","1","2","3","2","757367705316888578","张","139","","","","","","","","","","","","","","","","","","","true","4","4","ability","1285","positive","全能","","","","","","","","","","","","","","","","",""
"null","","null","html-keyboard-response","192","242771","0.0-6.0-0.0-8.0-0.42","4","4","4","3","4","4","4","3","4","4","4","5","5","5","5","4","4","4","4","5","1","1","2","2","2","2","2","4","2","1","0","1","0","0","1","0","1","0","1","1","0","1","0","0","5","2","3","2","3","2","1","1","2","3","2","757367705316888578","张","139","","","","","","","","","","","","","","","","","","","","","","","","","","","","","","","","","","","","","","","","","",""
"820","<p style=""color:rgb(150, 250, 100); font-size: 35px;"">他人的</p>","i","categorize-html","193","243593","0.0-6.0-0.0-8.0-1.42","4","4","4","3","4","4","4","3","4","4","4","5","5","5","5","4","4","4","4","5","1","1","2","2","2","2","2","4","2","1","0","1","0","0","1","0","1","0","1","1","0","1","0","0","5","2","3","2","3","2","1","1","2","3","2","757367705316888578","张","139","","","","","","","","","","","","","","","","","","","true","4","4","ability","820","other","他人的","","","","","","","","","","","","","","","","",""
