"rt","stimulus","response","trial_type","trial_index","time_elapsed","internal_node_id","ses_1","ses_2","ses_3","ses_4","ses_5","ses_6","ses_7","ses_8","ses_9","ses_10","coreself_1","coreself_2","coreself_3","coreself_4","coreself_5","coreself_6","coreself_7","coreself_8","coreself_9","coreself_10","SGPS_1","SGPS_2","SGPS_3","SGPS_4","SGPS_5","SGPS_6","SGPS_7","SGPS_8","SGPS_9","NPI1","NPI2","NPI3","NPI4","NPI5","NPI6","NPI7","NPI8","NPI9","NPI10","NPI11","NPI12","NPI13","NPI14","NPI15","hsns_1","hsns_2","hsns_3","hsns_4","hsns_5","trap1","hsns_6","hsns_7","hsns_8","hsns_9","hsns_10","subj_idx","friend_name","ParticipantID","value","success","user_agent","responses","item_order","radio_event_ids","radio_event_times","key_event_times","mouse_event_times","straightlining","zigzagging","honeypot","timeout","failed_images","failed_audio","failed_video","version_attrib2","version_target2","correct","IAT","screen_id","task_id","RT","condition","word","varname","summary","version_attrib","version_target","time_stamp","view_history","response_type","key_press","avg_frame_time","center_x","center_y","correct_response","identity","Image","question_order","correct_answer","trap1_item"
"24048","
   <p><div style = ""color: white;font-size:25px;"">您好，欢迎参加本次实验。</div> </p>
   <p><div style = ""color: white;font-size:25px;"">为充分保障您的权利，请确保您已经知晓并同意《参与实验同意书》以及《数据公开知情同意书》。</div></p>
   <p><div style = ""color: white;font-size:25px;"">如果您未见过上述内容，请咨询实验员。</div></p>
   <p><div style = ""color: white;font-size:25px;"">如果您选择继续实验，则表示您已经清楚两份知情同意书的内容并同意。</div></p>
   <p><div style = ""color: pink;font-size:30px;"">请确保您记得day0的实验编号，您将在本次实验输入该编号，若您忘记，请咨询实验员后作答。</div></p>
   <p><div style = ""color: lightblue;font-size:25px;"">请您尽可能认真地作答，我们将依据您在各问卷和按键任务中的作答质量发放报酬。</div></p>
   <p> <div style = ""color: green;font-size:25px;""><按空格键至下页></div> </p>
   "," ","html-keyboard-response","0","24050","0.0-0.0","3","3","3","3","3","3","3","2","3","3","4","4","2","4","4","4","4","3","4","4","2","3","2","2","2","2","2","2","1","1","1","0","0","0","0","0","1","1","0","1","0","1","0","1","3","2","4","2","3","1","4","4","3","4","2","774615163172294657","s","539","","","","","","","","","","","","","","","","","","","","","","","","","","","","","","","","","","","","","","","","","",""
"","","","call-function","1","24051","0.0-1.0-0.0","3","3","3","3","3","3","3","2","3","3","4","4","2","4","4","4","4","3","4","4","2","3","2","2","2","2","2","2","1","1","1","0","0","0","0","0","1","1","0","1","0","1","0","1","3","2","4","2","3","1","4","4","3","4","2","774615163172294657","s","539","","","","","","","","","","","","","","","","","","","","","","","","","","","","","","","","","","","","","","","","","",""
"65256","","{""friend_name"":""s"",""ParticipantID"":""539""}","survey-html-form","2","89310","0.0-1.0-1.0","3","3","3","3","3","3","3","2","3","3","4","4","2","4","4","4","4","3","4","4","2","3","2","2","2","2","2","2","1","1","1","0","0","0","0","0","1","1","0","1","0","1","0","1","3","2","4","2","3","1","4","4","3","4","2","774615163172294657","s","539","","","","","","","","","","","","","","","","","","","","","","","","","","","","","","","","","","","","","","","","","",""
"","","","fullscreen","3","189447","0.0-2.0","3","3","3","3","3","3","3","2","3","3","4","4","2","4","4","4","4","3","4","4","2","3","2","2","2","2","2","2","1","1","1","0","0","0","0","0","1","1","0","1","0","1","0","1","3","2","4","2","3","1","4","4","3","4","2","774615163172294657","s","539","","true","{}","","","","","","","","","","","","","","","","","","","","","","","","","","","","","","","","","","","","","","",""
"51634.59999990463","","{""Q01"":""3"",""Q02"":""3"",""Q03"":""3"",""Q04"":""3"",""Q05"":""3"",""Q06"":""3"",""Q07"":""3"",""Q08"":""2"",""Q09"":""3"",""Q10"":""3""}","survey-template","4","241082","0.0-3.0","3","3","3","3","3","3","3","2","3","3","4","4","2","4","4","4","4","3","4","4","2","3","2","2","2","2","2","2","1","1","1","0","0","0","0","0","1","1","0","1","0","1","0","1","3","2","4","2","3","1","4","4","3","4","2","774615163172294657","s","539","","","","{""Q01"":""3"",""Q02"":""3"",""Q03"":""3"",""Q04"":""3"",""Q05"":""3"",""Q06"":""3"",""Q07"":""3"",""Q08"":""2"",""Q09"":""3"",""Q10"":""3""}","[0,1,2,3,4,5,6,7,8,9]","[""Q01"",""Q02"",""Q03"",""Q04"",""Q05"",""Q06"",""Q05"",""Q07"",""Q08"",""Q09"",""Q09"",""Q10""]","[8575,11700.200000047684,22866.599999904633,26859.799999952316,30231.599999904633,31693.299999952316,34601.09999990463,38069,42799.299999952316,44199.59999990463,46982.799999952316,48117.59999990463]","[]","[8575,11700.200000047684,22866.599999904633,26859.799999952316,30231.599999904633,31693.299999952316,33327.700000047684,34601.09999990463,38069,42799.299999952316,44199.59999990463,46982.799999952316,48117.59999990463,51633.59999990463]","0.6","0.5555555555555556","0","","","","","","","","","","","","","","","","","","","","","","","","","","","","","",""
"28137.299999952316","","{""Q01"":""4"",""Q02"":""4"",""Q03"":""2"",""Q04"":""4"",""Q05"":""4"",""Q06"":""4"",""Q07"":""4"",""Q08"":""3"",""Q09"":""4"",""Q10"":""4""}","survey-template","5","269223","0.0-4.0","3","3","3","3","3","3","3","2","3","3","4","4","2","4","4","4","4","3","4","4","2","3","2","2","2","2","2","2","1","1","1","0","0","0","0","0","1","1","0","1","0","1","0","1","3","2","4","2","3","1","4","4","3","4","2","774615163172294657","s","539","","","","{""Q01"":""4"",""Q02"":""4"",""Q03"":""2"",""Q04"":""4"",""Q05"":""4"",""Q06"":""4"",""Q07"":""4"",""Q08"":""3"",""Q09"":""4"",""Q10"":""4""}","[0,1,2,3,4,5,6,7,8,9]","[""Q01"",""Q02"",""Q03"",""Q04"",""Q05"",""Q06"",""Q07"",""Q08"",""Q09"",""Q10""]","[6893,10048.700000047684,11712.399999856949,12867,17787.099999904633,19267.799999952316,20898.89999985695,22441,23996.299999952316,25612.200000047684]","[]","[6893,10048.700000047684,11712.399999856949,12867,17787.099999904633,19267.799999952316,20898.89999985695,22441,23996.299999952316,25612.200000047684,28136.299999952316]","0.5","0.2222222222222222","0","","","","","","","","","","","","","","","","","","","","","","","","","","","","","",""
"","","","preload","6","269482","0.0-5.0","3","3","3","3","3","3","3","2","3","3","4","4","2","4","4","4","4","3","4","4","2","3","2","2","2","2","2","2","1","1","1","0","0","0","0","0","1","1","0","1","0","1","0","1","3","2","4","2","3","1","4","4","3","4","2","774615163172294657","s","539","","true","","","","","","","","","","","false","[]","[]","[]","","","","","","","","","","","","","","","","","","","","","","","","","",""
"12857","
    <h3>词语分类任务</h3>
    <p>在接下来的任务中，你需要对一系列词语进行分类。<p/>
    请先熟悉这些词语，这有利于你完成接下来的任务。</p>
    <table align=""center"" border=1 cellpadding=3 cellspacing=0>
    <tr> <th>类别</th> <th>词语</th> </tr>
    <tr> <td>&emsp;积极&emsp;</td> <td>&emsp;高尚、诚信、善良、君子、廉正、正直&emsp;</td> </tr>
    <tr> <td>&emsp;消极&emsp;</td> <td>&emsp;缺德、卑鄙、不孝、不仁、小人、黑心&emsp;</td> </tr>
    <tr> <td>&emsp;自我&emsp;</td> <td>&emsp;我、我的、自己、自己的、本人、本人的&emsp;</td> </tr>
    <tr> <td>&emsp;他人&emsp;</td> <td>&emsp;他、他的、别人、别人的、他人、他人的&emsp;</td> </tr>
    </table><br/>","0","html-button-response","7","282340","0.0-6.0-1.0-0.0","3","3","3","3","3","3","3","2","3","3","4","4","2","4","4","4","4","3","4","4","2","3","2","2","2","2","2","2","1","1","1","0","0","0","0","0","1","1","0","1","0","1","0","1","3","2","4","2","3","1","4","4","3","4","2","774615163172294657","s","539","","","","","","","","","","","","","","","","","2","1","","","","","","","","","","","","","","","","","","","","","","","",""
"21499","
    <div class=""tag-bottom""><p>
    —— 任务1：对“自我”词和“他人”词分类 ——<p/>
    不同词语会出现在屏幕中央，类别标签将始终显示在屏幕上方<p/>   
    <span style=""color:#FFD866""><b>请根据上方标签的提示，尽可能正确并且快速地做出按键反应</b></span><p/>
    当按键错误时屏幕中会出现<span style=""color:red""> X </span>，需要按另一个键纠正才能继续<br/><p/>
    请把双手食指分别放在键盘的“E”键和“I”键上<p/>
    按<空格键>开始
    </p></div>"," ","html-keyboard-response","8","303839","0.0-6.0-1.0-1.0","3","3","3","3","3","3","3","2","3","3","4","4","2","4","4","4","4","3","4","4","2","3","2","2","2","2","2","2","1","1","1","0","0","0","0","0","1","1","0","1","0","1","0","1","3","2","4","2","3","1","4","4","3","4","2","774615163172294657","s","539","","","","","","","","","","","","","","","","","","","","","","","","","","","","","","","","","","","","","","","","","",""
"null","","null","html-keyboard-response","9","304090","0.0-6.0-1.0-2.0-0.0","3","3","3","3","3","3","3","2","3","3","4","4","2","4","4","4","4","3","4","4","2","3","2","2","2","2","2","2","1","1","1","0","0","0","0","0","1","1","0","1","0","1","0","1","3","2","4","2","3","1","4","4","3","4","2","774615163172294657","s","539","","","","","","","","","","","","","","","","","","","","","","","","","","","","","","","","","","","","","","","","","",""
"859","<p style=""color:rgb(150, 250, 100); font-size: 35px;"">别人</p>","i","categorize-html","10","304951","0.0-6.0-1.0-2.0-1.0","3","3","3","3","3","3","3","2","3","3","4","4","2","4","4","4","4","3","4","4","2","3","2","2","2","2","2","2","1","1","1","0","0","0","0","0","1","1","0","1","0","1","0","1","3","2","4","2","3","1","4","4","3","4","2","774615163172294657","s","539","","","","","","","","","","","","","","","","","","","true","11","1","moral","859","other","别人","","","","","","","","","","","","","","","","",""
"null","","null","html-keyboard-response","11","305202","0.0-6.0-1.0-2.0-0.1","3","3","3","3","3","3","3","2","3","3","4","4","2","4","4","4","4","3","4","4","2","3","2","2","2","2","2","2","1","1","1","0","0","0","0","0","1","1","0","1","0","1","0","1","3","2","4","2","3","1","4","4","3","4","2","774615163172294657","s","539","","","","","","","","","","","","","","","","","","","","","","","","","","","","","","","","","","","","","","","","","",""
"463","<p style=""color:rgb(150, 250, 100); font-size: 35px;"">别人的</p>","i","categorize-html","12","305666","0.0-6.0-1.0-2.0-1.1","3","3","3","3","3","3","3","2","3","3","4","4","2","4","4","4","4","3","4","4","2","3","2","2","2","2","2","2","1","1","1","0","0","0","0","0","1","1","0","1","0","1","0","1","3","2","4","2","3","1","4","4","3","4","2","774615163172294657","s","539","","","","","","","","","","","","","","","","","","","true","11","1","moral","463","other","别人的","","","","","","","","","","","","","","","","",""
"null","","null","html-keyboard-response","13","305922","0.0-6.0-1.0-2.0-0.2","3","3","3","3","3","3","3","2","3","3","4","4","2","4","4","4","4","3","4","4","2","3","2","2","2","2","2","2","1","1","1","0","0","0","0","0","1","1","0","1","0","1","0","1","3","2","4","2","3","1","4","4","3","4","2","774615163172294657","s","539","","","","","","","","","","","","","","","","","","","","","","","","","","","","","","","","","","","","","","","","","",""
"416","<p style=""color:rgb(150, 250, 100); font-size: 35px;"">他人</p>","i","categorize-html","14","306339","0.0-6.0-1.0-2.0-1.2","3","3","3","3","3","3","3","2","3","3","4","4","2","4","4","4","4","3","4","4","2","3","2","2","2","2","2","2","1","1","1","0","0","0","0","0","1","1","0","1","0","1","0","1","3","2","4","2","3","1","4","4","3","4","2","774615163172294657","s","539","","","","","","","","","","","","","","","","","","","true","11","1","moral","416","other","他人","","","","","","","","","","","","","","","","",""
"null","","null","html-keyboard-response","15","306591","0.0-6.0-1.0-2.0-0.3","3","3","3","3","3","3","3","2","3","3","4","4","2","4","4","4","4","3","4","4","2","3","2","2","2","2","2","2","1","1","1","0","0","0","0","0","1","1","0","1","0","1","0","1","3","2","4","2","3","1","4","4","3","4","2","774615163172294657","s","539","","","","","","","","","","","","","","","","","","","","","","","","","","","","","","","","","","","","","","","","","",""
"358","<p style=""color:rgb(150, 250, 100); font-size: 35px;"">本人</p>","i","categorize-html","16","307793","0.0-6.0-1.0-2.0-1.3","3","3","3","3","3","3","3","2","3","3","4","4","2","4","4","4","4","3","4","4","2","3","2","2","2","2","2","2","1","1","1","0","0","0","0","0","1","1","0","1","0","1","0","1","3","2","4","2","3","1","4","4","3","4","2","774615163172294657","s","539","","","","","","","","","","","","","","","","","","","false","11","1","moral","358","self","本人","","","","","","","","","","","","","","","","",""
"null","","null","html-keyboard-response","17","308044","0.0-6.0-1.0-2.0-0.4","3","3","3","3","3","3","3","2","3","3","4","4","2","4","4","4","4","3","4","4","2","3","2","2","2","2","2","2","1","1","1","0","0","0","0","0","1","1","0","1","0","1","0","1","3","2","4","2","3","1","4","4","3","4","2","774615163172294657","s","539","","","","","","","","","","","","","","","","","","","","","","","","","","","","","","","","","","","","","","","","","",""
"561","<p style=""color:rgb(150, 250, 100); font-size: 35px;"">他</p>","i","categorize-html","18","308606","0.0-6.0-1.0-2.0-1.4","3","3","3","3","3","3","3","2","3","3","4","4","2","4","4","4","4","3","4","4","2","3","2","2","2","2","2","2","1","1","1","0","0","0","0","0","1","1","0","1","0","1","0","1","3","2","4","2","3","1","4","4","3","4","2","774615163172294657","s","539","","","","","","","","","","","","","","","","","","","true","11","1","moral","561","other","他","","","","","","","","","","","","","","","","",""
"null","","null","html-keyboard-response","19","308857","0.0-6.0-1.0-2.0-0.5","3","3","3","3","3","3","3","2","3","3","4","4","2","4","4","4","4","3","4","4","2","3","2","2","2","2","2","2","1","1","1","0","0","0","0","0","1","1","0","1","0","1","0","1","3","2","4","2","3","1","4","4","3","4","2","774615163172294657","s","539","","","","","","","","","","","","","","","","","","","","","","","","","","","","","","","","","","","","","","","","","",""
"381","<p style=""color:rgb(150, 250, 100); font-size: 35px;"">本人的</p>","e","categorize-html","20","309239","0.0-6.0-1.0-2.0-1.5","3","3","3","3","3","3","3","2","3","3","4","4","2","4","4","4","4","3","4","4","2","3","2","2","2","2","2","2","1","1","1","0","0","0","0","0","1","1","0","1","0","1","0","1","3","2","4","2","3","1","4","4","3","4","2","774615163172294657","s","539","","","","","","","","","","","","","","","","","","","true","11","1","moral","381","self","本人的","","","","","","","","","","","","","","","","",""
"null","","null","html-keyboard-response","21","309491","0.0-6.0-1.0-2.0-0.6","3","3","3","3","3","3","3","2","3","3","4","4","2","4","4","4","4","3","4","4","2","3","2","2","2","2","2","2","1","1","1","0","0","0","0","0","1","1","0","1","0","1","0","1","3","2","4","2","3","1","4","4","3","4","2","774615163172294657","s","539","","","","","","","","","","","","","","","","","","","","","","","","","","","","","","","","","","","","","","","","","",""
"375","<p style=""color:rgb(150, 250, 100); font-size: 35px;"">我</p>","e","categorize-html","22","309867","0.0-6.0-1.0-2.0-1.6","3","3","3","3","3","3","3","2","3","3","4","4","2","4","4","4","4","3","4","4","2","3","2","2","2","2","2","2","1","1","1","0","0","0","0","0","1","1","0","1","0","1","0","1","3","2","4","2","3","1","4","4","3","4","2","774615163172294657","s","539","","","","","","","","","","","","","","","","","","","true","11","1","moral","375","self","我","","","","","","","","","","","","","","","","",""
"null","","null","html-keyboard-response","23","310118","0.0-6.0-1.0-2.0-0.7","3","3","3","3","3","3","3","2","3","3","4","4","2","4","4","4","4","3","4","4","2","3","2","2","2","2","2","2","1","1","1","0","0","0","0","0","1","1","0","1","0","1","0","1","3","2","4","2","3","1","4","4","3","4","2","774615163172294657","s","539","","","","","","","","","","","","","","","","","","","","","","","","","","","","","","","","","","","","","","","","","",""
"499","<p style=""color:rgb(150, 250, 100); font-size: 35px;"">他人的</p>","i","categorize-html","24","310618","0.0-6.0-1.0-2.0-1.7","3","3","3","3","3","3","3","2","3","3","4","4","2","4","4","4","4","3","4","4","2","3","2","2","2","2","2","2","1","1","1","0","0","0","0","0","1","1","0","1","0","1","0","1","3","2","4","2","3","1","4","4","3","4","2","774615163172294657","s","539","","","","","","","","","","","","","","","","","","","true","11","1","moral","499","other","他人的","","","","","","","","","","","","","","","","",""
"null","","null","html-keyboard-response","25","310868","0.0-6.0-1.0-2.0-0.8","3","3","3","3","3","3","3","2","3","3","4","4","2","4","4","4","4","3","4","4","2","3","2","2","2","2","2","2","1","1","1","0","0","0","0","0","1","1","0","1","0","1","0","1","3","2","4","2","3","1","4","4","3","4","2","774615163172294657","s","539","","","","","","","","","","","","","","","","","","","","","","","","","","","","","","","","","","","","","","","","","",""
"451","<p style=""color:rgb(150, 250, 100); font-size: 35px;"">自己的</p>","e","categorize-html","26","311320","0.0-6.0-1.0-2.0-1.8","3","3","3","3","3","3","3","2","3","3","4","4","2","4","4","4","4","3","4","4","2","3","2","2","2","2","2","2","1","1","1","0","0","0","0","0","1","1","0","1","0","1","0","1","3","2","4","2","3","1","4","4","3","4","2","774615163172294657","s","539","","","","","","","","","","","","","","","","","","","true","11","1","moral","451","self","自己的","","","","","","","","","","","","","","","","",""
"null","","null","html-keyboard-response","27","311571","0.0-6.0-1.0-2.0-0.9","3","3","3","3","3","3","3","2","3","3","4","4","2","4","4","4","4","3","4","4","2","3","2","2","2","2","2","2","1","1","1","0","0","0","0","0","1","1","0","1","0","1","0","1","3","2","4","2","3","1","4","4","3","4","2","774615163172294657","s","539","","","","","","","","","","","","","","","","","","","","","","","","","","","","","","","","","","","","","","","","","",""
"558","<p style=""color:rgb(150, 250, 100); font-size: 35px;"">他的</p>","i","categorize-html","28","312129","0.0-6.0-1.0-2.0-1.9","3","3","3","3","3","3","3","2","3","3","4","4","2","4","4","4","4","3","4","4","2","3","2","2","2","2","2","2","1","1","1","0","0","0","0","0","1","1","0","1","0","1","0","1","3","2","4","2","3","1","4","4","3","4","2","774615163172294657","s","539","","","","","","","","","","","","","","","","","","","true","11","1","moral","558","other","他的","","","","","","","","","","","","","","","","",""
"null","","null","html-keyboard-response","29","312380","0.0-6.0-1.0-2.0-0.10","3","3","3","3","3","3","3","2","3","3","4","4","2","4","4","4","4","3","4","4","2","3","2","2","2","2","2","2","1","1","1","0","0","0","0","0","1","1","0","1","0","1","0","1","3","2","4","2","3","1","4","4","3","4","2","774615163172294657","s","539","","","","","","","","","","","","","","","","","","","","","","","","","","","","","","","","","","","","","","","","","",""
"489","<p style=""color:rgb(150, 250, 100); font-size: 35px;"">我的</p>","e","categorize-html","30","312870","0.0-6.0-1.0-2.0-1.10","3","3","3","3","3","3","3","2","3","3","4","4","2","4","4","4","4","3","4","4","2","3","2","2","2","2","2","2","1","1","1","0","0","0","0","0","1","1","0","1","0","1","0","1","3","2","4","2","3","1","4","4","3","4","2","774615163172294657","s","539","","","","","","","","","","","","","","","","","","","true","11","1","moral","489","self","我的","","","","","","","","","","","","","","","","",""
"null","","null","html-keyboard-response","31","313122","0.0-6.0-1.0-2.0-0.11","3","3","3","3","3","3","3","2","3","3","4","4","2","4","4","4","4","3","4","4","2","3","2","2","2","2","2","2","1","1","1","0","0","0","0","0","1","1","0","1","0","1","0","1","3","2","4","2","3","1","4","4","3","4","2","774615163172294657","s","539","","","","","","","","","","","","","","","","","","","","","","","","","","","","","","","","","","","","","","","","","",""
"467","<p style=""color:rgb(150, 250, 100); font-size: 35px;"">自己</p>","e","categorize-html","32","313590","0.0-6.0-1.0-2.0-1.11","3","3","3","3","3","3","3","2","3","3","4","4","2","4","4","4","4","3","4","4","2","3","2","2","2","2","2","2","1","1","1","0","0","0","0","0","1","1","0","1","0","1","0","1","3","2","4","2","3","1","4","4","3","4","2","774615163172294657","s","539","","","","","","","","","","","","","","","","","","","true","11","1","moral","467","self","自己","","","","","","","","","","","","","","","","",""
"10155","
    <div class=""tag-bottom""><p>
    —— 任务2：对“消极”词和“积极”词分类 ——<p/>   
    <span style=""color:#78DCE8""><b>注意上方，类别标签和需要分类的词语都已经改变</b></span><p/>
    <span style=""color:#FFD866""><b>请根据上方标签的提示，尽可能正确并且快速地做出按键反应</b></span><p/>
    当按键错误时屏幕中会出现<span style=""color:red""> X </span>，需要按另一个键纠正才能继续<br/><p/>
    请把双手食指分别放在键盘的“E”键和“I”键上<p/>
    按<空格键>开始
    </p></div>"," ","html-keyboard-response","33","323745","0.0-6.0-1.0-3.0","3","3","3","3","3","3","3","2","3","3","4","4","2","4","4","4","4","3","4","4","2","3","2","2","2","2","2","2","1","1","1","0","0","0","0","0","1","1","0","1","0","1","0","1","3","2","4","2","3","1","4","4","3","4","2","774615163172294657","s","539","","","","","","","","","","","","","","","","","","","","","","","","","","","","","","","","","","","","","","","","","",""
"null","","null","html-keyboard-response","34","323997","0.0-6.0-1.0-4.0-0.0","3","3","3","3","3","3","3","2","3","3","4","4","2","4","4","4","4","3","4","4","2","3","2","2","2","2","2","2","1","1","1","0","0","0","0","0","1","1","0","1","0","1","0","1","3","2","4","2","3","1","4","4","3","4","2","774615163172294657","s","539","","","","","","","","","","","","","","","","","","","","","","","","","","","","","","","","","","","","","","","","","",""
"1336","<p style=""color:white; font-size: 35px;"">高尚</p>","i","categorize-html","35","325334","0.0-6.0-1.0-4.0-1.0","3","3","3","3","3","3","3","2","3","3","4","4","2","4","4","4","4","3","4","4","2","3","2","2","2","2","2","2","1","1","1","0","0","0","0","0","1","1","0","1","0","1","0","1","3","2","4","2","3","1","4","4","3","4","2","774615163172294657","s","539","","","","","","","","","","","","","","","","","","","true","12","2","moral","1336","positive","高尚","","","","","","","","","","","","","","","","",""
"null","","null","html-keyboard-response","36","325586","0.0-6.0-1.0-4.0-0.1","3","3","3","3","3","3","3","2","3","3","4","4","2","4","4","4","4","3","4","4","2","3","2","2","2","2","2","2","1","1","1","0","0","0","0","0","1","1","0","1","0","1","0","1","3","2","4","2","3","1","4","4","3","4","2","774615163172294657","s","539","","","","","","","","","","","","","","","","","","","","","","","","","","","","","","","","","","","","","","","","","",""
"571","<p style=""color:white; font-size: 35px;"">廉正</p>","i","categorize-html","37","326157","0.0-6.0-1.0-4.0-1.1","3","3","3","3","3","3","3","2","3","3","4","4","2","4","4","4","4","3","4","4","2","3","2","2","2","2","2","2","1","1","1","0","0","0","0","0","1","1","0","1","0","1","0","1","3","2","4","2","3","1","4","4","3","4","2","774615163172294657","s","539","","","","","","","","","","","","","","","","","","","true","12","2","moral","571","positive","廉正","","","","","","","","","","","","","","","","",""
"null","","null","html-keyboard-response","38","326408","0.0-6.0-1.0-4.0-0.2","3","3","3","3","3","3","3","2","3","3","4","4","2","4","4","4","4","3","4","4","2","3","2","2","2","2","2","2","1","1","1","0","0","0","0","0","1","1","0","1","0","1","0","1","3","2","4","2","3","1","4","4","3","4","2","774615163172294657","s","539","","","","","","","","","","","","","","","","","","","","","","","","","","","","","","","","","","","","","","","","","",""
"565","<p style=""color:white; font-size: 35px;"">君子</p>","i","categorize-html","39","326974","0.0-6.0-1.0-4.0-1.2","3","3","3","3","3","3","3","2","3","3","4","4","2","4","4","4","4","3","4","4","2","3","2","2","2","2","2","2","1","1","1","0","0","0","0","0","1","1","0","1","0","1","0","1","3","2","4","2","3","1","4","4","3","4","2","774615163172294657","s","539","","","","","","","","","","","","","","","","","","","true","12","2","moral","565","positive","君子","","","","","","","","","","","","","","","","",""
"null","","null","html-keyboard-response","40","327226","0.0-6.0-1.0-4.0-0.3","3","3","3","3","3","3","3","2","3","3","4","4","2","4","4","4","4","3","4","4","2","3","2","2","2","2","2","2","1","1","1","0","0","0","0","0","1","1","0","1","0","1","0","1","3","2","4","2","3","1","4","4","3","4","2","774615163172294657","s","539","","","","","","","","","","","","","","","","","","","","","","","","","","","","","","","","","","","","","","","","","",""
"481","<p style=""color:white; font-size: 35px;"">卑鄙</p>","e","categorize-html","41","327707","0.0-6.0-1.0-4.0-1.3","3","3","3","3","3","3","3","2","3","3","4","4","2","4","4","4","4","3","4","4","2","3","2","2","2","2","2","2","1","1","1","0","0","0","0","0","1","1","0","1","0","1","0","1","3","2","4","2","3","1","4","4","3","4","2","774615163172294657","s","539","","","","","","","","","","","","","","","","","","","true","12","2","moral","481","negative","卑鄙","","","","","","","","","","","","","","","","",""
"null","","null","html-keyboard-response","42","327958","0.0-6.0-1.0-4.0-0.4","3","3","3","3","3","3","3","2","3","3","4","4","2","4","4","4","4","3","4","4","2","3","2","2","2","2","2","2","1","1","1","0","0","0","0","0","1","1","0","1","0","1","0","1","3","2","4","2","3","1","4","4","3","4","2","774615163172294657","s","539","","","","","","","","","","","","","","","","","","","","","","","","","","","","","","","","","","","","","","","","","",""
"536","<p style=""color:white; font-size: 35px;"">不仁</p>","e","categorize-html","43","328496","0.0-6.0-1.0-4.0-1.4","3","3","3","3","3","3","3","2","3","3","4","4","2","4","4","4","4","3","4","4","2","3","2","2","2","2","2","2","1","1","1","0","0","0","0","0","1","1","0","1","0","1","0","1","3","2","4","2","3","1","4","4","3","4","2","774615163172294657","s","539","","","","","","","","","","","","","","","","","","","true","12","2","moral","536","negative","不仁","","","","","","","","","","","","","","","","",""
"null","","null","html-keyboard-response","44","328746","0.0-6.0-1.0-4.0-0.5","3","3","3","3","3","3","3","2","3","3","4","4","2","4","4","4","4","3","4","4","2","3","2","2","2","2","2","2","1","1","1","0","0","0","0","0","1","1","0","1","0","1","0","1","3","2","4","2","3","1","4","4","3","4","2","774615163172294657","s","539","","","","","","","","","","","","","","","","","","","","","","","","","","","","","","","","","","","","","","","","","",""
"516","<p style=""color:white; font-size: 35px;"">小人</p>","e","categorize-html","45","329264","0.0-6.0-1.0-4.0-1.5","3","3","3","3","3","3","3","2","3","3","4","4","2","4","4","4","4","3","4","4","2","3","2","2","2","2","2","2","1","1","1","0","0","0","0","0","1","1","0","1","0","1","0","1","3","2","4","2","3","1","4","4","3","4","2","774615163172294657","s","539","","","","","","","","","","","","","","","","","","","true","12","2","moral","516","negative","小人","","","","","","","","","","","","","","","","",""
"null","","null","html-keyboard-response","46","329515","0.0-6.0-1.0-4.0-0.6","3","3","3","3","3","3","3","2","3","3","4","4","2","4","4","4","4","3","4","4","2","3","2","2","2","2","2","2","1","1","1","0","0","0","0","0","1","1","0","1","0","1","0","1","3","2","4","2","3","1","4","4","3","4","2","774615163172294657","s","539","","","","","","","","","","","","","","","","","","","","","","","","","","","","","","","","","","","","","","","","","",""
"566","<p style=""color:white; font-size: 35px;"">诚信</p>","i","categorize-html","47","330081","0.0-6.0-1.0-4.0-1.6","3","3","3","3","3","3","3","2","3","3","4","4","2","4","4","4","4","3","4","4","2","3","2","2","2","2","2","2","1","1","1","0","0","0","0","0","1","1","0","1","0","1","0","1","3","2","4","2","3","1","4","4","3","4","2","774615163172294657","s","539","","","","","","","","","","","","","","","","","","","true","12","2","moral","566","positive","诚信","","","","","","","","","","","","","","","","",""
"null","","null","html-keyboard-response","48","330334","0.0-6.0-1.0-4.0-0.7","3","3","3","3","3","3","3","2","3","3","4","4","2","4","4","4","4","3","4","4","2","3","2","2","2","2","2","2","1","1","1","0","0","0","0","0","1","1","0","1","0","1","0","1","3","2","4","2","3","1","4","4","3","4","2","774615163172294657","s","539","","","","","","","","","","","","","","","","","","","","","","","","","","","","","","","","","","","","","","","","","",""
"826","<p style=""color:white; font-size: 35px;"">黑心</p>","e","categorize-html","49","331160","0.0-6.0-1.0-4.0-1.7","3","3","3","3","3","3","3","2","3","3","4","4","2","4","4","4","4","3","4","4","2","3","2","2","2","2","2","2","1","1","1","0","0","0","0","0","1","1","0","1","0","1","0","1","3","2","4","2","3","1","4","4","3","4","2","774615163172294657","s","539","","","","","","","","","","","","","","","","","","","true","12","2","moral","826","negative","黑心","","","","","","","","","","","","","","","","",""
"null","","null","html-keyboard-response","50","331412","0.0-6.0-1.0-4.0-0.8","3","3","3","3","3","3","3","2","3","3","4","4","2","4","4","4","4","3","4","4","2","3","2","2","2","2","2","2","1","1","1","0","0","0","0","0","1","1","0","1","0","1","0","1","3","2","4","2","3","1","4","4","3","4","2","774615163172294657","s","539","","","","","","","","","","","","","","","","","","","","","","","","","","","","","","","","","","","","","","","","","",""
"629","<p style=""color:white; font-size: 35px;"">不孝</p>","e","categorize-html","51","332042","0.0-6.0-1.0-4.0-1.8","3","3","3","3","3","3","3","2","3","3","4","4","2","4","4","4","4","3","4","4","2","3","2","2","2","2","2","2","1","1","1","0","0","0","0","0","1","1","0","1","0","1","0","1","3","2","4","2","3","1","4","4","3","4","2","774615163172294657","s","539","","","","","","","","","","","","","","","","","","","true","12","2","moral","629","negative","不孝","","","","","","","","","","","","","","","","",""
"null","","null","html-keyboard-response","52","332293","0.0-6.0-1.0-4.0-0.9","3","3","3","3","3","3","3","2","3","3","4","4","2","4","4","4","4","3","4","4","2","3","2","2","2","2","2","2","1","1","1","0","0","0","0","0","1","1","0","1","0","1","0","1","3","2","4","2","3","1","4","4","3","4","2","774615163172294657","s","539","","","","","","","","","","","","","","","","","","","","","","","","","","","","","","","","","","","","","","","","","",""
"461","<p style=""color:white; font-size: 35px;"">善良</p>","i","categorize-html","53","332756","0.0-6.0-1.0-4.0-1.9","3","3","3","3","3","3","3","2","3","3","4","4","2","4","4","4","4","3","4","4","2","3","2","2","2","2","2","2","1","1","1","0","0","0","0","0","1","1","0","1","0","1","0","1","3","2","4","2","3","1","4","4","3","4","2","774615163172294657","s","539","","","","","","","","","","","","","","","","","","","true","12","2","moral","461","positive","善良","","","","","","","","","","","","","","","","",""
"null","","null","html-keyboard-response","54","333007","0.0-6.0-1.0-4.0-0.10","3","3","3","3","3","3","3","2","3","3","4","4","2","4","4","4","4","3","4","4","2","3","2","2","2","2","2","2","1","1","1","0","0","0","0","0","1","1","0","1","0","1","0","1","3","2","4","2","3","1","4","4","3","4","2","774615163172294657","s","539","","","","","","","","","","","","","","","","","","","","","","","","","","","","","","","","","","","","","","","","","",""
"708","<p style=""color:white; font-size: 35px;"">缺德</p>","e","categorize-html","55","333715","0.0-6.0-1.0-4.0-1.10","3","3","3","3","3","3","3","2","3","3","4","4","2","4","4","4","4","3","4","4","2","3","2","2","2","2","2","2","1","1","1","0","0","0","0","0","1","1","0","1","0","1","0","1","3","2","4","2","3","1","4","4","3","4","2","774615163172294657","s","539","","","","","","","","","","","","","","","","","","","true","12","2","moral","708","negative","缺德","","","","","","","","","","","","","","","","",""
"null","","null","html-keyboard-response","56","333966","0.0-6.0-1.0-4.0-0.11","3","3","3","3","3","3","3","2","3","3","4","4","2","4","4","4","4","3","4","4","2","3","2","2","2","2","2","2","1","1","1","0","0","0","0","0","1","1","0","1","0","1","0","1","3","2","4","2","3","1","4","4","3","4","2","774615163172294657","s","539","","","","","","","","","","","","","","","","","","","","","","","","","","","","","","","","","","","","","","","","","",""
"652","<p style=""color:white; font-size: 35px;"">正直</p>","i","categorize-html","57","334619","0.0-6.0-1.0-4.0-1.11","3","3","3","3","3","3","3","2","3","3","4","4","2","4","4","4","4","3","4","4","2","3","2","2","2","2","2","2","1","1","1","0","0","0","0","0","1","1","0","1","0","1","0","1","3","2","4","2","3","1","4","4","3","4","2","774615163172294657","s","539","","","","","","","","","","","","","","","","","","","true","12","2","moral","652","positive","正直","","","","","","","","","","","","","","","","",""
"5614","
    <div class=""tag-bottom""><p>
    —— 任务3：对“自我/消极”词和“他人/积极”词分类 ——<p/>
    <span style=""color:#78DCE8""><b>注意上方，之前的四类词语将混合在一起交替呈现</b></span><p/>
    <span style=""color:#FFD866""><b>请根据上方标签的提示，尽可能正确并且快速地做出按键反应</b></span><p/>
    当按键错误时屏幕中会出现<span style=""color:red""> X </span>，需要按另一个键纠正才能继续<br/><p/>
    请把双手食指分别放在键盘的“E”键和“I”键上<p/>
    按<空格键>开始
    </p></div>"," ","html-keyboard-response","58","340233","0.0-6.0-1.0-5.0","3","3","3","3","3","3","3","2","3","3","4","4","2","4","4","4","4","3","4","4","2","3","2","2","2","2","2","2","1","1","1","0","0","0","0","0","1","1","0","1","0","1","0","1","3","2","4","2","3","1","4","4","3","4","2","774615163172294657","s","539","","","","","","","","","","","","","","","","","","","","","","","","","","","","","","","","","","","","","","","","","",""
"null","","null","html-keyboard-response","59","340485","0.0-6.0-1.0-6.0-0.0","3","3","3","3","3","3","3","2","3","3","4","4","2","4","4","4","4","3","4","4","2","3","2","2","2","2","2","2","1","1","1","0","0","0","0","0","1","1","0","1","0","1","0","1","3","2","4","2","3","1","4","4","3","4","2","774615163172294657","s","539","","","","","","","","","","","","","","","","","","","","","","","","","","","","","","","","","","","","","","","","","",""
"967","<p style=""color:rgb(150, 250, 100); font-size: 35px;"">自己</p>","e","categorize-html","60","341453","0.0-6.0-1.0-6.0-1.0","3","3","3","3","3","3","3","2","3","3","4","4","2","4","4","4","4","3","4","4","2","3","2","2","2","2","2","2","1","1","1","0","0","0","0","0","1","1","0","1","0","1","0","1","3","2","4","2","3","1","4","4","3","4","2","774615163172294657","s","539","","","","","","","","","","","","","","","","","","","true","13","3","moral","967","self","自己","","","","","","","","","","","","","","","","",""
"null","","null","html-keyboard-response","61","341705","0.0-6.0-1.0-6.0-0.1","3","3","3","3","3","3","3","2","3","3","4","4","2","4","4","4","4","3","4","4","2","3","2","2","2","2","2","2","1","1","1","0","0","0","0","0","1","1","0","1","0","1","0","1","3","2","4","2","3","1","4","4","3","4","2","774615163172294657","s","539","","","","","","","","","","","","","","","","","","","","","","","","","","","","","","","","","","","","","","","","","",""
"724","<p style=""color:white; font-size: 35px;"">诚信</p>","i","categorize-html","62","342429","0.0-6.0-1.0-6.0-1.1","3","3","3","3","3","3","3","2","3","3","4","4","2","4","4","4","4","3","4","4","2","3","2","2","2","2","2","2","1","1","1","0","0","0","0","0","1","1","0","1","0","1","0","1","3","2","4","2","3","1","4","4","3","4","2","774615163172294657","s","539","","","","","","","","","","","","","","","","","","","true","13","3","moral","724","positive","诚信","","","","","","","","","","","","","","","","",""
"null","","null","html-keyboard-response","63","342681","0.0-6.0-1.0-6.0-0.2","3","3","3","3","3","3","3","2","3","3","4","4","2","4","4","4","4","3","4","4","2","3","2","2","2","2","2","2","1","1","1","0","0","0","0","0","1","1","0","1","0","1","0","1","3","2","4","2","3","1","4","4","3","4","2","774615163172294657","s","539","","","","","","","","","","","","","","","","","","","","","","","","","","","","","","","","","","","","","","","","","",""
"695","<p style=""color:rgb(150, 250, 100); font-size: 35px;"">他的</p>","i","categorize-html","64","343376","0.0-6.0-1.0-6.0-1.2","3","3","3","3","3","3","3","2","3","3","4","4","2","4","4","4","4","3","4","4","2","3","2","2","2","2","2","2","1","1","1","0","0","0","0","0","1","1","0","1","0","1","0","1","3","2","4","2","3","1","4","4","3","4","2","774615163172294657","s","539","","","","","","","","","","","","","","","","","","","true","13","3","moral","695","other","他的","","","","","","","","","","","","","","","","",""
"null","","null","html-keyboard-response","65","343627","0.0-6.0-1.0-6.0-0.3","3","3","3","3","3","3","3","2","3","3","4","4","2","4","4","4","4","3","4","4","2","3","2","2","2","2","2","2","1","1","1","0","0","0","0","0","1","1","0","1","0","1","0","1","3","2","4","2","3","1","4","4","3","4","2","774615163172294657","s","539","","","","","","","","","","","","","","","","","","","","","","","","","","","","","","","","","","","","","","","","","",""
"582","<p style=""color:white; font-size: 35px;"">不孝</p>","e","categorize-html","66","344211","0.0-6.0-1.0-6.0-1.3","3","3","3","3","3","3","3","2","3","3","4","4","2","4","4","4","4","3","4","4","2","3","2","2","2","2","2","2","1","1","1","0","0","0","0","0","1","1","0","1","0","1","0","1","3","2","4","2","3","1","4","4","3","4","2","774615163172294657","s","539","","","","","","","","","","","","","","","","","","","true","13","3","moral","582","negative","不孝","","","","","","","","","","","","","","","","",""
"null","","null","html-keyboard-response","67","344462","0.0-6.0-1.0-6.0-0.4","3","3","3","3","3","3","3","2","3","3","4","4","2","4","4","4","4","3","4","4","2","3","2","2","2","2","2","2","1","1","1","0","0","0","0","0","1","1","0","1","0","1","0","1","3","2","4","2","3","1","4","4","3","4","2","774615163172294657","s","539","","","","","","","","","","","","","","","","","","","","","","","","","","","","","","","","","","","","","","","","","",""
"657","<p style=""color:rgb(150, 250, 100); font-size: 35px;"">别人的</p>","i","categorize-html","68","345119","0.0-6.0-1.0-6.0-1.4","3","3","3","3","3","3","3","2","3","3","4","4","2","4","4","4","4","3","4","4","2","3","2","2","2","2","2","2","1","1","1","0","0","0","0","0","1","1","0","1","0","1","0","1","3","2","4","2","3","1","4","4","3","4","2","774615163172294657","s","539","","","","","","","","","","","","","","","","","","","true","13","3","moral","657","other","别人的","","","","","","","","","","","","","","","","",""
"null","","null","html-keyboard-response","69","345370","0.0-6.0-1.0-6.0-0.5","3","3","3","3","3","3","3","2","3","3","4","4","2","4","4","4","4","3","4","4","2","3","2","2","2","2","2","2","1","1","1","0","0","0","0","0","1","1","0","1","0","1","0","1","3","2","4","2","3","1","4","4","3","4","2","774615163172294657","s","539","","","","","","","","","","","","","","","","","","","","","","","","","","","","","","","","","","","","","","","","","",""
"2372","<p style=""color:white; font-size: 35px;"">不仁</p>","e","categorize-html","70","347743","0.0-6.0-1.0-6.0-1.5","3","3","3","3","3","3","3","2","3","3","4","4","2","4","4","4","4","3","4","4","2","3","2","2","2","2","2","2","1","1","1","0","0","0","0","0","1","1","0","1","0","1","0","1","3","2","4","2","3","1","4","4","3","4","2","774615163172294657","s","539","","","","","","","","","","","","","","","","","","","true","13","3","moral","2372","negative","不仁","","","","","","","","","","","","","","","","",""
"null","","null","html-keyboard-response","71","348005","0.0-6.0-1.0-6.0-0.6","3","3","3","3","3","3","3","2","3","3","4","4","2","4","4","4","4","3","4","4","2","3","2","2","2","2","2","2","1","1","1","0","0","0","0","0","1","1","0","1","0","1","0","1","3","2","4","2","3","1","4","4","3","4","2","774615163172294657","s","539","","","","","","","","","","","","","","","","","","","","","","","","","","","","","","","","","","","","","","","","","",""
"1110","<p style=""color:rgb(150, 250, 100); font-size: 35px;"">自己的</p>","e","categorize-html","72","349116","0.0-6.0-1.0-6.0-1.6","3","3","3","3","3","3","3","2","3","3","4","4","2","4","4","4","4","3","4","4","2","3","2","2","2","2","2","2","1","1","1","0","0","0","0","0","1","1","0","1","0","1","0","1","3","2","4","2","3","1","4","4","3","4","2","774615163172294657","s","539","","","","","","","","","","","","","","","","","","","true","13","3","moral","1110","self","自己的","","","","","","","","","","","","","","","","",""
"null","","null","html-keyboard-response","73","349367","0.0-6.0-1.0-6.0-0.7","3","3","3","3","3","3","3","2","3","3","4","4","2","4","4","4","4","3","4","4","2","3","2","2","2","2","2","2","1","1","1","0","0","0","0","0","1","1","0","1","0","1","0","1","3","2","4","2","3","1","4","4","3","4","2","774615163172294657","s","539","","","","","","","","","","","","","","","","","","","","","","","","","","","","","","","","","","","","","","","","","",""
"1804","<p style=""color:white; font-size: 35px;"">君子</p>","i","categorize-html","74","351172","0.0-6.0-1.0-6.0-1.7","3","3","3","3","3","3","3","2","3","3","4","4","2","4","4","4","4","3","4","4","2","3","2","2","2","2","2","2","1","1","1","0","0","0","0","0","1","1","0","1","0","1","0","1","3","2","4","2","3","1","4","4","3","4","2","774615163172294657","s","539","","","","","","","","","","","","","","","","","","","true","13","3","moral","1804","positive","君子","","","","","","","","","","","","","","","","",""
"null","","null","html-keyboard-response","75","351424","0.0-6.0-1.0-6.0-0.8","3","3","3","3","3","3","3","2","3","3","4","4","2","4","4","4","4","3","4","4","2","3","2","2","2","2","2","2","1","1","1","0","0","0","0","0","1","1","0","1","0","1","0","1","3","2","4","2","3","1","4","4","3","4","2","774615163172294657","s","539","","","","","","","","","","","","","","","","","","","","","","","","","","","","","","","","","","","","","","","","","",""
"771","<p style=""color:rgb(150, 250, 100); font-size: 35px;"">本人的</p>","e","categorize-html","76","352196","0.0-6.0-1.0-6.0-1.8","3","3","3","3","3","3","3","2","3","3","4","4","2","4","4","4","4","3","4","4","2","3","2","2","2","2","2","2","1","1","1","0","0","0","0","0","1","1","0","1","0","1","0","1","3","2","4","2","3","1","4","4","3","4","2","774615163172294657","s","539","","","","","","","","","","","","","","","","","","","true","13","3","moral","771","self","本人的","","","","","","","","","","","","","","","","",""
"null","","null","html-keyboard-response","77","352447","0.0-6.0-1.0-6.0-0.9","3","3","3","3","3","3","3","2","3","3","4","4","2","4","4","4","4","3","4","4","2","3","2","2","2","2","2","2","1","1","1","0","0","0","0","0","1","1","0","1","0","1","0","1","3","2","4","2","3","1","4","4","3","4","2","774615163172294657","s","539","","","","","","","","","","","","","","","","","","","","","","","","","","","","","","","","","","","","","","","","","",""
"1029","<p style=""color:white; font-size: 35px;"">缺德</p>","e","categorize-html","78","353477","0.0-6.0-1.0-6.0-1.9","3","3","3","3","3","3","3","2","3","3","4","4","2","4","4","4","4","3","4","4","2","3","2","2","2","2","2","2","1","1","1","0","0","0","0","0","1","1","0","1","0","1","0","1","3","2","4","2","3","1","4","4","3","4","2","774615163172294657","s","539","","","","","","","","","","","","","","","","","","","true","13","3","moral","1029","negative","缺德","","","","","","","","","","","","","","","","",""
"null","","null","html-keyboard-response","79","353728","0.0-6.0-1.0-6.0-0.10","3","3","3","3","3","3","3","2","3","3","4","4","2","4","4","4","4","3","4","4","2","3","2","2","2","2","2","2","1","1","1","0","0","0","0","0","1","1","0","1","0","1","0","1","3","2","4","2","3","1","4","4","3","4","2","774615163172294657","s","539","","","","","","","","","","","","","","","","","","","","","","","","","","","","","","","","","","","","","","","","","",""
"792","<p style=""color:rgb(150, 250, 100); font-size: 35px;"">他</p>","i","categorize-html","80","354521","0.0-6.0-1.0-6.0-1.10","3","3","3","3","3","3","3","2","3","3","4","4","2","4","4","4","4","3","4","4","2","3","2","2","2","2","2","2","1","1","1","0","0","0","0","0","1","1","0","1","0","1","0","1","3","2","4","2","3","1","4","4","3","4","2","774615163172294657","s","539","","","","","","","","","","","","","","","","","","","true","13","3","moral","792","other","他","","","","","","","","","","","","","","","","",""
"null","","null","html-keyboard-response","81","354773","0.0-6.0-1.0-6.0-0.11","3","3","3","3","3","3","3","2","3","3","4","4","2","4","4","4","4","3","4","4","2","3","2","2","2","2","2","2","1","1","1","0","0","0","0","0","1","1","0","1","0","1","0","1","3","2","4","2","3","1","4","4","3","4","2","774615163172294657","s","539","","","","","","","","","","","","","","","","","","","","","","","","","","","","","","","","","","","","","","","","","",""
"505","<p style=""color:white; font-size: 35px;"">正直</p>","i","categorize-html","82","355279","0.0-6.0-1.0-6.0-1.11","3","3","3","3","3","3","3","2","3","3","4","4","2","4","4","4","4","3","4","4","2","3","2","2","2","2","2","2","1","1","1","0","0","0","0","0","1","1","0","1","0","1","0","1","3","2","4","2","3","1","4","4","3","4","2","774615163172294657","s","539","","","","","","","","","","","","","","","","","","","true","13","3","moral","505","positive","正直","","","","","","","","","","","","","","","","",""
"null","","null","html-keyboard-response","83","355531","0.0-6.0-1.0-6.0-0.12","3","3","3","3","3","3","3","2","3","3","4","4","2","4","4","4","4","3","4","4","2","3","2","2","2","2","2","2","1","1","1","0","0","0","0","0","1","1","0","1","0","1","0","1","3","2","4","2","3","1","4","4","3","4","2","774615163172294657","s","539","","","","","","","","","","","","","","","","","","","","","","","","","","","","","","","","","","","","","","","","","",""
"655","<p style=""color:rgb(150, 250, 100); font-size: 35px;"">别人</p>","i","categorize-html","84","356187","0.0-6.0-1.0-6.0-1.12","3","3","3","3","3","3","3","2","3","3","4","4","2","4","4","4","4","3","4","4","2","3","2","2","2","2","2","2","1","1","1","0","0","0","0","0","1","1","0","1","0","1","0","1","3","2","4","2","3","1","4","4","3","4","2","774615163172294657","s","539","","","","","","","","","","","","","","","","","","","true","13","3","moral","655","other","别人","","","","","","","","","","","","","","","","",""
"null","","null","html-keyboard-response","85","356438","0.0-6.0-1.0-6.0-0.13","3","3","3","3","3","3","3","2","3","3","4","4","2","4","4","4","4","3","4","4","2","3","2","2","2","2","2","2","1","1","1","0","0","0","0","0","1","1","0","1","0","1","0","1","3","2","4","2","3","1","4","4","3","4","2","774615163172294657","s","539","","","","","","","","","","","","","","","","","","","","","","","","","","","","","","","","","","","","","","","","","",""
"977","<p style=""color:white; font-size: 35px;"">小人</p>","e","categorize-html","86","357415","0.0-6.0-1.0-6.0-1.13","3","3","3","3","3","3","3","2","3","3","4","4","2","4","4","4","4","3","4","4","2","3","2","2","2","2","2","2","1","1","1","0","0","0","0","0","1","1","0","1","0","1","0","1","3","2","4","2","3","1","4","4","3","4","2","774615163172294657","s","539","","","","","","","","","","","","","","","","","","","true","13","3","moral","977","negative","小人","","","","","","","","","","","","","","","","",""
"null","","null","html-keyboard-response","87","357667","0.0-6.0-1.0-6.0-0.14","3","3","3","3","3","3","3","2","3","3","4","4","2","4","4","4","4","3","4","4","2","3","2","2","2","2","2","2","1","1","1","0","0","0","0","0","1","1","0","1","0","1","0","1","3","2","4","2","3","1","4","4","3","4","2","774615163172294657","s","539","","","","","","","","","","","","","","","","","","","","","","","","","","","","","","","","","","","","","","","","","",""
"516","<p style=""color:rgb(150, 250, 100); font-size: 35px;"">我</p>","e","categorize-html","88","358184","0.0-6.0-1.0-6.0-1.14","3","3","3","3","3","3","3","2","3","3","4","4","2","4","4","4","4","3","4","4","2","3","2","2","2","2","2","2","1","1","1","0","0","0","0","0","1","1","0","1","0","1","0","1","3","2","4","2","3","1","4","4","3","4","2","774615163172294657","s","539","","","","","","","","","","","","","","","","","","","true","13","3","moral","516","self","我","","","","","","","","","","","","","","","","",""
"null","","null","html-keyboard-response","89","358436","0.0-6.0-1.0-6.0-0.15","3","3","3","3","3","3","3","2","3","3","4","4","2","4","4","4","4","3","4","4","2","3","2","2","2","2","2","2","1","1","1","0","0","0","0","0","1","1","0","1","0","1","0","1","3","2","4","2","3","1","4","4","3","4","2","774615163172294657","s","539","","","","","","","","","","","","","","","","","","","","","","","","","","","","","","","","","","","","","","","","","",""
"788","<p style=""color:white; font-size: 35px;"">高尚</p>","i","categorize-html","90","359225","0.0-6.0-1.0-6.0-1.15","3","3","3","3","3","3","3","2","3","3","4","4","2","4","4","4","4","3","4","4","2","3","2","2","2","2","2","2","1","1","1","0","0","0","0","0","1","1","0","1","0","1","0","1","3","2","4","2","3","1","4","4","3","4","2","774615163172294657","s","539","","","","","","","","","","","","","","","","","","","true","13","3","moral","788","positive","高尚","","","","","","","","","","","","","","","","",""
"null","","null","html-keyboard-response","91","359477","0.0-6.0-1.0-6.0-0.16","3","3","3","3","3","3","3","2","3","3","4","4","2","4","4","4","4","3","4","4","2","3","2","2","2","2","2","2","1","1","1","0","0","0","0","0","1","1","0","1","0","1","0","1","3","2","4","2","3","1","4","4","3","4","2","774615163172294657","s","539","","","","","","","","","","","","","","","","","","","","","","","","","","","","","","","","","","","","","","","","","",""
"672","<p style=""color:rgb(150, 250, 100); font-size: 35px;"">本人</p>","e","categorize-html","92","360149","0.0-6.0-1.0-6.0-1.16","3","3","3","3","3","3","3","2","3","3","4","4","2","4","4","4","4","3","4","4","2","3","2","2","2","2","2","2","1","1","1","0","0","0","0","0","1","1","0","1","0","1","0","1","3","2","4","2","3","1","4","4","3","4","2","774615163172294657","s","539","","","","","","","","","","","","","","","","","","","true","13","3","moral","672","self","本人","","","","","","","","","","","","","","","","",""
"null","","null","html-keyboard-response","93","360400","0.0-6.0-1.0-6.0-0.17","3","3","3","3","3","3","3","2","3","3","4","4","2","4","4","4","4","3","4","4","2","3","2","2","2","2","2","2","1","1","1","0","0","0","0","0","1","1","0","1","0","1","0","1","3","2","4","2","3","1","4","4","3","4","2","774615163172294657","s","539","","","","","","","","","","","","","","","","","","","","","","","","","","","","","","","","","","","","","","","","","",""
"618","<p style=""color:white; font-size: 35px;"">卑鄙</p>","e","categorize-html","94","361019","0.0-6.0-1.0-6.0-1.17","3","3","3","3","3","3","3","2","3","3","4","4","2","4","4","4","4","3","4","4","2","3","2","2","2","2","2","2","1","1","1","0","0","0","0","0","1","1","0","1","0","1","0","1","3","2","4","2","3","1","4","4","3","4","2","774615163172294657","s","539","","","","","","","","","","","","","","","","","","","true","13","3","moral","618","negative","卑鄙","","","","","","","","","","","","","","","","",""
"null","","null","html-keyboard-response","95","361269","0.0-6.0-1.0-6.0-0.18","3","3","3","3","3","3","3","2","3","3","4","4","2","4","4","4","4","3","4","4","2","3","2","2","2","2","2","2","1","1","1","0","0","0","0","0","1","1","0","1","0","1","0","1","3","2","4","2","3","1","4","4","3","4","2","774615163172294657","s","539","","","","","","","","","","","","","","","","","","","","","","","","","","","","","","","","","","","","","","","","","",""
"500","<p style=""color:rgb(150, 250, 100); font-size: 35px;"">他人的</p>","i","categorize-html","96","361769","0.0-6.0-1.0-6.0-1.18","3","3","3","3","3","3","3","2","3","3","4","4","2","4","4","4","4","3","4","4","2","3","2","2","2","2","2","2","1","1","1","0","0","0","0","0","1","1","0","1","0","1","0","1","3","2","4","2","3","1","4","4","3","4","2","774615163172294657","s","539","","","","","","","","","","","","","","","","","","","true","13","3","moral","500","other","他人的","","","","","","","","","","","","","","","","",""
"null","","null","html-keyboard-response","97","362034","0.0-6.0-1.0-6.0-0.19","3","3","3","3","3","3","3","2","3","3","4","4","2","4","4","4","4","3","4","4","2","3","2","2","2","2","2","2","1","1","1","0","0","0","0","0","1","1","0","1","0","1","0","1","3","2","4","2","3","1","4","4","3","4","2","774615163172294657","s","539","","","","","","","","","","","","","","","","","","","","","","","","","","","","","","","","","","","","","","","","","",""
"813","<p style=""color:white; font-size: 35px;"">廉正</p>","i","categorize-html","98","362848","0.0-6.0-1.0-6.0-1.19","3","3","3","3","3","3","3","2","3","3","4","4","2","4","4","4","4","3","4","4","2","3","2","2","2","2","2","2","1","1","1","0","0","0","0","0","1","1","0","1","0","1","0","1","3","2","4","2","3","1","4","4","3","4","2","774615163172294657","s","539","","","","","","","","","","","","","","","","","","","true","13","3","moral","813","positive","廉正","","","","","","","","","","","","","","","","",""
"null","","null","html-keyboard-response","99","363099","0.0-6.0-1.0-6.0-0.20","3","3","3","3","3","3","3","2","3","3","4","4","2","4","4","4","4","3","4","4","2","3","2","2","2","2","2","2","1","1","1","0","0","0","0","0","1","1","0","1","0","1","0","1","3","2","4","2","3","1","4","4","3","4","2","774615163172294657","s","539","","","","","","","","","","","","","","","","","","","","","","","","","","","","","","","","","","","","","","","","","",""
"649","<p style=""color:rgb(150, 250, 100); font-size: 35px;"">他人</p>","i","categorize-html","100","363748","0.0-6.0-1.0-6.0-1.20","3","3","3","3","3","3","3","2","3","3","4","4","2","4","4","4","4","3","4","4","2","3","2","2","2","2","2","2","1","1","1","0","0","0","0","0","1","1","0","1","0","1","0","1","3","2","4","2","3","1","4","4","3","4","2","774615163172294657","s","539","","","","","","","","","","","","","","","","","","","true","13","3","moral","649","other","他人","","","","","","","","","","","","","","","","",""
"null","","null","html-keyboard-response","101","364000","0.0-6.0-1.0-6.0-0.21","3","3","3","3","3","3","3","2","3","3","4","4","2","4","4","4","4","3","4","4","2","3","2","2","2","2","2","2","1","1","1","0","0","0","0","0","1","1","0","1","0","1","0","1","3","2","4","2","3","1","4","4","3","4","2","774615163172294657","s","539","","","","","","","","","","","","","","","","","","","","","","","","","","","","","","","","","","","","","","","","","",""
"583","<p style=""color:white; font-size: 35px;"">黑心</p>","e","categorize-html","102","364583","0.0-6.0-1.0-6.0-1.21","3","3","3","3","3","3","3","2","3","3","4","4","2","4","4","4","4","3","4","4","2","3","2","2","2","2","2","2","1","1","1","0","0","0","0","0","1","1","0","1","0","1","0","1","3","2","4","2","3","1","4","4","3","4","2","774615163172294657","s","539","","","","","","","","","","","","","","","","","","","true","13","3","moral","583","negative","黑心","","","","","","","","","","","","","","","","",""
"null","","null","html-keyboard-response","103","364834","0.0-6.0-1.0-6.0-0.22","3","3","3","3","3","3","3","2","3","3","4","4","2","4","4","4","4","3","4","4","2","3","2","2","2","2","2","2","1","1","1","0","0","0","0","0","1","1","0","1","0","1","0","1","3","2","4","2","3","1","4","4","3","4","2","774615163172294657","s","539","","","","","","","","","","","","","","","","","","","","","","","","","","","","","","","","","","","","","","","","","",""
"422","<p style=""color:rgb(150, 250, 100); font-size: 35px;"">我的</p>","e","categorize-html","104","365256","0.0-6.0-1.0-6.0-1.22","3","3","3","3","3","3","3","2","3","3","4","4","2","4","4","4","4","3","4","4","2","3","2","2","2","2","2","2","1","1","1","0","0","0","0","0","1","1","0","1","0","1","0","1","3","2","4","2","3","1","4","4","3","4","2","774615163172294657","s","539","","","","","","","","","","","","","","","","","","","true","13","3","moral","422","self","我的","","","","","","","","","","","","","","","","",""
"null","","null","html-keyboard-response","105","365507","0.0-6.0-1.0-6.0-0.23","3","3","3","3","3","3","3","2","3","3","4","4","2","4","4","4","4","3","4","4","2","3","2","2","2","2","2","2","1","1","1","0","0","0","0","0","1","1","0","1","0","1","0","1","3","2","4","2","3","1","4","4","3","4","2","774615163172294657","s","539","","","","","","","","","","","","","","","","","","","","","","","","","","","","","","","","","","","","","","","","","",""
"868","<p style=""color:white; font-size: 35px;"">善良</p>","i","categorize-html","106","366376","0.0-6.0-1.0-6.0-1.23","3","3","3","3","3","3","3","2","3","3","4","4","2","4","4","4","4","3","4","4","2","3","2","2","2","2","2","2","1","1","1","0","0","0","0","0","1","1","0","1","0","1","0","1","3","2","4","2","3","1","4","4","3","4","2","774615163172294657","s","539","","","","","","","","","","","","","","","","","","","true","13","3","moral","868","positive","善良","","","","","","","","","","","","","","","","",""
"7058","
    <div class=""tag-bottom""><p>
    —— 任务4：对“自我/消极”词和“他人/积极”词分类 ——<p/>
    <span style=""color:#78DCE8""><b>与刚才的任务完全相同，请再次对这四类词语分类</b></span><p/>
    <span style=""color:#FFD866""><b>请根据上方标签的提示，尽可能正确并且快速地做出按键反应</b></span><p/>
    当按键错误时屏幕中会出现<span style=""color:red""> X </span>，需要按另一个键纠正才能继续<br/><p/>
    请把双手食指分别放在键盘的“E”键和“I”键上<p/>
    按<空格键>开始
    </p></div>"," ","html-keyboard-response","107","373434","0.0-6.0-1.0-7.0","3","3","3","3","3","3","3","2","3","3","4","4","2","4","4","4","4","3","4","4","2","3","2","2","2","2","2","2","1","1","1","0","0","0","0","0","1","1","0","1","0","1","0","1","3","2","4","2","3","1","4","4","3","4","2","774615163172294657","s","539","","","","","","","","","","","","","","","","","","","","","","","","","","","","","","","","","","","","","","","","","",""
"null","","null","html-keyboard-response","108","373684","0.0-6.0-1.0-8.0-0.0","3","3","3","3","3","3","3","2","3","3","4","4","2","4","4","4","4","3","4","4","2","3","2","2","2","2","2","2","1","1","1","0","0","0","0","0","1","1","0","1","0","1","0","1","3","2","4","2","3","1","4","4","3","4","2","774615163172294657","s","539","","","","","","","","","","","","","","","","","","","","","","","","","","","","","","","","","","","","","","","","","",""
"626","<p style=""color:rgb(150, 250, 100); font-size: 35px;"">我</p>","e","categorize-html","109","374313","0.0-6.0-1.0-8.0-1.0","3","3","3","3","3","3","3","2","3","3","4","4","2","4","4","4","4","3","4","4","2","3","2","2","2","2","2","2","1","1","1","0","0","0","0","0","1","1","0","1","0","1","0","1","3","2","4","2","3","1","4","4","3","4","2","774615163172294657","s","539","","","","","","","","","","","","","","","","","","","true","14","4","moral","626","self","我","","","","","","","","","","","","","","","","",""
"null","","null","html-keyboard-response","110","374565","0.0-6.0-1.0-8.0-0.1","3","3","3","3","3","3","3","2","3","3","4","4","2","4","4","4","4","3","4","4","2","3","2","2","2","2","2","2","1","1","1","0","0","0","0","0","1","1","0","1","0","1","0","1","3","2","4","2","3","1","4","4","3","4","2","774615163172294657","s","539","","","","","","","","","","","","","","","","","","","","","","","","","","","","","","","","","","","","","","","","","",""
"637","<p style=""color:white; font-size: 35px;"">不孝</p>","e","categorize-html","111","375203","0.0-6.0-1.0-8.0-1.1","3","3","3","3","3","3","3","2","3","3","4","4","2","4","4","4","4","3","4","4","2","3","2","2","2","2","2","2","1","1","1","0","0","0","0","0","1","1","0","1","0","1","0","1","3","2","4","2","3","1","4","4","3","4","2","774615163172294657","s","539","","","","","","","","","","","","","","","","","","","true","14","4","moral","637","negative","不孝","","","","","","","","","","","","","","","","",""
"null","","null","html-keyboard-response","112","375455","0.0-6.0-1.0-8.0-0.2","3","3","3","3","3","3","3","2","3","3","4","4","2","4","4","4","4","3","4","4","2","3","2","2","2","2","2","2","1","1","1","0","0","0","0","0","1","1","0","1","0","1","0","1","3","2","4","2","3","1","4","4","3","4","2","774615163172294657","s","539","","","","","","","","","","","","","","","","","","","","","","","","","","","","","","","","","","","","","","","","","",""
"525","<p style=""color:rgb(150, 250, 100); font-size: 35px;"">他</p>","i","categorize-html","113","375980","0.0-6.0-1.0-8.0-1.2","3","3","3","3","3","3","3","2","3","3","4","4","2","4","4","4","4","3","4","4","2","3","2","2","2","2","2","2","1","1","1","0","0","0","0","0","1","1","0","1","0","1","0","1","3","2","4","2","3","1","4","4","3","4","2","774615163172294657","s","539","","","","","","","","","","","","","","","","","","","true","14","4","moral","525","other","他","","","","","","","","","","","","","","","","",""
"null","","null","html-keyboard-response","114","376231","0.0-6.0-1.0-8.0-0.3","3","3","3","3","3","3","3","2","3","3","4","4","2","4","4","4","4","3","4","4","2","3","2","2","2","2","2","2","1","1","1","0","0","0","0","0","1","1","0","1","0","1","0","1","3","2","4","2","3","1","4","4","3","4","2","774615163172294657","s","539","","","","","","","","","","","","","","","","","","","","","","","","","","","","","","","","","","","","","","","","","",""
"457","<p style=""color:white; font-size: 35px;"">善良</p>","i","categorize-html","115","376689","0.0-6.0-1.0-8.0-1.3","3","3","3","3","3","3","3","2","3","3","4","4","2","4","4","4","4","3","4","4","2","3","2","2","2","2","2","2","1","1","1","0","0","0","0","0","1","1","0","1","0","1","0","1","3","2","4","2","3","1","4","4","3","4","2","774615163172294657","s","539","","","","","","","","","","","","","","","","","","","true","14","4","moral","457","positive","善良","","","","","","","","","","","","","","","","",""
"null","","null","html-keyboard-response","116","376940","0.0-6.0-1.0-8.0-0.4","3","3","3","3","3","3","3","2","3","3","4","4","2","4","4","4","4","3","4","4","2","3","2","2","2","2","2","2","1","1","1","0","0","0","0","0","1","1","0","1","0","1","0","1","3","2","4","2","3","1","4","4","3","4","2","774615163172294657","s","539","","","","","","","","","","","","","","","","","","","","","","","","","","","","","","","","","","","","","","","","","",""
"509","<p style=""color:rgb(150, 250, 100); font-size: 35px;"">本人</p>","e","categorize-html","117","377451","0.0-6.0-1.0-8.0-1.4","3","3","3","3","3","3","3","2","3","3","4","4","2","4","4","4","4","3","4","4","2","3","2","2","2","2","2","2","1","1","1","0","0","0","0","0","1","1","0","1","0","1","0","1","3","2","4","2","3","1","4","4","3","4","2","774615163172294657","s","539","","","","","","","","","","","","","","","","","","","true","14","4","moral","509","self","本人","","","","","","","","","","","","","","","","",""
"null","","null","html-keyboard-response","118","377702","0.0-6.0-1.0-8.0-0.5","3","3","3","3","3","3","3","2","3","3","4","4","2","4","4","4","4","3","4","4","2","3","2","2","2","2","2","2","1","1","1","0","0","0","0","0","1","1","0","1","0","1","0","1","3","2","4","2","3","1","4","4","3","4","2","774615163172294657","s","539","","","","","","","","","","","","","","","","","","","","","","","","","","","","","","","","","","","","","","","","","",""
"618","<p style=""color:white; font-size: 35px;"">高尚</p>","i","categorize-html","119","378321","0.0-6.0-1.0-8.0-1.5","3","3","3","3","3","3","3","2","3","3","4","4","2","4","4","4","4","3","4","4","2","3","2","2","2","2","2","2","1","1","1","0","0","0","0","0","1","1","0","1","0","1","0","1","3","2","4","2","3","1","4","4","3","4","2","774615163172294657","s","539","","","","","","","","","","","","","","","","","","","true","14","4","moral","618","positive","高尚","","","","","","","","","","","","","","","","",""
"null","","null","html-keyboard-response","120","378572","0.0-6.0-1.0-8.0-0.6","3","3","3","3","3","3","3","2","3","3","4","4","2","4","4","4","4","3","4","4","2","3","2","2","2","2","2","2","1","1","1","0","0","0","0","0","1","1","0","1","0","1","0","1","3","2","4","2","3","1","4","4","3","4","2","774615163172294657","s","539","","","","","","","","","","","","","","","","","","","","","","","","","","","","","","","","","","","","","","","","","",""
"466","<p style=""color:rgb(150, 250, 100); font-size: 35px;"">别人的</p>","i","categorize-html","121","379038","0.0-6.0-1.0-8.0-1.6","3","3","3","3","3","3","3","2","3","3","4","4","2","4","4","4","4","3","4","4","2","3","2","2","2","2","2","2","1","1","1","0","0","0","0","0","1","1","0","1","0","1","0","1","3","2","4","2","3","1","4","4","3","4","2","774615163172294657","s","539","","","","","","","","","","","","","","","","","","","true","14","4","moral","466","other","别人的","","","","","","","","","","","","","","","","",""
"null","","null","html-keyboard-response","122","379289","0.0-6.0-1.0-8.0-0.7","3","3","3","3","3","3","3","2","3","3","4","4","2","4","4","4","4","3","4","4","2","3","2","2","2","2","2","2","1","1","1","0","0","0","0","0","1","1","0","1","0","1","0","1","3","2","4","2","3","1","4","4","3","4","2","774615163172294657","s","539","","","","","","","","","","","","","","","","","","","","","","","","","","","","","","","","","","","","","","","","","",""
"485","<p style=""color:white; font-size: 35px;"">小人</p>","e","categorize-html","123","379776","0.0-6.0-1.0-8.0-1.7","3","3","3","3","3","3","3","2","3","3","4","4","2","4","4","4","4","3","4","4","2","3","2","2","2","2","2","2","1","1","1","0","0","0","0","0","1","1","0","1","0","1","0","1","3","2","4","2","3","1","4","4","3","4","2","774615163172294657","s","539","","","","","","","","","","","","","","","","","","","true","14","4","moral","485","negative","小人","","","","","","","","","","","","","","","","",""
"null","","null","html-keyboard-response","124","380027","0.0-6.0-1.0-8.0-0.8","3","3","3","3","3","3","3","2","3","3","4","4","2","4","4","4","4","3","4","4","2","3","2","2","2","2","2","2","1","1","1","0","0","0","0","0","1","1","0","1","0","1","0","1","3","2","4","2","3","1","4","4","3","4","2","774615163172294657","s","539","","","","","","","","","","","","","","","","","","","","","","","","","","","","","","","","","","","","","","","","","",""
"520","<p style=""color:rgb(150, 250, 100); font-size: 35px;"">本人的</p>","e","categorize-html","125","380547","0.0-6.0-1.0-8.0-1.8","3","3","3","3","3","3","3","2","3","3","4","4","2","4","4","4","4","3","4","4","2","3","2","2","2","2","2","2","1","1","1","0","0","0","0","0","1","1","0","1","0","1","0","1","3","2","4","2","3","1","4","4","3","4","2","774615163172294657","s","539","","","","","","","","","","","","","","","","","","","true","14","4","moral","520","self","本人的","","","","","","","","","","","","","","","","",""
"null","","null","html-keyboard-response","126","380798","0.0-6.0-1.0-8.0-0.9","3","3","3","3","3","3","3","2","3","3","4","4","2","4","4","4","4","3","4","4","2","3","2","2","2","2","2","2","1","1","1","0","0","0","0","0","1","1","0","1","0","1","0","1","3","2","4","2","3","1","4","4","3","4","2","774615163172294657","s","539","","","","","","","","","","","","","","","","","","","","","","","","","","","","","","","","","","","","","","","","","",""
"394","<p style=""color:white; font-size: 35px;"">不仁</p>","e","categorize-html","127","381192","0.0-6.0-1.0-8.0-1.9","3","3","3","3","3","3","3","2","3","3","4","4","2","4","4","4","4","3","4","4","2","3","2","2","2","2","2","2","1","1","1","0","0","0","0","0","1","1","0","1","0","1","0","1","3","2","4","2","3","1","4","4","3","4","2","774615163172294657","s","539","","","","","","","","","","","","","","","","","","","true","14","4","moral","394","negative","不仁","","","","","","","","","","","","","","","","",""
"null","","null","html-keyboard-response","128","381443","0.0-6.0-1.0-8.0-0.10","3","3","3","3","3","3","3","2","3","3","4","4","2","4","4","4","4","3","4","4","2","3","2","2","2","2","2","2","1","1","1","0","0","0","0","0","1","1","0","1","0","1","0","1","3","2","4","2","3","1","4","4","3","4","2","774615163172294657","s","539","","","","","","","","","","","","","","","","","","","","","","","","","","","","","","","","","","","","","","","","","",""
"512","<p style=""color:rgb(150, 250, 100); font-size: 35px;"">他人的</p>","i","categorize-html","129","381956","0.0-6.0-1.0-8.0-1.10","3","3","3","3","3","3","3","2","3","3","4","4","2","4","4","4","4","3","4","4","2","3","2","2","2","2","2","2","1","1","1","0","0","0","0","0","1","1","0","1","0","1","0","1","3","2","4","2","3","1","4","4","3","4","2","774615163172294657","s","539","","","","","","","","","","","","","","","","","","","true","14","4","moral","512","other","他人的","","","","","","","","","","","","","","","","",""
"null","","null","html-keyboard-response","130","382206","0.0-6.0-1.0-8.0-0.11","3","3","3","3","3","3","3","2","3","3","4","4","2","4","4","4","4","3","4","4","2","3","2","2","2","2","2","2","1","1","1","0","0","0","0","0","1","1","0","1","0","1","0","1","3","2","4","2","3","1","4","4","3","4","2","774615163172294657","s","539","","","","","","","","","","","","","","","","","","","","","","","","","","","","","","","","","","","","","","","","","",""
"584","<p style=""color:white; font-size: 35px;"">廉正</p>","i","categorize-html","131","382792","0.0-6.0-1.0-8.0-1.11","3","3","3","3","3","3","3","2","3","3","4","4","2","4","4","4","4","3","4","4","2","3","2","2","2","2","2","2","1","1","1","0","0","0","0","0","1","1","0","1","0","1","0","1","3","2","4","2","3","1","4","4","3","4","2","774615163172294657","s","539","","","","","","","","","","","","","","","","","","","true","14","4","moral","584","positive","廉正","","","","","","","","","","","","","","","","",""
"null","","null","html-keyboard-response","132","383043","0.0-6.0-1.0-8.0-0.12","3","3","3","3","3","3","3","2","3","3","4","4","2","4","4","4","4","3","4","4","2","3","2","2","2","2","2","2","1","1","1","0","0","0","0","0","1","1","0","1","0","1","0","1","3","2","4","2","3","1","4","4","3","4","2","774615163172294657","s","539","","","","","","","","","","","","","","","","","","","","","","","","","","","","","","","","","","","","","","","","","",""
"635","<p style=""color:rgb(150, 250, 100); font-size: 35px;"">本人的</p>","e","categorize-html","133","383679","0.0-6.0-1.0-8.0-1.12","3","3","3","3","3","3","3","2","3","3","4","4","2","4","4","4","4","3","4","4","2","3","2","2","2","2","2","2","1","1","1","0","0","0","0","0","1","1","0","1","0","1","0","1","3","2","4","2","3","1","4","4","3","4","2","774615163172294657","s","539","","","","","","","","","","","","","","","","","","","true","14","4","moral","635","self","本人的","","","","","","","","","","","","","","","","",""
"null","","null","html-keyboard-response","134","383931","0.0-6.0-1.0-8.0-0.13","3","3","3","3","3","3","3","2","3","3","4","4","2","4","4","4","4","3","4","4","2","3","2","2","2","2","2","2","1","1","1","0","0","0","0","0","1","1","0","1","0","1","0","1","3","2","4","2","3","1","4","4","3","4","2","774615163172294657","s","539","","","","","","","","","","","","","","","","","","","","","","","","","","","","","","","","","","","","","","","","","",""
"406","<p style=""color:white; font-size: 35px;"">不孝</p>","e","categorize-html","135","384338","0.0-6.0-1.0-8.0-1.13","3","3","3","3","3","3","3","2","3","3","4","4","2","4","4","4","4","3","4","4","2","3","2","2","2","2","2","2","1","1","1","0","0","0","0","0","1","1","0","1","0","1","0","1","3","2","4","2","3","1","4","4","3","4","2","774615163172294657","s","539","","","","","","","","","","","","","","","","","","","true","14","4","moral","406","negative","不孝","","","","","","","","","","","","","","","","",""
"null","","null","html-keyboard-response","136","384589","0.0-6.0-1.0-8.0-0.14","3","3","3","3","3","3","3","2","3","3","4","4","2","4","4","4","4","3","4","4","2","3","2","2","2","2","2","2","1","1","1","0","0","0","0","0","1","1","0","1","0","1","0","1","3","2","4","2","3","1","4","4","3","4","2","774615163172294657","s","539","","","","","","","","","","","","","","","","","","","","","","","","","","","","","","","","","","","","","","","","","",""
"461","<p style=""color:rgb(150, 250, 100); font-size: 35px;"">他的</p>","i","categorize-html","137","385051","0.0-6.0-1.0-8.0-1.14","3","3","3","3","3","3","3","2","3","3","4","4","2","4","4","4","4","3","4","4","2","3","2","2","2","2","2","2","1","1","1","0","0","0","0","0","1","1","0","1","0","1","0","1","3","2","4","2","3","1","4","4","3","4","2","774615163172294657","s","539","","","","","","","","","","","","","","","","","","","true","14","4","moral","461","other","他的","","","","","","","","","","","","","","","","",""
"null","","null","html-keyboard-response","138","385302","0.0-6.0-1.0-8.0-0.15","3","3","3","3","3","3","3","2","3","3","4","4","2","4","4","4","4","3","4","4","2","3","2","2","2","2","2","2","1","1","1","0","0","0","0","0","1","1","0","1","0","1","0","1","3","2","4","2","3","1","4","4","3","4","2","774615163172294657","s","539","","","","","","","","","","","","","","","","","","","","","","","","","","","","","","","","","","","","","","","","","",""
"421","<p style=""color:white; font-size: 35px;"">诚信</p>","i","categorize-html","139","385724","0.0-6.0-1.0-8.0-1.15","3","3","3","3","3","3","3","2","3","3","4","4","2","4","4","4","4","3","4","4","2","3","2","2","2","2","2","2","1","1","1","0","0","0","0","0","1","1","0","1","0","1","0","1","3","2","4","2","3","1","4","4","3","4","2","774615163172294657","s","539","","","","","","","","","","","","","","","","","","","true","14","4","moral","421","positive","诚信","","","","","","","","","","","","","","","","",""
"null","","null","html-keyboard-response","140","385976","0.0-6.0-1.0-8.0-0.16","3","3","3","3","3","3","3","2","3","3","4","4","2","4","4","4","4","3","4","4","2","3","2","2","2","2","2","2","1","1","1","0","0","0","0","0","1","1","0","1","0","1","0","1","3","2","4","2","3","1","4","4","3","4","2","774615163172294657","s","539","","","","","","","","","","","","","","","","","","","","","","","","","","","","","","","","","","","","","","","","","",""
"419","<p style=""color:rgb(150, 250, 100); font-size: 35px;"">自己的</p>","e","categorize-html","141","386395","0.0-6.0-1.0-8.0-1.16","3","3","3","3","3","3","3","2","3","3","4","4","2","4","4","4","4","3","4","4","2","3","2","2","2","2","2","2","1","1","1","0","0","0","0","0","1","1","0","1","0","1","0","1","3","2","4","2","3","1","4","4","3","4","2","774615163172294657","s","539","","","","","","","","","","","","","","","","","","","true","14","4","moral","419","self","自己的","","","","","","","","","","","","","","","","",""
"null","","null","html-keyboard-response","142","386647","0.0-6.0-1.0-8.0-0.17","3","3","3","3","3","3","3","2","3","3","4","4","2","4","4","4","4","3","4","4","2","3","2","2","2","2","2","2","1","1","1","0","0","0","0","0","1","1","0","1","0","1","0","1","3","2","4","2","3","1","4","4","3","4","2","774615163172294657","s","539","","","","","","","","","","","","","","","","","","","","","","","","","","","","","","","","","","","","","","","","","",""
"431","<p style=""color:white; font-size: 35px;"">缺德</p>","e","categorize-html","143","387079","0.0-6.0-1.0-8.0-1.17","3","3","3","3","3","3","3","2","3","3","4","4","2","4","4","4","4","3","4","4","2","3","2","2","2","2","2","2","1","1","1","0","0","0","0","0","1","1","0","1","0","1","0","1","3","2","4","2","3","1","4","4","3","4","2","774615163172294657","s","539","","","","","","","","","","","","","","","","","","","true","14","4","moral","431","negative","缺德","","","","","","","","","","","","","","","","",""
"null","","null","html-keyboard-response","144","387330","0.0-6.0-1.0-8.0-0.18","3","3","3","3","3","3","3","2","3","3","4","4","2","4","4","4","4","3","4","4","2","3","2","2","2","2","2","2","1","1","1","0","0","0","0","0","1","1","0","1","0","1","0","1","3","2","4","2","3","1","4","4","3","4","2","774615163172294657","s","539","","","","","","","","","","","","","","","","","","","","","","","","","","","","","","","","","","","","","","","","","",""
"471","<p style=""color:rgb(150, 250, 100); font-size: 35px;"">别人</p>","i","categorize-html","145","387802","0.0-6.0-1.0-8.0-1.18","3","3","3","3","3","3","3","2","3","3","4","4","2","4","4","4","4","3","4","4","2","3","2","2","2","2","2","2","1","1","1","0","0","0","0","0","1","1","0","1","0","1","0","1","3","2","4","2","3","1","4","4","3","4","2","774615163172294657","s","539","","","","","","","","","","","","","","","","","","","true","14","4","moral","471","other","别人","","","","","","","","","","","","","","","","",""
"null","","null","html-keyboard-response","146","388061","0.0-6.0-1.0-8.0-0.19","3","3","3","3","3","3","3","2","3","3","4","4","2","4","4","4","4","3","4","4","2","3","2","2","2","2","2","2","1","1","1","0","0","0","0","0","1","1","0","1","0","1","0","1","3","2","4","2","3","1","4","4","3","4","2","774615163172294657","s","539","","","","","","","","","","","","","","","","","","","","","","","","","","","","","","","","","","","","","","","","","",""
"464","<p style=""color:white; font-size: 35px;"">诚信</p>","i","categorize-html","147","388525","0.0-6.0-1.0-8.0-1.19","3","3","3","3","3","3","3","2","3","3","4","4","2","4","4","4","4","3","4","4","2","3","2","2","2","2","2","2","1","1","1","0","0","0","0","0","1","1","0","1","0","1","0","1","3","2","4","2","3","1","4","4","3","4","2","774615163172294657","s","539","","","","","","","","","","","","","","","","","","","true","14","4","moral","464","positive","诚信","","","","","","","","","","","","","","","","",""
"null","","null","html-keyboard-response","148","388776","0.0-6.0-1.0-8.0-0.20","3","3","3","3","3","3","3","2","3","3","4","4","2","4","4","4","4","3","4","4","2","3","2","2","2","2","2","2","1","1","1","0","0","0","0","0","1","1","0","1","0","1","0","1","3","2","4","2","3","1","4","4","3","4","2","774615163172294657","s","539","","","","","","","","","","","","","","","","","","","","","","","","","","","","","","","","","","","","","","","","","",""
"449","<p style=""color:rgb(150, 250, 100); font-size: 35px;"">自己的</p>","e","categorize-html","149","389226","0.0-6.0-1.0-8.0-1.20","3","3","3","3","3","3","3","2","3","3","4","4","2","4","4","4","4","3","4","4","2","3","2","2","2","2","2","2","1","1","1","0","0","0","0","0","1","1","0","1","0","1","0","1","3","2","4","2","3","1","4","4","3","4","2","774615163172294657","s","539","","","","","","","","","","","","","","","","","","","true","14","4","moral","449","self","自己的","","","","","","","","","","","","","","","","",""
"null","","null","html-keyboard-response","150","389478","0.0-6.0-1.0-8.0-0.21","3","3","3","3","3","3","3","2","3","3","4","4","2","4","4","4","4","3","4","4","2","3","2","2","2","2","2","2","1","1","1","0","0","0","0","0","1","1","0","1","0","1","0","1","3","2","4","2","3","1","4","4","3","4","2","774615163172294657","s","539","","","","","","","","","","","","","","","","","","","","","","","","","","","","","","","","","","","","","","","","","",""
"544","<p style=""color:white; font-size: 35px;"">君子</p>","i","categorize-html","151","390022","0.0-6.0-1.0-8.0-1.21","3","3","3","3","3","3","3","2","3","3","4","4","2","4","4","4","4","3","4","4","2","3","2","2","2","2","2","2","1","1","1","0","0","0","0","0","1","1","0","1","0","1","0","1","3","2","4","2","3","1","4","4","3","4","2","774615163172294657","s","539","","","","","","","","","","","","","","","","","","","true","14","4","moral","544","positive","君子","","","","","","","","","","","","","","","","",""
"null","","null","html-keyboard-response","152","390274","0.0-6.0-1.0-8.0-0.22","3","3","3","3","3","3","3","2","3","3","4","4","2","4","4","4","4","3","4","4","2","3","2","2","2","2","2","2","1","1","1","0","0","0","0","0","1","1","0","1","0","1","0","1","3","2","4","2","3","1","4","4","3","4","2","774615163172294657","s","539","","","","","","","","","","","","","","","","","","","","","","","","","","","","","","","","","","","","","","","","","",""
"1106","<p style=""color:rgb(150, 250, 100); font-size: 35px;"">他人</p>","i","categorize-html","153","391380","0.0-6.0-1.0-8.0-1.22","3","3","3","3","3","3","3","2","3","3","4","4","2","4","4","4","4","3","4","4","2","3","2","2","2","2","2","2","1","1","1","0","0","0","0","0","1","1","0","1","0","1","0","1","3","2","4","2","3","1","4","4","3","4","2","774615163172294657","s","539","","","","","","","","","","","","","","","","","","","true","14","4","moral","1106","other","他人","","","","","","","","","","","","","","","","",""
"null","","null","html-keyboard-response","154","391631","0.0-6.0-1.0-8.0-0.23","3","3","3","3","3","3","3","2","3","3","4","4","2","4","4","4","4","3","4","4","2","3","2","2","2","2","2","2","1","1","1","0","0","0","0","0","1","1","0","1","0","1","0","1","3","2","4","2","3","1","4","4","3","4","2","774615163172294657","s","539","","","","","","","","","","","","","","","","","","","","","","","","","","","","","","","","","","","","","","","","","",""
"527","<p style=""color:white; font-size: 35px;"">缺德</p>","e","categorize-html","155","392158","0.0-6.0-1.0-8.0-1.23","3","3","3","3","3","3","3","2","3","3","4","4","2","4","4","4","4","3","4","4","2","3","2","2","2","2","2","2","1","1","1","0","0","0","0","0","1","1","0","1","0","1","0","1","3","2","4","2","3","1","4","4","3","4","2","774615163172294657","s","539","","","","","","","","","","","","","","","","","","","true","14","4","moral","527","negative","缺德","","","","","","","","","","","","","","","","",""
"null","","null","html-keyboard-response","156","392409","0.0-6.0-1.0-8.0-0.24","3","3","3","3","3","3","3","2","3","3","4","4","2","4","4","4","4","3","4","4","2","3","2","2","2","2","2","2","1","1","1","0","0","0","0","0","1","1","0","1","0","1","0","1","3","2","4","2","3","1","4","4","3","4","2","774615163172294657","s","539","","","","","","","","","","","","","","","","","","","","","","","","","","","","","","","","","","","","","","","","","",""
"596","<p style=""color:rgb(150, 250, 100); font-size: 35px;"">他人的</p>","i","categorize-html","157","393006","0.0-6.0-1.0-8.0-1.24","3","3","3","3","3","3","3","2","3","3","4","4","2","4","4","4","4","3","4","4","2","3","2","2","2","2","2","2","1","1","1","0","0","0","0","0","1","1","0","1","0","1","0","1","3","2","4","2","3","1","4","4","3","4","2","774615163172294657","s","539","","","","","","","","","","","","","","","","","","","true","14","4","moral","596","other","他人的","","","","","","","","","","","","","","","","",""
"null","","null","html-keyboard-response","158","393257","0.0-6.0-1.0-8.0-0.25","3","3","3","3","3","3","3","2","3","3","4","4","2","4","4","4","4","3","4","4","2","3","2","2","2","2","2","2","1","1","1","0","0","0","0","0","1","1","0","1","0","1","0","1","3","2","4","2","3","1","4","4","3","4","2","774615163172294657","s","539","","","","","","","","","","","","","","","","","","","","","","","","","","","","","","","","","","","","","","","","","",""
"588","<p style=""color:white; font-size: 35px;"">小人</p>","e","categorize-html","159","393845","0.0-6.0-1.0-8.0-1.25","3","3","3","3","3","3","3","2","3","3","4","4","2","4","4","4","4","3","4","4","2","3","2","2","2","2","2","2","1","1","1","0","0","0","0","0","1","1","0","1","0","1","0","1","3","2","4","2","3","1","4","4","3","4","2","774615163172294657","s","539","","","","","","","","","","","","","","","","","","","true","14","4","moral","588","negative","小人","","","","","","","","","","","","","","","","",""
"null","","null","html-keyboard-response","160","394097","0.0-6.0-1.0-8.0-0.26","3","3","3","3","3","3","3","2","3","3","4","4","2","4","4","4","4","3","4","4","2","3","2","2","2","2","2","2","1","1","1","0","0","0","0","0","1","1","0","1","0","1","0","1","3","2","4","2","3","1","4","4","3","4","2","774615163172294657","s","539","","","","","","","","","","","","","","","","","","","","","","","","","","","","","","","","","","","","","","","","","",""
"490","<p style=""color:rgb(150, 250, 100); font-size: 35px;"">本人</p>","e","categorize-html","161","394588","0.0-6.0-1.0-8.0-1.26","3","3","3","3","3","3","3","2","3","3","4","4","2","4","4","4","4","3","4","4","2","3","2","2","2","2","2","2","1","1","1","0","0","0","0","0","1","1","0","1","0","1","0","1","3","2","4","2","3","1","4","4","3","4","2","774615163172294657","s","539","","","","","","","","","","","","","","","","","","","true","14","4","moral","490","self","本人","","","","","","","","","","","","","","","","",""
"null","","null","html-keyboard-response","162","394840","0.0-6.0-1.0-8.0-0.27","3","3","3","3","3","3","3","2","3","3","4","4","2","4","4","4","4","3","4","4","2","3","2","2","2","2","2","2","1","1","1","0","0","0","0","0","1","1","0","1","0","1","0","1","3","2","4","2","3","1","4","4","3","4","2","774615163172294657","s","539","","","","","","","","","","","","","","","","","","","","","","","","","","","","","","","","","","","","","","","","","",""
"1258","<p style=""color:white; font-size: 35px;"">善良</p>","i","categorize-html","163","396099","0.0-6.0-1.0-8.0-1.27","3","3","3","3","3","3","3","2","3","3","4","4","2","4","4","4","4","3","4","4","2","3","2","2","2","2","2","2","1","1","1","0","0","0","0","0","1","1","0","1","0","1","0","1","3","2","4","2","3","1","4","4","3","4","2","774615163172294657","s","539","","","","","","","","","","","","","","","","","","","true","14","4","moral","1258","positive","善良","","","","","","","","","","","","","","","","",""
"null","","null","html-keyboard-response","164","396350","0.0-6.0-1.0-8.0-0.28","3","3","3","3","3","3","3","2","3","3","4","4","2","4","4","4","4","3","4","4","2","3","2","2","2","2","2","2","1","1","1","0","0","0","0","0","1","1","0","1","0","1","0","1","3","2","4","2","3","1","4","4","3","4","2","774615163172294657","s","539","","","","","","","","","","","","","","","","","","","","","","","","","","","","","","","","","","","","","","","","","",""
"803","<p style=""color:rgb(150, 250, 100); font-size: 35px;"">他的</p>","i","categorize-html","165","397154","0.0-6.0-1.0-8.0-1.28","3","3","3","3","3","3","3","2","3","3","4","4","2","4","4","4","4","3","4","4","2","3","2","2","2","2","2","2","1","1","1","0","0","0","0","0","1","1","0","1","0","1","0","1","3","2","4","2","3","1","4","4","3","4","2","774615163172294657","s","539","","","","","","","","","","","","","","","","","","","true","14","4","moral","803","other","他的","","","","","","","","","","","","","","","","",""
"null","","null","html-keyboard-response","166","397405","0.0-6.0-1.0-8.0-0.29","3","3","3","3","3","3","3","2","3","3","4","4","2","4","4","4","4","3","4","4","2","3","2","2","2","2","2","2","1","1","1","0","0","0","0","0","1","1","0","1","0","1","0","1","3","2","4","2","3","1","4","4","3","4","2","774615163172294657","s","539","","","","","","","","","","","","","","","","","","","","","","","","","","","","","","","","","","","","","","","","","",""
"558","<p style=""color:white; font-size: 35px;"">黑心</p>","e","categorize-html","167","397964","0.0-6.0-1.0-8.0-1.29","3","3","3","3","3","3","3","2","3","3","4","4","2","4","4","4","4","3","4","4","2","3","2","2","2","2","2","2","1","1","1","0","0","0","0","0","1","1","0","1","0","1","0","1","3","2","4","2","3","1","4","4","3","4","2","774615163172294657","s","539","","","","","","","","","","","","","","","","","","","true","14","4","moral","558","negative","黑心","","","","","","","","","","","","","","","","",""
"null","","null","html-keyboard-response","168","398215","0.0-6.0-1.0-8.0-0.30","3","3","3","3","3","3","3","2","3","3","4","4","2","4","4","4","4","3","4","4","2","3","2","2","2","2","2","2","1","1","1","0","0","0","0","0","1","1","0","1","0","1","0","1","3","2","4","2","3","1","4","4","3","4","2","774615163172294657","s","539","","","","","","","","","","","","","","","","","","","","","","","","","","","","","","","","","","","","","","","","","",""
"395","<p style=""color:rgb(150, 250, 100); font-size: 35px;"">我的</p>","e","categorize-html","169","398612","0.0-6.0-1.0-8.0-1.30","3","3","3","3","3","3","3","2","3","3","4","4","2","4","4","4","4","3","4","4","2","3","2","2","2","2","2","2","1","1","1","0","0","0","0","0","1","1","0","1","0","1","0","1","3","2","4","2","3","1","4","4","3","4","2","774615163172294657","s","539","","","","","","","","","","","","","","","","","","","true","14","4","moral","395","self","我的","","","","","","","","","","","","","","","","",""
"null","","null","html-keyboard-response","170","398868","0.0-6.0-1.0-8.0-0.31","3","3","3","3","3","3","3","2","3","3","4","4","2","4","4","4","4","3","4","4","2","3","2","2","2","2","2","2","1","1","1","0","0","0","0","0","1","1","0","1","0","1","0","1","3","2","4","2","3","1","4","4","3","4","2","774615163172294657","s","539","","","","","","","","","","","","","","","","","","","","","","","","","","","","","","","","","","","","","","","","","",""
"518","<p style=""color:white; font-size: 35px;"">正直</p>","i","categorize-html","171","399388","0.0-6.0-1.0-8.0-1.31","3","3","3","3","3","3","3","2","3","3","4","4","2","4","4","4","4","3","4","4","2","3","2","2","2","2","2","2","1","1","1","0","0","0","0","0","1","1","0","1","0","1","0","1","3","2","4","2","3","1","4","4","3","4","2","774615163172294657","s","539","","","","","","","","","","","","","","","","","","","true","14","4","moral","518","positive","正直","","","","","","","","","","","","","","","","",""
"null","","null","html-keyboard-response","172","399639","0.0-6.0-1.0-8.0-0.32","3","3","3","3","3","3","3","2","3","3","4","4","2","4","4","4","4","3","4","4","2","3","2","2","2","2","2","2","1","1","1","0","0","0","0","0","1","1","0","1","0","1","0","1","3","2","4","2","3","1","4","4","3","4","2","774615163172294657","s","539","","","","","","","","","","","","","","","","","","","","","","","","","","","","","","","","","","","","","","","","","",""
"612","<p style=""color:rgb(150, 250, 100); font-size: 35px;"">自己</p>","e","categorize-html","173","400251","0.0-6.0-1.0-8.0-1.32","3","3","3","3","3","3","3","2","3","3","4","4","2","4","4","4","4","3","4","4","2","3","2","2","2","2","2","2","1","1","1","0","0","0","0","0","1","1","0","1","0","1","0","1","3","2","4","2","3","1","4","4","3","4","2","774615163172294657","s","539","","","","","","","","","","","","","","","","","","","true","14","4","moral","612","self","自己","","","","","","","","","","","","","","","","",""
"null","","null","html-keyboard-response","174","400503","0.0-6.0-1.0-8.0-0.33","3","3","3","3","3","3","3","2","3","3","4","4","2","4","4","4","4","3","4","4","2","3","2","2","2","2","2","2","1","1","1","0","0","0","0","0","1","1","0","1","0","1","0","1","3","2","4","2","3","1","4","4","3","4","2","774615163172294657","s","539","","","","","","","","","","","","","","","","","","","","","","","","","","","","","","","","","","","","","","","","","",""
"561","<p style=""color:white; font-size: 35px;"">不仁</p>","e","categorize-html","175","401065","0.0-6.0-1.0-8.0-1.33","3","3","3","3","3","3","3","2","3","3","4","4","2","4","4","4","4","3","4","4","2","3","2","2","2","2","2","2","1","1","1","0","0","0","0","0","1","1","0","1","0","1","0","1","3","2","4","2","3","1","4","4","3","4","2","774615163172294657","s","539","","","","","","","","","","","","","","","","","","","true","14","4","moral","561","negative","不仁","","","","","","","","","","","","","","","","",""
"null","","null","html-keyboard-response","176","401316","0.0-6.0-1.0-8.0-0.34","3","3","3","3","3","3","3","2","3","3","4","4","2","4","4","4","4","3","4","4","2","3","2","2","2","2","2","2","1","1","1","0","0","0","0","0","1","1","0","1","0","1","0","1","3","2","4","2","3","1","4","4","3","4","2","774615163172294657","s","539","","","","","","","","","","","","","","","","","","","","","","","","","","","","","","","","","","","","","","","","","",""
"647","<p style=""color:rgb(150, 250, 100); font-size: 35px;"">他人</p>","i","categorize-html","177","401963","0.0-6.0-1.0-8.0-1.34","3","3","3","3","3","3","3","2","3","3","4","4","2","4","4","4","4","3","4","4","2","3","2","2","2","2","2","2","1","1","1","0","0","0","0","0","1","1","0","1","0","1","0","1","3","2","4","2","3","1","4","4","3","4","2","774615163172294657","s","539","","","","","","","","","","","","","","","","","","","true","14","4","moral","647","other","他人","","","","","","","","","","","","","","","","",""
"null","","null","html-keyboard-response","178","402215","0.0-6.0-1.0-8.0-0.35","3","3","3","3","3","3","3","2","3","3","4","4","2","4","4","4","4","3","4","4","2","3","2","2","2","2","2","2","1","1","1","0","0","0","0","0","1","1","0","1","0","1","0","1","3","2","4","2","3","1","4","4","3","4","2","774615163172294657","s","539","","","","","","","","","","","","","","","","","","","","","","","","","","","","","","","","","","","","","","","","","",""
"623","<p style=""color:white; font-size: 35px;"">高尚</p>","i","categorize-html","179","402840","0.0-6.0-1.0-8.0-1.35","3","3","3","3","3","3","3","2","3","3","4","4","2","4","4","4","4","3","4","4","2","3","2","2","2","2","2","2","1","1","1","0","0","0","0","0","1","1","0","1","0","1","0","1","3","2","4","2","3","1","4","4","3","4","2","774615163172294657","s","539","","","","","","","","","","","","","","","","","","","true","14","4","moral","623","positive","高尚","","","","","","","","","","","","","","","","",""
"null","","null","html-keyboard-response","180","403090","0.0-6.0-1.0-8.0-0.36","3","3","3","3","3","3","3","2","3","3","4","4","2","4","4","4","4","3","4","4","2","3","2","2","2","2","2","2","1","1","1","0","0","0","0","0","1","1","0","1","0","1","0","1","3","2","4","2","3","1","4","4","3","4","2","774615163172294657","s","539","","","","","","","","","","","","","","","","","","","","","","","","","","","","","","","","","","","","","","","","","",""
"489","<p style=""color:rgb(150, 250, 100); font-size: 35px;"">别人</p>","i","categorize-html","181","403580","0.0-6.0-1.0-8.0-1.36","3","3","3","3","3","3","3","2","3","3","4","4","2","4","4","4","4","3","4","4","2","3","2","2","2","2","2","2","1","1","1","0","0","0","0","0","1","1","0","1","0","1","0","1","3","2","4","2","3","1","4","4","3","4","2","774615163172294657","s","539","","","","","","","","","","","","","","","","","","","true","14","4","moral","489","other","别人","","","","","","","","","","","","","","","","",""
"null","","null","html-keyboard-response","182","403841","0.0-6.0-1.0-8.0-0.37","3","3","3","3","3","3","3","2","3","3","4","4","2","4","4","4","4","3","4","4","2","3","2","2","2","2","2","2","1","1","1","0","0","0","0","0","1","1","0","1","0","1","0","1","3","2","4","2","3","1","4","4","3","4","2","774615163172294657","s","539","","","","","","","","","","","","","","","","","","","","","","","","","","","","","","","","","","","","","","","","","",""
"1191","<p style=""color:white; font-size: 35px;"">正直</p>","i","categorize-html","183","405032","0.0-6.0-1.0-8.0-1.37","3","3","3","3","3","3","3","2","3","3","4","4","2","4","4","4","4","3","4","4","2","3","2","2","2","2","2","2","1","1","1","0","0","0","0","0","1","1","0","1","0","1","0","1","3","2","4","2","3","1","4","4","3","4","2","774615163172294657","s","539","","","","","","","","","","","","","","","","","","","true","14","4","moral","1191","positive","正直","","","","","","","","","","","","","","","","",""
"null","","null","html-keyboard-response","184","405286","0.0-6.0-1.0-8.0-0.38","3","3","3","3","3","3","3","2","3","3","4","4","2","4","4","4","4","3","4","4","2","3","2","2","2","2","2","2","1","1","1","0","0","0","0","0","1","1","0","1","0","1","0","1","3","2","4","2","3","1","4","4","3","4","2","774615163172294657","s","539","","","","","","","","","","","","","","","","","","","","","","","","","","","","","","","","","","","","","","","","","",""
"582","<p style=""color:rgb(150, 250, 100); font-size: 35px;"">自己</p>","e","categorize-html","185","405868","0.0-6.0-1.0-8.0-1.38","3","3","3","3","3","3","3","2","3","3","4","4","2","4","4","4","4","3","4","4","2","3","2","2","2","2","2","2","1","1","1","0","0","0","0","0","1","1","0","1","0","1","0","1","3","2","4","2","3","1","4","4","3","4","2","774615163172294657","s","539","","","","","","","","","","","","","","","","","","","true","14","4","moral","582","self","自己","","","","","","","","","","","","","","","","",""
"null","","null","html-keyboard-response","186","406119","0.0-6.0-1.0-8.0-0.39","3","3","3","3","3","3","3","2","3","3","4","4","2","4","4","4","4","3","4","4","2","3","2","2","2","2","2","2","1","1","1","0","0","0","0","0","1","1","0","1","0","1","0","1","3","2","4","2","3","1","4","4","3","4","2","774615163172294657","s","539","","","","","","","","","","","","","","","","","","","","","","","","","","","","","","","","","","","","","","","","","",""
"385","<p style=""color:white; font-size: 35px;"">卑鄙</p>","e","categorize-html","187","406504","0.0-6.0-1.0-8.0-1.39","3","3","3","3","3","3","3","2","3","3","4","4","2","4","4","4","4","3","4","4","2","3","2","2","2","2","2","2","1","1","1","0","0","0","0","0","1","1","0","1","0","1","0","1","3","2","4","2","3","1","4","4","3","4","2","774615163172294657","s","539","","","","","","","","","","","","","","","","","","","true","14","4","moral","385","negative","卑鄙","","","","","","","","","","","","","","","","",""
"null","","null","html-keyboard-response","188","406756","0.0-6.0-1.0-8.0-0.40","3","3","3","3","3","3","3","2","3","3","4","4","2","4","4","4","4","3","4","4","2","3","2","2","2","2","2","2","1","1","1","0","0","0","0","0","1","1","0","1","0","1","0","1","3","2","4","2","3","1","4","4","3","4","2","774615163172294657","s","539","","","","","","","","","","","","","","","","","","","","","","","","","","","","","","","","","","","","","","","","","",""
"493","<p style=""color:rgb(150, 250, 100); font-size: 35px;"">我</p>","e","categorize-html","189","407250","0.0-6.0-1.0-8.0-1.40","3","3","3","3","3","3","3","2","3","3","4","4","2","4","4","4","4","3","4","4","2","3","2","2","2","2","2","2","1","1","1","0","0","0","0","0","1","1","0","1","0","1","0","1","3","2","4","2","3","1","4","4","3","4","2","774615163172294657","s","539","","","","","","","","","","","","","","","","","","","true","14","4","moral","493","self","我","","","","","","","","","","","","","","","","",""
"null","","null","html-keyboard-response","190","407502","0.0-6.0-1.0-8.0-0.41","3","3","3","3","3","3","3","2","3","3","4","4","2","4","4","4","4","3","4","4","2","3","2","2","2","2","2","2","1","1","1","0","0","0","0","0","1","1","0","1","0","1","0","1","3","2","4","2","3","1","4","4","3","4","2","774615163172294657","s","539","","","","","","","","","","","","","","","","","","","","","","","","","","","","","","","","","","","","","","","","","",""
"572","<p style=""color:white; font-size: 35px;"">廉正</p>","i","categorize-html","191","408075","0.0-6.0-1.0-8.0-1.41","3","3","3","3","3","3","3","2","3","3","4","4","2","4","4","4","4","3","4","4","2","3","2","2","2","2","2","2","1","1","1","0","0","0","0","0","1","1","0","1","0","1","0","1","3","2","4","2","3","1","4","4","3","4","2","774615163172294657","s","539","","","","","","","","","","","","","","","","","","","true","14","4","moral","572","positive","廉正","","","","","","","","","","","","","","","","",""
"null","","null","html-keyboard-response","192","408326","0.0-6.0-1.0-8.0-0.42","3","3","3","3","3","3","3","2","3","3","4","4","2","4","4","4","4","3","4","4","2","3","2","2","2","2","2","2","1","1","1","0","0","0","0","0","1","1","0","1","0","1","0","1","3","2","4","2","3","1","4","4","3","4","2","774615163172294657","s","539","","","","","","","","","","","","","","","","","","","","","","","","","","","","","","","","","","","","","","","","","",""
"867","<p style=""color:rgb(150, 250, 100); font-size: 35px;"">别人的</p>","i","categorize-html","193","409193","0.0-6.0-1.0-8.0-1.42","3","3","3","3","3","3","3","2","3","3","4","4","2","4","4","4","4","3","4","4","2","3","2","2","2","2","2","2","1","1","1","0","0","0","0","0","1","1","0","1","0","1","0","1","3","2","4","2","3","1","4","4","3","4","2","774615163172294657","s","539","","","","","","","","","","","","","","","","","","","true","14","4","moral","867","other","别人的","","","","","","","","","","","","","","","","",""
