"rt","stimulus","response","trial_type","trial_index","time_elapsed","internal_node_id","ses_1","ses_2","ses_3","ses_4","ses_5","ses_6","ses_7","ses_8","ses_9","ses_10","coreself_1","coreself_2","coreself_3","coreself_4","coreself_5","coreself_6","coreself_7","coreself_8","coreself_9","coreself_10","SGPS_1","SGPS_2","SGPS_3","SGPS_4","SGPS_5","SGPS_6","SGPS_7","SGPS_8","SGPS_9","NPI1","NPI2","NPI3","NPI4","NPI5","NPI6","NPI7","NPI8","NPI9","NPI10","NPI11","NPI12","NPI13","NPI14","NPI15","hsns_1","hsns_2","hsns_3","hsns_4","hsns_5","trap1","hsns_6","hsns_7","hsns_8","hsns_9","hsns_10","subj_idx","friend_name","ParticipantID","value","success","user_agent","responses","item_order","radio_event_ids","radio_event_times","key_event_times","mouse_event_times","straightlining","zigzagging","honeypot","timeout","failed_images","failed_audio","failed_video","view_history","response_type","key_press","avg_frame_time","center_x","center_y","correct_response","correct","identity","Image","word","condition","task_id","screen_id","time_stamp","version_attrib2","version_target2","IAT","RT","varname","summary","version_attrib","version_target","question_order","correct_answer","trap1_item"
"26904","
   <p><div style = ""color: white;font-size:25px;"">您好，欢迎参加本次实验。</div> </p>
   <p><div style = ""color: white;font-size:25px;"">为充分保障您的权利，请确保您已经知晓并同意《参与实验同意书》以及《数据公开知情同意书》。</div></p>
   <p><div style = ""color: white;font-size:25px;"">如果您未见过上述内容，请咨询实验员。</div></p>
   <p><div style = ""color: white;font-size:25px;"">如果您选择继续实验，则表示您已经清楚两份知情同意书的内容并同意。</div></p>
   <p><div style = ""color: pink;font-size:30px;"">请确保您记得day0的实验编号，您将在本次实验输入该编号，若您忘记，请咨询实验员后作答。</div></p>
   <p><div style = ""color: lightblue;font-size:25px;"">请您尽可能认真地作答，我们将依据您在各问卷和按键任务中的作答质量发放报酬。</div></p>
   <p> <div style = ""color: green;font-size:25px;""><按空格键至下页></div> </p>
   "," ","html-keyboard-response","0","26907","0.0-0.0","4","3","4","3","4","3","3","3","4","4","4","4","3","4","4","4","5","3","4","5","2","1","2","2","2","1","1","2","3","1","0","0","1","0","0","1","1","0","1","1","0","1","0","1","5","4","4","2","4","","3","4","2","3","1","779745842755276801","陈","651","","","","","","","","","","","","","","","","","","","","","","","","","","","","","","","","","","","","","","","","","",""
"","","","call-function","1","26909","0.0-1.0-0.0","4","3","4","3","4","3","3","3","4","4","4","4","3","4","4","4","5","3","4","5","2","1","2","2","2","1","1","2","3","1","0","0","1","0","0","1","1","0","1","1","0","1","0","1","5","4","4","2","4","","3","4","2","3","1","779745842755276801","陈","651","","","","","","","","","","","","","","","","","","","","","","","","","","","","","","","","","","","","","","","","","",""
"79046","","{""friend_name"":""陈"",""ParticipantID"":""651""}","survey-html-form","2","105957","0.0-1.0-1.0","4","3","4","3","4","3","3","3","4","4","4","4","3","4","4","4","5","3","4","5","2","1","2","2","2","1","1","2","3","1","0","0","1","0","0","1","1","0","1","1","0","1","0","1","5","4","4","2","4","","3","4","2","3","1","779745842755276801","陈","651","","","","","","","","","","","","","","","","","","","","","","","","","","","","","","","","","","","","","","","","","",""
"","","","fullscreen","3","155142","0.0-2.0","4","3","4","3","4","3","3","3","4","4","4","4","3","4","4","4","5","3","4","5","2","1","2","2","2","1","1","2","3","1","0","0","1","0","0","1","1","0","1","1","0","1","0","1","5","4","4","2","4","","3","4","2","3","1","779745842755276801","陈","651","","true","{}","","","","","","","","","","","","","","","","","","","","","","","","","","","","","","","","","","","","","","",""
"46639.39999997616","","{""Q01"":""4"",""Q02"":""3"",""Q03"":""4"",""Q04"":""3"",""Q05"":""4"",""Q06"":""3"",""Q07"":""3"",""Q08"":""3"",""Q09"":""4"",""Q10"":""4""}","survey-template","4","201785","0.0-3.0","4","3","4","3","4","3","3","3","4","4","4","4","3","4","4","4","5","3","4","5","2","1","2","2","2","1","1","2","3","1","0","0","1","0","0","1","1","0","1","1","0","1","0","1","5","4","4","2","4","","3","4","2","3","1","779745842755276801","陈","651","","","","{""Q01"":""4"",""Q02"":""3"",""Q03"":""4"",""Q04"":""3"",""Q05"":""4"",""Q06"":""3"",""Q07"":""3"",""Q08"":""3"",""Q09"":""4"",""Q10"":""4""}","[0,1,2,3,4,5,6,7,8,9]","[""Q10"",""Q09"",""Q08"",""Q01"",""Q02"",""Q03"",""Q04"",""Q05"",""Q06"",""Q07"",""Q02""]","[5820.899999976158,8178.299999952316,11649.299999952316,15447.899999976158,16930.899999976158,18613.5,20168.899999976158,22972.299999952316,24445.899999976158,26320.399999976158,37033.19999998808]","[]","[5820.899999976158,8178.299999952316,11649.299999952316,15447.899999976158,16930.899999976158,18613.5,20168.899999976158,22972.299999952316,24445.899999976158,26320.399999976158,37033.19999998808,46637.59999996424]","0.4","0.3333333333333333","0","","","","","","","","","","","","","","","","","","","","","","","","","","","","","",""
"47212","","{""Q01"":""4"",""Q02"":""4"",""Q03"":""3"",""Q04"":""4"",""Q05"":""4"",""Q06"":""4"",""Q07"":""5"",""Q08"":""3"",""Q09"":""4"",""Q10"":""5""}","survey-template","5","249006","0.0-4.0","4","3","4","3","4","3","3","3","4","4","4","4","3","4","4","4","5","3","4","5","2","1","2","2","2","1","1","2","3","1","0","0","1","0","0","1","1","0","1","1","0","1","0","1","5","4","4","2","4","","3","4","2","3","1","779745842755276801","陈","651","","","","{""Q01"":""4"",""Q02"":""4"",""Q03"":""3"",""Q04"":""4"",""Q05"":""4"",""Q06"":""4"",""Q07"":""5"",""Q08"":""3"",""Q09"":""4"",""Q10"":""5""}","[0,1,2,3,4,5,6,7,8,9]","[""Q10"",""Q09"",""Q01"",""Q02"",""Q03"",""Q04"",""Q05"",""Q06"",""Q07"",""Q08""]","[3170.899999976158,5491.099999964237,10329,11828.099999964237,13579.699999988079,15127.5,17159.099999964237,18627.299999952316,20461.299999952316,22917.599999964237]","[]","[3170.899999976158,5491.099999964237,10329,11828.099999964237,13579.699999988079,15127.5,17159.099999964237,18627.299999952316,20461.299999952316,22917.599999964237,47210.39999997616]","0.4","0.3333333333333333","0","","","","","","","","","","","","","","","","","","","","","","","","","","","","","",""
"","","","preload","6","249539","0.0-5.0","4","3","4","3","4","3","3","3","4","4","4","4","3","4","4","4","5","3","4","5","2","1","2","2","2","1","1","2","3","1","0","0","1","0","0","1","1","0","1","1","0","1","0","1","5","4","4","2","4","","3","4","2","3","1","779745842755276801","陈","651","","true","","","","","","","","","","","false","[]","[]","[]","","","","","","","","","","","","","","","","","","","","","","","","","",""
"18989","","","instructions","7","268529","0.0-6.0","4","3","4","3","4","3","3","3","4","4","4","4","3","4","4","4","5","3","4","5","2","1","2","2","2","1","1","2","3","1","0","0","1","0","0","1","1","0","1","1","0","1","0","1","5","4","4","2","4","","3","4","2","3","1","779745842755276801","陈","651","","","","","","","","","","","","","","","","","[{""page_index"":0,""viewing_time"":18988}]","","","","","","","","","","","","","","","","","","","","","","","","",""
"34310","","","instructions","8","302841","0.0-7.0-1.0-0.0","4","3","4","3","4","3","3","3","4","4","4","4","3","4","4","4","5","3","4","5","2","1","2","2","2","1","1","2","3","1","0","0","1","0","0","1","1","0","1","1","0","1","0","1","5","4","4","2","4","","3","4","2","3","1","779745842755276801","陈","651","","","","","","","","","","","","","","","","","[{""page_index"":0,""viewing_time"":24074},{""page_index"":1,""viewing_time"":7377},{""page_index"":2,""viewing_time"":2859}]","","","","","","","","","","","","","","","","","","","","","","","","",""
"null","","null","psychophysics","9","305843","0.0-7.0-1.0-1.0-0.0-0.0","4","3","4","3","4","3","3","3","4","4","4","4","3","4","4","4","5","3","4","5","2","1","2","2","2","1","1","2","3","1","0","0","1","0","0","1","1","0","1","1","0","1","0","1","5","4","4","2","4","","3","4","2","3","1","779745842755276801","陈","651","","","","null","","","","","","","","","","","","","","key","null","16.65","640","356","j","false","match","img/circle.png","圆形","圆形","ALT1_2","prac_ALT1_2","","","","","","","","","","","",""
"null","<span class='add_' style='color:yellow; font-size: 70px;'> 太慢! </span>","null","html-keyboard-response","10","306843","0.0-7.0-1.0-1.0-0.0-1.0","4","3","4","3","4","3","3","3","4","4","4","4","3","4","4","4","5","3","4","5","2","1","2","2","2","1","1","2","3","1","0","0","1","0","0","1","1","0","1","1","0","1","0","1","5","4","4","2","4","","3","4","2","3","1","779745842755276801","陈","651","","","","","","","","","","","","","","","","","","","","","","","","","","","","","","feedback_test","","","","","","","","","","","",""
"null","","null","psychophysics","11","309050","0.0-7.0-1.0-1.0-0.0-0.1","4","3","4","3","4","3","3","3","4","4","4","4","3","4","4","4","5","3","4","5","2","1","2","2","2","1","1","2","3","1","0","0","1","0","0","1","1","0","1","1","0","1","0","1","5","4","4","2","4","","3","4","2","3","1","779745842755276801","陈","651","","","","null","","","","","","","","","","","","","","key","null","16.61984732824392","640","356","j","false","match","img/square.png","方形","方形","ALT1_2","prac_ALT1_2","","","","","","","","","","","",""
"null","<span class='add_' style='color:yellow; font-size: 70px;'> 太慢! </span>","null","html-keyboard-response","12","309551","0.0-7.0-1.0-1.0-0.0-1.1","4","3","4","3","4","3","3","3","4","4","4","4","3","4","4","4","5","3","4","5","2","1","2","2","2","1","1","2","3","1","0","0","1","0","0","1","1","0","1","1","0","1","0","1","5","4","4","2","4","","3","4","2","3","1","779745842755276801","陈","651","","","","","","","","","","","","","","","","","","","","","","","","","","","","","","feedback_test","","","","","","","","","","","",""
"417","","j","psychophysics","13","310971","0.0-7.0-1.0-1.0-0.0-0.2","4","3","4","3","4","3","3","3","4","4","4","4","3","4","4","4","5","3","4","5","2","1","2","2","2","1","1","2","3","1","0","0","1","0","0","1","1","0","1","1","0","1","0","1","5","4","4","2","4","","3","4","2","3","1","779745842755276801","陈","651","","","","match","","","","","","","","","","","","","","key","j","16.522619047619326","640","356","f","false","nonmatch","img/diamond.png","五边","菱形","ALT1_2","prac_ALT1_2","","","","","","","","","","","",""
"null","<span style='color:red; font-size: 70px;'>错误! </span>","null","html-keyboard-response","14","311473","0.0-7.0-1.0-1.0-0.0-1.2","4","3","4","3","4","3","3","3","4","4","4","4","3","4","4","4","5","3","4","5","2","1","2","2","2","1","1","2","3","1","0","0","1","0","0","1","1","0","1","1","0","1","0","1","5","4","4","2","4","","3","4","2","3","1","779745842755276801","陈","651","","","","","","","","","","","","","","","","","","","","","","","","","","","","","","feedback_test","","","","","","","","","","","",""
"733","","f","psychophysics","15","313208","0.0-7.0-1.0-1.0-0.0-0.3","4","3","4","3","4","3","3","3","4","4","4","4","3","4","4","4","5","3","4","5","2","1","2","2","2","1","1","2","3","1","0","0","1","0","0","1","1","0","1","1","0","1","0","1","5","4","4","2","4","","3","4","2","3","1","779745842755276801","陈","651","","","","nonmatch","","","","","","","","","","","","","","key","f","16.636893203883268","640","356","f","true","nonmatch","img/pentagon.png","菱形","五边","ALT1_2","prac_ALT1_2","","","","","","","","","","","",""
"null","<span style='color:GreenYellow; font-size: 70px;'>正确! </span>","null","html-keyboard-response","16","313843","0.0-7.0-1.0-1.0-0.0-1.3","4","3","4","3","4","3","3","3","4","4","4","4","3","4","4","4","5","3","4","5","2","1","2","2","2","1","1","2","3","1","0","0","1","0","0","1","1","0","1","1","0","1","0","1","5","4","4","2","4","","3","4","2","3","1","779745842755276801","陈","651","","","","","","","","","","","","","","","","","","","","","","","","","","","","","","feedback_test","","","","","","","","","","","",""
"null","","null","psychophysics","17","316047","0.0-7.0-1.0-1.0-0.0-0.4","4","3","4","3","4","3","3","3","4","4","4","4","3","4","4","4","5","3","4","5","2","1","2","2","2","1","1","2","3","1","0","0","1","0","0","1","1","0","1","1","0","1","0","1","5","4","4","2","4","","3","4","2","3","1","779745842755276801","陈","651","","","","null","","","","","","","","","","","","","","key","null","16.601526717557164","640","356","f","false","nonmatch","img/pentagon.png","圆形","五边","ALT1_2","prac_ALT1_2","","","","","","","","","","","",""
"null","<span class='add_' style='color:yellow; font-size: 70px;'> 太慢! </span>","null","html-keyboard-response","18","316548","0.0-7.0-1.0-1.0-0.0-1.4","4","3","4","3","4","3","3","3","4","4","4","4","3","4","4","4","5","3","4","5","2","1","2","2","2","1","1","2","3","1","0","0","1","0","0","1","1","0","1","1","0","1","0","1","5","4","4","2","4","","3","4","2","3","1","779745842755276801","陈","651","","","","","","","","","","","","","","","","","","","","","","","","","","","","","","feedback_test","","","","","","","","","","","",""
"976","","f","psychophysics","19","318526","0.0-7.0-1.0-1.0-0.0-0.5","4","3","4","3","4","3","3","3","4","4","4","4","3","4","4","4","5","3","4","5","2","1","2","2","2","1","1","2","3","1","0","0","1","0","0","1","1","0","1","1","0","1","0","1","5","4","4","2","4","","3","4","2","3","1","779745842755276801","陈","651","","","","nonmatch","","","","","","","","","","","","","","key","f","16.652991452991653","640","356","f","true","nonmatch","img/diamond.png","圆形","菱形","ALT1_2","prac_ALT1_2","","","","","","","","","","","",""
"null","<span style='color:GreenYellow; font-size: 70px;'>正确! </span>","null","html-keyboard-response","20","319029","0.0-7.0-1.0-1.0-0.0-1.5","4","3","4","3","4","3","3","3","4","4","4","4","3","4","4","4","5","3","4","5","2","1","2","2","2","1","1","2","3","1","0","0","1","0","0","1","1","0","1","1","0","1","0","1","5","4","4","2","4","","3","4","2","3","1","779745842755276801","陈","651","","","","","","","","","","","","","","","","","","","","","","","","","","","","","","feedback_test","","","","","","","","","","","",""
"600","","j","psychophysics","21","320631","0.0-7.0-1.0-1.0-0.0-0.6","4","3","4","3","4","3","3","3","4","4","4","4","3","4","4","4","5","3","4","5","2","1","2","2","2","1","1","2","3","1","0","0","1","0","0","1","1","0","1","1","0","1","0","1","5","4","4","2","4","","3","4","2","3","1","779745842755276801","陈","651","","","","match","","","","","","","","","","","","","","key","j","16.62421052631628","640","356","j","true","match","img/circle.png","圆形","圆形","ALT1_2","prac_ALT1_2","","","","","","","","","","","",""
"null","<span style='color:GreenYellow; font-size: 70px;'>正确! </span>","null","html-keyboard-response","22","321133","0.0-7.0-1.0-1.0-0.0-1.6","4","3","4","3","4","3","3","3","4","4","4","4","3","4","4","4","5","3","4","5","2","1","2","2","2","1","1","2","3","1","0","0","1","0","0","1","1","0","1","1","0","1","0","1","5","4","4","2","4","","3","4","2","3","1","779745842755276801","陈","651","","","","","","","","","","","","","","","","","","","","","","","","","","","","","","feedback_test","","","","","","","","","","","",""
"696","","f","psychophysics","23","322831","0.0-7.0-1.0-1.0-0.0-0.7","4","3","4","3","4","3","3","3","4","4","4","4","3","4","4","4","5","3","4","5","2","1","2","2","2","1","1","2","3","1","0","0","1","0","0","1","1","0","1","1","0","1","0","1","5","4","4","2","4","","3","4","2","3","1","779745842755276801","陈","651","","","","nonmatch","","","","","","","","","","","","","","key","f","16.653465346534652","640","356","f","true","nonmatch","img/circle.png","菱形","圆形","ALT1_2","prac_ALT1_2","","","","","","","","","","","",""
"null","<span style='color:GreenYellow; font-size: 70px;'>正确! </span>","null","html-keyboard-response","24","323335","0.0-7.0-1.0-1.0-0.0-1.7","4","3","4","3","4","3","3","3","4","4","4","4","3","4","4","4","5","3","4","5","2","1","2","2","2","1","1","2","3","1","0","0","1","0","0","1","1","0","1","1","0","1","0","1","5","4","4","2","4","","3","4","2","3","1","779745842755276801","陈","651","","","","","","","","","","","","","","","","","","","","","","","","","","","","","","feedback_test","","","","","","","","","","","",""
"642","","f","psychophysics","25","324979","0.0-7.0-1.0-1.0-0.0-0.8","4","3","4","3","4","3","3","3","4","4","4","4","3","4","4","4","5","3","4","5","2","1","2","2","2","1","1","2","3","1","0","0","1","0","0","1","1","0","1","1","0","1","0","1","5","4","4","2","4","","3","4","2","3","1","779745842755276801","陈","651","","","","nonmatch","","","","","","","","","","","","","","key","f","16.58775510204117","640","356","j","false","match","img/pentagon.png","五边","五边","ALT1_2","prac_ALT1_2","","","","","","","","","","","",""
"null","<span style='color:red; font-size: 70px;'>错误! </span>","null","html-keyboard-response","26","325480","0.0-7.0-1.0-1.0-0.0-1.8","4","3","4","3","4","3","3","3","4","4","4","4","3","4","4","4","5","3","4","5","2","1","2","2","2","1","1","2","3","1","0","0","1","0","0","1","1","0","1","1","0","1","0","1","5","4","4","2","4","","3","4","2","3","1","779745842755276801","陈","651","","","","","","","","","","","","","","","","","","","","","","","","","","","","","","feedback_test","","","","","","","","","","","",""
"174","","f","psychophysics","27","327017","0.0-7.0-1.0-1.0-0.0-0.9","4","3","4","3","4","3","3","3","4","4","4","4","3","4","4","4","5","3","4","5","2","1","2","2","2","1","1","2","3","1","0","0","1","0","0","1","1","0","1","1","0","1","0","1","5","4","4","2","4","","3","4","2","3","1","779745842755276801","陈","651","","","","nonmatch","","","","","","","","","","","","","","key","f","16.61868131868119","640","356","j","false","match","img/pentagon.png","五边","五边","ALT1_2","prac_ALT1_2","","","","","","","","","","","",""
"null","<span style='color:yellow; font-size: 70px;'>过快! </span>","null","html-keyboard-response","28","327519","0.0-7.0-1.0-1.0-0.0-1.9","4","3","4","3","4","3","3","3","4","4","4","4","3","4","4","4","5","3","4","5","2","1","2","2","2","1","1","2","3","1","0","0","1","0","0","1","1","0","1","1","0","1","0","1","5","4","4","2","4","","3","4","2","3","1","779745842755276801","陈","651","","","","","","","","","","","","","","","","","","","","","","","","","","","","","","feedback_test","","","","","","","","","","","",""
"null","","null","psychophysics","29","329722","0.0-7.0-1.0-1.0-0.0-0.10","4","3","4","3","4","3","3","3","4","4","4","4","3","4","4","4","5","3","4","5","2","1","2","2","2","1","1","2","3","1","0","0","1","0","0","1","1","0","1","1","0","1","0","1","5","4","4","2","4","","3","4","2","3","1","779745842755276801","陈","651","","","","null","","","","","","","","","","","","","","key","null","16.577862595419937","640","356","f","false","nonmatch","img/square.png","五边","方形","ALT1_2","prac_ALT1_2","","","","","","","","","","","",""
"null","<span class='add_' style='color:yellow; font-size: 70px;'> 太慢! </span>","null","html-keyboard-response","30","330224","0.0-7.0-1.0-1.0-0.0-1.10","4","3","4","3","4","3","3","3","4","4","4","4","3","4","4","4","5","3","4","5","2","1","2","2","2","1","1","2","3","1","0","0","1","0","0","1","1","0","1","1","0","1","0","1","5","4","4","2","4","","3","4","2","3","1","779745842755276801","陈","651","","","","","","","","","","","","","","","","","","","","","","","","","","","","","","feedback_test","","","","","","","","","","","",""
"917","","f","psychophysics","31","332143","0.0-7.0-1.0-1.0-0.0-0.11","4","3","4","3","4","3","3","3","4","4","4","4","3","4","4","4","5","3","4","5","2","1","2","2","2","1","1","2","3","1","0","0","1","0","0","1","1","0","1","1","0","1","0","1","5","4","4","2","4","","3","4","2","3","1","779745842755276801","陈","651","","","","nonmatch","","","","","","","","","","","","","","key","f","16.645614035088027","640","356","f","true","nonmatch","img/pentagon.png","方形","五边","ALT1_2","prac_ALT1_2","","","","","","","","","","","",""
"null","<span style='color:GreenYellow; font-size: 70px;'>正确! </span>","null","html-keyboard-response","32","332645","0.0-7.0-1.0-1.0-0.0-1.11","4","3","4","3","4","3","3","3","4","4","4","4","3","4","4","4","5","3","4","5","2","1","2","2","2","1","1","2","3","1","0","0","1","0","0","1","1","0","1","1","0","1","0","1","5","4","4","2","4","","3","4","2","3","1","779745842755276801","陈","651","","","","","","","","","","","","","","","","","","","","","","","","","","","","","","feedback_test","","","","","","","","","","","",""
"840","","j","psychophysics","33","334487","0.0-7.0-1.0-1.0-0.0-0.12","4","3","4","3","4","3","3","3","4","4","4","4","3","4","4","4","5","3","4","5","2","1","2","2","2","1","1","2","3","1","0","0","1","0","0","1","1","0","1","1","0","1","0","1","5","4","4","2","4","","3","4","2","3","1","779745842755276801","陈","651","","","","match","","","","","","","","","","","","","","key","j","16.607272727272623","640","356","j","true","match","img/diamond.png","菱形","菱形","ALT1_2","prac_ALT1_2","","","","","","","","","","","",""
"null","<span style='color:GreenYellow; font-size: 70px;'>正确! </span>","null","html-keyboard-response","34","334988","0.0-7.0-1.0-1.0-0.0-1.12","4","3","4","3","4","3","3","3","4","4","4","4","3","4","4","4","5","3","4","5","2","1","2","2","2","1","1","2","3","1","0","0","1","0","0","1","1","0","1","1","0","1","0","1","5","4","4","2","4","","3","4","2","3","1","779745842755276801","陈","651","","","","","","","","","","","","","","","","","","","","","","","","","","","","","","feedback_test","","","","","","","","","","","",""
"810","","f","psychophysics","35","336800","0.0-7.0-1.0-1.0-0.0-0.13","4","3","4","3","4","3","3","3","4","4","4","4","3","4","4","4","5","3","4","5","2","1","2","2","2","1","1","2","3","1","0","0","1","0","0","1","1","0","1","1","0","1","0","1","5","4","4","2","4","","3","4","2","3","1","779745842755276801","陈","651","","","","nonmatch","","","","","","","","","","","","","","key","f","16.64074074074085","640","356","f","true","nonmatch","img/square.png","菱形","方形","ALT1_2","prac_ALT1_2","","","","","","","","","","","",""
"null","<span style='color:GreenYellow; font-size: 70px;'>正确! </span>","null","html-keyboard-response","36","337843","0.0-7.0-1.0-1.0-0.0-1.13","4","3","4","3","4","3","3","3","4","4","4","4","3","4","4","4","5","3","4","5","2","1","2","2","2","1","1","2","3","1","0","0","1","0","0","1","1","0","1","1","0","1","0","1","5","4","4","2","4","","3","4","2","3","1","779745842755276801","陈","651","","","","","","","","","","","","","","","","","","","","","","","","","","","","","","feedback_test","","","","","","","","","","","",""
"null","","null","psychophysics","37","340047","0.0-7.0-1.0-1.0-0.0-0.14","4","3","4","3","4","3","3","3","4","4","4","4","3","4","4","4","5","3","4","5","2","1","2","2","2","1","1","2","3","1","0","0","1","0","0","1","1","0","1","1","0","1","0","1","5","4","4","2","4","","3","4","2","3","1","779745842755276801","陈","651","","","","null","","","","","","","","","","","","","","key","null","16.581679389312622","640","356","f","false","nonmatch","img/square.png","圆形","方形","ALT1_2","prac_ALT1_2","","","","","","","","","","","",""
"null","<span class='add_' style='color:yellow; font-size: 70px;'> 太慢! </span>","null","html-keyboard-response","38","340549","0.0-7.0-1.0-1.0-0.0-1.14","4","3","4","3","4","3","3","3","4","4","4","4","3","4","4","4","5","3","4","5","2","1","2","2","2","1","1","2","3","1","0","0","1","0","0","1","1","0","1","1","0","1","0","1","5","4","4","2","4","","3","4","2","3","1","779745842755276801","陈","651","","","","","","","","","","","","","","","","","","","","","","","","","","","","","","feedback_test","","","","","","","","","","","",""
"637","","f","psychophysics","39","342187","0.0-7.0-1.0-1.0-0.0-0.15","4","3","4","3","4","3","3","3","4","4","4","4","3","4","4","4","5","3","4","5","2","1","2","2","2","1","1","2","3","1","0","0","1","0","0","1","1","0","1","1","0","1","0","1","5","4","4","2","4","","3","4","2","3","1","779745842755276801","陈","651","","","","nonmatch","","","","","","","","","","","","","","key","f","16.651546391752696","640","356","f","true","nonmatch","img/circle.png","方形","圆形","ALT1_2","prac_ALT1_2","","","","","","","","","","","",""
"null","<span style='color:GreenYellow; font-size: 70px;'>正确! </span>","null","html-keyboard-response","40","342688","0.0-7.0-1.0-1.0-0.0-1.15","4","3","4","3","4","3","3","3","4","4","4","4","3","4","4","4","5","3","4","5","2","1","2","2","2","1","1","2","3","1","0","0","1","0","0","1","1","0","1","1","0","1","0","1","5","4","4","2","4","","3","4","2","3","1","779745842755276801","陈","651","","","","","","","","","","","","","","","","","","","","","","","","","","","","","","feedback_test","","","","","","","","","","","",""
"672","","f","psychophysics","41","344363","0.0-7.0-1.0-1.0-0.0-0.16","4","3","4","3","4","3","3","3","4","4","4","4","3","4","4","4","5","3","4","5","2","1","2","2","2","1","1","2","3","1","0","0","1","0","0","1","1","0","1","1","0","1","0","1","5","4","4","2","4","","3","4","2","3","1","779745842755276801","陈","651","","","","nonmatch","","","","","","","","","","","","","","key","f","16.653000000000464","640","356","j","false","match","img/diamond.png","菱形","菱形","ALT1_2","prac_ALT1_2","","","","","","","","","","","",""
"null","<span style='color:red; font-size: 70px;'>错误! </span>","null","html-keyboard-response","42","345850","0.0-7.0-1.0-1.0-0.0-1.16","4","3","4","3","4","3","3","3","4","4","4","4","3","4","4","4","5","3","4","5","2","1","2","2","2","1","1","2","3","1","0","0","1","0","0","1","1","0","1","1","0","1","0","1","5","4","4","2","4","","3","4","2","3","1","779745842755276801","陈","651","","","","","","","","","","","","","","","","","","","","","","","","","","","","","","feedback_test","","","","","","","","","","","",""
"null","","null","psychophysics","43","348053","0.0-7.0-1.0-1.0-0.0-0.17","4","3","4","3","4","3","3","3","4","4","4","4","3","4","4","4","5","3","4","5","2","1","2","2","2","1","1","2","3","1","0","0","1","0","0","1","1","0","1","1","0","1","0","1","5","4","4","2","4","","3","4","2","3","1","779745842755276801","陈","651","","","","null","","","","","","","","","","","","","","key","null","16.65343511450364","640","356","j","false","match","img/square.png","方形","方形","ALT1_2","prac_ALT1_2","","","","","","","","","","","",""
"null","<span class='add_' style='color:yellow; font-size: 70px;'> 太慢! </span>","null","html-keyboard-response","44","348556","0.0-7.0-1.0-1.0-0.0-1.17","4","3","4","3","4","3","3","3","4","4","4","4","3","4","4","4","5","3","4","5","2","1","2","2","2","1","1","2","3","1","0","0","1","0","0","1","1","0","1","1","0","1","0","1","5","4","4","2","4","","3","4","2","3","1","779745842755276801","陈","651","","","","","","","","","","","","","","","","","","","","","","","","","","","","","","feedback_test","","","","","","","","","","","",""
"615","","f","psychophysics","45","350173","0.0-7.0-1.0-1.0-0.0-0.18","4","3","4","3","4","3","3","3","4","4","4","4","3","4","4","4","5","3","4","5","2","1","2","2","2","1","1","2","3","1","0","0","1","0","0","1","1","0","1","1","0","1","0","1","5","4","4","2","4","","3","4","2","3","1","779745842755276801","陈","651","","","","nonmatch","","","","","","","","","","","","","","key","f","16.652083333333696","640","356","f","true","nonmatch","img/circle.png","五边","圆形","ALT1_2","prac_ALT1_2","","","","","","","","","","","",""
"null","<span style='color:GreenYellow; font-size: 70px;'>正确! </span>","null","html-keyboard-response","46","350675","0.0-7.0-1.0-1.0-0.0-1.18","4","3","4","3","4","3","3","3","4","4","4","4","3","4","4","4","5","3","4","5","2","1","2","2","2","1","1","2","3","1","0","0","1","0","0","1","1","0","1","1","0","1","0","1","5","4","4","2","4","","3","4","2","3","1","779745842755276801","陈","651","","","","","","","","","","","","","","","","","","","","","","","","","","","","","","feedback_test","","","","","","","","","","","",""
"598","","f","psychophysics","47","352276","0.0-7.0-1.0-1.0-0.0-0.19","4","3","4","3","4","3","3","3","4","4","4","4","3","4","4","4","5","3","4","5","2","1","2","2","2","1","1","2","3","1","0","0","1","0","0","1","1","0","1","1","0","1","0","1","5","4","4","2","4","","3","4","2","3","1","779745842755276801","陈","651","","","","nonmatch","","","","","","","","","","","","","","key","f","16.641052631578578","640","356","j","false","match","img/square.png","方形","方形","ALT1_2","prac_ALT1_2","","","","","","","","","","","",""
"null","<span style='color:red; font-size: 70px;'>错误! </span>","null","html-keyboard-response","48","352843","0.0-7.0-1.0-1.0-0.0-1.19","4","3","4","3","4","3","3","3","4","4","4","4","3","4","4","4","5","3","4","5","2","1","2","2","2","1","1","2","3","1","0","0","1","0","0","1","1","0","1","1","0","1","0","1","5","4","4","2","4","","3","4","2","3","1","779745842755276801","陈","651","","","","","","","","","","","","","","","","","","","","","","","","","","","","","","feedback_test","","","","","","","","","","","",""
"null","","null","psychophysics","49","355046","0.0-7.0-1.0-1.0-0.0-0.20","4","3","4","3","4","3","3","3","4","4","4","4","3","4","4","4","5","3","4","5","2","1","2","2","2","1","1","2","3","1","0","0","1","0","0","1","1","0","1","1","0","1","0","1","5","4","4","2","4","","3","4","2","3","1","779745842755276801","陈","651","","","","null","","","","","","","","","","","","","","key","null","16.615267175572342","640","356","j","false","match","img/circle.png","圆形","圆形","ALT1_2","prac_ALT1_2","","","","","","","","","","","",""
"null","<span class='add_' style='color:yellow; font-size: 70px;'> 太慢! </span>","null","html-keyboard-response","50","355547","0.0-7.0-1.0-1.0-0.0-1.20","4","3","4","3","4","3","3","3","4","4","4","4","3","4","4","4","5","3","4","5","2","1","2","2","2","1","1","2","3","1","0","0","1","0","0","1","1","0","1","1","0","1","0","1","5","4","4","2","4","","3","4","2","3","1","779745842755276801","陈","651","","","","","","","","","","","","","","","","","","","","","","","","","","","","","","feedback_test","","","","","","","","","","","",""
"520","","f","psychophysics","51","357069","0.0-7.0-1.0-1.0-0.0-0.21","4","3","4","3","4","3","3","3","4","4","4","4","3","4","4","4","5","3","4","5","2","1","2","2","2","1","1","2","3","1","0","0","1","0","0","1","1","0","1","1","0","1","0","1","5","4","4","2","4","","3","4","2","3","1","779745842755276801","陈","651","","","","nonmatch","","","","","","","","","","","","","","key","f","16.6417582417585","640","356","j","false","match","img/diamond.png","菱形","菱形","ALT1_2","prac_ALT1_2","","","","","","","","","","","",""
"null","<span style='color:red; font-size: 70px;'>错误! </span>","null","html-keyboard-response","52","357572","0.0-7.0-1.0-1.0-0.0-1.21","4","3","4","3","4","3","3","3","4","4","4","4","3","4","4","4","5","3","4","5","2","1","2","2","2","1","1","2","3","1","0","0","1","0","0","1","1","0","1","1","0","1","0","1","5","4","4","2","4","","3","4","2","3","1","779745842755276801","陈","651","","","","","","","","","","","","","","","","","","","","","","","","","","","","","","feedback_test","","","","","","","","","","","",""
"662","","f","psychophysics","53","359239","0.0-7.0-1.0-1.0-0.0-0.22","4","3","4","3","4","3","3","3","4","4","4","4","3","4","4","4","5","3","4","5","2","1","2","2","2","1","1","2","3","1","0","0","1","0","0","1","1","0","1","1","0","1","0","1","5","4","4","2","4","","3","4","2","3","1","779745842755276801","陈","651","","","","nonmatch","","","","","","","","","","","","","","key","f","16.618181818181935","640","356","j","false","match","img/pentagon.png","五边","五边","ALT1_2","prac_ALT1_2","","","","","","","","","","","",""
"null","<span style='color:red; font-size: 70px;'>错误! </span>","null","html-keyboard-response","54","359843","0.0-7.0-1.0-1.0-0.0-1.22","4","3","4","3","4","3","3","3","4","4","4","4","3","4","4","4","5","3","4","5","2","1","2","2","2","1","1","2","3","1","0","0","1","0","0","1","1","0","1","1","0","1","0","1","5","4","4","2","4","","3","4","2","3","1","779745842755276801","陈","651","","","","","","","","","","","","","","","","","","","","","","","","","","","","","","feedback_test","","","","","","","","","","","",""
"null","","null","psychophysics","55","362046","0.0-7.0-1.0-1.0-0.0-0.23","4","3","4","3","4","3","3","3","4","4","4","4","3","4","4","4","5","3","4","5","2","1","2","2","2","1","1","2","3","1","0","0","1","0","0","1","1","0","1","1","0","1","0","1","5","4","4","2","4","","3","4","2","3","1","779745842755276801","陈","651","","","","null","","","","","","","","","","","","","","key","null","16.576515151514975","640","356","f","false","nonmatch","img/diamond.png","方形","菱形","ALT1_2","prac_ALT1_2","","","","","","","","","","","",""
"null","<span class='add_' style='color:yellow; font-size: 70px;'> 太慢! </span>","null","html-keyboard-response","56","362548","0.0-7.0-1.0-1.0-0.0-1.23","4","3","4","3","4","3","3","3","4","4","4","4","3","4","4","4","5","3","4","5","2","1","2","2","2","1","1","2","3","1","0","0","1","0","0","1","1","0","1","1","0","1","0","1","5","4","4","2","4","","3","4","2","3","1","779745842755276801","陈","651","","","","","","","","","","","","","","","","","","","","","","","","","","","","","","feedback_test","","","","","","","","","","","",""
"790","","j","psychophysics","57","364341","0.0-7.0-1.0-1.0-0.0-0.24","4","3","4","3","4","3","3","3","4","4","4","4","3","4","4","4","5","3","4","5","2","1","2","2","2","1","1","2","3","1","0","0","1","0","0","1","1","0","1","1","0","1","0","1","5","4","4","2","4","","3","4","2","3","1","779745842755276801","陈","651","","","","match","","","","","","","","","","","","","","key","j","16.63396226415105","640","356","j","true","match","img/pentagon.png","五边","五边","ALT1_2","prac_ALT1_2","","","","","","","","","","","",""
"null","<span style='color:GreenYellow; font-size: 70px;'>正确! </span>","null","html-keyboard-response","58","364842","0.0-7.0-1.0-1.0-0.0-1.24","4","3","4","3","4","3","3","3","4","4","4","4","3","4","4","4","5","3","4","5","2","1","2","2","2","1","1","2","3","1","0","0","1","0","0","1","1","0","1","1","0","1","0","1","5","4","4","2","4","","3","4","2","3","1","779745842755276801","陈","651","","","","","","","","","","","","","","","","","","","","","","","","","","","","","","feedback_test","","","","","","","","","","","",""
"790","","f","psychophysics","59","366633","0.0-7.0-1.0-1.0-0.0-0.25","4","3","4","3","4","3","3","3","4","4","4","4","3","4","4","4","5","3","4","5","2","1","2","2","2","1","1","2","3","1","0","0","1","0","0","1","1","0","1","1","0","1","0","1","5","4","4","2","4","","3","4","2","3","1","779745842755276801","陈","651","","","","nonmatch","","","","","","","","","","","","","","key","f","16.643396226415206","640","356","f","true","nonmatch","img/diamond.png","方形","菱形","ALT1_2","prac_ALT1_2","","","","","","","","","","","",""
"null","<span style='color:GreenYellow; font-size: 70px;'>正确! </span>","null","html-keyboard-response","60","367135","0.0-7.0-1.0-1.0-0.0-1.25","4","3","4","3","4","3","3","3","4","4","4","4","3","4","4","4","5","3","4","5","2","1","2","2","2","1","1","2","3","1","0","0","1","0","0","1","1","0","1","1","0","1","0","1","5","4","4","2","4","","3","4","2","3","1","779745842755276801","陈","651","","","","","","","","","","","","","","","","","","","","","","","","","","","","","","feedback_test","","","","","","","","","","","",""
"707","","j","psychophysics","61","368843","0.0-7.0-1.0-1.0-0.0-0.26","4","3","4","3","4","3","3","3","4","4","4","4","3","4","4","4","5","3","4","5","2","1","2","2","2","1","1","2","3","1","0","0","1","0","0","1","1","0","1","1","0","1","0","1","5","4","4","2","4","","3","4","2","3","1","779745842755276801","陈","651","","","","match","","","","","","","","","","","","","","key","j","16.590196078431486","640","356","j","true","match","img/pentagon.png","五边","五边","ALT1_2","prac_ALT1_2","","","","","","","","","","","",""
"null","<span style='color:GreenYellow; font-size: 70px;'>正确! </span>","null","html-keyboard-response","62","369344","0.0-7.0-1.0-1.0-0.0-1.26","4","3","4","3","4","3","3","3","4","4","4","4","3","4","4","4","5","3","4","5","2","1","2","2","2","1","1","2","3","1","0","0","1","0","0","1","1","0","1","1","0","1","0","1","5","4","4","2","4","","3","4","2","3","1","779745842755276801","陈","651","","","","","","","","","","","","","","","","","","","","","","","","","","","","","","feedback_test","","","","","","","","","","","",""
"653","","f","psychophysics","63","371000","0.0-7.0-1.0-1.0-0.0-0.27","4","3","4","3","4","3","3","3","4","4","4","4","3","4","4","4","5","3","4","5","2","1","2","2","2","1","1","2","3","1","0","0","1","0","0","1","1","0","1","1","0","1","0","1","5","4","4","2","4","","3","4","2","3","1","779745842755276801","陈","651","","","","nonmatch","","","","","","","","","","","","","","key","f","16.626530612245137","640","356","f","true","nonmatch","img/square.png","圆形","方形","ALT1_2","prac_ALT1_2","","","","","","","","","","","",""
"null","<span style='color:GreenYellow; font-size: 70px;'>正确! </span>","null","html-keyboard-response","64","371502","0.0-7.0-1.0-1.0-0.0-1.27","4","3","4","3","4","3","3","3","4","4","4","4","3","4","4","4","5","3","4","5","2","1","2","2","2","1","1","2","3","1","0","0","1","0","0","1","1","0","1","1","0","1","0","1","5","4","4","2","4","","3","4","2","3","1","779745842755276801","陈","651","","","","","","","","","","","","","","","","","","","","","","","","","","","","","","feedback_test","","","","","","","","","","","",""
"358","","j","psychophysics","65","373201","0.0-7.0-1.0-1.0-0.0-0.28","4","3","4","3","4","3","3","3","4","4","4","4","3","4","4","4","5","3","4","5","2","1","2","2","2","1","1","2","3","1","0","0","1","0","0","1","1","0","1","1","0","1","0","1","5","4","4","2","4","","3","4","2","3","1","779745842755276801","陈","651","","","","match","","","","","","","","","","","","","","key","j","16.653465346534652","640","356","j","true","match","img/circle.png","圆形","圆形","ALT1_2","prac_ALT1_2","","","","","","","","","","","",""
"null","<span style='color:GreenYellow; font-size: 70px;'>正确! </span>","null","html-keyboard-response","66","373703","0.0-7.0-1.0-1.0-0.0-1.28","4","3","4","3","4","3","3","3","4","4","4","4","3","4","4","4","5","3","4","5","2","1","2","2","2","1","1","2","3","1","0","0","1","0","0","1","1","0","1","1","0","1","0","1","5","4","4","2","4","","3","4","2","3","1","779745842755276801","陈","651","","","","","","","","","","","","","","","","","","","","","","","","","","","","","","feedback_test","","","","","","","","","","","",""
"678","","j","psychophysics","67","375382","0.0-7.0-1.0-1.0-0.0-0.29","4","3","4","3","4","3","3","3","4","4","4","4","3","4","4","4","5","3","4","5","2","1","2","2","2","1","1","2","3","1","0","0","1","0","0","1","1","0","1","1","0","1","0","1","5","4","4","2","4","","3","4","2","3","1","779745842755276801","陈","651","","","","match","","","","","","","","","","","","","","key","j","16.649494949494834","640","356","j","true","match","img/pentagon.png","五边","五边","ALT1_2","prac_ALT1_2","","","","","","","","","","","",""
"null","<span style='color:GreenYellow; font-size: 70px;'>正确! </span>","null","html-keyboard-response","68","375884","0.0-7.0-1.0-1.0-0.0-1.29","4","3","4","3","4","3","3","3","4","4","4","4","3","4","4","4","5","3","4","5","2","1","2","2","2","1","1","2","3","1","0","0","1","0","0","1","1","0","1","1","0","1","0","1","5","4","4","2","4","","3","4","2","3","1","779745842755276801","陈","651","","","","","","","","","","","","","","","","","","","","","","","","","","","","","","feedback_test","","","","","","","","","","","",""
"741","","f","psychophysics","69","377627","0.0-7.0-1.0-1.0-0.0-0.30","4","3","4","3","4","3","3","3","4","4","4","4","3","4","4","4","5","3","4","5","2","1","2","2","2","1","1","2","3","1","0","0","1","0","0","1","1","0","1","1","0","1","0","1","5","4","4","2","4","","3","4","2","3","1","779745842755276801","陈","651","","","","nonmatch","","","","","","","","","","","","","","key","f","16.65242718446613","640","356","f","true","nonmatch","img/circle.png","菱形","圆形","ALT1_2","prac_ALT1_2","","","","","","","","","","","",""
"null","<span style='color:GreenYellow; font-size: 70px;'>正确! </span>","null","html-keyboard-response","70","378128","0.0-7.0-1.0-1.0-0.0-1.30","4","3","4","3","4","3","3","3","4","4","4","4","3","4","4","4","5","3","4","5","2","1","2","2","2","1","1","2","3","1","0","0","1","0","0","1","1","0","1","1","0","1","0","1","5","4","4","2","4","","3","4","2","3","1","779745842755276801","陈","651","","","","","","","","","","","","","","","","","","","","","","","","","","","","","","feedback_test","","","","","","","","","","","",""
"204","","f","psychophysics","71","380047","0.0-7.0-1.0-1.0-0.0-0.31","4","3","4","3","4","3","3","3","4","4","4","4","3","4","4","4","5","3","4","5","2","1","2","2","2","1","1","2","3","1","0","0","1","0","0","1","1","0","1","1","0","1","0","1","5","4","4","2","4","","3","4","2","3","1","779745842755276801","陈","651","","","","nonmatch","","","","","","","","","","","","","","key","f","16.59122807017513","640","356","f","true","nonmatch","img/diamond.png","五边","菱形","ALT1_2","prac_ALT1_2","","","","","","","","","","","",""
"null","<span style='color:GreenYellow; font-size: 70px;'>正确! </span>","null","html-keyboard-response","72","380559","0.0-7.0-1.0-1.0-0.0-1.31","4","3","4","3","4","3","3","3","4","4","4","4","3","4","4","4","5","3","4","5","2","1","2","2","2","1","1","2","3","1","0","0","1","0","0","1","1","0","1","1","0","1","0","1","5","4","4","2","4","","3","4","2","3","1","779745842755276801","陈","651","","","","","","","","","","","","","","","","","","","","","","","","","","","","","","feedback_test","","","","","","","","","","","",""
"720","","j","psychophysics","73","382281","0.0-7.0-1.0-1.0-0.0-0.32","4","3","4","3","4","3","3","3","4","4","4","4","3","4","4","4","5","3","4","5","2","1","2","2","2","1","1","2","3","1","0","0","1","0","0","1","1","0","1","1","0","1","0","1","5","4","4","2","4","","3","4","2","3","1","779745842755276801","陈","651","","","","match","","","","","","","","","","","","","","key","j","16.565048543689432","640","356","j","true","match","img/diamond.png","菱形","菱形","ALT1_2","prac_ALT1_2","","","","","","","","","","","",""
"null","<span style='color:GreenYellow; font-size: 70px;'>正确! </span>","null","html-keyboard-response","74","382782","0.0-7.0-1.0-1.0-0.0-1.32","4","3","4","3","4","3","3","3","4","4","4","4","3","4","4","4","5","3","4","5","2","1","2","2","2","1","1","2","3","1","0","0","1","0","0","1","1","0","1","1","0","1","0","1","5","4","4","2","4","","3","4","2","3","1","779745842755276801","陈","651","","","","","","","","","","","","","","","","","","","","","","","","","","","","","","feedback_test","","","","","","","","","","","",""
"592","","j","psychophysics","75","384376","0.0-7.0-1.0-1.0-0.0-0.33","4","3","4","3","4","3","3","3","4","4","4","4","3","4","4","4","5","3","4","5","2","1","2","2","2","1","1","2","3","1","0","0","1","0","0","1","1","0","1","1","0","1","0","1","5","4","4","2","4","","3","4","2","3","1","779745842755276801","陈","651","","","","match","","","","","","","","","","","","","","key","j","16.652127659574344","640","356","j","true","match","img/diamond.png","菱形","菱形","ALT1_2","prac_ALT1_2","","","","","","","","","","","",""
"null","<span style='color:GreenYellow; font-size: 70px;'>正确! </span>","null","html-keyboard-response","76","384878","0.0-7.0-1.0-1.0-0.0-1.33","4","3","4","3","4","3","3","3","4","4","4","4","3","4","4","4","5","3","4","5","2","1","2","2","2","1","1","2","3","1","0","0","1","0","0","1","1","0","1","1","0","1","0","1","5","4","4","2","4","","3","4","2","3","1","779745842755276801","陈","651","","","","","","","","","","","","","","","","","","","","","","","","","","","","","","feedback_test","","","","","","","","","","","",""
"null","","null","psychophysics","77","387081","0.0-7.0-1.0-1.0-0.0-0.34","4","3","4","3","4","3","3","3","4","4","4","4","3","4","4","4","5","3","4","5","2","1","2","2","2","1","1","2","3","1","0","0","1","0","0","1","1","0","1","1","0","1","0","1","5","4","4","2","4","","3","4","2","3","1","779745842755276801","陈","651","","","","null","","","","","","","","","","","","","","key","null","16.65343511450364","640","356","f","false","nonmatch","img/circle.png","五边","圆形","ALT1_2","prac_ALT1_2","","","","","","","","","","","",""
"null","<span class='add_' style='color:yellow; font-size: 70px;'> 太慢! </span>","null","html-keyboard-response","78","387584","0.0-7.0-1.0-1.0-0.0-1.34","4","3","4","3","4","3","3","3","4","4","4","4","3","4","4","4","5","3","4","5","2","1","2","2","2","1","1","2","3","1","0","0","1","0","0","1","1","0","1","1","0","1","0","1","5","4","4","2","4","","3","4","2","3","1","779745842755276801","陈","651","","","","","","","","","","","","","","","","","","","","","","","","","","","","","","feedback_test","","","","","","","","","","","",""
"656","","f","psychophysics","79","389242","0.0-7.0-1.0-1.0-0.0-0.35","4","3","4","3","4","3","3","3","4","4","4","4","3","4","4","4","5","3","4","5","2","1","2","2","2","1","1","2","3","1","0","0","1","0","0","1","1","0","1","1","0","1","0","1","5","4","4","2","4","","3","4","2","3","1","779745842755276801","陈","651","","","","nonmatch","","","","","","","","","","","","","","key","f","16.583838383838266","640","356","f","true","nonmatch","img/diamond.png","圆形","菱形","ALT1_2","prac_ALT1_2","","","","","","","","","","","",""
"null","<span style='color:GreenYellow; font-size: 70px;'>正确! </span>","null","html-keyboard-response","80","389743","0.0-7.0-1.0-1.0-0.0-1.35","4","3","4","3","4","3","3","3","4","4","4","4","3","4","4","4","5","3","4","5","2","1","2","2","2","1","1","2","3","1","0","0","1","0","0","1","1","0","1","1","0","1","0","1","5","4","4","2","4","","3","4","2","3","1","779745842755276801","陈","651","","","","","","","","","","","","","","","","","","","","","","","","","","","","","","feedback_test","","","","","","","","","","","",""
"724","","f","psychophysics","81","391469","0.0-7.0-1.0-1.0-0.0-0.36","4","3","4","3","4","3","3","3","4","4","4","4","3","4","4","4","5","3","4","5","2","1","2","2","2","1","1","2","3","1","0","0","1","0","0","1","1","0","1","1","0","1","0","1","5","4","4","2","4","","3","4","2","3","1","779745842755276801","陈","651","","","","nonmatch","","","","","","","","","","","","","","key","f","16.646078431372207","640","356","f","true","nonmatch","img/pentagon.png","方形","五边","ALT1_2","prac_ALT1_2","","","","","","","","","","","",""
"null","<span style='color:GreenYellow; font-size: 70px;'>正确! </span>","null","html-keyboard-response","82","391981","0.0-7.0-1.0-1.0-0.0-1.36","4","3","4","3","4","3","3","3","4","4","4","4","3","4","4","4","5","3","4","5","2","1","2","2","2","1","1","2","3","1","0","0","1","0","0","1","1","0","1","1","0","1","0","1","5","4","4","2","4","","3","4","2","3","1","779745842755276801","陈","651","","","","","","","","","","","","","","","","","","","","","","","","","","","","","","feedback_test","","","","","","","","","","","",""
"727","","j","psychophysics","83","393709","0.0-7.0-1.0-1.0-0.0-0.37","4","3","4","3","4","3","3","3","4","4","4","4","3","4","4","4","5","3","4","5","2","1","2","2","2","1","1","2","3","1","0","0","1","0","0","1","1","0","1","1","0","1","0","1","5","4","4","2","4","","3","4","2","3","1","779745842755276801","陈","651","","","","match","","","","","","","","","","","","","","key","j","16.588349514563447","640","356","j","true","match","img/circle.png","圆形","圆形","ALT1_2","prac_ALT1_2","","","","","","","","","","","",""
"null","<span style='color:GreenYellow; font-size: 70px;'>正确! </span>","null","html-keyboard-response","84","394210","0.0-7.0-1.0-1.0-0.0-1.37","4","3","4","3","4","3","3","3","4","4","4","4","3","4","4","4","5","3","4","5","2","1","2","2","2","1","1","2","3","1","0","0","1","0","0","1","1","0","1","1","0","1","0","1","5","4","4","2","4","","3","4","2","3","1","779745842755276801","陈","651","","","","","","","","","","","","","","","","","","","","","","","","","","","","","","feedback_test","","","","","","","","","","","",""
"739","","f","psychophysics","85","395951","0.0-7.0-1.0-1.0-0.0-0.38","4","3","4","3","4","3","3","3","4","4","4","4","3","4","4","4","5","3","4","5","2","1","2","2","2","1","1","2","3","1","0","0","1","0","0","1","1","0","1","1","0","1","0","1","5","4","4","2","4","","3","4","2","3","1","779745842755276801","陈","651","","","","nonmatch","","","","","","","","","","","","","","key","f","16.593203883495484","640","356","f","true","nonmatch","img/square.png","五边","方形","ALT1_2","prac_ALT1_2","","","","","","","","","","","",""
"null","<span style='color:GreenYellow; font-size: 70px;'>正确! </span>","null","html-keyboard-response","86","396453","0.0-7.0-1.0-1.0-0.0-1.38","4","3","4","3","4","3","3","3","4","4","4","4","3","4","4","4","5","3","4","5","2","1","2","2","2","1","1","2","3","1","0","0","1","0","0","1","1","0","1","1","0","1","0","1","5","4","4","2","4","","3","4","2","3","1","779745842755276801","陈","651","","","","","","","","","","","","","","","","","","","","","","","","","","","","","","feedback_test","","","","","","","","","","","",""
"492","","f","psychophysics","87","398334","0.0-7.0-1.0-1.0-0.0-0.39","4","3","4","3","4","3","3","3","4","4","4","4","3","4","4","4","5","3","4","5","2","1","2","2","2","1","1","2","3","1","0","0","1","0","0","1","1","0","1","1","0","1","0","1","5","4","4","2","4","","3","4","2","3","1","779745842755276801","陈","651","","","","nonmatch","","","","","","","","","","","","","","key","f","16.649107142857247","640","356","f","true","nonmatch","img/circle.png","方形","圆形","ALT1_2","prac_ALT1_2","","","","","","","","","","","",""
"null","<span style='color:GreenYellow; font-size: 70px;'>正确! </span>","null","html-keyboard-response","88","398835","0.0-7.0-1.0-1.0-0.0-1.39","4","3","4","3","4","3","3","3","4","4","4","4","3","4","4","4","5","3","4","5","2","1","2","2","2","1","1","2","3","1","0","0","1","0","0","1","1","0","1","1","0","1","0","1","5","4","4","2","4","","3","4","2","3","1","779745842755276801","陈","651","","","","","","","","","","","","","","","","","","","","","","","","","","","","","","feedback_test","","","","","","","","","","","",""
"599","","j","psychophysics","89","400435","0.0-7.0-1.0-1.0-0.0-0.40","4","3","4","3","4","3","3","3","4","4","4","4","3","4","4","4","5","3","4","5","2","1","2","2","2","1","1","2","3","1","0","0","1","0","0","1","1","0","1","1","0","1","0","1","5","4","4","2","4","","3","4","2","3","1","779745842755276801","陈","651","","","","match","","","","","","","","","","","","","","key","j","16.652631578947368","640","356","f","false","nonmatch","img/pentagon.png","菱形","五边","ALT1_2","prac_ALT1_2","","","","","","","","","","","",""
"null","<span style='color:red; font-size: 70px;'>错误! </span>","null","html-keyboard-response","90","400936","0.0-7.0-1.0-1.0-0.0-1.40","4","3","4","3","4","3","3","3","4","4","4","4","3","4","4","4","5","3","4","5","2","1","2","2","2","1","1","2","3","1","0","0","1","0","0","1","1","0","1","1","0","1","0","1","5","4","4","2","4","","3","4","2","3","1","779745842755276801","陈","651","","","","","","","","","","","","","","","","","","","","","","","","","","","","","","feedback_test","","","","","","","","","","","",""
"767","","j","psychophysics","91","402705","0.0-7.0-1.0-1.0-0.0-0.41","4","3","4","3","4","3","3","3","4","4","4","4","3","4","4","4","5","3","4","5","2","1","2","2","2","1","1","2","3","1","0","0","1","0","0","1","1","0","1","1","0","1","0","1","5","4","4","2","4","","3","4","2","3","1","779745842755276801","陈","651","","","","match","","","","","","","","","","","","","","key","j","16.654285714285827","640","356","j","true","match","img/square.png","方形","方形","ALT1_2","prac_ALT1_2","","","","","","","","","","","",""
"null","<span style='color:GreenYellow; font-size: 70px;'>正确! </span>","null","html-keyboard-response","92","403206","0.0-7.0-1.0-1.0-0.0-1.41","4","3","4","3","4","3","3","3","4","4","4","4","3","4","4","4","5","3","4","5","2","1","2","2","2","1","1","2","3","1","0","0","1","0","0","1","1","0","1","1","0","1","0","1","5","4","4","2","4","","3","4","2","3","1","779745842755276801","陈","651","","","","","","","","","","","","","","","","","","","","","","","","","","","","","","feedback_test","","","","","","","","","","","",""
"59","","f","psychophysics","93","404900","0.0-7.0-1.0-1.0-0.0-0.42","4","3","4","3","4","3","3","3","4","4","4","4","3","4","4","4","5","3","4","5","2","1","2","2","2","1","1","2","3","1","0","0","1","0","0","1","1","0","1","1","0","1","0","1","5","4","4","2","4","","3","4","2","3","1","779745842755276801","陈","651","","","","nonmatch","","","","","","","","","","","","","","key","f","16.565346534653234","640","356","f","true","nonmatch","img/square.png","菱形","方形","ALT1_2","prac_ALT1_2","","","","","","","","","","","",""
"null","<span style='color:yellow; font-size: 70px;'>过快! </span>","null","html-keyboard-response","94","405401","0.0-7.0-1.0-1.0-0.0-1.42","4","3","4","3","4","3","3","3","4","4","4","4","3","4","4","4","5","3","4","5","2","1","2","2","2","1","1","2","3","1","0","0","1","0","0","1","1","0","1","1","0","1","0","1","5","4","4","2","4","","3","4","2","3","1","779745842755276801","陈","651","","","","","","","","","","","","","","","","","","","","","","","","","","","","","","feedback_test","","","","","","","","","","","",""
"845","","f","psychophysics","95","407249","0.0-7.0-1.0-1.0-0.0-0.43","4","3","4","3","4","3","3","3","4","4","4","4","3","4","4","4","5","3","4","5","2","1","2","2","2","1","1","2","3","1","0","0","1","0","0","1","1","0","1","1","0","1","0","1","5","4","4","2","4","","3","4","2","3","1","779745842755276801","陈","651","","","","nonmatch","","","","","","","","","","","","","","key","f","16.597272727272834","640","356","f","true","nonmatch","img/pentagon.png","圆形","五边","ALT1_2","prac_ALT1_2","","","","","","","","","","","",""
"null","<span style='color:GreenYellow; font-size: 70px;'>正确! </span>","null","html-keyboard-response","96","407751","0.0-7.0-1.0-1.0-0.0-1.43","4","3","4","3","4","3","3","3","4","4","4","4","3","4","4","4","5","3","4","5","2","1","2","2","2","1","1","2","3","1","0","0","1","0","0","1","1","0","1","1","0","1","0","1","5","4","4","2","4","","3","4","2","3","1","779745842755276801","陈","651","","","","","","","","","","","","","","","","","","","","","","","","","","","","","","feedback_test","","","","","","","","","","","",""
"990","","j","psychophysics","97","409742","0.0-7.0-1.0-1.0-0.0-0.44","4","3","4","3","4","3","3","3","4","4","4","4","3","4","4","4","5","3","4","5","2","1","2","2","2","1","1","2","3","1","0","0","1","0","0","1","1","0","1","1","0","1","0","1","5","4","4","2","4","","3","4","2","3","1","779745842755276801","陈","651","","","","match","","","","","","","","","","","","","","key","j","16.59831932773119","640","356","j","true","match","img/square.png","方形","方形","ALT1_2","prac_ALT1_2","","","","","","","","","","","",""
"null","<span style='color:GreenYellow; font-size: 70px;'>正确! </span>","null","html-keyboard-response","98","410843","0.0-7.0-1.0-1.0-0.0-1.44","4","3","4","3","4","3","3","3","4","4","4","4","3","4","4","4","5","3","4","5","2","1","2","2","2","1","1","2","3","1","0","0","1","0","0","1","1","0","1","1","0","1","0","1","5","4","4","2","4","","3","4","2","3","1","779745842755276801","陈","651","","","","","","","","","","","","","","","","","","","","","","","","","","","","","","feedback_test","","","","","","","","","","","",""
"789","","f","psychophysics","99","412633","0.0-7.0-1.0-1.0-0.0-0.45","4","3","4","3","4","3","3","3","4","4","4","4","3","4","4","4","5","3","4","5","2","1","2","2","2","1","1","2","3","1","0","0","1","0","0","1","1","0","1","1","0","1","0","1","5","4","4","2","4","","3","4","2","3","1","779745842755276801","陈","651","","","","nonmatch","","","","","","","","","","","","","","key","f","16.652830188678806","640","356","j","false","match","img/diamond.png","菱形","菱形","ALT1_2","prac_ALT1_2","","","","","","","","","","","",""
"null","<span style='color:red; font-size: 70px;'>错误! </span>","null","html-keyboard-response","100","413135","0.0-7.0-1.0-1.0-0.0-1.45","4","3","4","3","4","3","3","3","4","4","4","4","3","4","4","4","5","3","4","5","2","1","2","2","2","1","1","2","3","1","0","0","1","0","0","1","1","0","1","1","0","1","0","1","5","4","4","2","4","","3","4","2","3","1","779745842755276801","陈","651","","","","","","","","","","","","","","","","","","","","","","","","","","","","","","feedback_test","","","","","","","","","","","",""
"696","","j","psychophysics","101","414833","0.0-7.0-1.0-1.0-0.0-0.46","4","3","4","3","4","3","3","3","4","4","4","4","3","4","4","4","5","3","4","5","2","1","2","2","2","1","1","2","3","1","0","0","1","0","0","1","1","0","1","1","0","1","0","1","5","4","4","2","4","","3","4","2","3","1","779745842755276801","陈","651","","","","match","","","","","","","","","","","","","","key","j","16.65","640","356","j","true","match","img/square.png","方形","方形","ALT1_2","prac_ALT1_2","","","","","","","","","","","",""
"null","<span style='color:GreenYellow; font-size: 70px;'>正确! </span>","null","html-keyboard-response","102","415334","0.0-7.0-1.0-1.0-0.0-1.46","4","3","4","3","4","3","3","3","4","4","4","4","3","4","4","4","5","3","4","5","2","1","2","2","2","1","1","2","3","1","0","0","1","0","0","1","1","0","1","1","0","1","0","1","5","4","4","2","4","","3","4","2","3","1","779745842755276801","陈","651","","","","","","","","","","","","","","","","","","","","","","","","","","","","","","feedback_test","","","","","","","","","","","",""
"676","","j","psychophysics","103","417011","0.0-7.0-1.0-1.0-0.0-0.47","4","3","4","3","4","3","3","3","4","4","4","4","3","4","4","4","5","3","4","5","2","1","2","2","2","1","1","2","3","1","0","0","1","0","0","1","1","0","1","1","0","1","0","1","5","4","4","2","4","","3","4","2","3","1","779745842755276801","陈","651","","","","match","","","","","","","","","","","","","","key","j","16.648484848484966","640","356","j","true","match","img/circle.png","圆形","圆形","ALT1_2","prac_ALT1_2","","","","","","","","","","","",""
"null","<span style='color:GreenYellow; font-size: 70px;'>正确! </span>","null","html-keyboard-response","104","417513","0.0-7.0-1.0-1.0-0.0-1.47","4","3","4","3","4","3","3","3","4","4","4","4","3","4","4","4","5","3","4","5","2","1","2","2","2","1","1","2","3","1","0","0","1","0","0","1","1","0","1","1","0","1","0","1","5","4","4","2","4","","3","4","2","3","1","779745842755276801","陈","651","","","","","","","","","","","","","","","","","","","","","","","","","","","","","","feedback_test","","","","","","","","","","","",""
"84706","<style>.context{color:white; font-size: 35px; line-height:40px}</style>                          <div><p class='context'>您正确回答了63% 的试次。</p><p class='context'>您的平均反应时为681毫秒。</p><p class='context'>恭喜您完成练习。按空格键进入正式实验。</p><p class='footer' style='font-size: 35px; line-height:40px;'>请在进入正式实验实验之前将您的<span style='color: lightgreen;'>食指</span>放在电脑键盘的相应键位上进行按键。</p>"," ","html-keyboard-response","105","502224","0.0-7.0-1.0-2.0","4","3","4","3","4","3","3","3","4","4","4","4","3","4","4","4","5","3","4","5","2","1","2","2","2","1","1","2","3","1","0","0","1","0","0","1","1","0","1","1","0","1","0","1","5","4","4","2","4","","3","4","2","3","1","779745842755276801","陈","651","","","","","","","","","","","","","","","","","","","","","","","","","","","","","","","","","","","","","","","","","",""
"2625","
  <p style='color: white; font-size: 22px'>请您将手指放在按键上，准备进入正式的匹配任务。</p>
  <p> <div style = ""color: green""><按空格键进入下一阶段的匹配任务></div></p>
  "," ","html-keyboard-response","106","504854","0.0-7.0-1.0-3.0","4","3","4","3","4","3","3","3","4","4","4","4","3","4","4","4","5","3","4","5","2","1","2","2","2","1","1","2","3","1","0","0","1","0","0","1","1","0","1","1","0","1","0","1","5","4","4","2","4","","3","4","2","3","1","779745842755276801","陈","651","","","","","","","","","","","","","","","","","","","","","","","","","","","","","","","","","","","","","","","","","",""
"684","","j","psychophysics","107","506540","0.0-7.0-1.0-4.0-0.0-0.0","4","3","4","3","4","3","3","3","4","4","4","4","3","4","4","4","5","3","4","5","2","1","2","2","2","1","1","2","3","1","0","0","1","0","0","1","1","0","1","1","0","1","0","1","5","4","4","2","4","","3","4","2","3","1","779745842755276801","陈","651","","","","match","","","","","","","","","","","","","","key","j","16.652999999999885","640","356","j","true","match","img/circle.png","圆形","圆形","ALT1","formal_ALT1_2","","","","","","","","","","","",""
"null","<span style='color:GreenYellow; font-size: 70px;'>正确! </span>","null","html-keyboard-response","108","507042","0.0-7.0-1.0-4.0-0.0-1.0","4","3","4","3","4","3","3","3","4","4","4","4","3","4","4","4","5","3","4","5","2","1","2","2","2","1","1","2","3","1","0","0","1","0","0","1","1","0","1","1","0","1","0","1","5","4","4","2","4","","3","4","2","3","1","779745842755276801","陈","651","","","","","","","","","","","","","","","","","","","","","","","","","","","","","","feedback_test","","","","","","","","","","","",""
"null","","null","psychophysics","109","509260","0.0-7.0-1.0-4.0-0.0-0.1","4","3","4","3","4","3","3","3","4","4","4","4","3","4","4","4","5","3","4","5","2","1","2","2","2","1","1","2","3","1","0","0","1","0","0","1","1","0","1","1","0","1","0","1","5","4","4","2","4","","3","4","2","3","1","779745842755276801","陈","651","","","","null","","","","","","","","","","","","","","key","null","16.581060606060696","640","356","f","false","nonmatch","img/square.png","五边","方形","ALT1","formal_ALT1_2","","","","","","","","","","","",""
"null","<span class='add_' style='color:yellow; font-size: 70px;'> 太慢! </span>","null","html-keyboard-response","110","509761","0.0-7.0-1.0-4.0-0.0-1.1","4","3","4","3","4","3","3","3","4","4","4","4","3","4","4","4","5","3","4","5","2","1","2","2","2","1","1","2","3","1","0","0","1","0","0","1","1","0","1","1","0","1","0","1","5","4","4","2","4","","3","4","2","3","1","779745842755276801","陈","651","","","","","","","","","","","","","","","","","","","","","","","","","","","","","","feedback_test","","","","","","","","","","","",""
"713","","j","psychophysics","111","511477","0.0-7.0-1.0-4.0-0.0-0.2","4","3","4","3","4","3","3","3","4","4","4","4","3","4","4","4","5","3","4","5","2","1","2","2","2","1","1","2","3","1","0","0","1","0","0","1","1","0","1","1","0","1","0","1","5","4","4","2","4","","3","4","2","3","1","779745842755276801","陈","651","","","","match","","","","","","","","","","","","","","key","j","16.649999999999885","640","356","j","true","match","img/square.png","方形","方形","ALT1","formal_ALT1_2","","","","","","","","","","","",""
"null","<span style='color:GreenYellow; font-size: 70px;'>正确! </span>","null","html-keyboard-response","112","511979","0.0-7.0-1.0-4.0-0.0-1.2","4","3","4","3","4","3","3","3","4","4","4","4","3","4","4","4","5","3","4","5","2","1","2","2","2","1","1","2","3","1","0","0","1","0","0","1","1","0","1","1","0","1","0","1","5","4","4","2","4","","3","4","2","3","1","779745842755276801","陈","651","","","","","","","","","","","","","","","","","","","","","","","","","","","","","","feedback_test","","","","","","","","","","","",""
"608","","j","psychophysics","113","513589","0.0-7.0-1.0-4.0-0.0-0.3","4","3","4","3","4","3","3","3","4","4","4","4","3","4","4","4","5","3","4","5","2","1","2","2","2","1","1","2","3","1","0","0","1","0","0","1","1","0","1","1","0","1","0","1","5","4","4","2","4","","3","4","2","3","1","779745842755276801","陈","651","","","","match","","","","","","","","","","","","","","key","j","16.63157894736842","640","356","j","true","match","img/circle.png","圆形","圆形","ALT1","formal_ALT1_2","","","","","","","","","","","",""
"null","<span style='color:GreenYellow; font-size: 70px;'>正确! </span>","null","html-keyboard-response","114","514854","0.0-7.0-1.0-4.0-0.0-1.3","4","3","4","3","4","3","3","3","4","4","4","4","3","4","4","4","5","3","4","5","2","1","2","2","2","1","1","2","3","1","0","0","1","0","0","1","1","0","1","1","0","1","0","1","5","4","4","2","4","","3","4","2","3","1","779745842755276801","陈","651","","","","","","","","","","","","","","","","","","","","","","","","","","","","","","feedback_test","","","","","","","","","","","",""
"null","","null","psychophysics","115","517057","0.0-7.0-1.0-4.0-0.0-0.4","4","3","4","3","4","3","3","3","4","4","4","4","3","4","4","4","5","3","4","5","2","1","2","2","2","1","1","2","3","1","0","0","1","0","0","1","1","0","1","1","0","1","0","1","5","4","4","2","4","","3","4","2","3","1","779745842755276801","陈","651","","","","null","","","","","","","","","","","","","","key","null","16.56742424242398","640","356","f","false","nonmatch","img/square.png","菱形","方形","ALT1","formal_ALT1_2","","","","","","","","","","","",""
"null","<span class='add_' style='color:yellow; font-size: 70px;'> 太慢! </span>","null","html-keyboard-response","116","517559","0.0-7.0-1.0-4.0-0.0-1.4","4","3","4","3","4","3","3","3","4","4","4","4","3","4","4","4","5","3","4","5","2","1","2","2","2","1","1","2","3","1","0","0","1","0","0","1","1","0","1","1","0","1","0","1","5","4","4","2","4","","3","4","2","3","1","779745842755276801","陈","651","","","","","","","","","","","","","","","","","","","","","","","","","","","","","","feedback_test","","","","","","","","","","","",""
"755","","j","psychophysics","117","519316","0.0-7.0-1.0-4.0-0.0-0.5","4","3","4","3","4","3","3","3","4","4","4","4","3","4","4","4","5","3","4","5","2","1","2","2","2","1","1","2","3","1","0","0","1","0","0","1","1","0","1","1","0","1","0","1","5","4","4","2","4","","3","4","2","3","1","779745842755276801","陈","651","","","","match","","","","","","","","","","","","","","key","j","16.626923076923187","640","356","j","true","match","img/circle.png","圆形","圆形","ALT1","formal_ALT1_2","","","","","","","","","","","",""
"null","<span style='color:GreenYellow; font-size: 70px;'>正确! </span>","null","html-keyboard-response","118","519817","0.0-7.0-1.0-4.0-0.0-1.5","4","3","4","3","4","3","3","3","4","4","4","4","3","4","4","4","5","3","4","5","2","1","2","2","2","1","1","2","3","1","0","0","1","0","0","1","1","0","1","1","0","1","0","1","5","4","4","2","4","","3","4","2","3","1","779745842755276801","陈","651","","","","","","","","","","","","","","","","","","","","","","","","","","","","","","feedback_test","","","","","","","","","","","",""
"598","","j","psychophysics","119","521417","0.0-7.0-1.0-4.0-0.0-0.6","4","3","4","3","4","3","3","3","4","4","4","4","3","4","4","4","5","3","4","5","2","1","2","2","2","1","1","2","3","1","0","0","1","0","0","1","1","0","1","1","0","1","0","1","5","4","4","2","4","","3","4","2","3","1","779745842755276801","陈","651","","","","match","","","","","","","","","","","","","","key","j","16.649473684210648","640","356","f","false","nonmatch","img/square.png","圆形","方形","ALT1","formal_ALT1_2","","","","","","","","","","","",""
"null","<span style='color:red; font-size: 70px;'>错误! </span>","null","html-keyboard-response","120","521919","0.0-7.0-1.0-4.0-0.0-1.6","4","3","4","3","4","3","3","3","4","4","4","4","3","4","4","4","5","3","4","5","2","1","2","2","2","1","1","2","3","1","0","0","1","0","0","1","1","0","1","1","0","1","0","1","5","4","4","2","4","","3","4","2","3","1","779745842755276801","陈","651","","","","","","","","","","","","","","","","","","","","","","","","","","","","","","feedback_test","","","","","","","","","","","",""
"785","","j","psychophysics","121","523706","0.0-7.0-1.0-4.0-0.0-0.7","4","3","4","3","4","3","3","3","4","4","4","4","3","4","4","4","5","3","4","5","2","1","2","2","2","1","1","2","3","1","0","0","1","0","0","1","1","0","1","1","0","1","0","1","5","4","4","2","4","","3","4","2","3","1","779745842755276801","陈","651","","","","match","","","","","","","","","","","","","","key","j","16.653773584906098","640","356","j","true","match","img/pentagon.png","五边","五边","ALT1","formal_ALT1_2","","","","","","","","","","","",""
"null","<span style='color:GreenYellow; font-size: 70px;'>正确! </span>","null","html-keyboard-response","122","524208","0.0-7.0-1.0-4.0-0.0-1.7","4","3","4","3","4","3","3","3","4","4","4","4","3","4","4","4","5","3","4","5","2","1","2","2","2","1","1","2","3","1","0","0","1","0","0","1","1","0","1","1","0","1","0","1","5","4","4","2","4","","3","4","2","3","1","779745842755276801","陈","651","","","","","","","","","","","","","","","","","","","","","","","","","","","","","","feedback_test","","","","","","","","","","","",""
"800","","j","psychophysics","123","526010","0.0-7.0-1.0-4.0-0.0-0.8","4","3","4","3","4","3","3","3","4","4","4","4","3","4","4","4","5","3","4","5","2","1","2","2","2","1","1","2","3","1","0","0","1","0","0","1","1","0","1","1","0","1","0","1","5","4","4","2","4","","3","4","2","3","1","779745842755276801","陈","651","","","","match","","","","","","","","","","","","","","key","j","16.593457943925234","640","356","j","true","match","img/diamond.png","菱形","菱形","ALT1","formal_ALT1_2","","","","","","","","","","","",""
"null","<span style='color:GreenYellow; font-size: 70px;'>正确! </span>","null","html-keyboard-response","124","526511","0.0-7.0-1.0-4.0-0.0-1.8","4","3","4","3","4","3","3","3","4","4","4","4","3","4","4","4","5","3","4","5","2","1","2","2","2","1","1","2","3","1","0","0","1","0","0","1","1","0","1","1","0","1","0","1","5","4","4","2","4","","3","4","2","3","1","779745842755276801","陈","651","","","","","","","","","","","","","","","","","","","","","","","","","","","","","","feedback_test","","","","","","","","","","","",""
"250","","j","psychophysics","125","528094","0.0-7.0-1.0-4.0-0.0-0.9","4","3","4","3","4","3","3","3","4","4","4","4","3","4","4","4","5","3","4","5","2","1","2","2","2","1","1","2","3","1","0","0","1","0","0","1","1","0","1","1","0","1","0","1","5","4","4","2","4","","3","4","2","3","1","779745842755276801","陈","651","","","","match","","","","","","","","","","","","","","key","j","16.527659574469077","640","356","j","true","match","img/diamond.png","菱形","菱形","ALT1","formal_ALT1_2","","","","","","","","","","","",""
"null","<span style='color:GreenYellow; font-size: 70px;'>正确! </span>","null","html-keyboard-response","126","528595","0.0-7.0-1.0-4.0-0.0-1.9","4","3","4","3","4","3","3","3","4","4","4","4","3","4","4","4","5","3","4","5","2","1","2","2","2","1","1","2","3","1","0","0","1","0","0","1","1","0","1","1","0","1","0","1","5","4","4","2","4","","3","4","2","3","1","779745842755276801","陈","651","","","","","","","","","","","","","","","","","","","","","","","","","","","","","","feedback_test","","","","","","","","","","","",""
"637","","f","psychophysics","127","530234","0.0-7.0-1.0-4.0-0.0-0.10","4","3","4","3","4","3","3","3","4","4","4","4","3","4","4","4","5","3","4","5","2","1","2","2","2","1","1","2","3","1","0","0","1","0","0","1","1","0","1","1","0","1","0","1","5","4","4","2","4","","3","4","2","3","1","779745842755276801","陈","651","","","","nonmatch","","","","","","","","","","","","","","key","f","16.652577319588108","640","356","f","true","nonmatch","img/circle.png","菱形","圆形","ALT1","formal_ALT1_2","","","","","","","","","","","",""
"null","<span style='color:GreenYellow; font-size: 70px;'>正确! </span>","null","html-keyboard-response","128","530743","0.0-7.0-1.0-4.0-0.0-1.10","4","3","4","3","4","3","3","3","4","4","4","4","3","4","4","4","5","3","4","5","2","1","2","2","2","1","1","2","3","1","0","0","1","0","0","1","1","0","1","1","0","1","0","1","5","4","4","2","4","","3","4","2","3","1","779745842755276801","陈","651","","","","","","","","","","","","","","","","","","","","","","","","","","","","","","feedback_test","","","","","","","","","","","",""
"829","","j","psychophysics","129","532574","0.0-7.0-1.0-4.0-0.0-0.11","4","3","4","3","4","3","3","3","4","4","4","4","3","4","4","4","5","3","4","5","2","1","2","2","2","1","1","2","3","1","0","0","1","0","0","1","1","0","1","1","0","1","0","1","5","4","4","2","4","","3","4","2","3","1","779745842755276801","陈","651","","","","match","","","","","","","","","","","","","","key","j","16.63518518518497","640","356","j","true","match","img/diamond.png","菱形","菱形","ALT1","formal_ALT1_2","","","","","","","","","","","",""
"null","<span style='color:GreenYellow; font-size: 70px;'>正确! </span>","null","html-keyboard-response","130","533076","0.0-7.0-1.0-4.0-0.0-1.11","4","3","4","3","4","3","3","3","4","4","4","4","3","4","4","4","5","3","4","5","2","1","2","2","2","1","1","2","3","1","0","0","1","0","0","1","1","0","1","1","0","1","0","1","5","4","4","2","4","","3","4","2","3","1","779745842755276801","陈","651","","","","","","","","","","","","","","","","","","","","","","","","","","","","","","feedback_test","","","","","","","","","","","",""
"null","","null","psychophysics","131","535279","0.0-7.0-1.0-4.0-0.0-0.12","4","3","4","3","4","3","3","3","4","4","4","4","3","4","4","4","5","3","4","5","2","1","2","2","2","1","1","2","3","1","0","0","1","0","0","1","1","0","1","1","0","1","0","1","5","4","4","2","4","","3","4","2","3","1","779745842755276801","陈","651","","","","null","","","","","","","","","","","","","","key","null","16.65343511450364","640","356","f","false","nonmatch","img/pentagon.png","菱形","五边","ALT1","formal_ALT1_2","","","","","","","","","","","",""
"null","<span class='add_' style='color:yellow; font-size: 70px;'> 太慢! </span>","null","html-keyboard-response","132","535781","0.0-7.0-1.0-4.0-0.0-1.12","4","3","4","3","4","3","3","3","4","4","4","4","3","4","4","4","5","3","4","5","2","1","2","2","2","1","1","2","3","1","0","0","1","0","0","1","1","0","1","1","0","1","0","1","5","4","4","2","4","","3","4","2","3","1","779745842755276801","陈","651","","","","","","","","","","","","","","","","","","","","","","","","","","","","","","feedback_test","","","","","","","","","","","",""
"780","","f","psychophysics","133","537563","0.0-7.0-1.0-4.0-0.0-0.13","4","3","4","3","4","3","3","3","4","4","4","4","3","4","4","4","5","3","4","5","2","1","2","2","2","1","1","2","3","1","0","0","1","0","0","1","1","0","1","1","0","1","0","1","5","4","4","2","4","","3","4","2","3","1","779745842755276801","陈","651","","","","nonmatch","","","","","","","","","","","","","","key","f","16.587735849057044","640","356","f","true","nonmatch","img/diamond.png","五边","菱形","ALT1","formal_ALT1_2","","","","","","","","","","","",""
"null","<span style='color:GreenYellow; font-size: 70px;'>正确! </span>","null","html-keyboard-response","134","538064","0.0-7.0-1.0-4.0-0.0-1.13","4","3","4","3","4","3","3","3","4","4","4","4","3","4","4","4","5","3","4","5","2","1","2","2","2","1","1","2","3","1","0","0","1","0","0","1","1","0","1","1","0","1","0","1","5","4","4","2","4","","3","4","2","3","1","779745842755276801","陈","651","","","","","","","","","","","","","","","","","","","","","","","","","","","","","","feedback_test","","","","","","","","","","","",""
"777","","f","psychophysics","135","539844","0.0-7.0-1.0-4.0-0.0-0.14","4","3","4","3","4","3","3","3","4","4","4","4","3","4","4","4","5","3","4","5","2","1","2","2","2","1","1","2","3","1","0","0","1","0","0","1","1","0","1","1","0","1","0","1","5","4","4","2","4","","3","4","2","3","1","779745842755276801","陈","651","","","","nonmatch","","","","","","","","","","","","","","key","f","16.573584905660816","640","356","f","true","nonmatch","img/circle.png","五边","圆形","ALT1","formal_ALT1_2","","","","","","","","","","","",""
"null","<span style='color:GreenYellow; font-size: 70px;'>正确! </span>","null","html-keyboard-response","136","540345","0.0-7.0-1.0-4.0-0.0-1.14","4","3","4","3","4","3","3","3","4","4","4","4","3","4","4","4","5","3","4","5","2","1","2","2","2","1","1","2","3","1","0","0","1","0","0","1","1","0","1","1","0","1","0","1","5","4","4","2","4","","3","4","2","3","1","779745842755276801","陈","651","","","","","","","","","","","","","","","","","","","","","","","","","","","","","","feedback_test","","","","","","","","","","","",""
"863","","j","psychophysics","137","542209","0.0-7.0-1.0-4.0-0.0-0.15","4","3","4","3","4","3","3","3","4","4","4","4","3","4","4","4","5","3","4","5","2","1","2","2","2","1","1","2","3","1","0","0","1","0","0","1","1","0","1","1","0","1","0","1","5","4","4","2","4","","3","4","2","3","1","779745842755276801","陈","651","","","","match","","","","","","","","","","","","","","key","j","16.654054054053844","640","356","j","true","match","img/pentagon.png","五边","五边","ALT1","formal_ALT1_2","","","","","","","","","","","",""
"null","<span style='color:GreenYellow; font-size: 70px;'>正确! </span>","null","html-keyboard-response","138","542711","0.0-7.0-1.0-4.0-0.0-1.15","4","3","4","3","4","3","3","3","4","4","4","4","3","4","4","4","5","3","4","5","2","1","2","2","2","1","1","2","3","1","0","0","1","0","0","1","1","0","1","1","0","1","0","1","5","4","4","2","4","","3","4","2","3","1","779745842755276801","陈","651","","","","","","","","","","","","","","","","","","","","","","","","","","","","","","feedback_test","","","","","","","","","","","",""
"844","","j","psychophysics","139","544557","0.0-7.0-1.0-4.0-0.0-0.16","4","3","4","3","4","3","3","3","4","4","4","4","3","4","4","4","5","3","4","5","2","1","2","2","2","1","1","2","3","1","0","0","1","0","0","1","1","0","1","1","0","1","0","1","5","4","4","2","4","","3","4","2","3","1","779745842755276801","陈","651","","","","match","","","","","","","","","","","","","","key","j","16.587272727272516","640","356","f","false","nonmatch","img/diamond.png","方形","菱形","ALT1","formal_ALT1_2","","","","","","","","","","","",""
"null","<span style='color:red; font-size: 70px;'>错误! </span>","null","html-keyboard-response","140","545844","0.0-7.0-1.0-4.0-0.0-1.16","4","3","4","3","4","3","3","3","4","4","4","4","3","4","4","4","5","3","4","5","2","1","2","2","2","1","1","2","3","1","0","0","1","0","0","1","1","0","1","1","0","1","0","1","5","4","4","2","4","","3","4","2","3","1","779745842755276801","陈","651","","","","","","","","","","","","","","","","","","","","","","","","","","","","","","feedback_test","","","","","","","","","","","",""
"679","","j","psychophysics","141","547525","0.0-7.0-1.0-4.0-0.0-0.17","4","3","4","3","4","3","3","3","4","4","4","4","3","4","4","4","5","3","4","5","2","1","2","2","2","1","1","2","3","1","0","0","1","0","0","1","1","0","1","1","0","1","0","1","5","4","4","2","4","","3","4","2","3","1","779745842755276801","陈","651","","","","match","","","","","","","","","","","","","","key","j","16.566999999999535","640","356","j","true","match","img/pentagon.png","五边","五边","ALT1","formal_ALT1_2","","","","","","","","","","","",""
"null","<span style='color:GreenYellow; font-size: 70px;'>正确! </span>","null","html-keyboard-response","142","548026","0.0-7.0-1.0-4.0-0.0-1.17","4","3","4","3","4","3","3","3","4","4","4","4","3","4","4","4","5","3","4","5","2","1","2","2","2","1","1","2","3","1","0","0","1","0","0","1","1","0","1","1","0","1","0","1","5","4","4","2","4","","3","4","2","3","1","779745842755276801","陈","651","","","","","","","","","","","","","","","","","","","","","","","","","","","","","","feedback_test","","","","","","","","","","","",""
"664","","f","psychophysics","143","549692","0.0-7.0-1.0-4.0-0.0-0.18","4","3","4","3","4","3","3","3","4","4","4","4","3","4","4","4","5","3","4","5","2","1","2","2","2","1","1","2","3","1","0","0","1","0","0","1","1","0","1","1","0","1","0","1","5","4","4","2","4","","3","4","2","3","1","779745842755276801","陈","651","","","","nonmatch","","","","","","","","","","","","","","key","f","16.548484848484144","640","356","f","true","nonmatch","img/pentagon.png","圆形","五边","ALT1","formal_ALT1_2","","","","","","","","","","","",""
"null","<span style='color:GreenYellow; font-size: 70px;'>正确! </span>","null","html-keyboard-response","144","550194","0.0-7.0-1.0-4.0-0.0-1.18","4","3","4","3","4","3","3","3","4","4","4","4","3","4","4","4","5","3","4","5","2","1","2","2","2","1","1","2","3","1","0","0","1","0","0","1","1","0","1","1","0","1","0","1","5","4","4","2","4","","3","4","2","3","1","779745842755276801","陈","651","","","","","","","","","","","","","","","","","","","","","","","","","","","","","","feedback_test","","","","","","","","","","","",""
"923","","f","psychophysics","145","552117","0.0-7.0-1.0-4.0-0.0-0.19","4","3","4","3","4","3","3","3","4","4","4","4","3","4","4","4","5","3","4","5","2","1","2","2","2","1","1","2","3","1","0","0","1","0","0","1","1","0","1","1","0","1","0","1","5","4","4","2","4","","3","4","2","3","1","779745842755276801","陈","651","","","","nonmatch","","","","","","","","","","","","","","key","f","16.642105263157486","640","356","f","true","nonmatch","img/circle.png","方形","圆形","ALT1","formal_ALT1_2","","","","","","","","","","","",""
"null","<span style='color:GreenYellow; font-size: 70px;'>正确! </span>","null","html-keyboard-response","146","552844","0.0-7.0-1.0-4.0-0.0-1.19","4","3","4","3","4","3","3","3","4","4","4","4","3","4","4","4","5","3","4","5","2","1","2","2","2","1","1","2","3","1","0","0","1","0","0","1","1","0","1","1","0","1","0","1","5","4","4","2","4","","3","4","2","3","1","779745842755276801","陈","651","","","","","","","","","","","","","","","","","","","","","","","","","","","","","","feedback_test","","","","","","","","","","","",""
"null","","null","psychophysics","147","555047","0.0-7.0-1.0-4.0-0.0-0.20","4","3","4","3","4","3","3","3","4","4","4","4","3","4","4","4","5","3","4","5","2","1","2","2","2","1","1","2","3","1","0","0","1","0","0","1","1","0","1","1","0","1","0","1","5","4","4","2","4","","3","4","2","3","1","779745842755276801","陈","651","","","","null","","","","","","","","","","","","","","key","null","16.65343511450364","640","356","j","false","match","img/square.png","方形","方形","ALT1","formal_ALT1_2","","","","","","","","","","","",""
"null","<span class='add_' style='color:yellow; font-size: 70px;'> 太慢! </span>","null","html-keyboard-response","148","555549","0.0-7.0-1.0-4.0-0.0-1.20","4","3","4","3","4","3","3","3","4","4","4","4","3","4","4","4","5","3","4","5","2","1","2","2","2","1","1","2","3","1","0","0","1","0","0","1","1","0","1","1","0","1","0","1","5","4","4","2","4","","3","4","2","3","1","779745842755276801","陈","651","","","","","","","","","","","","","","","","","","","","","","","","","","","","","","feedback_test","","","","","","","","","","","",""
"553","","j","psychophysics","149","557105","0.0-7.0-1.0-4.0-0.0-0.21","4","3","4","3","4","3","3","3","4","4","4","4","3","4","4","4","5","3","4","5","2","1","2","2","2","1","1","2","3","1","0","0","1","0","0","1","1","0","1","1","0","1","0","1","5","4","4","2","4","","3","4","2","3","1","779745842755276801","陈","651","","","","match","","","","","","","","","","","","","","key","j","16.583695652174672","640","356","j","true","match","img/square.png","方形","方形","ALT1","formal_ALT1_2","","","","","","","","","","","",""
"null","<span style='color:GreenYellow; font-size: 70px;'>正确! </span>","null","html-keyboard-response","150","557606","0.0-7.0-1.0-4.0-0.0-1.21","4","3","4","3","4","3","3","3","4","4","4","4","3","4","4","4","5","3","4","5","2","1","2","2","2","1","1","2","3","1","0","0","1","0","0","1","1","0","1","1","0","1","0","1","5","4","4","2","4","","3","4","2","3","1","779745842755276801","陈","651","","","","","","","","","","","","","","","","","","","","","","","","","","","","","","feedback_test","","","","","","","","","","","",""
"594","","f","psychophysics","151","559202","0.0-7.0-1.0-4.0-0.0-0.22","4","3","4","3","4","3","3","3","4","4","4","4","3","4","4","4","5","3","4","5","2","1","2","2","2","1","1","2","3","1","0","0","1","0","0","1","1","0","1","1","0","1","0","1","5","4","4","2","4","","3","4","2","3","1","779745842755276801","陈","651","","","","nonmatch","","","","","","","","","","","","","","key","f","16.65319148936071","640","356","f","true","nonmatch","img/diamond.png","圆形","菱形","ALT1","formal_ALT1_2","","","","","","","","","","","",""
"null","<span style='color:GreenYellow; font-size: 70px;'>正确! </span>","null","html-keyboard-response","152","559853","0.0-7.0-1.0-4.0-0.0-1.22","4","3","4","3","4","3","3","3","4","4","4","4","3","4","4","4","5","3","4","5","2","1","2","2","2","1","1","2","3","1","0","0","1","0","0","1","1","0","1","1","0","1","0","1","5","4","4","2","4","","3","4","2","3","1","779745842755276801","陈","651","","","","","","","","","","","","","","","","","","","","","","","","","","","","","","feedback_test","","","","","","","","","","","",""
"null","","null","psychophysics","153","562056","0.0-7.0-1.0-4.0-0.0-0.23","4","3","4","3","4","3","3","3","4","4","4","4","3","4","4","4","5","3","4","5","2","1","2","2","2","1","1","2","3","1","0","0","1","0","0","1","1","0","1","1","0","1","0","1","5","4","4","2","4","","3","4","2","3","1","779745842755276801","陈","651","","","","null","","","","","","","","","","","","","","key","null","16.64999999999947","640","356","f","false","nonmatch","img/pentagon.png","方形","五边","ALT1","formal_ALT1_2","","","","","","","","","","","",""
"null","<span class='add_' style='color:yellow; font-size: 70px;'> 太慢! </span>","null","html-keyboard-response","154","562557","0.0-7.0-1.0-4.0-0.0-1.23","4","3","4","3","4","3","3","3","4","4","4","4","3","4","4","4","5","3","4","5","2","1","2","2","2","1","1","2","3","1","0","0","1","0","0","1","1","0","1","1","0","1","0","1","5","4","4","2","4","","3","4","2","3","1","779745842755276801","陈","651","","","","","","","","","","","","","","","","","","","","","","","","","","","","","","feedback_test","","","","","","","","","","","",""
"667","","f","psychophysics","155","564227","0.0-7.0-1.0-4.0-0.0-0.24","4","3","4","3","4","3","3","3","4","4","4","4","3","4","4","4","5","3","4","5","2","1","2","2","2","1","1","2","3","1","0","0","1","0","0","1","1","0","1","1","0","1","0","1","5","4","4","2","4","","3","4","2","3","1","779745842755276801","陈","651","","","","nonmatch","","","","","","","","","","","","","","key","f","16.616161616161616","640","356","f","true","nonmatch","img/diamond.png","方形","菱形","ALT1","formal_ALT1_2","","","","","","","","","","","",""
"null","<span style='color:GreenYellow; font-size: 70px;'>正确! </span>","null","html-keyboard-response","156","564727","0.0-7.0-1.0-4.0-0.0-1.24","4","3","4","3","4","3","3","3","4","4","4","4","3","4","4","4","5","3","4","5","2","1","2","2","2","1","1","2","3","1","0","0","1","0","0","1","1","0","1","1","0","1","0","1","5","4","4","2","4","","3","4","2","3","1","779745842755276801","陈","651","","","","","","","","","","","","","","","","","","","","","","","","","","","","","","feedback_test","","","","","","","","","","","",""
"690","","f","psychophysics","157","566419","0.0-7.0-1.0-4.0-0.0-0.25","4","3","4","3","4","3","3","3","4","4","4","4","3","4","4","4","5","3","4","5","2","1","2","2","2","1","1","2","3","1","0","0","1","0","0","1","1","0","1","1","0","1","0","1","5","4","4","2","4","","3","4","2","3","1","779745842755276801","陈","651","","","","nonmatch","","","","","","","","","","","","","","key","f","16.575247524753397","640","356","f","true","nonmatch","img/circle.png","五边","圆形","ALT1","formal_ALT1_2","","","","","","","","","","","",""
"null","<span style='color:GreenYellow; font-size: 70px;'>正确! </span>","null","html-keyboard-response","158","566920","0.0-7.0-1.0-4.0-0.0-1.25","4","3","4","3","4","3","3","3","4","4","4","4","3","4","4","4","5","3","4","5","2","1","2","2","2","1","1","2","3","1","0","0","1","0","0","1","1","0","1","1","0","1","0","1","5","4","4","2","4","","3","4","2","3","1","779745842755276801","陈","651","","","","","","","","","","","","","","","","","","","","","","","","","","","","","","feedback_test","","","","","","","","","","","",""
"819","","f","psychophysics","159","568741","0.0-7.0-1.0-4.0-0.0-0.26","4","3","4","3","4","3","3","3","4","4","4","4","3","4","4","4","5","3","4","5","2","1","2","2","2","1","1","2","3","1","0","0","1","0","0","1","1","0","1","1","0","1","0","1","5","4","4","2","4","","3","4","2","3","1","779745842755276801","陈","651","","","","nonmatch","","","","","","","","","","","","","","key","f","16.63055555555534","640","356","f","true","nonmatch","img/diamond.png","五边","菱形","ALT1","formal_ALT1_2","","","","","","","","","","","",""
"null","<span style='color:GreenYellow; font-size: 70px;'>正确! </span>","null","html-keyboard-response","160","569242","0.0-7.0-1.0-4.0-0.0-1.26","4","3","4","3","4","3","3","3","4","4","4","4","3","4","4","4","5","3","4","5","2","1","2","2","2","1","1","2","3","1","0","0","1","0","0","1","1","0","1","1","0","1","0","1","5","4","4","2","4","","3","4","2","3","1","779745842755276801","陈","651","","","","","","","","","","","","","","","","","","","","","","","","","","","","","","feedback_test","","","","","","","","","","","",""
"729","","f","psychophysics","161","570972","0.0-7.0-1.0-4.0-0.0-0.27","4","3","4","3","4","3","3","3","4","4","4","4","3","4","4","4","5","3","4","5","2","1","2","2","2","1","1","2","3","1","0","0","1","0","0","1","1","0","1","1","0","1","0","1","5","4","4","2","4","","3","4","2","3","1","779745842755276801","陈","651","","","","nonmatch","","","","","","","","","","","","","","key","f","16.568932038834724","640","356","f","true","nonmatch","img/square.png","五边","方形","ALT1","formal_ALT1_2","","","","","","","","","","","",""
"null","<span style='color:GreenYellow; font-size: 70px;'>正确! </span>","null","html-keyboard-response","162","571474","0.0-7.0-1.0-4.0-0.0-1.27","4","3","4","3","4","3","3","3","4","4","4","4","3","4","4","4","5","3","4","5","2","1","2","2","2","1","1","2","3","1","0","0","1","0","0","1","1","0","1","1","0","1","0","1","5","4","4","2","4","","3","4","2","3","1","779745842755276801","陈","651","","","","","","","","","","","","","","","","","","","","","","","","","","","","","","feedback_test","","","","","","","","","","","",""
"638","","f","psychophysics","163","573481","0.0-7.0-1.0-4.0-0.0-0.28","4","3","4","3","4","3","3","3","4","4","4","4","3","4","4","4","5","3","4","5","2","1","2","2","2","1","1","2","3","1","0","0","1","0","0","1","1","0","1","1","0","1","0","1","5","4","4","2","4","","3","4","2","3","1","779745842755276801","陈","651","","","","nonmatch","","","","","","","","","","","","","","key","f","16.566666666666666","640","356","f","true","nonmatch","img/pentagon.png","菱形","五边","ALT1","formal_ALT1_2","","","","","","","","","","","",""
"null","<span style='color:GreenYellow; font-size: 70px;'>正确! </span>","null","html-keyboard-response","164","573983","0.0-7.0-1.0-4.0-0.0-1.28","4","3","4","3","4","3","3","3","4","4","4","4","3","4","4","4","5","3","4","5","2","1","2","2","2","1","1","2","3","1","0","0","1","0","0","1","1","0","1","1","0","1","0","1","5","4","4","2","4","","3","4","2","3","1","779745842755276801","陈","651","","","","","","","","","","","","","","","","","","","","","","","","","","","","","","feedback_test","","","","","","","","","","","",""
"765","","f","psychophysics","165","575750","0.0-7.0-1.0-4.0-0.0-0.29","4","3","4","3","4","3","3","3","4","4","4","4","3","4","4","4","5","3","4","5","2","1","2","2","2","1","1","2","3","1","0","0","1","0","0","1","1","0","1","1","0","1","0","1","5","4","4","2","4","","3","4","2","3","1","779745842755276801","陈","651","","","","nonmatch","","","","","","","","","","","","","","key","f","16.61238095238029","640","356","j","false","match","img/square.png","方形","方形","ALT1","formal_ALT1_2","","","","","","","","","","","",""
"null","<span style='color:red; font-size: 70px;'>错误! </span>","null","html-keyboard-response","166","576251","0.0-7.0-1.0-4.0-0.0-1.29","4","3","4","3","4","3","3","3","4","4","4","4","3","4","4","4","5","3","4","5","2","1","2","2","2","1","1","2","3","1","0","0","1","0","0","1","1","0","1","1","0","1","0","1","5","4","4","2","4","","3","4","2","3","1","779745842755276801","陈","651","","","","","","","","","","","","","","","","","","","","","","","","","","","","","","feedback_test","","","","","","","","","","","",""
"706","","j","psychophysics","167","577959","0.0-7.0-1.0-4.0-0.0-0.30","4","3","4","3","4","3","3","3","4","4","4","4","3","4","4","4","5","3","4","5","2","1","2","2","2","1","1","2","3","1","0","0","1","0","0","1","1","0","1","1","0","1","0","1","5","4","4","2","4","","3","4","2","3","1","779745842755276801","陈","651","","","","match","","","","","","","","","","","","","","key","j","16.565686274509346","640","356","j","true","match","img/pentagon.png","五边","五边","ALT1","formal_ALT1_2","","","","","","","","","","","",""
"null","<span style='color:GreenYellow; font-size: 70px;'>正确! </span>","null","html-keyboard-response","168","578460","0.0-7.0-1.0-4.0-0.0-1.30","4","3","4","3","4","3","3","3","4","4","4","4","3","4","4","4","5","3","4","5","2","1","2","2","2","1","1","2","3","1","0","0","1","0","0","1","1","0","1","1","0","1","0","1","5","4","4","2","4","","3","4","2","3","1","779745842755276801","陈","651","","","","","","","","","","","","","","","","","","","","","","","","","","","","","","feedback_test","","","","","","","","","","","",""
"250","","j","psychophysics","169","580094","0.0-7.0-1.0-4.0-0.0-0.31","4","3","4","3","4","3","3","3","4","4","4","4","3","4","4","4","5","3","4","5","2","1","2","2","2","1","1","2","3","1","0","0","1","0","0","1","1","0","1","1","0","1","0","1","5","4","4","2","4","","3","4","2","3","1","779745842755276801","陈","651","","","","match","","","","","","","","","","","","","","key","j","16.635051546391512","640","356","j","true","match","img/circle.png","圆形","圆形","ALT1","formal_ALT1_2","","","","","","","","","","","",""
"null","<span style='color:GreenYellow; font-size: 70px;'>正确! </span>","null","html-keyboard-response","170","580595","0.0-7.0-1.0-4.0-0.0-1.31","4","3","4","3","4","3","3","3","4","4","4","4","3","4","4","4","5","3","4","5","2","1","2","2","2","1","1","2","3","1","0","0","1","0","0","1","1","0","1","1","0","1","0","1","5","4","4","2","4","","3","4","2","3","1","779745842755276801","陈","651","","","","","","","","","","","","","","","","","","","","","","","","","","","","","","feedback_test","","","","","","","","","","","",""
"864","","j","psychophysics","171","582461","0.0-7.0-1.0-4.0-0.0-0.32","4","3","4","3","4","3","3","3","4","4","4","4","3","4","4","4","5","3","4","5","2","1","2","2","2","1","1","2","3","1","0","0","1","0","0","1","1","0","1","1","0","1","0","1","5","4","4","2","4","","3","4","2","3","1","779745842755276801","陈","651","","","","match","","","","","","","","","","","","","","key","j","16.60180180180222","640","356","j","true","match","img/diamond.png","菱形","菱形","ALT1","formal_ALT1_2","","","","","","","","","","","",""
"null","<span style='color:GreenYellow; font-size: 70px;'>正确! </span>","null","html-keyboard-response","172","582963","0.0-7.0-1.0-4.0-0.0-1.32","4","3","4","3","4","3","3","3","4","4","4","4","3","4","4","4","5","3","4","5","2","1","2","2","2","1","1","2","3","1","0","0","1","0","0","1","1","0","1","1","0","1","0","1","5","4","4","2","4","","3","4","2","3","1","779745842755276801","陈","651","","","","","","","","","","","","","","","","","","","","","","","","","","","","","","feedback_test","","","","","","","","","","","",""
"857","","f","psychophysics","173","584822","0.0-7.0-1.0-4.0-0.0-0.33","4","3","4","3","4","3","3","3","4","4","4","4","3","4","4","4","5","3","4","5","2","1","2","2","2","1","1","2","3","1","0","0","1","0","0","1","1","0","1","1","0","1","0","1","5","4","4","2","4","","3","4","2","3","1","779745842755276801","陈","651","","","","nonmatch","","","","","","","","","","","","","","key","f","16.572972972972764","640","356","f","true","nonmatch","img/diamond.png","圆形","菱形","ALT1","formal_ALT1_2","","","","","","","","","","","",""
"null","<span style='color:GreenYellow; font-size: 70px;'>正确! </span>","null","html-keyboard-response","174","585844","0.0-7.0-1.0-4.0-0.0-1.33","4","3","4","3","4","3","3","3","4","4","4","4","3","4","4","4","5","3","4","5","2","1","2","2","2","1","1","2","3","1","0","0","1","0","0","1","1","0","1","1","0","1","0","1","5","4","4","2","4","","3","4","2","3","1","779745842755276801","陈","651","","","","","","","","","","","","","","","","","","","","","","","","","","","","","","feedback_test","","","","","","","","","","","",""
"647","","f","psychophysics","175","587493","0.0-7.0-1.0-4.0-0.0-0.34","4","3","4","3","4","3","3","3","4","4","4","4","3","4","4","4","5","3","4","5","2","1","2","2","2","1","1","2","3","1","0","0","1","0","0","1","1","0","1","1","0","1","0","1","5","4","4","2","4","","3","4","2","3","1","779745842755276801","陈","651","","","","nonmatch","","","","","","","","","","","","","","key","f","16.570408163264357","640","356","f","true","nonmatch","img/square.png","圆形","方形","ALT1","formal_ALT1_2","","","","","","","","","","","",""
"null","<span style='color:GreenYellow; font-size: 70px;'>正确! </span>","null","html-keyboard-response","176","587994","0.0-7.0-1.0-4.0-0.0-1.34","4","3","4","3","4","3","3","3","4","4","4","4","3","4","4","4","5","3","4","5","2","1","2","2","2","1","1","2","3","1","0","0","1","0","0","1","1","0","1","1","0","1","0","1","5","4","4","2","4","","3","4","2","3","1","779745842755276801","陈","651","","","","","","","","","","","","","","","","","","","","","","","","","","","","","","feedback_test","","","","","","","","","","","",""
"673","","j","psychophysics","177","589669","0.0-7.0-1.0-4.0-0.0-0.35","4","3","4","3","4","3","3","3","4","4","4","4","3","4","4","4","5","3","4","5","2","1","2","2","2","1","1","2","3","1","0","0","1","0","0","1","1","0","1","1","0","1","0","1","5","4","4","2","4","","3","4","2","3","1","779745842755276801","陈","651","","","","match","","","","","","","","","","","","","","key","j","16.55","640","356","j","true","match","img/square.png","方形","方形","ALT1","formal_ALT1_2","","","","","","","","","","","",""
"null","<span style='color:GreenYellow; font-size: 70px;'>正确! </span>","null","html-keyboard-response","178","590171","0.0-7.0-1.0-4.0-0.0-1.35","4","3","4","3","4","3","3","3","4","4","4","4","3","4","4","4","5","3","4","5","2","1","2","2","2","1","1","2","3","1","0","0","1","0","0","1","1","0","1","1","0","1","0","1","5","4","4","2","4","","3","4","2","3","1","779745842755276801","陈","651","","","","","","","","","","","","","","","","","","","","","","","","","","","","","","feedback_test","","","","","","","","","","","",""
"671","","j","psychophysics","179","591845","0.0-7.0-1.0-4.0-0.0-0.36","4","3","4","3","4","3","3","3","4","4","4","4","3","4","4","4","5","3","4","5","2","1","2","2","2","1","1","2","3","1","0","0","1","0","0","1","1","0","1","1","0","1","0","1","5","4","4","2","4","","3","4","2","3","1","779745842755276801","陈","651","","","","match","","","","","","","","","","","","","","key","j","16.600000000000236","640","356","j","true","match","img/square.png","方形","方形","ALT1","formal_ALT1_2","","","","","","","","","","","",""
"null","<span style='color:GreenYellow; font-size: 70px;'>正确! </span>","null","html-keyboard-response","180","592346","0.0-7.0-1.0-4.0-0.0-1.36","4","3","4","3","4","3","3","3","4","4","4","4","3","4","4","4","5","3","4","5","2","1","2","2","2","1","1","2","3","1","0","0","1","0","0","1","1","0","1","1","0","1","0","1","5","4","4","2","4","","3","4","2","3","1","779745842755276801","陈","651","","","","","","","","","","","","","","","","","","","","","","","","","","","","","","feedback_test","","","","","","","","","","","",""
"219","","f","psychophysics","181","594061","0.0-7.0-1.0-4.0-0.0-0.37","4","3","4","3","4","3","3","3","4","4","4","4","3","4","4","4","5","3","4","5","2","1","2","2","2","1","1","2","3","1","0","0","1","0","0","1","1","0","1","1","0","1","0","1","5","4","4","2","4","","3","4","2","3","1","779745842755276801","陈","651","","","","nonmatch","","","","","","","","","","","","","","key","f","16.650000000000457","640","356","f","true","nonmatch","img/circle.png","菱形","圆形","ALT1","formal_ALT1_2","","","","","","","","","","","",""
