"rt","stimulus","response","trial_type","trial_index","time_elapsed","internal_node_id","ses_1","ses_2","ses_3","ses_4","ses_5","ses_6","ses_7","ses_8","ses_9","ses_10","coreself_1","coreself_2","coreself_3","coreself_4","coreself_5","coreself_6","coreself_7","coreself_8","coreself_9","coreself_10","SGPS_1","SGPS_2","SGPS_3","SGPS_4","SGPS_5","SGPS_6","SGPS_7","SGPS_8","SGPS_9","NPI1","NPI2","NPI3","NPI4","NPI5","NPI6","NPI7","NPI8","NPI9","NPI10","NPI11","NPI12","NPI13","NPI14","NPI15","hsns_1","hsns_2","hsns_3","hsns_4","hsns_5","trap1","hsns_6","hsns_7","hsns_8","hsns_9","hsns_10","subj_idx","friend_name","ParticipantID","value","success","user_agent","responses","item_order","radio_event_ids","radio_event_times","key_event_times","mouse_event_times","straightlining","zigzagging","honeypot","timeout","failed_images","failed_audio","failed_video","version_attrib","version_target","correct","IAT","screen_id","task_id","RT","condition","word","varname","summary","version_attrib2","version_target2","time_stamp","view_history","response_type","key_press","avg_frame_time","center_x","center_y","correct_response","identity","Image","question_order","correct_answer","trap1_item"
"10950","
   <p><div style = ""color: white;font-size:25px;"">您好，欢迎参加本次实验。</div> </p>
   <p><div style = ""color: white;font-size:25px;"">为充分保障您的权利，请确保您已经知晓并同意《参与实验同意书》以及《数据公开知情同意书》。</div></p>
   <p><div style = ""color: white;font-size:25px;"">如果您未见过上述内容，请咨询实验员。</div></p>
   <p><div style = ""color: white;font-size:25px;"">如果您选择继续实验，则表示您已经清楚两份知情同意书的内容并同意。</div></p>
   <p><div style = ""color: pink;font-size:30px;"">请确保您记得day0的实验编号，您将在本次实验输入该编号，若您忘记，请咨询实验员后作答。</div></p>
   <p><div style = ""color: lightblue;font-size:25px;"">请您尽可能认真地作答，我们将依据您在各问卷和按键任务中的作答质量发放报酬。</div></p>
   <p> <div style = ""color: green;font-size:25px;""><按空格键至下页></div> </p>
   "," ","html-keyboard-response","0","10952","0.0-0.0","3","3","4","3","3","4","3","3","4","4","4","4","4","4","3","5","4","2","4","4","4","4","3","3","4","4","3","3","2","1","0","1","1","0","0","0","1","1","1","1","0","0","0","1","3","4","3","3","4","1","3","4","4","4","3","682500248714608640","陈","154","","","","","","","","","","","","","","","","","","","","","","","","","","","","","","","","","","","","","","","","","",""
"","","","call-function","1","10953","0.0-1.0-0.0","3","3","4","3","3","4","3","3","4","4","4","4","4","4","3","5","4","2","4","4","4","4","3","3","4","4","3","3","2","1","0","1","1","0","0","0","1","1","1","1","0","0","0","1","3","4","3","3","4","1","3","4","4","4","3","682500248714608640","陈","154","","","","","","","","","","","","","","","","","","","","","","","","","","","","","","","","","","","","","","","","","",""
"20802","","{""friend_name"":""陈"",""ParticipantID"":""154""}","survey-html-form","2","31756","0.0-1.0-1.0","3","3","4","3","3","4","3","3","4","4","4","4","4","4","3","5","4","2","4","4","4","4","3","3","4","4","3","3","2","1","0","1","1","0","0","0","1","1","1","1","0","0","0","1","3","4","3","3","4","1","3","4","4","4","3","682500248714608640","陈","154","","","","","","","","","","","","","","","","","","","","","","","","","","","","","","","","","","","","","","","","","",""
"","","","fullscreen","3","81289","0.0-2.0","3","3","4","3","3","4","3","3","4","4","4","4","4","4","3","5","4","2","4","4","4","4","3","3","4","4","3","3","2","1","0","1","1","0","0","0","1","1","1","1","0","0","0","1","3","4","3","3","4","1","3","4","4","4","3","682500248714608640","陈","154","","true","{}","","","","","","","","","","","","","","","","","","","","","","","","","","","","","","","","","","","","","","",""
"26294.200000001118","","{""Q01"":""3"",""Q02"":""3"",""Q03"":""4"",""Q04"":""3"",""Q05"":""3"",""Q06"":""4"",""Q07"":""3"",""Q08"":""3"",""Q09"":""4"",""Q10"":""4""}","survey-template","4","107585","0.0-3.0","3","3","4","3","3","4","3","3","4","4","4","4","4","4","3","5","4","2","4","4","4","4","3","3","4","4","3","3","2","1","0","1","1","0","0","0","1","1","1","1","0","0","0","1","3","4","3","3","4","1","3","4","4","4","3","682500248714608640","陈","154","","","","{""Q01"":""3"",""Q02"":""3"",""Q03"":""4"",""Q04"":""3"",""Q05"":""3"",""Q06"":""4"",""Q07"":""3"",""Q08"":""3"",""Q09"":""4"",""Q10"":""4""}","[0,1,2,3,4,5,6,7,8,9]","[""Q01"",""Q02"",""Q03"",""Q04"",""Q05"",""Q06"",""Q07"",""Q08"",""Q09"",""Q10""]","[3995.300000000745,5279.200000001118,8571.200000001118,10933.099999999627,12561.099999999627,15033,16653,18243.099999999627,23874.900000000373,24791.200000001118]","[]","[3995.300000000745,5279.200000001118,8571.200000001118,10933.099999999627,12561.099999999627,13972.800000000745,15033,16653,18243.099999999627,23874.900000000373,24791.200000001118,26293.400000000373]","0.4","0.4444444444444444","0","","","","","","","","","","","","","","","","","","","","","","","","","","","","","",""
"26182.099999999627","","{""Q01"":""4"",""Q02"":""4"",""Q03"":""4"",""Q04"":""4"",""Q05"":""3"",""Q06"":""5"",""Q07"":""4"",""Q08"":""2"",""Q09"":""4"",""Q10"":""4""}","survey-template","5","133771","0.0-4.0","3","3","4","3","3","4","3","3","4","4","4","4","4","4","3","5","4","2","4","4","4","4","3","3","4","4","3","3","2","1","0","1","1","0","0","0","1","1","1","1","0","0","0","1","3","4","3","3","4","1","3","4","4","4","3","682500248714608640","陈","154","","","","{""Q01"":""4"",""Q02"":""4"",""Q03"":""4"",""Q04"":""4"",""Q05"":""3"",""Q06"":""5"",""Q07"":""4"",""Q08"":""2"",""Q09"":""4"",""Q10"":""4""}","[0,1,2,3,4,5,6,7,8,9]","[""Q01"",""Q02"",""Q03"",""Q04"",""Q05"",""Q06"",""Q07"",""Q08"",""Q09"",""Q10""]","[4411.5,6314.9000000003725,7648.700000001118,8996.900000000373,10289.099999999627,13198.400000000373,14535.200000001118,16643.099999999627,18163.599999999627,20782.900000000373]","[]","[4411.5,6314.9000000003725,7648.700000001118,8996.900000000373,10289.099999999627,13198.400000000373,14535.200000001118,16643.099999999627,18163.599999999627,20782.900000000373,26181.200000001118]","0.4","0.1111111111111111","0","","","","","","","","","","","","","","","","","","","","","","","","","","","","","",""
"","","","preload","6","134333","0.0-5.0","3","3","4","3","3","4","3","3","4","4","4","4","4","4","3","5","4","2","4","4","4","4","3","3","4","4","3","3","2","1","0","1","1","0","0","0","1","1","1","1","0","0","0","1","3","4","3","3","4","1","3","4","4","4","3","682500248714608640","陈","154","","true","","","","","","","","","","","false","[]","[]","[]","","","","","","","","","","","","","","","","","","","","","","","","","",""
"22550","
    <h3>词语分类任务</h3>
    <p>在接下来的任务中，你需要对一系列词语进行分类。</p>
    <p>请先熟悉这些词语，这有利于你完成接下来的任务。</p>
    <table align=""center"" border=1 cellpadding=3 cellspacing=0>
    <tr> <th>类别</th> <th>词语</th> </tr>
    <tr> <td>&emsp;积极&emsp;</td> <td>&emsp;能干、全能、全才、高效、精干、天才&emsp;</td> </tr>
    <tr> <td>&emsp;消极&emsp;</td> <td>&emsp;无能、低能、废物、拙笨、愚钝、蠢笨&emsp;</td> </tr>
    <tr> <td>&emsp;自我&emsp;</td> <td>&emsp;我、我的、自己、自己的、本人、本人的&emsp;</td> </tr>
    <tr> <td>&emsp;他人&emsp;</td> <td>&emsp;他、他的、别人、别人的、他人、他人的&emsp;</td> </tr>
    </table><br/>","0","html-button-response","7","156884","0.0-6.0-0.0-0.0","3","3","4","3","3","4","3","3","4","4","4","4","4","4","3","5","4","2","4","4","4","4","3","3","4","4","3","3","2","1","0","1","1","0","0","0","1","1","1","1","0","0","0","1","3","4","3","3","4","1","3","4","4","4","3","682500248714608640","陈","154","","","","","","","","","","","","","","","","","2","2","","","","","","","","","","","","","","","","","","","","","","","",""
"22357","
    <div class=""tag-bottom"">
    <p> —— 任务1：对“他人”词和“自我”词分类 ——<p/>
    不同词语会出现在屏幕中央，类别标签将始终显示在屏幕上方<p/>   
    <span style=""color:#FFD866""><b>请根据上方标签的提示，尽可能正确并且快速地做出按键反应</b></span><p/>
    当按键错误时屏幕中会出现<span style=""color:red""> X </span>，需要按另一个键纠正才能继续<br/><p/>
    请把双手食指分别放在键盘的“E”键和“I”键上<p/>
    按<空格键>开始
    </p></div>"," ","html-keyboard-response","8","179243","0.0-6.0-0.0-1.0","3","3","4","3","3","4","3","3","4","4","4","4","4","4","3","5","4","2","4","4","4","4","3","3","4","4","3","3","2","1","0","1","1","0","0","0","1","1","1","1","0","0","0","1","3","4","3","3","4","1","3","4","4","4","3","682500248714608640","陈","154","","","","","","","","","","","","","","","","","","","","","","","","","","","","","","","","","","","","","","","","","",""
"null","","null","html-keyboard-response","9","179494","0.0-6.0-0.0-2.0-0.0","3","3","4","3","3","4","3","3","4","4","4","4","4","4","3","5","4","2","4","4","4","4","3","3","4","4","3","3","2","1","0","1","1","0","0","0","1","1","1","1","0","0","0","1","3","4","3","3","4","1","3","4","4","4","3","682500248714608640","陈","154","","","","","","","","","","","","","","","","","","","","","","","","","","","","","","","","","","","","","","","","","",""
"917","<p style=""color:rgb(150, 250, 100); font-size: 35px;"">本人的</p>","i","categorize-html","10","180412","0.0-6.0-0.0-2.0-1.0","3","3","4","3","3","4","3","3","4","4","4","4","4","4","3","5","4","2","4","4","4","4","3","3","4","4","3","3","2","1","0","1","1","0","0","0","1","1","1","1","0","0","0","1","3","4","3","3","4","1","3","4","4","4","3","682500248714608640","陈","154","","","","","","","","","","","","","","","","","","","true","1","1","ability","917","self","本人的","","","","","","","","","","","","","","","","",""
"null","","null","html-keyboard-response","11","180664","0.0-6.0-0.0-2.0-0.1","3","3","4","3","3","4","3","3","4","4","4","4","4","4","3","5","4","2","4","4","4","4","3","3","4","4","3","3","2","1","0","1","1","0","0","0","1","1","1","1","0","0","0","1","3","4","3","3","4","1","3","4","4","4","3","682500248714608640","陈","154","","","","","","","","","","","","","","","","","","","","","","","","","","","","","","","","","","","","","","","","","",""
"687","<p style=""color:rgb(150, 250, 100); font-size: 35px;"">他</p>","e","categorize-html","12","181351","0.0-6.0-0.0-2.0-1.1","3","3","4","3","3","4","3","3","4","4","4","4","4","4","3","5","4","2","4","4","4","4","3","3","4","4","3","3","2","1","0","1","1","0","0","0","1","1","1","1","0","0","0","1","3","4","3","3","4","1","3","4","4","4","3","682500248714608640","陈","154","","","","","","","","","","","","","","","","","","","true","1","1","ability","687","other","他","","","","","","","","","","","","","","","","",""
"null","","null","html-keyboard-response","13","181603","0.0-6.0-0.0-2.0-0.2","3","3","4","3","3","4","3","3","4","4","4","4","4","4","3","5","4","2","4","4","4","4","3","3","4","4","3","3","2","1","0","1","1","0","0","0","1","1","1","1","0","0","0","1","3","4","3","3","4","1","3","4","4","4","3","682500248714608640","陈","154","","","","","","","","","","","","","","","","","","","","","","","","","","","","","","","","","","","","","","","","","",""
"561","<p style=""color:rgb(150, 250, 100); font-size: 35px;"">他人</p>","e","categorize-html","14","182165","0.0-6.0-0.0-2.0-1.2","3","3","4","3","3","4","3","3","4","4","4","4","4","4","3","5","4","2","4","4","4","4","3","3","4","4","3","3","2","1","0","1","1","0","0","0","1","1","1","1","0","0","0","1","3","4","3","3","4","1","3","4","4","4","3","682500248714608640","陈","154","","","","","","","","","","","","","","","","","","","true","1","1","ability","561","other","他人","","","","","","","","","","","","","","","","",""
"null","","null","html-keyboard-response","15","182416","0.0-6.0-0.0-2.0-0.3","3","3","4","3","3","4","3","3","4","4","4","4","4","4","3","5","4","2","4","4","4","4","3","3","4","4","3","3","2","1","0","1","1","0","0","0","1","1","1","1","0","0","0","1","3","4","3","3","4","1","3","4","4","4","3","682500248714608640","陈","154","","","","","","","","","","","","","","","","","","","","","","","","","","","","","","","","","","","","","","","","","",""
"557","<p style=""color:rgb(150, 250, 100); font-size: 35px;"">他的</p>","e","categorize-html","16","182974","0.0-6.0-0.0-2.0-1.3","3","3","4","3","3","4","3","3","4","4","4","4","4","4","3","5","4","2","4","4","4","4","3","3","4","4","3","3","2","1","0","1","1","0","0","0","1","1","1","1","0","0","0","1","3","4","3","3","4","1","3","4","4","4","3","682500248714608640","陈","154","","","","","","","","","","","","","","","","","","","true","1","1","ability","557","other","他的","","","","","","","","","","","","","","","","",""
"null","","null","html-keyboard-response","17","183225","0.0-6.0-0.0-2.0-0.4","3","3","4","3","3","4","3","3","4","4","4","4","4","4","3","5","4","2","4","4","4","4","3","3","4","4","3","3","2","1","0","1","1","0","0","0","1","1","1","1","0","0","0","1","3","4","3","3","4","1","3","4","4","4","3","682500248714608640","陈","154","","","","","","","","","","","","","","","","","","","","","","","","","","","","","","","","","","","","","","","","","",""
"524","<p style=""color:rgb(150, 250, 100); font-size: 35px;"">自己的</p>","i","categorize-html","18","183750","0.0-6.0-0.0-2.0-1.4","3","3","4","3","3","4","3","3","4","4","4","4","4","4","3","5","4","2","4","4","4","4","3","3","4","4","3","3","2","1","0","1","1","0","0","0","1","1","1","1","0","0","0","1","3","4","3","3","4","1","3","4","4","4","3","682500248714608640","陈","154","","","","","","","","","","","","","","","","","","","true","1","1","ability","524","self","自己的","","","","","","","","","","","","","","","","",""
"null","","null","html-keyboard-response","19","184002","0.0-6.0-0.0-2.0-0.5","3","3","4","3","3","4","3","3","4","4","4","4","4","4","3","5","4","2","4","4","4","4","3","3","4","4","3","3","2","1","0","1","1","0","0","0","1","1","1","1","0","0","0","1","3","4","3","3","4","1","3","4","4","4","3","682500248714608640","陈","154","","","","","","","","","","","","","","","","","","","","","","","","","","","","","","","","","","","","","","","","","",""
"471","<p style=""color:rgb(150, 250, 100); font-size: 35px;"">自己</p>","i","categorize-html","20","184474","0.0-6.0-0.0-2.0-1.5","3","3","4","3","3","4","3","3","4","4","4","4","4","4","3","5","4","2","4","4","4","4","3","3","4","4","3","3","2","1","0","1","1","0","0","0","1","1","1","1","0","0","0","1","3","4","3","3","4","1","3","4","4","4","3","682500248714608640","陈","154","","","","","","","","","","","","","","","","","","","true","1","1","ability","471","self","自己","","","","","","","","","","","","","","","","",""
"null","","null","html-keyboard-response","21","184725","0.0-6.0-0.0-2.0-0.6","3","3","4","3","3","4","3","3","4","4","4","4","4","4","3","5","4","2","4","4","4","4","3","3","4","4","3","3","2","1","0","1","1","0","0","0","1","1","1","1","0","0","0","1","3","4","3","3","4","1","3","4","4","4","3","682500248714608640","陈","154","","","","","","","","","","","","","","","","","","","","","","","","","","","","","","","","","","","","","","","","","",""
"503","<p style=""color:rgb(150, 250, 100); font-size: 35px;"">我的</p>","i","categorize-html","22","185229","0.0-6.0-0.0-2.0-1.6","3","3","4","3","3","4","3","3","4","4","4","4","4","4","3","5","4","2","4","4","4","4","3","3","4","4","3","3","2","1","0","1","1","0","0","0","1","1","1","1","0","0","0","1","3","4","3","3","4","1","3","4","4","4","3","682500248714608640","陈","154","","","","","","","","","","","","","","","","","","","true","1","1","ability","503","self","我的","","","","","","","","","","","","","","","","",""
"null","","null","html-keyboard-response","23","185480","0.0-6.0-0.0-2.0-0.7","3","3","4","3","3","4","3","3","4","4","4","4","4","4","3","5","4","2","4","4","4","4","3","3","4","4","3","3","2","1","0","1","1","0","0","0","1","1","1","1","0","0","0","1","3","4","3","3","4","1","3","4","4","4","3","682500248714608640","陈","154","","","","","","","","","","","","","","","","","","","","","","","","","","","","","","","","","","","","","","","","","",""
"504","<p style=""color:rgb(150, 250, 100); font-size: 35px;"">别人的</p>","e","categorize-html","24","185985","0.0-6.0-0.0-2.0-1.7","3","3","4","3","3","4","3","3","4","4","4","4","4","4","3","5","4","2","4","4","4","4","3","3","4","4","3","3","2","1","0","1","1","0","0","0","1","1","1","1","0","0","0","1","3","4","3","3","4","1","3","4","4","4","3","682500248714608640","陈","154","","","","","","","","","","","","","","","","","","","true","1","1","ability","504","other","别人的","","","","","","","","","","","","","","","","",""
"null","","null","html-keyboard-response","25","186236","0.0-6.0-0.0-2.0-0.8","3","3","4","3","3","4","3","3","4","4","4","4","4","4","3","5","4","2","4","4","4","4","3","3","4","4","3","3","2","1","0","1","1","0","0","0","1","1","1","1","0","0","0","1","3","4","3","3","4","1","3","4","4","4","3","682500248714608640","陈","154","","","","","","","","","","","","","","","","","","","","","","","","","","","","","","","","","","","","","","","","","",""
"492","<p style=""color:rgb(150, 250, 100); font-size: 35px;"">我</p>","i","categorize-html","26","186729","0.0-6.0-0.0-2.0-1.8","3","3","4","3","3","4","3","3","4","4","4","4","4","4","3","5","4","2","4","4","4","4","3","3","4","4","3","3","2","1","0","1","1","0","0","0","1","1","1","1","0","0","0","1","3","4","3","3","4","1","3","4","4","4","3","682500248714608640","陈","154","","","","","","","","","","","","","","","","","","","true","1","1","ability","492","self","我","","","","","","","","","","","","","","","","",""
"null","","null","html-keyboard-response","27","186980","0.0-6.0-0.0-2.0-0.9","3","3","4","3","3","4","3","3","4","4","4","4","4","4","3","5","4","2","4","4","4","4","3","3","4","4","3","3","2","1","0","1","1","0","0","0","1","1","1","1","0","0","0","1","3","4","3","3","4","1","3","4","4","4","3","682500248714608640","陈","154","","","","","","","","","","","","","","","","","","","","","","","","","","","","","","","","","","","","","","","","","",""
"554","<p style=""color:rgb(150, 250, 100); font-size: 35px;"">他人的</p>","e","categorize-html","28","187535","0.0-6.0-0.0-2.0-1.9","3","3","4","3","3","4","3","3","4","4","4","4","4","4","3","5","4","2","4","4","4","4","3","3","4","4","3","3","2","1","0","1","1","0","0","0","1","1","1","1","0","0","0","1","3","4","3","3","4","1","3","4","4","4","3","682500248714608640","陈","154","","","","","","","","","","","","","","","","","","","true","1","1","ability","554","other","他人的","","","","","","","","","","","","","","","","",""
"null","","null","html-keyboard-response","29","187787","0.0-6.0-0.0-2.0-0.10","3","3","4","3","3","4","3","3","4","4","4","4","4","4","3","5","4","2","4","4","4","4","3","3","4","4","3","3","2","1","0","1","1","0","0","0","1","1","1","1","0","0","0","1","3","4","3","3","4","1","3","4","4","4","3","682500248714608640","陈","154","","","","","","","","","","","","","","","","","","","","","","","","","","","","","","","","","","","","","","","","","",""
"524","<p style=""color:rgb(150, 250, 100); font-size: 35px;"">本人</p>","i","categorize-html","30","188311","0.0-6.0-0.0-2.0-1.10","3","3","4","3","3","4","3","3","4","4","4","4","4","4","3","5","4","2","4","4","4","4","3","3","4","4","3","3","2","1","0","1","1","0","0","0","1","1","1","1","0","0","0","1","3","4","3","3","4","1","3","4","4","4","3","682500248714608640","陈","154","","","","","","","","","","","","","","","","","","","true","1","1","ability","524","self","本人","","","","","","","","","","","","","","","","",""
"null","","null","html-keyboard-response","31","188562","0.0-6.0-0.0-2.0-0.11","3","3","4","3","3","4","3","3","4","4","4","4","4","4","3","5","4","2","4","4","4","4","3","3","4","4","3","3","2","1","0","1","1","0","0","0","1","1","1","1","0","0","0","1","3","4","3","3","4","1","3","4","4","4","3","682500248714608640","陈","154","","","","","","","","","","","","","","","","","","","","","","","","","","","","","","","","","","","","","","","","","",""
"547","<p style=""color:rgb(150, 250, 100); font-size: 35px;"">别人</p>","e","categorize-html","32","189110","0.0-6.0-0.0-2.0-1.11","3","3","4","3","3","4","3","3","4","4","4","4","4","4","3","5","4","2","4","4","4","4","3","3","4","4","3","3","2","1","0","1","1","0","0","0","1","1","1","1","0","0","0","1","3","4","3","3","4","1","3","4","4","4","3","682500248714608640","陈","154","","","","","","","","","","","","","","","","","","","true","1","1","ability","547","other","别人","","","","","","","","","","","","","","","","",""
"14863","
    <div class=""tag-bottom""><p>
    —— 任务2：对“消极”词和“积极”词分类 ——<p/>   
    <span style=""color:#78DCE8""><b>注意上方，类别标签和需要分类的词语都已经改变</b></span><p/>
    <span style=""color:#FFD866""><b>请根据上方标签的提示，尽可能正确并且快速地做出按键反应</b></span><p/>
    当按键错误时屏幕中会出现<span style=""color:red""> X </span>，需要按另一个键纠正才能继续<br/><p/>
    请把双手食指分别放在键盘的“E”键和“I”键上<p/>
    按<空格键>开始
    </p></div>"," ","html-keyboard-response","33","203974","0.0-6.0-0.0-3.0","3","3","4","3","3","4","3","3","4","4","4","4","4","4","3","5","4","2","4","4","4","4","3","3","4","4","3","3","2","1","0","1","1","0","0","0","1","1","1","1","0","0","0","1","3","4","3","3","4","1","3","4","4","4","3","682500248714608640","陈","154","","","","","","","","","","","","","","","","","","","","","","","","","","","","","","","","","","","","","","","","","",""
"null","","null","html-keyboard-response","34","204225","0.0-6.0-0.0-4.0-0.0","3","3","4","3","3","4","3","3","4","4","4","4","4","4","3","5","4","2","4","4","4","4","3","3","4","4","3","3","2","1","0","1","1","0","0","0","1","1","1","1","0","0","0","1","3","4","3","3","4","1","3","4","4","4","3","682500248714608640","陈","154","","","","","","","","","","","","","","","","","","","","","","","","","","","","","","","","","","","","","","","","","",""
"597","<p style=""color:white; font-size: 35px;"">能干</p>","i","categorize-html","35","204823","0.0-6.0-0.0-4.0-1.0","3","3","4","3","3","4","3","3","4","4","4","4","4","4","3","5","4","2","4","4","4","4","3","3","4","4","3","3","2","1","0","1","1","0","0","0","1","1","1","1","0","0","0","1","3","4","3","3","4","1","3","4","4","4","3","682500248714608640","陈","154","","","","","","","","","","","","","","","","","","","true","2","2","ability","597","positive","能干","","","","","","","","","","","","","","","","",""
"null","","null","html-keyboard-response","36","205075","0.0-6.0-0.0-4.0-0.1","3","3","4","3","3","4","3","3","4","4","4","4","4","4","3","5","4","2","4","4","4","4","3","3","4","4","3","3","2","1","0","1","1","0","0","0","1","1","1","1","0","0","0","1","3","4","3","3","4","1","3","4","4","4","3","682500248714608640","陈","154","","","","","","","","","","","","","","","","","","","","","","","","","","","","","","","","","","","","","","","","","",""
"453","<p style=""color:white; font-size: 35px;"">高效</p>","i","categorize-html","37","205528","0.0-6.0-0.0-4.0-1.1","3","3","4","3","3","4","3","3","4","4","4","4","4","4","3","5","4","2","4","4","4","4","3","3","4","4","3","3","2","1","0","1","1","0","0","0","1","1","1","1","0","0","0","1","3","4","3","3","4","1","3","4","4","4","3","682500248714608640","陈","154","","","","","","","","","","","","","","","","","","","true","2","2","ability","453","positive","高效","","","","","","","","","","","","","","","","",""
"null","","null","html-keyboard-response","38","205779","0.0-6.0-0.0-4.0-0.2","3","3","4","3","3","4","3","3","4","4","4","4","4","4","3","5","4","2","4","4","4","4","3","3","4","4","3","3","2","1","0","1","1","0","0","0","1","1","1","1","0","0","0","1","3","4","3","3","4","1","3","4","4","4","3","682500248714608640","陈","154","","","","","","","","","","","","","","","","","","","","","","","","","","","","","","","","","","","","","","","","","",""
"495","<p style=""color:white; font-size: 35px;"">废物</p>","e","categorize-html","39","206275","0.0-6.0-0.0-4.0-1.2","3","3","4","3","3","4","3","3","4","4","4","4","4","4","3","5","4","2","4","4","4","4","3","3","4","4","3","3","2","1","0","1","1","0","0","0","1","1","1","1","0","0","0","1","3","4","3","3","4","1","3","4","4","4","3","682500248714608640","陈","154","","","","","","","","","","","","","","","","","","","true","2","2","ability","495","negative","废物","","","","","","","","","","","","","","","","",""
"null","","null","html-keyboard-response","40","206526","0.0-6.0-0.0-4.0-0.3","3","3","4","3","3","4","3","3","4","4","4","4","4","4","3","5","4","2","4","4","4","4","3","3","4","4","3","3","2","1","0","1","1","0","0","0","1","1","1","1","0","0","0","1","3","4","3","3","4","1","3","4","4","4","3","682500248714608640","陈","154","","","","","","","","","","","","","","","","","","","","","","","","","","","","","","","","","","","","","","","","","",""
"480","<p style=""color:white; font-size: 35px;"">愚钝</p>","e","categorize-html","41","207007","0.0-6.0-0.0-4.0-1.3","3","3","4","3","3","4","3","3","4","4","4","4","4","4","3","5","4","2","4","4","4","4","3","3","4","4","3","3","2","1","0","1","1","0","0","0","1","1","1","1","0","0","0","1","3","4","3","3","4","1","3","4","4","4","3","682500248714608640","陈","154","","","","","","","","","","","","","","","","","","","true","2","2","ability","480","negative","愚钝","","","","","","","","","","","","","","","","",""
"null","","null","html-keyboard-response","42","207257","0.0-6.0-0.0-4.0-0.4","3","3","4","3","3","4","3","3","4","4","4","4","4","4","3","5","4","2","4","4","4","4","3","3","4","4","3","3","2","1","0","1","1","0","0","0","1","1","1","1","0","0","0","1","3","4","3","3","4","1","3","4","4","4","3","682500248714608640","陈","154","","","","","","","","","","","","","","","","","","","","","","","","","","","","","","","","","","","","","","","","","",""
"530","<p style=""color:white; font-size: 35px;"">精干</p>","i","categorize-html","43","207788","0.0-6.0-0.0-4.0-1.4","3","3","4","3","3","4","3","3","4","4","4","4","4","4","3","5","4","2","4","4","4","4","3","3","4","4","3","3","2","1","0","1","1","0","0","0","1","1","1","1","0","0","0","1","3","4","3","3","4","1","3","4","4","4","3","682500248714608640","陈","154","","","","","","","","","","","","","","","","","","","true","2","2","ability","530","positive","精干","","","","","","","","","","","","","","","","",""
"null","","null","html-keyboard-response","44","208039","0.0-6.0-0.0-4.0-0.5","3","3","4","3","3","4","3","3","4","4","4","4","4","4","3","5","4","2","4","4","4","4","3","3","4","4","3","3","2","1","0","1","1","0","0","0","1","1","1","1","0","0","0","1","3","4","3","3","4","1","3","4","4","4","3","682500248714608640","陈","154","","","","","","","","","","","","","","","","","","","","","","","","","","","","","","","","","","","","","","","","","",""
"553","<p style=""color:white; font-size: 35px;"">拙笨</p>","e","categorize-html","45","208593","0.0-6.0-0.0-4.0-1.5","3","3","4","3","3","4","3","3","4","4","4","4","4","4","3","5","4","2","4","4","4","4","3","3","4","4","3","3","2","1","0","1","1","0","0","0","1","1","1","1","0","0","0","1","3","4","3","3","4","1","3","4","4","4","3","682500248714608640","陈","154","","","","","","","","","","","","","","","","","","","true","2","2","ability","553","negative","拙笨","","","","","","","","","","","","","","","","",""
"null","","null","html-keyboard-response","46","208844","0.0-6.0-0.0-4.0-0.6","3","3","4","3","3","4","3","3","4","4","4","4","4","4","3","5","4","2","4","4","4","4","3","3","4","4","3","3","2","1","0","1","1","0","0","0","1","1","1","1","0","0","0","1","3","4","3","3","4","1","3","4","4","4","3","682500248714608640","陈","154","","","","","","","","","","","","","","","","","","","","","","","","","","","","","","","","","","","","","","","","","",""
"517","<p style=""color:white; font-size: 35px;"">蠢笨</p>","e","categorize-html","47","209361","0.0-6.0-0.0-4.0-1.6","3","3","4","3","3","4","3","3","4","4","4","4","4","4","3","5","4","2","4","4","4","4","3","3","4","4","3","3","2","1","0","1","1","0","0","0","1","1","1","1","0","0","0","1","3","4","3","3","4","1","3","4","4","4","3","682500248714608640","陈","154","","","","","","","","","","","","","","","","","","","true","2","2","ability","517","negative","蠢笨","","","","","","","","","","","","","","","","",""
"null","","null","html-keyboard-response","48","209613","0.0-6.0-0.0-4.0-0.7","3","3","4","3","3","4","3","3","4","4","4","4","4","4","3","5","4","2","4","4","4","4","3","3","4","4","3","3","2","1","0","1","1","0","0","0","1","1","1","1","0","0","0","1","3","4","3","3","4","1","3","4","4","4","3","682500248714608640","陈","154","","","","","","","","","","","","","","","","","","","","","","","","","","","","","","","","","","","","","","","","","",""
"475","<p style=""color:white; font-size: 35px;"">无能</p>","e","categorize-html","49","210088","0.0-6.0-0.0-4.0-1.7","3","3","4","3","3","4","3","3","4","4","4","4","4","4","3","5","4","2","4","4","4","4","3","3","4","4","3","3","2","1","0","1","1","0","0","0","1","1","1","1","0","0","0","1","3","4","3","3","4","1","3","4","4","4","3","682500248714608640","陈","154","","","","","","","","","","","","","","","","","","","true","2","2","ability","475","negative","无能","","","","","","","","","","","","","","","","",""
"null","","null","html-keyboard-response","50","210339","0.0-6.0-0.0-4.0-0.8","3","3","4","3","3","4","3","3","4","4","4","4","4","4","3","5","4","2","4","4","4","4","3","3","4","4","3","3","2","1","0","1","1","0","0","0","1","1","1","1","0","0","0","1","3","4","3","3","4","1","3","4","4","4","3","682500248714608640","陈","154","","","","","","","","","","","","","","","","","","","","","","","","","","","","","","","","","","","","","","","","","",""
"530","<p style=""color:white; font-size: 35px;"">全能</p>","i","categorize-html","51","210869","0.0-6.0-0.0-4.0-1.8","3","3","4","3","3","4","3","3","4","4","4","4","4","4","3","5","4","2","4","4","4","4","3","3","4","4","3","3","2","1","0","1","1","0","0","0","1","1","1","1","0","0","0","1","3","4","3","3","4","1","3","4","4","4","3","682500248714608640","陈","154","","","","","","","","","","","","","","","","","","","true","2","2","ability","530","positive","全能","","","","","","","","","","","","","","","","",""
"null","","null","html-keyboard-response","52","211121","0.0-6.0-0.0-4.0-0.9","3","3","4","3","3","4","3","3","4","4","4","4","4","4","3","5","4","2","4","4","4","4","3","3","4","4","3","3","2","1","0","1","1","0","0","0","1","1","1","1","0","0","0","1","3","4","3","3","4","1","3","4","4","4","3","682500248714608640","陈","154","","","","","","","","","","","","","","","","","","","","","","","","","","","","","","","","","","","","","","","","","",""
"471","<p style=""color:white; font-size: 35px;"">天才</p>","i","categorize-html","53","211593","0.0-6.0-0.0-4.0-1.9","3","3","4","3","3","4","3","3","4","4","4","4","4","4","3","5","4","2","4","4","4","4","3","3","4","4","3","3","2","1","0","1","1","0","0","0","1","1","1","1","0","0","0","1","3","4","3","3","4","1","3","4","4","4","3","682500248714608640","陈","154","","","","","","","","","","","","","","","","","","","true","2","2","ability","471","positive","天才","","","","","","","","","","","","","","","","",""
"null","","null","html-keyboard-response","54","211845","0.0-6.0-0.0-4.0-0.10","3","3","4","3","3","4","3","3","4","4","4","4","4","4","3","5","4","2","4","4","4","4","3","3","4","4","3","3","2","1","0","1","1","0","0","0","1","1","1","1","0","0","0","1","3","4","3","3","4","1","3","4","4","4","3","682500248714608640","陈","154","","","","","","","","","","","","","","","","","","","","","","","","","","","","","","","","","","","","","","","","","",""
"428","<p style=""color:white; font-size: 35px;"">全才</p>","i","categorize-html","55","212274","0.0-6.0-0.0-4.0-1.10","3","3","4","3","3","4","3","3","4","4","4","4","4","4","3","5","4","2","4","4","4","4","3","3","4","4","3","3","2","1","0","1","1","0","0","0","1","1","1","1","0","0","0","1","3","4","3","3","4","1","3","4","4","4","3","682500248714608640","陈","154","","","","","","","","","","","","","","","","","","","true","2","2","ability","428","positive","全才","","","","","","","","","","","","","","","","",""
"null","","null","html-keyboard-response","56","212525","0.0-6.0-0.0-4.0-0.11","3","3","4","3","3","4","3","3","4","4","4","4","4","4","3","5","4","2","4","4","4","4","3","3","4","4","3","3","2","1","0","1","1","0","0","0","1","1","1","1","0","0","0","1","3","4","3","3","4","1","3","4","4","4","3","682500248714608640","陈","154","","","","","","","","","","","","","","","","","","","","","","","","","","","","","","","","","","","","","","","","","",""
"508","<p style=""color:white; font-size: 35px;"">低能</p>","e","categorize-html","57","213033","0.0-6.0-0.0-4.0-1.11","3","3","4","3","3","4","3","3","4","4","4","4","4","4","3","5","4","2","4","4","4","4","3","3","4","4","3","3","2","1","0","1","1","0","0","0","1","1","1","1","0","0","0","1","3","4","3","3","4","1","3","4","4","4","3","682500248714608640","陈","154","","","","","","","","","","","","","","","","","","","true","2","2","ability","508","negative","低能","","","","","","","","","","","","","","","","",""
"15915","
    <div class=""tag-bottom""><p>
    —— 任务3：对“他人/消极”词和“自我/积极”词分类 ——<p/>
    <span style=""color:#78DCE8""><b>注意上方，之前的四类词语将混合在一起交替呈现</b></span><p/>
    <span style=""color:#FFD866""><b>请根据上方标签的提示，尽可能正确并且快速地做出按键反应</b></span><p/>
    当按键错误时屏幕中会出现<span style=""color:red""> X </span>，需要按另一个键纠正才能继续<br/><p/>
    请把双手食指分别放在键盘的“E”键和“I”键上<p/>
    按<空格键>开始
    </p></div>"," ","html-keyboard-response","58","228950","0.0-6.0-0.0-5.0","3","3","4","3","3","4","3","3","4","4","4","4","4","4","3","5","4","2","4","4","4","4","3","3","4","4","3","3","2","1","0","1","1","0","0","0","1","1","1","1","0","0","0","1","3","4","3","3","4","1","3","4","4","4","3","682500248714608640","陈","154","","","","","","","","","","","","","","","","","","","","","","","","","","","","","","","","","","","","","","","","","",""
"null","","null","html-keyboard-response","59","229201","0.0-6.0-0.0-6.0-0.0","3","3","4","3","3","4","3","3","4","4","4","4","4","4","3","5","4","2","4","4","4","4","3","3","4","4","3","3","2","1","0","1","1","0","0","0","1","1","1","1","0","0","0","1","3","4","3","3","4","1","3","4","4","4","3","682500248714608640","陈","154","","","","","","","","","","","","","","","","","","","","","","","","","","","","","","","","","","","","","","","","","",""
"515","<p style=""color:rgb(150, 250, 100); font-size: 35px;"">他</p>","e","categorize-html","60","229716","0.0-6.0-0.0-6.0-1.0","3","3","4","3","3","4","3","3","4","4","4","4","4","4","3","5","4","2","4","4","4","4","3","3","4","4","3","3","2","1","0","1","1","0","0","0","1","1","1","1","0","0","0","1","3","4","3","3","4","1","3","4","4","4","3","682500248714608640","陈","154","","","","","","","","","","","","","","","","","","","true","3","3","ability","515","other","他","","","","","","","","","","","","","","","","",""
"null","","null","html-keyboard-response","61","229968","0.0-6.0-0.0-6.0-0.1","3","3","4","3","3","4","3","3","4","4","4","4","4","4","3","5","4","2","4","4","4","4","3","3","4","4","3","3","2","1","0","1","1","0","0","0","1","1","1","1","0","0","0","1","3","4","3","3","4","1","3","4","4","4","3","682500248714608640","陈","154","","","","","","","","","","","","","","","","","","","","","","","","","","","","","","","","","","","","","","","","","",""
"659","<p style=""color:white; font-size: 35px;"">蠢笨</p>","e","categorize-html","62","230628","0.0-6.0-0.0-6.0-1.1","3","3","4","3","3","4","3","3","4","4","4","4","4","4","3","5","4","2","4","4","4","4","3","3","4","4","3","3","2","1","0","1","1","0","0","0","1","1","1","1","0","0","0","1","3","4","3","3","4","1","3","4","4","4","3","682500248714608640","陈","154","","","","","","","","","","","","","","","","","","","true","3","3","ability","659","negative","蠢笨","","","","","","","","","","","","","","","","",""
"null","","null","html-keyboard-response","63","230878","0.0-6.0-0.0-6.0-0.2","3","3","4","3","3","4","3","3","4","4","4","4","4","4","3","5","4","2","4","4","4","4","3","3","4","4","3","3","2","1","0","1","1","0","0","0","1","1","1","1","0","0","0","1","3","4","3","3","4","1","3","4","4","4","3","682500248714608640","陈","154","","","","","","","","","","","","","","","","","","","","","","","","","","","","","","","","","","","","","","","","","",""
"573","<p style=""color:rgb(150, 250, 100); font-size: 35px;"">我的</p>","i","categorize-html","64","231452","0.0-6.0-0.0-6.0-1.2","3","3","4","3","3","4","3","3","4","4","4","4","4","4","3","5","4","2","4","4","4","4","3","3","4","4","3","3","2","1","0","1","1","0","0","0","1","1","1","1","0","0","0","1","3","4","3","3","4","1","3","4","4","4","3","682500248714608640","陈","154","","","","","","","","","","","","","","","","","","","true","3","3","ability","573","self","我的","","","","","","","","","","","","","","","","",""
"null","","null","html-keyboard-response","65","231704","0.0-6.0-0.0-6.0-0.3","3","3","4","3","3","4","3","3","4","4","4","4","4","4","3","5","4","2","4","4","4","4","3","3","4","4","3","3","2","1","0","1","1","0","0","0","1","1","1","1","0","0","0","1","3","4","3","3","4","1","3","4","4","4","3","682500248714608640","陈","154","","","","","","","","","","","","","","","","","","","","","","","","","","","","","","","","","","","","","","","","","",""
"562","<p style=""color:white; font-size: 35px;"">能干</p>","i","categorize-html","66","232267","0.0-6.0-0.0-6.0-1.3","3","3","4","3","3","4","3","3","4","4","4","4","4","4","3","5","4","2","4","4","4","4","3","3","4","4","3","3","2","1","0","1","1","0","0","0","1","1","1","1","0","0","0","1","3","4","3","3","4","1","3","4","4","4","3","682500248714608640","陈","154","","","","","","","","","","","","","","","","","","","true","3","3","ability","562","positive","能干","","","","","","","","","","","","","","","","",""
"null","","null","html-keyboard-response","67","232518","0.0-6.0-0.0-6.0-0.4","3","3","4","3","3","4","3","3","4","4","4","4","4","4","3","5","4","2","4","4","4","4","3","3","4","4","3","3","2","1","0","1","1","0","0","0","1","1","1","1","0","0","0","1","3","4","3","3","4","1","3","4","4","4","3","682500248714608640","陈","154","","","","","","","","","","","","","","","","","","","","","","","","","","","","","","","","","","","","","","","","","",""
"540","<p style=""color:rgb(150, 250, 100); font-size: 35px;"">自己</p>","i","categorize-html","68","233058","0.0-6.0-0.0-6.0-1.4","3","3","4","3","3","4","3","3","4","4","4","4","4","4","3","5","4","2","4","4","4","4","3","3","4","4","3","3","2","1","0","1","1","0","0","0","1","1","1","1","0","0","0","1","3","4","3","3","4","1","3","4","4","4","3","682500248714608640","陈","154","","","","","","","","","","","","","","","","","","","true","3","3","ability","540","self","自己","","","","","","","","","","","","","","","","",""
"null","","null","html-keyboard-response","69","233309","0.0-6.0-0.0-6.0-0.5","3","3","4","3","3","4","3","3","4","4","4","4","4","4","3","5","4","2","4","4","4","4","3","3","4","4","3","3","2","1","0","1","1","0","0","0","1","1","1","1","0","0","0","1","3","4","3","3","4","1","3","4","4","4","3","682500248714608640","陈","154","","","","","","","","","","","","","","","","","","","","","","","","","","","","","","","","","","","","","","","","","",""
"628","<p style=""color:white; font-size: 35px;"">愚钝</p>","e","categorize-html","70","233937","0.0-6.0-0.0-6.0-1.5","3","3","4","3","3","4","3","3","4","4","4","4","4","4","3","5","4","2","4","4","4","4","3","3","4","4","3","3","2","1","0","1","1","0","0","0","1","1","1","1","0","0","0","1","3","4","3","3","4","1","3","4","4","4","3","682500248714608640","陈","154","","","","","","","","","","","","","","","","","","","true","3","3","ability","628","negative","愚钝","","","","","","","","","","","","","","","","",""
"null","","null","html-keyboard-response","71","234188","0.0-6.0-0.0-6.0-0.6","3","3","4","3","3","4","3","3","4","4","4","4","4","4","3","5","4","2","4","4","4","4","3","3","4","4","3","3","2","1","0","1","1","0","0","0","1","1","1","1","0","0","0","1","3","4","3","3","4","1","3","4","4","4","3","682500248714608640","陈","154","","","","","","","","","","","","","","","","","","","","","","","","","","","","","","","","","","","","","","","","","",""
"509","<p style=""color:rgb(150, 250, 100); font-size: 35px;"">别人的</p>","e","categorize-html","72","234698","0.0-6.0-0.0-6.0-1.6","3","3","4","3","3","4","3","3","4","4","4","4","4","4","3","5","4","2","4","4","4","4","3","3","4","4","3","3","2","1","0","1","1","0","0","0","1","1","1","1","0","0","0","1","3","4","3","3","4","1","3","4","4","4","3","682500248714608640","陈","154","","","","","","","","","","","","","","","","","","","true","3","3","ability","509","other","别人的","","","","","","","","","","","","","","","","",""
"null","","null","html-keyboard-response","73","234949","0.0-6.0-0.0-6.0-0.7","3","3","4","3","3","4","3","3","4","4","4","4","4","4","3","5","4","2","4","4","4","4","3","3","4","4","3","3","2","1","0","1","1","0","0","0","1","1","1","1","0","0","0","1","3","4","3","3","4","1","3","4","4","4","3","682500248714608640","陈","154","","","","","","","","","","","","","","","","","","","","","","","","","","","","","","","","","","","","","","","","","",""
"638","<p style=""color:white; font-size: 35px;"">高效</p>","i","categorize-html","74","235588","0.0-6.0-0.0-6.0-1.7","3","3","4","3","3","4","3","3","4","4","4","4","4","4","3","5","4","2","4","4","4","4","3","3","4","4","3","3","2","1","0","1","1","0","0","0","1","1","1","1","0","0","0","1","3","4","3","3","4","1","3","4","4","4","3","682500248714608640","陈","154","","","","","","","","","","","","","","","","","","","true","3","3","ability","638","positive","高效","","","","","","","","","","","","","","","","",""
"null","","null","html-keyboard-response","75","235840","0.0-6.0-0.0-6.0-0.8","3","3","4","3","3","4","3","3","4","4","4","4","4","4","3","5","4","2","4","4","4","4","3","3","4","4","3","3","2","1","0","1","1","0","0","0","1","1","1","1","0","0","0","1","3","4","3","3","4","1","3","4","4","4","3","682500248714608640","陈","154","","","","","","","","","","","","","","","","","","","","","","","","","","","","","","","","","","","","","","","","","",""
"480","<p style=""color:rgb(150, 250, 100); font-size: 35px;"">自己的</p>","i","categorize-html","76","236322","0.0-6.0-0.0-6.0-1.8","3","3","4","3","3","4","3","3","4","4","4","4","4","4","3","5","4","2","4","4","4","4","3","3","4","4","3","3","2","1","0","1","1","0","0","0","1","1","1","1","0","0","0","1","3","4","3","3","4","1","3","4","4","4","3","682500248714608640","陈","154","","","","","","","","","","","","","","","","","","","true","3","3","ability","480","self","自己的","","","","","","","","","","","","","","","","",""
"null","","null","html-keyboard-response","77","236573","0.0-6.0-0.0-6.0-0.9","3","3","4","3","3","4","3","3","4","4","4","4","4","4","3","5","4","2","4","4","4","4","3","3","4","4","3","3","2","1","0","1","1","0","0","0","1","1","1","1","0","0","0","1","3","4","3","3","4","1","3","4","4","4","3","682500248714608640","陈","154","","","","","","","","","","","","","","","","","","","","","","","","","","","","","","","","","","","","","","","","","",""
"521","<p style=""color:white; font-size: 35px;"">精干</p>","i","categorize-html","78","237095","0.0-6.0-0.0-6.0-1.9","3","3","4","3","3","4","3","3","4","4","4","4","4","4","3","5","4","2","4","4","4","4","3","3","4","4","3","3","2","1","0","1","1","0","0","0","1","1","1","1","0","0","0","1","3","4","3","3","4","1","3","4","4","4","3","682500248714608640","陈","154","","","","","","","","","","","","","","","","","","","true","3","3","ability","521","positive","精干","","","","","","","","","","","","","","","","",""
"null","","null","html-keyboard-response","79","237346","0.0-6.0-0.0-6.0-0.10","3","3","4","3","3","4","3","3","4","4","4","4","4","4","3","5","4","2","4","4","4","4","3","3","4","4","3","3","2","1","0","1","1","0","0","0","1","1","1","1","0","0","0","1","3","4","3","3","4","1","3","4","4","4","3","682500248714608640","陈","154","","","","","","","","","","","","","","","","","","","","","","","","","","","","","","","","","","","","","","","","","",""
"462","<p style=""color:rgb(150, 250, 100); font-size: 35px;"">别人</p>","e","categorize-html","80","237808","0.0-6.0-0.0-6.0-1.10","3","3","4","3","3","4","3","3","4","4","4","4","4","4","3","5","4","2","4","4","4","4","3","3","4","4","3","3","2","1","0","1","1","0","0","0","1","1","1","1","0","0","0","1","3","4","3","3","4","1","3","4","4","4","3","682500248714608640","陈","154","","","","","","","","","","","","","","","","","","","true","3","3","ability","462","other","别人","","","","","","","","","","","","","","","","",""
"null","","null","html-keyboard-response","81","238059","0.0-6.0-0.0-6.0-0.11","3","3","4","3","3","4","3","3","4","4","4","4","4","4","3","5","4","2","4","4","4","4","3","3","4","4","3","3","2","1","0","1","1","0","0","0","1","1","1","1","0","0","0","1","3","4","3","3","4","1","3","4","4","4","3","682500248714608640","陈","154","","","","","","","","","","","","","","","","","","","","","","","","","","","","","","","","","","","","","","","","","",""
"502","<p style=""color:white; font-size: 35px;"">拙笨</p>","e","categorize-html","82","238562","0.0-6.0-0.0-6.0-1.11","3","3","4","3","3","4","3","3","4","4","4","4","4","4","3","5","4","2","4","4","4","4","3","3","4","4","3","3","2","1","0","1","1","0","0","0","1","1","1","1","0","0","0","1","3","4","3","3","4","1","3","4","4","4","3","682500248714608640","陈","154","","","","","","","","","","","","","","","","","","","true","3","3","ability","502","negative","拙笨","","","","","","","","","","","","","","","","",""
"null","","null","html-keyboard-response","83","238812","0.0-6.0-0.0-6.0-0.12","3","3","4","3","3","4","3","3","4","4","4","4","4","4","3","5","4","2","4","4","4","4","3","3","4","4","3","3","2","1","0","1","1","0","0","0","1","1","1","1","0","0","0","1","3","4","3","3","4","1","3","4","4","4","3","682500248714608640","陈","154","","","","","","","","","","","","","","","","","","","","","","","","","","","","","","","","","","","","","","","","","",""
"435","<p style=""color:rgb(150, 250, 100); font-size: 35px;"">他人的</p>","e","categorize-html","84","239248","0.0-6.0-0.0-6.0-1.12","3","3","4","3","3","4","3","3","4","4","4","4","4","4","3","5","4","2","4","4","4","4","3","3","4","4","3","3","2","1","0","1","1","0","0","0","1","1","1","1","0","0","0","1","3","4","3","3","4","1","3","4","4","4","3","682500248714608640","陈","154","","","","","","","","","","","","","","","","","","","true","3","3","ability","435","other","他人的","","","","","","","","","","","","","","","","",""
"null","","null","html-keyboard-response","85","239499","0.0-6.0-0.0-6.0-0.13","3","3","4","3","3","4","3","3","4","4","4","4","4","4","3","5","4","2","4","4","4","4","3","3","4","4","3","3","2","1","0","1","1","0","0","0","1","1","1","1","0","0","0","1","3","4","3","3","4","1","3","4","4","4","3","682500248714608640","陈","154","","","","","","","","","","","","","","","","","","","","","","","","","","","","","","","","","","","","","","","","","",""
"472","<p style=""color:white; font-size: 35px;"">无能</p>","e","categorize-html","86","239972","0.0-6.0-0.0-6.0-1.13","3","3","4","3","3","4","3","3","4","4","4","4","4","4","3","5","4","2","4","4","4","4","3","3","4","4","3","3","2","1","0","1","1","0","0","0","1","1","1","1","0","0","0","1","3","4","3","3","4","1","3","4","4","4","3","682500248714608640","陈","154","","","","","","","","","","","","","","","","","","","true","3","3","ability","472","negative","无能","","","","","","","","","","","","","","","","",""
"null","","null","html-keyboard-response","87","240223","0.0-6.0-0.0-6.0-0.14","3","3","4","3","3","4","3","3","4","4","4","4","4","4","3","5","4","2","4","4","4","4","3","3","4","4","3","3","2","1","0","1","1","0","0","0","1","1","1","1","0","0","0","1","3","4","3","3","4","1","3","4","4","4","3","682500248714608640","陈","154","","","","","","","","","","","","","","","","","","","","","","","","","","","","","","","","","","","","","","","","","",""
"561","<p style=""color:rgb(150, 250, 100); font-size: 35px;"">本人</p>","i","categorize-html","88","240784","0.0-6.0-0.0-6.0-1.14","3","3","4","3","3","4","3","3","4","4","4","4","4","4","3","5","4","2","4","4","4","4","3","3","4","4","3","3","2","1","0","1","1","0","0","0","1","1","1","1","0","0","0","1","3","4","3","3","4","1","3","4","4","4","3","682500248714608640","陈","154","","","","","","","","","","","","","","","","","","","true","3","3","ability","561","self","本人","","","","","","","","","","","","","","","","",""
"null","","null","html-keyboard-response","89","241036","0.0-6.0-0.0-6.0-0.15","3","3","4","3","3","4","3","3","4","4","4","4","4","4","3","5","4","2","4","4","4","4","3","3","4","4","3","3","2","1","0","1","1","0","0","0","1","1","1","1","0","0","0","1","3","4","3","3","4","1","3","4","4","4","3","682500248714608640","陈","154","","","","","","","","","","","","","","","","","","","","","","","","","","","","","","","","","","","","","","","","","",""
"465","<p style=""color:white; font-size: 35px;"">全才</p>","i","categorize-html","90","241501","0.0-6.0-0.0-6.0-1.15","3","3","4","3","3","4","3","3","4","4","4","4","4","4","3","5","4","2","4","4","4","4","3","3","4","4","3","3","2","1","0","1","1","0","0","0","1","1","1","1","0","0","0","1","3","4","3","3","4","1","3","4","4","4","3","682500248714608640","陈","154","","","","","","","","","","","","","","","","","","","true","3","3","ability","465","positive","全才","","","","","","","","","","","","","","","","",""
"null","","null","html-keyboard-response","91","241752","0.0-6.0-0.0-6.0-0.16","3","3","4","3","3","4","3","3","4","4","4","4","4","4","3","5","4","2","4","4","4","4","3","3","4","4","3","3","2","1","0","1","1","0","0","0","1","1","1","1","0","0","0","1","3","4","3","3","4","1","3","4","4","4","3","682500248714608640","陈","154","","","","","","","","","","","","","","","","","","","","","","","","","","","","","","","","","","","","","","","","","",""
"474","<p style=""color:rgb(150, 250, 100); font-size: 35px;"">他的</p>","e","categorize-html","92","242227","0.0-6.0-0.0-6.0-1.16","3","3","4","3","3","4","3","3","4","4","4","4","4","4","3","5","4","2","4","4","4","4","3","3","4","4","3","3","2","1","0","1","1","0","0","0","1","1","1","1","0","0","0","1","3","4","3","3","4","1","3","4","4","4","3","682500248714608640","陈","154","","","","","","","","","","","","","","","","","","","true","3","3","ability","474","other","他的","","","","","","","","","","","","","","","","",""
"null","","null","html-keyboard-response","93","242479","0.0-6.0-0.0-6.0-0.17","3","3","4","3","3","4","3","3","4","4","4","4","4","4","3","5","4","2","4","4","4","4","3","3","4","4","3","3","2","1","0","1","1","0","0","0","1","1","1","1","0","0","0","1","3","4","3","3","4","1","3","4","4","4","3","682500248714608640","陈","154","","","","","","","","","","","","","","","","","","","","","","","","","","","","","","","","","","","","","","","","","",""
"565","<p style=""color:white; font-size: 35px;"">废物</p>","e","categorize-html","94","243044","0.0-6.0-0.0-6.0-1.17","3","3","4","3","3","4","3","3","4","4","4","4","4","4","3","5","4","2","4","4","4","4","3","3","4","4","3","3","2","1","0","1","1","0","0","0","1","1","1","1","0","0","0","1","3","4","3","3","4","1","3","4","4","4","3","682500248714608640","陈","154","","","","","","","","","","","","","","","","","","","true","3","3","ability","565","negative","废物","","","","","","","","","","","","","","","","",""
"null","","null","html-keyboard-response","95","243295","0.0-6.0-0.0-6.0-0.18","3","3","4","3","3","4","3","3","4","4","4","4","4","4","3","5","4","2","4","4","4","4","3","3","4","4","3","3","2","1","0","1","1","0","0","0","1","1","1","1","0","0","0","1","3","4","3","3","4","1","3","4","4","4","3","682500248714608640","陈","154","","","","","","","","","","","","","","","","","","","","","","","","","","","","","","","","","","","","","","","","","",""
"483","<p style=""color:rgb(150, 250, 100); font-size: 35px;"">我</p>","i","categorize-html","96","243779","0.0-6.0-0.0-6.0-1.18","3","3","4","3","3","4","3","3","4","4","4","4","4","4","3","5","4","2","4","4","4","4","3","3","4","4","3","3","2","1","0","1","1","0","0","0","1","1","1","1","0","0","0","1","3","4","3","3","4","1","3","4","4","4","3","682500248714608640","陈","154","","","","","","","","","","","","","","","","","","","true","3","3","ability","483","self","我","","","","","","","","","","","","","","","","",""
"null","","null","html-keyboard-response","97","244030","0.0-6.0-0.0-6.0-0.19","3","3","4","3","3","4","3","3","4","4","4","4","4","4","3","5","4","2","4","4","4","4","3","3","4","4","3","3","2","1","0","1","1","0","0","0","1","1","1","1","0","0","0","1","3","4","3","3","4","1","3","4","4","4","3","682500248714608640","陈","154","","","","","","","","","","","","","","","","","","","","","","","","","","","","","","","","","","","","","","","","","",""
"442","<p style=""color:white; font-size: 35px;"">天才</p>","i","categorize-html","98","244472","0.0-6.0-0.0-6.0-1.19","3","3","4","3","3","4","3","3","4","4","4","4","4","4","3","5","4","2","4","4","4","4","3","3","4","4","3","3","2","1","0","1","1","0","0","0","1","1","1","1","0","0","0","1","3","4","3","3","4","1","3","4","4","4","3","682500248714608640","陈","154","","","","","","","","","","","","","","","","","","","true","3","3","ability","442","positive","天才","","","","","","","","","","","","","","","","",""
"null","","null","html-keyboard-response","99","244724","0.0-6.0-0.0-6.0-0.20","3","3","4","3","3","4","3","3","4","4","4","4","4","4","3","5","4","2","4","4","4","4","3","3","4","4","3","3","2","1","0","1","1","0","0","0","1","1","1","1","0","0","0","1","3","4","3","3","4","1","3","4","4","4","3","682500248714608640","陈","154","","","","","","","","","","","","","","","","","","","","","","","","","","","","","","","","","","","","","","","","","",""
"440","<p style=""color:rgb(150, 250, 100); font-size: 35px;"">他人</p>","e","categorize-html","100","245164","0.0-6.0-0.0-6.0-1.20","3","3","4","3","3","4","3","3","4","4","4","4","4","4","3","5","4","2","4","4","4","4","3","3","4","4","3","3","2","1","0","1","1","0","0","0","1","1","1","1","0","0","0","1","3","4","3","3","4","1","3","4","4","4","3","682500248714608640","陈","154","","","","","","","","","","","","","","","","","","","true","3","3","ability","440","other","他人","","","","","","","","","","","","","","","","",""
"null","","null","html-keyboard-response","101","245416","0.0-6.0-0.0-6.0-0.21","3","3","4","3","3","4","3","3","4","4","4","4","4","4","3","5","4","2","4","4","4","4","3","3","4","4","3","3","2","1","0","1","1","0","0","0","1","1","1","1","0","0","0","1","3","4","3","3","4","1","3","4","4","4","3","682500248714608640","陈","154","","","","","","","","","","","","","","","","","","","","","","","","","","","","","","","","","","","","","","","","","",""
"630","<p style=""color:white; font-size: 35px;"">低能</p>","e","categorize-html","102","246046","0.0-6.0-0.0-6.0-1.21","3","3","4","3","3","4","3","3","4","4","4","4","4","4","3","5","4","2","4","4","4","4","3","3","4","4","3","3","2","1","0","1","1","0","0","0","1","1","1","1","0","0","0","1","3","4","3","3","4","1","3","4","4","4","3","682500248714608640","陈","154","","","","","","","","","","","","","","","","","","","true","3","3","ability","630","negative","低能","","","","","","","","","","","","","","","","",""
"null","","null","html-keyboard-response","103","246297","0.0-6.0-0.0-6.0-0.22","3","3","4","3","3","4","3","3","4","4","4","4","4","4","3","5","4","2","4","4","4","4","3","3","4","4","3","3","2","1","0","1","1","0","0","0","1","1","1","1","0","0","0","1","3","4","3","3","4","1","3","4","4","4","3","682500248714608640","陈","154","","","","","","","","","","","","","","","","","","","","","","","","","","","","","","","","","","","","","","","","","",""
"450","<p style=""color:rgb(150, 250, 100); font-size: 35px;"">本人的</p>","i","categorize-html","104","246747","0.0-6.0-0.0-6.0-1.22","3","3","4","3","3","4","3","3","4","4","4","4","4","4","3","5","4","2","4","4","4","4","3","3","4","4","3","3","2","1","0","1","1","0","0","0","1","1","1","1","0","0","0","1","3","4","3","3","4","1","3","4","4","4","3","682500248714608640","陈","154","","","","","","","","","","","","","","","","","","","true","3","3","ability","450","self","本人的","","","","","","","","","","","","","","","","",""
"null","","null","html-keyboard-response","105","246999","0.0-6.0-0.0-6.0-0.23","3","3","4","3","3","4","3","3","4","4","4","4","4","4","3","5","4","2","4","4","4","4","3","3","4","4","3","3","2","1","0","1","1","0","0","0","1","1","1","1","0","0","0","1","3","4","3","3","4","1","3","4","4","4","3","682500248714608640","陈","154","","","","","","","","","","","","","","","","","","","","","","","","","","","","","","","","","","","","","","","","","",""
"507","<p style=""color:white; font-size: 35px;"">全能</p>","i","categorize-html","106","247506","0.0-6.0-0.0-6.0-1.23","3","3","4","3","3","4","3","3","4","4","4","4","4","4","3","5","4","2","4","4","4","4","3","3","4","4","3","3","2","1","0","1","1","0","0","0","1","1","1","1","0","0","0","1","3","4","3","3","4","1","3","4","4","4","3","682500248714608640","陈","154","","","","","","","","","","","","","","","","","","","true","3","3","ability","507","positive","全能","","","","","","","","","","","","","","","","",""
"2631","
    <div class=""tag-bottom""><p>
    —— 任务4：对“他人/消极”词和“自我/积极”词分类 ——<p/>
    <span style=""color:#78DCE8""><b>与刚才的任务完全相同，请再次对这四类词语分类</b></span><p/>
    <span style=""color:#FFD866""><b>请根据上方标签的提示，尽可能正确并且快速地做出按键反应</b></span><p/>
    当按键错误时屏幕中会出现<span style=""color:red""> X </span>，需要按另一个键纠正才能继续<br/><p/>
    请把双手食指分别放在键盘的“E”键和“I”键上<p/>
    按<空格键>开始
    </p></div>"," ","html-keyboard-response","107","250138","0.0-6.0-0.0-7.0","3","3","4","3","3","4","3","3","4","4","4","4","4","4","3","5","4","2","4","4","4","4","3","3","4","4","3","3","2","1","0","1","1","0","0","0","1","1","1","1","0","0","0","1","3","4","3","3","4","1","3","4","4","4","3","682500248714608640","陈","154","","","","","","","","","","","","","","","","","","","","","","","","","","","","","","","","","","","","","","","","","",""
"null","","null","html-keyboard-response","108","250389","0.0-6.0-0.0-8.0-0.0","3","3","4","3","3","4","3","3","4","4","4","4","4","4","3","5","4","2","4","4","4","4","3","3","4","4","3","3","2","1","0","1","1","0","0","0","1","1","1","1","0","0","0","1","3","4","3","3","4","1","3","4","4","4","3","682500248714608640","陈","154","","","","","","","","","","","","","","","","","","","","","","","","","","","","","","","","","","","","","","","","","",""
"522","<p style=""color:rgb(150, 250, 100); font-size: 35px;"">他人</p>","e","categorize-html","109","250912","0.0-6.0-0.0-8.0-1.0","3","3","4","3","3","4","3","3","4","4","4","4","4","4","3","5","4","2","4","4","4","4","3","3","4","4","3","3","2","1","0","1","1","0","0","0","1","1","1","1","0","0","0","1","3","4","3","3","4","1","3","4","4","4","3","682500248714608640","陈","154","","","","","","","","","","","","","","","","","","","true","4","4","ability","522","other","他人","","","","","","","","","","","","","","","","",""
"null","","null","html-keyboard-response","110","251164","0.0-6.0-0.0-8.0-0.1","3","3","4","3","3","4","3","3","4","4","4","4","4","4","3","5","4","2","4","4","4","4","3","3","4","4","3","3","2","1","0","1","1","0","0","0","1","1","1","1","0","0","0","1","3","4","3","3","4","1","3","4","4","4","3","682500248714608640","陈","154","","","","","","","","","","","","","","","","","","","","","","","","","","","","","","","","","","","","","","","","","",""
"480","<p style=""color:white; font-size: 35px;"">低能</p>","e","categorize-html","111","251644","0.0-6.0-0.0-8.0-1.1","3","3","4","3","3","4","3","3","4","4","4","4","4","4","3","5","4","2","4","4","4","4","3","3","4","4","3","3","2","1","0","1","1","0","0","0","1","1","1","1","0","0","0","1","3","4","3","3","4","1","3","4","4","4","3","682500248714608640","陈","154","","","","","","","","","","","","","","","","","","","true","4","4","ability","480","negative","低能","","","","","","","","","","","","","","","","",""
"null","","null","html-keyboard-response","112","251896","0.0-6.0-0.0-8.0-0.2","3","3","4","3","3","4","3","3","4","4","4","4","4","4","3","5","4","2","4","4","4","4","3","3","4","4","3","3","2","1","0","1","1","0","0","0","1","1","1","1","0","0","0","1","3","4","3","3","4","1","3","4","4","4","3","682500248714608640","陈","154","","","","","","","","","","","","","","","","","","","","","","","","","","","","","","","","","","","","","","","","","",""
"605","<p style=""color:rgb(150, 250, 100); font-size: 35px;"">自己的</p>","i","categorize-html","113","252502","0.0-6.0-0.0-8.0-1.2","3","3","4","3","3","4","3","3","4","4","4","4","4","4","3","5","4","2","4","4","4","4","3","3","4","4","3","3","2","1","0","1","1","0","0","0","1","1","1","1","0","0","0","1","3","4","3","3","4","1","3","4","4","4","3","682500248714608640","陈","154","","","","","","","","","","","","","","","","","","","true","4","4","ability","605","self","自己的","","","","","","","","","","","","","","","","",""
"null","","null","html-keyboard-response","114","252752","0.0-6.0-0.0-8.0-0.3","3","3","4","3","3","4","3","3","4","4","4","4","4","4","3","5","4","2","4","4","4","4","3","3","4","4","3","3","2","1","0","1","1","0","0","0","1","1","1","1","0","0","0","1","3","4","3","3","4","1","3","4","4","4","3","682500248714608640","陈","154","","","","","","","","","","","","","","","","","","","","","","","","","","","","","","","","","","","","","","","","","",""
"560","<p style=""color:white; font-size: 35px;"">全能</p>","i","categorize-html","115","253313","0.0-6.0-0.0-8.0-1.3","3","3","4","3","3","4","3","3","4","4","4","4","4","4","3","5","4","2","4","4","4","4","3","3","4","4","3","3","2","1","0","1","1","0","0","0","1","1","1","1","0","0","0","1","3","4","3","3","4","1","3","4","4","4","3","682500248714608640","陈","154","","","","","","","","","","","","","","","","","","","true","4","4","ability","560","positive","全能","","","","","","","","","","","","","","","","",""
"null","","null","html-keyboard-response","116","253564","0.0-6.0-0.0-8.0-0.4","3","3","4","3","3","4","3","3","4","4","4","4","4","4","3","5","4","2","4","4","4","4","3","3","4","4","3","3","2","1","0","1","1","0","0","0","1","1","1","1","0","0","0","1","3","4","3","3","4","1","3","4","4","4","3","682500248714608640","陈","154","","","","","","","","","","","","","","","","","","","","","","","","","","","","","","","","","","","","","","","","","",""
"493","<p style=""color:rgb(150, 250, 100); font-size: 35px;"">别人</p>","e","categorize-html","117","254058","0.0-6.0-0.0-8.0-1.4","3","3","4","3","3","4","3","3","4","4","4","4","4","4","3","5","4","2","4","4","4","4","3","3","4","4","3","3","2","1","0","1","1","0","0","0","1","1","1","1","0","0","0","1","3","4","3","3","4","1","3","4","4","4","3","682500248714608640","陈","154","","","","","","","","","","","","","","","","","","","true","4","4","ability","493","other","别人","","","","","","","","","","","","","","","","",""
"null","","null","html-keyboard-response","118","254309","0.0-6.0-0.0-8.0-0.5","3","3","4","3","3","4","3","3","4","4","4","4","4","4","3","5","4","2","4","4","4","4","3","3","4","4","3","3","2","1","0","1","1","0","0","0","1","1","1","1","0","0","0","1","3","4","3","3","4","1","3","4","4","4","3","682500248714608640","陈","154","","","","","","","","","","","","","","","","","","","","","","","","","","","","","","","","","","","","","","","","","",""
"477","<p style=""color:white; font-size: 35px;"">天才</p>","i","categorize-html","119","254787","0.0-6.0-0.0-8.0-1.5","3","3","4","3","3","4","3","3","4","4","4","4","4","4","3","5","4","2","4","4","4","4","3","3","4","4","3","3","2","1","0","1","1","0","0","0","1","1","1","1","0","0","0","1","3","4","3","3","4","1","3","4","4","4","3","682500248714608640","陈","154","","","","","","","","","","","","","","","","","","","true","4","4","ability","477","positive","天才","","","","","","","","","","","","","","","","",""
"null","","null","html-keyboard-response","120","255037","0.0-6.0-0.0-8.0-0.6","3","3","4","3","3","4","3","3","4","4","4","4","4","4","3","5","4","2","4","4","4","4","3","3","4","4","3","3","2","1","0","1","1","0","0","0","1","1","1","1","0","0","0","1","3","4","3","3","4","1","3","4","4","4","3","682500248714608640","陈","154","","","","","","","","","","","","","","","","","","","","","","","","","","","","","","","","","","","","","","","","","",""
"545","<p style=""color:rgb(150, 250, 100); font-size: 35px;"">本人</p>","i","categorize-html","121","255583","0.0-6.0-0.0-8.0-1.6","3","3","4","3","3","4","3","3","4","4","4","4","4","4","3","5","4","2","4","4","4","4","3","3","4","4","3","3","2","1","0","1","1","0","0","0","1","1","1","1","0","0","0","1","3","4","3","3","4","1","3","4","4","4","3","682500248714608640","陈","154","","","","","","","","","","","","","","","","","","","true","4","4","ability","545","self","本人","","","","","","","","","","","","","","","","",""
"null","","null","html-keyboard-response","122","255841","0.0-6.0-0.0-8.0-0.7","3","3","4","3","3","4","3","3","4","4","4","4","4","4","3","5","4","2","4","4","4","4","3","3","4","4","3","3","2","1","0","1","1","0","0","0","1","1","1","1","0","0","0","1","3","4","3","3","4","1","3","4","4","4","3","682500248714608640","陈","154","","","","","","","","","","","","","","","","","","","","","","","","","","","","","","","","","","","","","","","","","",""
"473","<p style=""color:white; font-size: 35px;"">低能</p>","e","categorize-html","123","256314","0.0-6.0-0.0-8.0-1.7","3","3","4","3","3","4","3","3","4","4","4","4","4","4","3","5","4","2","4","4","4","4","3","3","4","4","3","3","2","1","0","1","1","0","0","0","1","1","1","1","0","0","0","1","3","4","3","3","4","1","3","4","4","4","3","682500248714608640","陈","154","","","","","","","","","","","","","","","","","","","true","4","4","ability","473","negative","低能","","","","","","","","","","","","","","","","",""
"null","","null","html-keyboard-response","124","256565","0.0-6.0-0.0-8.0-0.8","3","3","4","3","3","4","3","3","4","4","4","4","4","4","3","5","4","2","4","4","4","4","3","3","4","4","3","3","2","1","0","1","1","0","0","0","1","1","1","1","0","0","0","1","3","4","3","3","4","1","3","4","4","4","3","682500248714608640","陈","154","","","","","","","","","","","","","","","","","","","","","","","","","","","","","","","","","","","","","","","","","",""
"446","<p style=""color:rgb(150, 250, 100); font-size: 35px;"">自己</p>","i","categorize-html","125","257012","0.0-6.0-0.0-8.0-1.8","3","3","4","3","3","4","3","3","4","4","4","4","4","4","3","5","4","2","4","4","4","4","3","3","4","4","3","3","2","1","0","1","1","0","0","0","1","1","1","1","0","0","0","1","3","4","3","3","4","1","3","4","4","4","3","682500248714608640","陈","154","","","","","","","","","","","","","","","","","","","true","4","4","ability","446","self","自己","","","","","","","","","","","","","","","","",""
"null","","null","html-keyboard-response","126","257263","0.0-6.0-0.0-8.0-0.9","3","3","4","3","3","4","3","3","4","4","4","4","4","4","3","5","4","2","4","4","4","4","3","3","4","4","3","3","2","1","0","1","1","0","0","0","1","1","1","1","0","0","0","1","3","4","3","3","4","1","3","4","4","4","3","682500248714608640","陈","154","","","","","","","","","","","","","","","","","","","","","","","","","","","","","","","","","","","","","","","","","",""
"527","<p style=""color:white; font-size: 35px;"">精干</p>","i","categorize-html","127","257791","0.0-6.0-0.0-8.0-1.9","3","3","4","3","3","4","3","3","4","4","4","4","4","4","3","5","4","2","4","4","4","4","3","3","4","4","3","3","2","1","0","1","1","0","0","0","1","1","1","1","0","0","0","1","3","4","3","3","4","1","3","4","4","4","3","682500248714608640","陈","154","","","","","","","","","","","","","","","","","","","true","4","4","ability","527","positive","精干","","","","","","","","","","","","","","","","",""
"null","","null","html-keyboard-response","128","258043","0.0-6.0-0.0-8.0-0.10","3","3","4","3","3","4","3","3","4","4","4","4","4","4","3","5","4","2","4","4","4","4","3","3","4","4","3","3","2","1","0","1","1","0","0","0","1","1","1","1","0","0","0","1","3","4","3","3","4","1","3","4","4","4","3","682500248714608640","陈","154","","","","","","","","","","","","","","","","","","","","","","","","","","","","","","","","","","","","","","","","","",""
"484","<p style=""color:rgb(150, 250, 100); font-size: 35px;"">他</p>","e","categorize-html","129","258528","0.0-6.0-0.0-8.0-1.10","3","3","4","3","3","4","3","3","4","4","4","4","4","4","3","5","4","2","4","4","4","4","3","3","4","4","3","3","2","1","0","1","1","0","0","0","1","1","1","1","0","0","0","1","3","4","3","3","4","1","3","4","4","4","3","682500248714608640","陈","154","","","","","","","","","","","","","","","","","","","true","4","4","ability","484","other","他","","","","","","","","","","","","","","","","",""
"null","","null","html-keyboard-response","130","258778","0.0-6.0-0.0-8.0-0.11","3","3","4","3","3","4","3","3","4","4","4","4","4","4","3","5","4","2","4","4","4","4","3","3","4","4","3","3","2","1","0","1","1","0","0","0","1","1","1","1","0","0","0","1","3","4","3","3","4","1","3","4","4","4","3","682500248714608640","陈","154","","","","","","","","","","","","","","","","","","","","","","","","","","","","","","","","","","","","","","","","","",""
"545","<p style=""color:white; font-size: 35px;"">拙笨</p>","e","categorize-html","131","259323","0.0-6.0-0.0-8.0-1.11","3","3","4","3","3","4","3","3","4","4","4","4","4","4","3","5","4","2","4","4","4","4","3","3","4","4","3","3","2","1","0","1","1","0","0","0","1","1","1","1","0","0","0","1","3","4","3","3","4","1","3","4","4","4","3","682500248714608640","陈","154","","","","","","","","","","","","","","","","","","","true","4","4","ability","545","negative","拙笨","","","","","","","","","","","","","","","","",""
"null","","null","html-keyboard-response","132","259574","0.0-6.0-0.0-8.0-0.12","3","3","4","3","3","4","3","3","4","4","4","4","4","4","3","5","4","2","4","4","4","4","3","3","4","4","3","3","2","1","0","1","1","0","0","0","1","1","1","1","0","0","0","1","3","4","3","3","4","1","3","4","4","4","3","682500248714608640","陈","154","","","","","","","","","","","","","","","","","","","","","","","","","","","","","","","","","","","","","","","","","",""
"526","<p style=""color:rgb(150, 250, 100); font-size: 35px;"">他人</p>","e","categorize-html","133","260101","0.0-6.0-0.0-8.0-1.12","3","3","4","3","3","4","3","3","4","4","4","4","4","4","3","5","4","2","4","4","4","4","3","3","4","4","3","3","2","1","0","1","1","0","0","0","1","1","1","1","0","0","0","1","3","4","3","3","4","1","3","4","4","4","3","682500248714608640","陈","154","","","","","","","","","","","","","","","","","","","true","4","4","ability","526","other","他人","","","","","","","","","","","","","","","","",""
"null","","null","html-keyboard-response","134","260352","0.0-6.0-0.0-8.0-0.13","3","3","4","3","3","4","3","3","4","4","4","4","4","4","3","5","4","2","4","4","4","4","3","3","4","4","3","3","2","1","0","1","1","0","0","0","1","1","1","1","0","0","0","1","3","4","3","3","4","1","3","4","4","4","3","682500248714608640","陈","154","","","","","","","","","","","","","","","","","","","","","","","","","","","","","","","","","","","","","","","","","",""
"524","<p style=""color:white; font-size: 35px;"">全才</p>","i","categorize-html","135","260876","0.0-6.0-0.0-8.0-1.13","3","3","4","3","3","4","3","3","4","4","4","4","4","4","3","5","4","2","4","4","4","4","3","3","4","4","3","3","2","1","0","1","1","0","0","0","1","1","1","1","0","0","0","1","3","4","3","3","4","1","3","4","4","4","3","682500248714608640","陈","154","","","","","","","","","","","","","","","","","","","true","4","4","ability","524","positive","全才","","","","","","","","","","","","","","","","",""
"null","","null","html-keyboard-response","136","261137","0.0-6.0-0.0-8.0-0.14","3","3","4","3","3","4","3","3","4","4","4","4","4","4","3","5","4","2","4","4","4","4","3","3","4","4","3","3","2","1","0","1","1","0","0","0","1","1","1","1","0","0","0","1","3","4","3","3","4","1","3","4","4","4","3","682500248714608640","陈","154","","","","","","","","","","","","","","","","","","","","","","","","","","","","","","","","","","","","","","","","","",""
"445","<p style=""color:rgb(150, 250, 100); font-size: 35px;"">我</p>","i","categorize-html","137","261582","0.0-6.0-0.0-8.0-1.14","3","3","4","3","3","4","3","3","4","4","4","4","4","4","3","5","4","2","4","4","4","4","3","3","4","4","3","3","2","1","0","1","1","0","0","0","1","1","1","1","0","0","0","1","3","4","3","3","4","1","3","4","4","4","3","682500248714608640","陈","154","","","","","","","","","","","","","","","","","","","true","4","4","ability","445","self","我","","","","","","","","","","","","","","","","",""
"null","","null","html-keyboard-response","138","261833","0.0-6.0-0.0-8.0-0.15","3","3","4","3","3","4","3","3","4","4","4","4","4","4","3","5","4","2","4","4","4","4","3","3","4","4","3","3","2","1","0","1","1","0","0","0","1","1","1","1","0","0","0","1","3","4","3","3","4","1","3","4","4","4","3","682500248714608640","陈","154","","","","","","","","","","","","","","","","","","","","","","","","","","","","","","","","","","","","","","","","","",""
"537","<p style=""color:white; font-size: 35px;"">无能</p>","e","categorize-html","139","262371","0.0-6.0-0.0-8.0-1.15","3","3","4","3","3","4","3","3","4","4","4","4","4","4","3","5","4","2","4","4","4","4","3","3","4","4","3","3","2","1","0","1","1","0","0","0","1","1","1","1","0","0","0","1","3","4","3","3","4","1","3","4","4","4","3","682500248714608640","陈","154","","","","","","","","","","","","","","","","","","","true","4","4","ability","537","negative","无能","","","","","","","","","","","","","","","","",""
"null","","null","html-keyboard-response","140","262622","0.0-6.0-0.0-8.0-0.16","3","3","4","3","3","4","3","3","4","4","4","4","4","4","3","5","4","2","4","4","4","4","3","3","4","4","3","3","2","1","0","1","1","0","0","0","1","1","1","1","0","0","0","1","3","4","3","3","4","1","3","4","4","4","3","682500248714608640","陈","154","","","","","","","","","","","","","","","","","","","","","","","","","","","","","","","","","","","","","","","","","",""
"430","<p style=""color:rgb(150, 250, 100); font-size: 35px;"">别人的</p>","e","categorize-html","141","263053","0.0-6.0-0.0-8.0-1.16","3","3","4","3","3","4","3","3","4","4","4","4","4","4","3","5","4","2","4","4","4","4","3","3","4","4","3","3","2","1","0","1","1","0","0","0","1","1","1","1","0","0","0","1","3","4","3","3","4","1","3","4","4","4","3","682500248714608640","陈","154","","","","","","","","","","","","","","","","","","","true","4","4","ability","430","other","别人的","","","","","","","","","","","","","","","","",""
"null","","null","html-keyboard-response","142","263304","0.0-6.0-0.0-8.0-0.17","3","3","4","3","3","4","3","3","4","4","4","4","4","4","3","5","4","2","4","4","4","4","3","3","4","4","3","3","2","1","0","1","1","0","0","0","1","1","1","1","0","0","0","1","3","4","3","3","4","1","3","4","4","4","3","682500248714608640","陈","154","","","","","","","","","","","","","","","","","","","","","","","","","","","","","","","","","","","","","","","","","",""
"576","<p style=""color:white; font-size: 35px;"">能干</p>","i","categorize-html","143","263880","0.0-6.0-0.0-8.0-1.17","3","3","4","3","3","4","3","3","4","4","4","4","4","4","3","5","4","2","4","4","4","4","3","3","4","4","3","3","2","1","0","1","1","0","0","0","1","1","1","1","0","0","0","1","3","4","3","3","4","1","3","4","4","4","3","682500248714608640","陈","154","","","","","","","","","","","","","","","","","","","true","4","4","ability","576","positive","能干","","","","","","","","","","","","","","","","",""
"null","","null","html-keyboard-response","144","264132","0.0-6.0-0.0-8.0-0.18","3","3","4","3","3","4","3","3","4","4","4","4","4","4","3","5","4","2","4","4","4","4","3","3","4","4","3","3","2","1","0","1","1","0","0","0","1","1","1","1","0","0","0","1","3","4","3","3","4","1","3","4","4","4","3","682500248714608640","陈","154","","","","","","","","","","","","","","","","","","","","","","","","","","","","","","","","","","","","","","","","","",""
"506","<p style=""color:rgb(150, 250, 100); font-size: 35px;"">我的</p>","i","categorize-html","145","264639","0.0-6.0-0.0-8.0-1.18","3","3","4","3","3","4","3","3","4","4","4","4","4","4","3","5","4","2","4","4","4","4","3","3","4","4","3","3","2","1","0","1","1","0","0","0","1","1","1","1","0","0","0","1","3","4","3","3","4","1","3","4","4","4","3","682500248714608640","陈","154","","","","","","","","","","","","","","","","","","","true","4","4","ability","506","self","我的","","","","","","","","","","","","","","","","",""
"null","","null","html-keyboard-response","146","264889","0.0-6.0-0.0-8.0-0.19","3","3","4","3","3","4","3","3","4","4","4","4","4","4","3","5","4","2","4","4","4","4","3","3","4","4","3","3","2","1","0","1","1","0","0","0","1","1","1","1","0","0","0","1","3","4","3","3","4","1","3","4","4","4","3","682500248714608640","陈","154","","","","","","","","","","","","","","","","","","","","","","","","","","","","","","","","","","","","","","","","","",""
"459","<p style=""color:white; font-size: 35px;"">无能</p>","e","categorize-html","147","265349","0.0-6.0-0.0-8.0-1.19","3","3","4","3","3","4","3","3","4","4","4","4","4","4","3","5","4","2","4","4","4","4","3","3","4","4","3","3","2","1","0","1","1","0","0","0","1","1","1","1","0","0","0","1","3","4","3","3","4","1","3","4","4","4","3","682500248714608640","陈","154","","","","","","","","","","","","","","","","","","","true","4","4","ability","459","negative","无能","","","","","","","","","","","","","","","","",""
"null","","null","html-keyboard-response","148","265600","0.0-6.0-0.0-8.0-0.20","3","3","4","3","3","4","3","3","4","4","4","4","4","4","3","5","4","2","4","4","4","4","3","3","4","4","3","3","2","1","0","1","1","0","0","0","1","1","1","1","0","0","0","1","3","4","3","3","4","1","3","4","4","4","3","682500248714608640","陈","154","","","","","","","","","","","","","","","","","","","","","","","","","","","","","","","","","","","","","","","","","",""
"423","<p style=""color:rgb(150, 250, 100); font-size: 35px;"">他的</p>","e","categorize-html","149","266023","0.0-6.0-0.0-8.0-1.20","3","3","4","3","3","4","3","3","4","4","4","4","4","4","3","5","4","2","4","4","4","4","3","3","4","4","3","3","2","1","0","1","1","0","0","0","1","1","1","1","0","0","0","1","3","4","3","3","4","1","3","4","4","4","3","682500248714608640","陈","154","","","","","","","","","","","","","","","","","","","true","4","4","ability","423","other","他的","","","","","","","","","","","","","","","","",""
"null","","null","html-keyboard-response","150","266274","0.0-6.0-0.0-8.0-0.21","3","3","4","3","3","4","3","3","4","4","4","4","4","4","3","5","4","2","4","4","4","4","3","3","4","4","3","3","2","1","0","1","1","0","0","0","1","1","1","1","0","0","0","1","3","4","3","3","4","1","3","4","4","4","3","682500248714608640","陈","154","","","","","","","","","","","","","","","","","","","","","","","","","","","","","","","","","","","","","","","","","",""
"592","<p style=""color:white; font-size: 35px;"">高效</p>","i","categorize-html","151","266866","0.0-6.0-0.0-8.0-1.21","3","3","4","3","3","4","3","3","4","4","4","4","4","4","3","5","4","2","4","4","4","4","3","3","4","4","3","3","2","1","0","1","1","0","0","0","1","1","1","1","0","0","0","1","3","4","3","3","4","1","3","4","4","4","3","682500248714608640","陈","154","","","","","","","","","","","","","","","","","","","true","4","4","ability","592","positive","高效","","","","","","","","","","","","","","","","",""
"null","","null","html-keyboard-response","152","267118","0.0-6.0-0.0-8.0-0.22","3","3","4","3","3","4","3","3","4","4","4","4","4","4","3","5","4","2","4","4","4","4","3","3","4","4","3","3","2","1","0","1","1","0","0","0","1","1","1","1","0","0","0","1","3","4","3","3","4","1","3","4","4","4","3","682500248714608640","陈","154","","","","","","","","","","","","","","","","","","","","","","","","","","","","","","","","","","","","","","","","","",""
"472","<p style=""color:rgb(150, 250, 100); font-size: 35px;"">自己的</p>","i","categorize-html","153","267590","0.0-6.0-0.0-8.0-1.22","3","3","4","3","3","4","3","3","4","4","4","4","4","4","3","5","4","2","4","4","4","4","3","3","4","4","3","3","2","1","0","1","1","0","0","0","1","1","1","1","0","0","0","1","3","4","3","3","4","1","3","4","4","4","3","682500248714608640","陈","154","","","","","","","","","","","","","","","","","","","true","4","4","ability","472","self","自己的","","","","","","","","","","","","","","","","",""
"null","","null","html-keyboard-response","154","267841","0.0-6.0-0.0-8.0-0.23","3","3","4","3","3","4","3","3","4","4","4","4","4","4","3","5","4","2","4","4","4","4","3","3","4","4","3","3","2","1","0","1","1","0","0","0","1","1","1","1","0","0","0","1","3","4","3","3","4","1","3","4","4","4","3","682500248714608640","陈","154","","","","","","","","","","","","","","","","","","","","","","","","","","","","","","","","","","","","","","","","","",""
"457","<p style=""color:white; font-size: 35px;"">废物</p>","e","categorize-html","155","268298","0.0-6.0-0.0-8.0-1.23","3","3","4","3","3","4","3","3","4","4","4","4","4","4","3","5","4","2","4","4","4","4","3","3","4","4","3","3","2","1","0","1","1","0","0","0","1","1","1","1","0","0","0","1","3","4","3","3","4","1","3","4","4","4","3","682500248714608640","陈","154","","","","","","","","","","","","","","","","","","","true","4","4","ability","457","negative","废物","","","","","","","","","","","","","","","","",""
"null","","null","html-keyboard-response","156","268549","0.0-6.0-0.0-8.0-0.24","3","3","4","3","3","4","3","3","4","4","4","4","4","4","3","5","4","2","4","4","4","4","3","3","4","4","3","3","2","1","0","1","1","0","0","0","1","1","1","1","0","0","0","1","3","4","3","3","4","1","3","4","4","4","3","682500248714608640","陈","154","","","","","","","","","","","","","","","","","","","","","","","","","","","","","","","","","","","","","","","","","",""
"526","<p style=""color:rgb(150, 250, 100); font-size: 35px;"">他的</p>","e","categorize-html","157","269075","0.0-6.0-0.0-8.0-1.24","3","3","4","3","3","4","3","3","4","4","4","4","4","4","3","5","4","2","4","4","4","4","3","3","4","4","3","3","2","1","0","1","1","0","0","0","1","1","1","1","0","0","0","1","3","4","3","3","4","1","3","4","4","4","3","682500248714608640","陈","154","","","","","","","","","","","","","","","","","","","true","4","4","ability","526","other","他的","","","","","","","","","","","","","","","","",""
"null","","null","html-keyboard-response","158","269326","0.0-6.0-0.0-8.0-0.25","3","3","4","3","3","4","3","3","4","4","4","4","4","4","3","5","4","2","4","4","4","4","3","3","4","4","3","3","2","1","0","1","1","0","0","0","1","1","1","1","0","0","0","1","3","4","3","3","4","1","3","4","4","4","3","682500248714608640","陈","154","","","","","","","","","","","","","","","","","","","","","","","","","","","","","","","","","","","","","","","","","",""
"531","<p style=""color:white; font-size: 35px;"">愚钝</p>","e","categorize-html","159","269859","0.0-6.0-0.0-8.0-1.25","3","3","4","3","3","4","3","3","4","4","4","4","4","4","3","5","4","2","4","4","4","4","3","3","4","4","3","3","2","1","0","1","1","0","0","0","1","1","1","1","0","0","0","1","3","4","3","3","4","1","3","4","4","4","3","682500248714608640","陈","154","","","","","","","","","","","","","","","","","","","true","4","4","ability","531","negative","愚钝","","","","","","","","","","","","","","","","",""
"null","","null","html-keyboard-response","160","270109","0.0-6.0-0.0-8.0-0.26","3","3","4","3","3","4","3","3","4","4","4","4","4","4","3","5","4","2","4","4","4","4","3","3","4","4","3","3","2","1","0","1","1","0","0","0","1","1","1","1","0","0","0","1","3","4","3","3","4","1","3","4","4","4","3","682500248714608640","陈","154","","","","","","","","","","","","","","","","","","","","","","","","","","","","","","","","","","","","","","","","","",""
"467","<p style=""color:rgb(150, 250, 100); font-size: 35px;"">我</p>","i","categorize-html","161","270577","0.0-6.0-0.0-8.0-1.26","3","3","4","3","3","4","3","3","4","4","4","4","4","4","3","5","4","2","4","4","4","4","3","3","4","4","3","3","2","1","0","1","1","0","0","0","1","1","1","1","0","0","0","1","3","4","3","3","4","1","3","4","4","4","3","682500248714608640","陈","154","","","","","","","","","","","","","","","","","","","true","4","4","ability","467","self","我","","","","","","","","","","","","","","","","",""
"null","","null","html-keyboard-response","162","270828","0.0-6.0-0.0-8.0-0.27","3","3","4","3","3","4","3","3","4","4","4","4","4","4","3","5","4","2","4","4","4","4","3","3","4","4","3","3","2","1","0","1","1","0","0","0","1","1","1","1","0","0","0","1","3","4","3","3","4","1","3","4","4","4","3","682500248714608640","陈","154","","","","","","","","","","","","","","","","","","","","","","","","","","","","","","","","","","","","","","","","","",""
"540","<p style=""color:white; font-size: 35px;"">全能</p>","i","categorize-html","163","271369","0.0-6.0-0.0-8.0-1.27","3","3","4","3","3","4","3","3","4","4","4","4","4","4","3","5","4","2","4","4","4","4","3","3","4","4","3","3","2","1","0","1","1","0","0","0","1","1","1","1","0","0","0","1","3","4","3","3","4","1","3","4","4","4","3","682500248714608640","陈","154","","","","","","","","","","","","","","","","","","","true","4","4","ability","540","positive","全能","","","","","","","","","","","","","","","","",""
"null","","null","html-keyboard-response","164","271620","0.0-6.0-0.0-8.0-0.28","3","3","4","3","3","4","3","3","4","4","4","4","4","4","3","5","4","2","4","4","4","4","3","3","4","4","3","3","2","1","0","1","1","0","0","0","1","1","1","1","0","0","0","1","3","4","3","3","4","1","3","4","4","4","3","682500248714608640","陈","154","","","","","","","","","","","","","","","","","","","","","","","","","","","","","","","","","","","","","","","","","",""
"596","<p style=""color:rgb(150, 250, 100); font-size: 35px;"">别人</p>","e","categorize-html","165","272217","0.0-6.0-0.0-8.0-1.28","3","3","4","3","3","4","3","3","4","4","4","4","4","4","3","5","4","2","4","4","4","4","3","3","4","4","3","3","2","1","0","1","1","0","0","0","1","1","1","1","0","0","0","1","3","4","3","3","4","1","3","4","4","4","3","682500248714608640","陈","154","","","","","","","","","","","","","","","","","","","true","4","4","ability","596","other","别人","","","","","","","","","","","","","","","","",""
"null","","null","html-keyboard-response","166","272467","0.0-6.0-0.0-8.0-0.29","3","3","4","3","3","4","3","3","4","4","4","4","4","4","3","5","4","2","4","4","4","4","3","3","4","4","3","3","2","1","0","1","1","0","0","0","1","1","1","1","0","0","0","1","3","4","3","3","4","1","3","4","4","4","3","682500248714608640","陈","154","","","","","","","","","","","","","","","","","","","","","","","","","","","","","","","","","","","","","","","","","",""
"449","<p style=""color:white; font-size: 35px;"">蠢笨</p>","e","categorize-html","167","272917","0.0-6.0-0.0-8.0-1.29","3","3","4","3","3","4","3","3","4","4","4","4","4","4","3","5","4","2","4","4","4","4","3","3","4","4","3","3","2","1","0","1","1","0","0","0","1","1","1","1","0","0","0","1","3","4","3","3","4","1","3","4","4","4","3","682500248714608640","陈","154","","","","","","","","","","","","","","","","","","","true","4","4","ability","449","negative","蠢笨","","","","","","","","","","","","","","","","",""
"null","","null","html-keyboard-response","168","273167","0.0-6.0-0.0-8.0-0.30","3","3","4","3","3","4","3","3","4","4","4","4","4","4","3","5","4","2","4","4","4","4","3","3","4","4","3","3","2","1","0","1","1","0","0","0","1","1","1","1","0","0","0","1","3","4","3","3","4","1","3","4","4","4","3","682500248714608640","陈","154","","","","","","","","","","","","","","","","","","","","","","","","","","","","","","","","","","","","","","","","","",""
"485","<p style=""color:rgb(150, 250, 100); font-size: 35px;"">我的</p>","i","categorize-html","169","273653","0.0-6.0-0.0-8.0-1.30","3","3","4","3","3","4","3","3","4","4","4","4","4","4","3","5","4","2","4","4","4","4","3","3","4","4","3","3","2","1","0","1","1","0","0","0","1","1","1","1","0","0","0","1","3","4","3","3","4","1","3","4","4","4","3","682500248714608640","陈","154","","","","","","","","","","","","","","","","","","","true","4","4","ability","485","self","我的","","","","","","","","","","","","","","","","",""
"null","","null","html-keyboard-response","170","273904","0.0-6.0-0.0-8.0-0.31","3","3","4","3","3","4","3","3","4","4","4","4","4","4","3","5","4","2","4","4","4","4","3","3","4","4","3","3","2","1","0","1","1","0","0","0","1","1","1","1","0","0","0","1","3","4","3","3","4","1","3","4","4","4","3","682500248714608640","陈","154","","","","","","","","","","","","","","","","","","","","","","","","","","","","","","","","","","","","","","","","","",""
"371","<p style=""color:white; font-size: 35px;"">天才</p>","i","categorize-html","171","274276","0.0-6.0-0.0-8.0-1.31","3","3","4","3","3","4","3","3","4","4","4","4","4","4","3","5","4","2","4","4","4","4","3","3","4","4","3","3","2","1","0","1","1","0","0","0","1","1","1","1","0","0","0","1","3","4","3","3","4","1","3","4","4","4","3","682500248714608640","陈","154","","","","","","","","","","","","","","","","","","","true","4","4","ability","371","positive","天才","","","","","","","","","","","","","","","","",""
"null","","null","html-keyboard-response","172","274528","0.0-6.0-0.0-8.0-0.32","3","3","4","3","3","4","3","3","4","4","4","4","4","4","3","5","4","2","4","4","4","4","3","3","4","4","3","3","2","1","0","1","1","0","0","0","1","1","1","1","0","0","0","1","3","4","3","3","4","1","3","4","4","4","3","682500248714608640","陈","154","","","","","","","","","","","","","","","","","","","","","","","","","","","","","","","","","","","","","","","","","",""
"488","<p style=""color:rgb(150, 250, 100); font-size: 35px;"">本人的</p>","i","categorize-html","173","275017","0.0-6.0-0.0-8.0-1.32","3","3","4","3","3","4","3","3","4","4","4","4","4","4","3","5","4","2","4","4","4","4","3","3","4","4","3","3","2","1","0","1","1","0","0","0","1","1","1","1","0","0","0","1","3","4","3","3","4","1","3","4","4","4","3","682500248714608640","陈","154","","","","","","","","","","","","","","","","","","","true","4","4","ability","488","self","本人的","","","","","","","","","","","","","","","","",""
"null","","null","html-keyboard-response","174","275267","0.0-6.0-0.0-8.0-0.33","3","3","4","3","3","4","3","3","4","4","4","4","4","4","3","5","4","2","4","4","4","4","3","3","4","4","3","3","2","1","0","1","1","0","0","0","1","1","1","1","0","0","0","1","3","4","3","3","4","1","3","4","4","4","3","682500248714608640","陈","154","","","","","","","","","","","","","","","","","","","","","","","","","","","","","","","","","","","","","","","","","",""
"506","<p style=""color:white; font-size: 35px;"">废物</p>","e","categorize-html","175","275775","0.0-6.0-0.0-8.0-1.33","3","3","4","3","3","4","3","3","4","4","4","4","4","4","3","5","4","2","4","4","4","4","3","3","4","4","3","3","2","1","0","1","1","0","0","0","1","1","1","1","0","0","0","1","3","4","3","3","4","1","3","4","4","4","3","682500248714608640","陈","154","","","","","","","","","","","","","","","","","","","true","4","4","ability","506","negative","废物","","","","","","","","","","","","","","","","",""
"null","","null","html-keyboard-response","176","276026","0.0-6.0-0.0-8.0-0.34","3","3","4","3","3","4","3","3","4","4","4","4","4","4","3","5","4","2","4","4","4","4","3","3","4","4","3","3","2","1","0","1","1","0","0","0","1","1","1","1","0","0","0","1","3","4","3","3","4","1","3","4","4","4","3","682500248714608640","陈","154","","","","","","","","","","","","","","","","","","","","","","","","","","","","","","","","","","","","","","","","","",""
"504","<p style=""color:rgb(150, 250, 100); font-size: 35px;"">他人的</p>","i","categorize-html","177","277077","0.0-6.0-0.0-8.0-1.34","3","3","4","3","3","4","3","3","4","4","4","4","4","4","3","5","4","2","4","4","4","4","3","3","4","4","3","3","2","1","0","1","1","0","0","0","1","1","1","1","0","0","0","1","3","4","3","3","4","1","3","4","4","4","3","682500248714608640","陈","154","","","","","","","","","","","","","","","","","","","false","4","4","ability","1094.2978723404256","other","他人的","","","","","","","","","","","","","","","","",""
"null","","null","html-keyboard-response","178","277328","0.0-6.0-0.0-8.0-0.35","3","3","4","3","3","4","3","3","4","4","4","4","4","4","3","5","4","2","4","4","4","4","3","3","4","4","3","3","2","1","0","1","1","0","0","0","1","1","1","1","0","0","0","1","3","4","3","3","4","1","3","4","4","4","3","682500248714608640","陈","154","","","","","","","","","","","","","","","","","","","","","","","","","","","","","","","","","","","","","","","","","",""
"653","<p style=""color:white; font-size: 35px;"">精干</p>","i","categorize-html","179","277983","0.0-6.0-0.0-8.0-1.35","3","3","4","3","3","4","3","3","4","4","4","4","4","4","3","5","4","2","4","4","4","4","3","3","4","4","3","3","2","1","0","1","1","0","0","0","1","1","1","1","0","0","0","1","3","4","3","3","4","1","3","4","4","4","3","682500248714608640","陈","154","","","","","","","","","","","","","","","","","","","true","4","4","ability","653","positive","精干","","","","","","","","","","","","","","","","",""
"null","","null","html-keyboard-response","180","278235","0.0-6.0-0.0-8.0-0.36","3","3","4","3","3","4","3","3","4","4","4","4","4","4","3","5","4","2","4","4","4","4","3","3","4","4","3","3","2","1","0","1","1","0","0","0","1","1","1","1","0","0","0","1","3","4","3","3","4","1","3","4","4","4","3","682500248714608640","陈","154","","","","","","","","","","","","","","","","","","","","","","","","","","","","","","","","","","","","","","","","","",""
"495","<p style=""color:rgb(150, 250, 100); font-size: 35px;"">本人的</p>","i","categorize-html","181","278730","0.0-6.0-0.0-8.0-1.36","3","3","4","3","3","4","3","3","4","4","4","4","4","4","3","5","4","2","4","4","4","4","3","3","4","4","3","3","2","1","0","1","1","0","0","0","1","1","1","1","0","0","0","1","3","4","3","3","4","1","3","4","4","4","3","682500248714608640","陈","154","","","","","","","","","","","","","","","","","","","true","4","4","ability","495","self","本人的","","","","","","","","","","","","","","","","",""
"null","","null","html-keyboard-response","182","278981","0.0-6.0-0.0-8.0-0.37","3","3","4","3","3","4","3","3","4","4","4","4","4","4","3","5","4","2","4","4","4","4","3","3","4","4","3","3","2","1","0","1","1","0","0","0","1","1","1","1","0","0","0","1","3","4","3","3","4","1","3","4","4","4","3","682500248714608640","陈","154","","","","","","","","","","","","","","","","","","","","","","","","","","","","","","","","","","","","","","","","","",""
"524","<p style=""color:white; font-size: 35px;"">能干</p>","i","categorize-html","183","279507","0.0-6.0-0.0-8.0-1.37","3","3","4","3","3","4","3","3","4","4","4","4","4","4","3","5","4","2","4","4","4","4","3","3","4","4","3","3","2","1","0","1","1","0","0","0","1","1","1","1","0","0","0","1","3","4","3","3","4","1","3","4","4","4","3","682500248714608640","陈","154","","","","","","","","","","","","","","","","","","","true","4","4","ability","524","positive","能干","","","","","","","","","","","","","","","","",""
"null","","null","html-keyboard-response","184","279758","0.0-6.0-0.0-8.0-0.38","3","3","4","3","3","4","3","3","4","4","4","4","4","4","3","5","4","2","4","4","4","4","3","3","4","4","3","3","2","1","0","1","1","0","0","0","1","1","1","1","0","0","0","1","3","4","3","3","4","1","3","4","4","4","3","682500248714608640","陈","154","","","","","","","","","","","","","","","","","","","","","","","","","","","","","","","","","","","","","","","","","",""
"442","<p style=""color:rgb(150, 250, 100); font-size: 35px;"">他人的</p>","e","categorize-html","185","280200","0.0-6.0-0.0-8.0-1.38","3","3","4","3","3","4","3","3","4","4","4","4","4","4","3","5","4","2","4","4","4","4","3","3","4","4","3","3","2","1","0","1","1","0","0","0","1","1","1","1","0","0","0","1","3","4","3","3","4","1","3","4","4","4","3","682500248714608640","陈","154","","","","","","","","","","","","","","","","","","","true","4","4","ability","442","other","他人的","","","","","","","","","","","","","","","","",""
"null","","null","html-keyboard-response","186","280451","0.0-6.0-0.0-8.0-0.39","3","3","4","3","3","4","3","3","4","4","4","4","4","4","3","5","4","2","4","4","4","4","3","3","4","4","3","3","2","1","0","1","1","0","0","0","1","1","1","1","0","0","0","1","3","4","3","3","4","1","3","4","4","4","3","682500248714608640","陈","154","","","","","","","","","","","","","","","","","","","","","","","","","","","","","","","","","","","","","","","","","",""
"467","<p style=""color:white; font-size: 35px;"">拙笨</p>","e","categorize-html","187","280919","0.0-6.0-0.0-8.0-1.39","3","3","4","3","3","4","3","3","4","4","4","4","4","4","3","5","4","2","4","4","4","4","3","3","4","4","3","3","2","1","0","1","1","0","0","0","1","1","1","1","0","0","0","1","3","4","3","3","4","1","3","4","4","4","3","682500248714608640","陈","154","","","","","","","","","","","","","","","","","","","true","4","4","ability","467","negative","拙笨","","","","","","","","","","","","","","","","",""
"null","","null","html-keyboard-response","188","281170","0.0-6.0-0.0-8.0-0.40","3","3","4","3","3","4","3","3","4","4","4","4","4","4","3","5","4","2","4","4","4","4","3","3","4","4","3","3","2","1","0","1","1","0","0","0","1","1","1","1","0","0","0","1","3","4","3","3","4","1","3","4","4","4","3","682500248714608640","陈","154","","","","","","","","","","","","","","","","","","","","","","","","","","","","","","","","","","","","","","","","","",""
"392","<p style=""color:rgb(150, 250, 100); font-size: 35px;"">他</p>","e","categorize-html","189","281563","0.0-6.0-0.0-8.0-1.40","3","3","4","3","3","4","3","3","4","4","4","4","4","4","3","5","4","2","4","4","4","4","3","3","4","4","3","3","2","1","0","1","1","0","0","0","1","1","1","1","0","0","0","1","3","4","3","3","4","1","3","4","4","4","3","682500248714608640","陈","154","","","","","","","","","","","","","","","","","","","true","4","4","ability","392","other","他","","","","","","","","","","","","","","","","",""
"null","","null","html-keyboard-response","190","281814","0.0-6.0-0.0-8.0-0.41","3","3","4","3","3","4","3","3","4","4","4","4","4","4","3","5","4","2","4","4","4","4","3","3","4","4","3","3","2","1","0","1","1","0","0","0","1","1","1","1","0","0","0","1","3","4","3","3","4","1","3","4","4","4","3","682500248714608640","陈","154","","","","","","","","","","","","","","","","","","","","","","","","","","","","","","","","","","","","","","","","","",""
"428","<p style=""color:white; font-size: 35px;"">愚钝</p>","e","categorize-html","191","282242","0.0-6.0-0.0-8.0-1.41","3","3","4","3","3","4","3","3","4","4","4","4","4","4","3","5","4","2","4","4","4","4","3","3","4","4","3","3","2","1","0","1","1","0","0","0","1","1","1","1","0","0","0","1","3","4","3","3","4","1","3","4","4","4","3","682500248714608640","陈","154","","","","","","","","","","","","","","","","","","","true","4","4","ability","428","negative","愚钝","","","","","","","","","","","","","","","","",""
"null","","null","html-keyboard-response","192","282494","0.0-6.0-0.0-8.0-0.42","3","3","4","3","3","4","3","3","4","4","4","4","4","4","3","5","4","2","4","4","4","4","3","3","4","4","3","3","2","1","0","1","1","0","0","0","1","1","1","1","0","0","0","1","3","4","3","3","4","1","3","4","4","4","3","682500248714608640","陈","154","","","","","","","","","","","","","","","","","","","","","","","","","","","","","","","","","","","","","","","","","",""
"479","<p style=""color:rgb(150, 250, 100); font-size: 35px;"">本人</p>","i","categorize-html","193","282973","0.0-6.0-0.0-8.0-1.42","3","3","4","3","3","4","3","3","4","4","4","4","4","4","3","5","4","2","4","4","4","4","3","3","4","4","3","3","2","1","0","1","1","0","0","0","1","1","1","1","0","0","0","1","3","4","3","3","4","1","3","4","4","4","3","682500248714608640","陈","154","","","","","","","","","","","","","","","","","","","true","4","4","ability","479","self","本人","","","","","","","","","","","","","","","","",""
