"rt","stimulus","response","trial_type","trial_index","time_elapsed","internal_node_id","ses_1","ses_2","ses_3","ses_4","ses_5","ses_6","ses_7","ses_8","ses_9","ses_10","coreself_1","coreself_2","coreself_3","coreself_4","coreself_5","coreself_6","coreself_7","coreself_8","coreself_9","coreself_10","SGPS_1","SGPS_2","SGPS_3","SGPS_4","SGPS_5","SGPS_6","SGPS_7","SGPS_8","SGPS_9","NPI1","NPI2","NPI3","NPI4","NPI5","NPI6","NPI7","NPI8","NPI9","NPI10","NPI11","NPI12","NPI13","NPI14","NPI15","hsns_1","hsns_2","hsns_3","hsns_4","hsns_5","trap1","hsns_6","hsns_7","hsns_8","hsns_9","hsns_10","subj_idx","friend_name","ParticipantID","value","success","user_agent","responses","item_order","radio_event_ids","radio_event_times","key_event_times","mouse_event_times","straightlining","zigzagging","honeypot","timeout","failed_images","failed_audio","failed_video","view_history","response_type","key_press","avg_frame_time","center_x","center_y","correct_response","correct","identity","Image","word","condition","task_id","screen_id","time_stamp","version_attrib2","version_target2","IAT","RT","varname","summary","version_attrib","version_target","question_order","correct_answer","trap1_item"
"29050","
   <p><div style = ""color: white;font-size:25px;"">您好，欢迎参加本次实验。</div> </p>
   <p><div style = ""color: white;font-size:25px;"">为充分保障您的权利，请确保您已经知晓并同意《参与实验同意书》以及《数据公开知情同意书》。</div></p>
   <p><div style = ""color: white;font-size:25px;"">如果您未见过上述内容，请咨询实验员。</div></p>
   <p><div style = ""color: white;font-size:25px;"">如果您选择继续实验，则表示您已经清楚两份知情同意书的内容并同意。</div></p>
   <p><div style = ""color: pink;font-size:30px;"">请确保您记得day0的实验编号，您将在本次实验输入该编号，若您忘记，请咨询实验员后作答。</div></p>
   <p><div style = ""color: lightblue;font-size:25px;"">请您尽可能认真地作答，我们将依据您在各问卷和按键任务中的作答质量发放报酬。</div></p>
   <p> <div style = ""color: green;font-size:25px;""><按空格键至下页></div> </p>
   "," ","html-keyboard-response","0","29052","0.0-0.0","4","4","3","3","4","4","3","4","4","4","4","4","5","5","5","5","5","4","5","5","4","2","3","1","2","1","2","2","1","0","1","0","1","1","1","0","1","0","0","0","1","0","0","0","5","2","1","2","1","4","4","2","3","1","1","783896727882305537","杜","253","","","","","","","","","","","","","","","","","","","","","","","","","","","","","","","","","","","","","","","","","",""
"","","","call-function","1","29053","0.0-1.0-0.0","4","4","3","3","4","4","3","4","4","4","4","4","5","5","5","5","5","4","5","5","4","2","3","1","2","1","2","2","1","0","1","0","1","1","1","0","1","0","0","0","1","0","0","0","5","2","1","2","1","4","4","2","3","1","1","783896727882305537","杜","253","","","","","","","","","","","","","","","","","","","","","","","","","","","","","","","","","","","","","","","","","",""
"18067","","{""friend_name"":""杜"",""ParticipantID"":""253""}","survey-html-form","2","47120","0.0-1.0-1.0","4","4","3","3","4","4","3","4","4","4","4","4","5","5","5","5","5","4","5","5","4","2","3","1","2","1","2","2","1","0","1","0","1","1","1","0","1","0","0","0","1","0","0","0","5","2","1","2","1","4","4","2","3","1","1","783896727882305537","杜","253","","","","","","","","","","","","","","","","","","","","","","","","","","","","","","","","","","","","","","","","","",""
"","","","fullscreen","3","63260","0.0-2.0","4","4","3","3","4","4","3","4","4","4","4","4","5","5","5","5","5","4","5","5","4","2","3","1","2","1","2","2","1","0","1","0","1","1","1","0","1","0","0","0","1","0","0","0","5","2","1","2","1","4","4","2","3","1","1","783896727882305537","杜","253","","true","{}","","","","","","","","","","","","","","","","","","","","","","","","","","","","","","","","","","","","","","",""
"28358.099999904633","","{""Q01"":""4"",""Q02"":""4"",""Q03"":""3"",""Q04"":""3"",""Q05"":""4"",""Q06"":""4"",""Q07"":""3"",""Q08"":""4"",""Q09"":""4"",""Q10"":""4""}","survey-template","4","91625","0.0-3.0","4","4","3","3","4","4","3","4","4","4","4","4","5","5","5","5","5","4","5","5","4","2","3","1","2","1","2","2","1","0","1","0","1","1","1","0","1","0","0","0","1","0","0","0","5","2","1","2","1","4","4","2","3","1","1","783896727882305537","杜","253","","","","{""Q01"":""4"",""Q02"":""4"",""Q03"":""3"",""Q04"":""3"",""Q05"":""4"",""Q06"":""4"",""Q07"":""3"",""Q08"":""4"",""Q09"":""4"",""Q10"":""4""}","[0,1,2,3,4,5,6,7,8,9]","[""Q01"",""Q02"",""Q03"",""Q04"",""Q05"",""Q06"",""Q07"",""Q08"",""Q09"",""Q10""]","[7639.5,8486.099999904633,14106.799999952316,15271.799999952316,16346.099999904633,19875.099999904633,21511.099999904633,24233.89999985695,25412.799999952316,27371.700000047684]","[]","[7639.5,8486.099999904633,12646.899999856949,13732,14106.799999952316,15271.799999952316,16346.099999904633,19875.099999904633,21511.099999904633,24233.89999985695,25412.799999952316,27371.700000047684,28357]","0.4","0.3333333333333333","0","","","","","","","","","","","","","","","","","","","","","","","","","","","","","",""
"33407.09999990463","","{""Q01"":""4"",""Q02"":""4"",""Q03"":""5"",""Q04"":""5"",""Q05"":""5"",""Q06"":""5"",""Q07"":""5"",""Q08"":""4"",""Q09"":""5"",""Q10"":""5""}","survey-template","5","125036","0.0-4.0","4","4","3","3","4","4","3","4","4","4","4","4","5","5","5","5","5","4","5","5","4","2","3","1","2","1","2","2","1","0","1","0","1","1","1","0","1","0","0","0","1","0","0","0","5","2","1","2","1","4","4","2","3","1","1","783896727882305537","杜","253","","","","{""Q01"":""4"",""Q02"":""4"",""Q03"":""5"",""Q04"":""5"",""Q05"":""5"",""Q06"":""5"",""Q07"":""5"",""Q08"":""4"",""Q09"":""5"",""Q10"":""5""}","[0,1,2,3,4,5,6,7,8,9]","[""Q01"",""Q02"",""Q03"",""Q04"",""Q05"",""Q06"",""Q07"",""Q08"",""Q09"",""Q10""]","[4397.799999952316,12426,14209.899999856949,15704.799999952316,19562,21784.200000047684,25604.700000047684,27705.799999952316,30198.89999985695,32334.599999904633]","[]","[3334,4397.799999952316,12426,13417.200000047684,14209.899999856949,15704.799999952316,19562,21784.200000047684,25007,25604.700000047684,27705.799999952316,30198.89999985695,32334.599999904633,33406]","0.4","0.7777777777777778","0","","","","","","","","","","","","","","","","","","","","","","","","","","","","","",""
"","","","preload","6","125379","0.0-5.0","4","4","3","3","4","4","3","4","4","4","4","4","5","5","5","5","5","4","5","5","4","2","3","1","2","1","2","2","1","0","1","0","1","1","1","0","1","0","0","0","1","0","0","0","5","2","1","2","1","4","4","2","3","1","1","783896727882305537","杜","253","","true","","","","","","","","","","","false","[]","[]","[]","","","","","","","","","","","","","","","","","","","","","","","","","",""
"18591","","","instructions","7","143970","0.0-6.0","4","4","3","3","4","4","3","4","4","4","4","4","5","5","5","5","5","4","5","5","4","2","3","1","2","1","2","2","1","0","1","0","1","1","1","0","1","0","0","0","1","0","0","0","5","2","1","2","1","4","4","2","3","1","1","783896727882305537","杜","253","","","","","","","","","","","","","","","","","[{""page_index"":0,""viewing_time"":18590}]","","","","","","","","","","","","","","","","","","","","","","","","",""
"29059","","","instructions","8","173029","0.0-7.0-0.0-0.0","4","4","3","3","4","4","3","4","4","4","4","4","5","5","5","5","5","4","5","5","4","2","3","1","2","1","2","2","1","0","1","0","1","1","1","0","1","0","0","0","1","0","0","0","5","2","1","2","1","4","4","2","3","1","1","783896727882305537","杜","253","","","","","","","","","","","","","","","","","[{""page_index"":0,""viewing_time"":18091},{""page_index"":1,""viewing_time"":8077},{""page_index"":2,""viewing_time"":2890}]","","","","","","","","","","","","","","","","","","","","","","","","",""
"null","","null","psychophysics","9","175233","0.0-7.0-0.0-1.0-0.0-0.0","4","4","3","3","4","4","3","4","4","4","4","4","5","5","5","5","5","4","5","5","4","2","3","1","2","1","2","2","1","0","1","0","1","1","1","0","1","0","0","0","1","0","0","0","5","2","1","2","1","4","4","2","3","1","1","783896727882305537","杜","253","","","","null","","","","","","","","","","","","","","key","null","16.65343511450386","640","356","f","false","nonmatch","img/hexagon.png","圆形","六边","ALT1_1","prac_ALT1_1","","","","","","","","","","","",""
"null","<span class='add_' style='color:yellow; font-size: 70px;'> 太慢! </span>","null","html-keyboard-response","10","175734","0.0-7.0-0.0-1.0-0.0-1.0","4","4","3","3","4","4","3","4","4","4","4","4","5","5","5","5","5","4","5","5","4","2","3","1","2","1","2","2","1","0","1","0","1","1","1","0","1","0","0","0","1","0","0","0","5","2","1","2","1","4","4","2","3","1","1","783896727882305537","杜","253","","","","","","","","","","","","","","","","","","","","","","","","","","","","","","feedback_test","","","","","","","","","","","",""
"328","","f","psychophysics","11","177064","0.0-7.0-0.0-1.0-0.0-0.1","4","4","3","3","4","4","3","4","4","4","4","4","5","5","5","5","5","4","5","5","4","2","3","1","2","1","2","2","1","0","1","0","1","1","1","0","1","0","0","0","1","0","0","0","5","2","1","2","1","4","4","2","3","1","1","783896727882305537","杜","253","","","","nonmatch","","","","","","","","","","","","","","key","f","16.645569620253166","640","356","f","true","nonmatch","img/triangle.png","圆形","三角","ALT1_1","prac_ALT1_1","","","","","","","","","","","",""
"null","<span style='color:GreenYellow; font-size: 70px;'>正确! </span>","null","html-keyboard-response","12","177566","0.0-7.0-0.0-1.0-0.0-1.1","4","4","3","3","4","4","3","4","4","4","4","4","5","5","5","5","5","4","5","5","4","2","3","1","2","1","2","2","1","0","1","0","1","1","1","0","1","0","0","0","1","0","0","0","5","2","1","2","1","4","4","2","3","1","1","783896727882305537","杜","253","","","","","","","","","","","","","","","","","","","","","","","","","","","","","","feedback_test","","","","","","","","","","","",""
"453","","j","psychophysics","13","179020","0.0-7.0-0.0-1.0-0.0-0.2","4","4","3","3","4","4","3","4","4","4","4","4","5","5","5","5","5","4","5","5","4","2","3","1","2","1","2","2","1","0","1","0","1","1","1","0","1","0","0","0","1","0","0","0","5","2","1","2","1","4","4","2","3","1","1","783896727882305537","杜","253","","","","match","","","","","","","","","","","","","","key","j","16.65402298850568","640","356","j","true","match","img/circle.png","圆形","圆形","ALT1_1","prac_ALT1_1","","","","","","","","","","","",""
"null","<span style='color:GreenYellow; font-size: 70px;'>正确! </span>","null","html-keyboard-response","14","179521","0.0-7.0-0.0-1.0-0.0-1.2","4","4","3","3","4","4","3","4","4","4","4","4","5","5","5","5","5","4","5","5","4","2","3","1","2","1","2","2","1","0","1","0","1","1","1","0","1","0","0","0","1","0","0","0","5","2","1","2","1","4","4","2","3","1","1","783896727882305537","杜","253","","","","","","","","","","","","","","","","","","","","","","","","","","","","","","feedback_test","","","","","","","","","","","",""
"498","","j","psychophysics","15","181021","0.0-7.0-0.0-1.0-0.0-0.3","4","4","3","3","4","4","3","4","4","4","4","4","5","5","5","5","5","4","5","5","4","2","3","1","2","1","2","2","1","0","1","0","1","1","1","0","1","0","0","0","1","0","0","0","5","2","1","2","1","4","4","2","3","1","1","783896727882305537","杜","253","","","","match","","","","","","","","","","","","","","key","j","16.653932584269793","640","356","j","true","match","img/square.png","方形","方形","ALT1_1","prac_ALT1_1","","","","","","","","","","","",""
"null","<span style='color:GreenYellow; font-size: 70px;'>正确! </span>","null","html-keyboard-response","16","181522","0.0-7.0-0.0-1.0-0.0-1.3","4","4","3","3","4","4","3","4","4","4","4","4","5","5","5","5","5","4","5","5","4","2","3","1","2","1","2","2","1","0","1","0","1","1","1","0","1","0","0","0","1","0","0","0","5","2","1","2","1","4","4","2","3","1","1","783896727882305537","杜","253","","","","","","","","","","","","","","","","","","","","","","","","","","","","","","feedback_test","","","","","","","","","","","",""
"434","","j","psychophysics","17","182959","0.0-7.0-0.0-1.0-0.0-0.4","4","4","3","3","4","4","3","4","4","4","4","4","5","5","5","5","5","4","5","5","4","2","3","1","2","1","2","2","1","0","1","0","1","1","1","0","1","0","0","0","1","0","0","0","5","2","1","2","1","4","4","2","3","1","1","783896727882305537","杜","253","","","","match","","","","","","","","","","","","","","key","j","16.651764705882627","640","356","j","true","match","img/circle.png","圆形","圆形","ALT1_1","prac_ALT1_1","","","","","","","","","","","",""
"null","<span style='color:GreenYellow; font-size: 70px;'>正确! </span>","null","html-keyboard-response","18","183461","0.0-7.0-0.0-1.0-0.0-1.4","4","4","3","3","4","4","3","4","4","4","4","4","5","5","5","5","5","4","5","5","4","2","3","1","2","1","2","2","1","0","1","0","1","1","1","0","1","0","0","0","1","0","0","0","5","2","1","2","1","4","4","2","3","1","1","783896727882305537","杜","253","","","","","","","","","","","","","","","","","","","","","","","","","","","","","","feedback_test","","","","","","","","","","","",""
"396","","j","psychophysics","19","184860","0.0-7.0-0.0-1.0-0.0-0.5","4","4","3","3","4","4","3","4","4","4","4","4","5","5","5","5","5","4","5","5","4","2","3","1","2","1","2","2","1","0","1","0","1","1","1","0","1","0","0","0","1","0","0","0","5","2","1","2","1","4","4","2","3","1","1","783896727882305537","杜","253","","","","match","","","","","","","","","","","","","","key","j","16.64390243902425","640","356","f","false","nonmatch","img/circle.png","三角","圆形","ALT1_1","prac_ALT1_1","","","","","","","","","","","",""
"null","<span style='color:red; font-size: 70px;'>错误! </span>","null","html-keyboard-response","20","185361","0.0-7.0-0.0-1.0-0.0-1.5","4","4","3","3","4","4","3","4","4","4","4","4","5","5","5","5","5","4","5","5","4","2","3","1","2","1","2","2","1","0","1","0","1","1","1","0","1","0","0","0","1","0","0","0","5","2","1","2","1","4","4","2","3","1","1","783896727882305537","杜","253","","","","","","","","","","","","","","","","","","","","","","","","","","","","","","feedback_test","","","","","","","","","","","",""
"414","","j","psychophysics","21","186777","0.0-7.0-0.0-1.0-0.0-0.6","4","4","3","3","4","4","3","4","4","4","4","4","5","5","5","5","5","4","5","5","4","2","3","1","2","1","2","2","1","0","1","0","1","1","1","0","1","0","0","0","1","0","0","0","5","2","1","2","1","4","4","2","3","1","1","783896727882305537","杜","253","","","","match","","","","","","","","","","","","","","key","j","16.65542168674692","640","356","f","false","nonmatch","img/square.png","六边","方形","ALT1_1","prac_ALT1_1","","","","","","","","","","","",""
"null","<span style='color:red; font-size: 70px;'>错误! </span>","null","html-keyboard-response","22","187279","0.0-7.0-0.0-1.0-0.0-1.6","4","4","3","3","4","4","3","4","4","4","4","4","5","5","5","5","5","4","5","5","4","2","3","1","2","1","2","2","1","0","1","0","1","1","1","0","1","0","0","0","1","0","0","0","5","2","1","2","1","4","4","2","3","1","1","783896727882305537","杜","253","","","","","","","","","","","","","","","","","","","","","","","","","","","","","","feedback_test","","","","","","","","","","","",""
"470","","j","psychophysics","23","188753","0.0-7.0-0.0-1.0-0.0-0.7","4","4","3","3","4","4","3","4","4","4","4","4","5","5","5","5","5","4","5","5","4","2","3","1","2","1","2","2","1","0","1","0","1","1","1","0","1","0","0","0","1","0","0","0","5","2","1","2","1","4","4","2","3","1","1","783896727882305537","杜","253","","","","match","","","","","","","","","","","","","","key","j","16.649425287356323","640","356","j","true","match","img/hexagon.png","六边","六边","ALT1_1","prac_ALT1_1","","","","","","","","","","","",""
"null","<span style='color:GreenYellow; font-size: 70px;'>正确! </span>","null","html-keyboard-response","24","189254","0.0-7.0-0.0-1.0-0.0-1.7","4","4","3","3","4","4","3","4","4","4","4","4","5","5","5","5","5","4","5","5","4","2","3","1","2","1","2","2","1","0","1","0","1","1","1","0","1","0","0","0","1","0","0","0","5","2","1","2","1","4","4","2","3","1","1","783896727882305537","杜","253","","","","","","","","","","","","","","","","","","","","","","","","","","","","","","feedback_test","","","","","","","","","","","",""
"519","","j","psychophysics","25","190775","0.0-7.0-0.0-1.0-0.0-0.8","4","4","3","3","4","4","3","4","4","4","4","4","5","5","5","5","5","4","5","5","4","2","3","1","2","1","2","2","1","0","1","0","1","1","1","0","1","0","0","0","1","0","0","0","5","2","1","2","1","4","4","2","3","1","1","783896727882305537","杜","253","","","","match","","","","","","","","","","","","","","key","j","16.65274725274719","640","356","f","false","nonmatch","img/triangle.png","六边","三角","ALT1_1","prac_ALT1_1","","","","","","","","","","","",""
"null","<span style='color:red; font-size: 70px;'>错误! </span>","null","html-keyboard-response","26","191275","0.0-7.0-0.0-1.0-0.0-1.8","4","4","3","3","4","4","3","4","4","4","4","4","5","5","5","5","5","4","5","5","4","2","3","1","2","1","2","2","1","0","1","0","1","1","1","0","1","0","0","0","1","0","0","0","5","2","1","2","1","4","4","2","3","1","1","783896727882305537","杜","253","","","","","","","","","","","","","","","","","","","","","","","","","","","","","","feedback_test","","","","","","","","","","","",""
"494","","f","psychophysics","27","192771","0.0-7.0-0.0-1.0-0.0-0.9","4","4","3","3","4","4","3","4","4","4","4","4","5","5","5","5","5","4","5","5","4","2","3","1","2","1","2","2","1","0","1","0","1","1","1","0","1","0","0","0","1","0","0","0","5","2","1","2","1","4","4","2","3","1","1","783896727882305537","杜","253","","","","nonmatch","","","","","","","","","","","","","","key","f","16.65340909090909","640","356","f","true","nonmatch","img/square.png","三角","方形","ALT1_1","prac_ALT1_1","","","","","","","","","","","",""
"null","<span style='color:GreenYellow; font-size: 70px;'>正确! </span>","null","html-keyboard-response","28","193273","0.0-7.0-0.0-1.0-0.0-1.9","4","4","3","3","4","4","3","4","4","4","4","4","5","5","5","5","5","4","5","5","4","2","3","1","2","1","2","2","1","0","1","0","1","1","1","0","1","0","0","0","1","0","0","0","5","2","1","2","1","4","4","2","3","1","1","783896727882305537","杜","253","","","","","","","","","","","","","","","","","","","","","","","","","","","","","","feedback_test","","","","","","","","","","","",""
"445","","j","psychophysics","29","194719","0.0-7.0-0.0-1.0-0.0-0.10","4","4","3","3","4","4","3","4","4","4","4","4","5","5","5","5","5","4","5","5","4","2","3","1","2","1","2","2","1","0","1","0","1","1","1","0","1","0","0","0","1","0","0","0","5","2","1","2","1","4","4","2","3","1","1","783896727882305537","杜","253","","","","match","","","","","","","","","","","","","","key","j","16.652941176470588","640","356","f","false","nonmatch","img/hexagon.png","三角","六边","ALT1_1","prac_ALT1_1","","","","","","","","","","","",""
"null","<span style='color:red; font-size: 70px;'>错误! </span>","null","html-keyboard-response","30","195220","0.0-7.0-0.0-1.0-0.0-1.10","4","4","3","3","4","4","3","4","4","4","4","4","5","5","5","5","5","4","5","5","4","2","3","1","2","1","2","2","1","0","1","0","1","1","1","0","1","0","0","0","1","0","0","0","5","2","1","2","1","4","4","2","3","1","1","783896727882305537","杜","253","","","","","","","","","","","","","","","","","","","","","","","","","","","","","","feedback_test","","","","","","","","","","","",""
"502","","f","psychophysics","31","196725","0.0-7.0-0.0-1.0-0.0-0.11","4","4","3","3","4","4","3","4","4","4","4","4","5","5","5","5","5","4","5","5","4","2","3","1","2","1","2","2","1","0","1","0","1","1","1","0","1","0","0","0","1","0","0","0","5","2","1","2","1","4","4","2","3","1","1","783896727882305537","杜","253","","","","nonmatch","","","","","","","","","","","","","","key","f","16.650561797752744","640","356","f","true","nonmatch","img/hexagon.png","方形","六边","ALT1_1","prac_ALT1_1","","","","","","","","","","","",""
"null","<span style='color:GreenYellow; font-size: 70px;'>正确! </span>","null","html-keyboard-response","32","197226","0.0-7.0-0.0-1.0-0.0-1.11","4","4","3","3","4","4","3","4","4","4","4","4","5","5","5","5","5","4","5","5","4","2","3","1","2","1","2","2","1","0","1","0","1","1","1","0","1","0","0","0","1","0","0","0","5","2","1","2","1","4","4","2","3","1","1","783896727882305537","杜","253","","","","","","","","","","","","","","","","","","","","","","","","","","","","","","feedback_test","","","","","","","","","","","",""
"556","","f","psychophysics","33","198785","0.0-7.0-0.0-1.0-0.0-0.12","4","4","3","3","4","4","3","4","4","4","4","4","5","5","5","5","5","4","5","5","4","2","3","1","2","1","2","2","1","0","1","0","1","1","1","0","1","0","0","0","1","0","0","0","5","2","1","2","1","4","4","2","3","1","1","783896727882305537","杜","253","","","","nonmatch","","","","","","","","","","","","","","key","f","16.652688172042822","640","356","j","false","match","img/square.png","方形","方形","ALT1_1","prac_ALT1_1","","","","","","","","","","","",""
"null","<span style='color:red; font-size: 70px;'>错误! </span>","null","html-keyboard-response","34","199286","0.0-7.0-0.0-1.0-0.0-1.12","4","4","3","3","4","4","3","4","4","4","4","4","5","5","5","5","5","4","5","5","4","2","3","1","2","1","2","2","1","0","1","0","1","1","1","0","1","0","0","0","1","0","0","0","5","2","1","2","1","4","4","2","3","1","1","783896727882305537","杜","253","","","","","","","","","","","","","","","","","","","","","","","","","","","","","","feedback_test","","","","","","","","","","","",""
"371","","j","psychophysics","35","200666","0.0-7.0-0.0-1.0-0.0-0.13","4","4","3","3","4","4","3","4","4","4","4","4","5","5","5","5","5","4","5","5","4","2","3","1","2","1","2","2","1","0","1","0","1","1","1","0","1","0","0","0","1","0","0","0","5","2","1","2","1","4","4","2","3","1","1","783896727882305537","杜","253","","","","match","","","","","","","","","","","","","","key","j","16.652439024390244","640","356","f","false","nonmatch","img/square.png","圆形","方形","ALT1_1","prac_ALT1_1","","","","","","","","","","","",""
"null","<span style='color:red; font-size: 70px;'>错误! </span>","null","html-keyboard-response","36","201167","0.0-7.0-0.0-1.0-0.0-1.13","4","4","3","3","4","4","3","4","4","4","4","4","5","5","5","5","5","4","5","5","4","2","3","1","2","1","2","2","1","0","1","0","1","1","1","0","1","0","0","0","1","0","0","0","5","2","1","2","1","4","4","2","3","1","1","783896727882305537","杜","253","","","","","","","","","","","","","","","","","","","","","","","","","","","","","","feedback_test","","","","","","","","","","","",""
"535","","j","psychophysics","37","202704","0.0-7.0-0.0-1.0-0.0-0.14","4","4","3","3","4","4","3","4","4","4","4","4","5","5","5","5","5","4","5","5","4","2","3","1","2","1","2","2","1","0","1","0","1","1","1","0","1","0","0","0","1","0","0","0","5","2","1","2","1","4","4","2","3","1","1","783896727882305537","杜","253","","","","match","","","","","","","","","","","","","","key","j","16.653846153846153","640","356","j","true","match","img/circle.png","圆形","圆形","ALT1_1","prac_ALT1_1","","","","","","","","","","","",""
"null","<span style='color:GreenYellow; font-size: 70px;'>正确! </span>","null","html-keyboard-response","38","203206","0.0-7.0-0.0-1.0-0.0-1.14","4","4","3","3","4","4","3","4","4","4","4","4","5","5","5","5","5","4","5","5","4","2","3","1","2","1","2","2","1","0","1","0","1","1","1","0","1","0","0","0","1","0","0","0","5","2","1","2","1","4","4","2","3","1","1","783896727882305537","杜","253","","","","","","","","","","","","","","","","","","","","","","","","","","","","","","feedback_test","","","","","","","","","","","",""
"455","","j","psychophysics","39","204664","0.0-7.0-0.0-1.0-0.0-0.15","4","4","3","3","4","4","3","4","4","4","4","4","5","5","5","5","5","4","5","5","4","2","3","1","2","1","2","2","1","0","1","0","1","1","1","0","1","0","0","0","1","0","0","0","5","2","1","2","1","4","4","2","3","1","1","783896727882305537","杜","253","","","","match","","","","","","","","","","","","","","key","j","16.65287356321859","640","356","j","true","match","img/square.png","方形","方形","ALT1_1","prac_ALT1_1","","","","","","","","","","","",""
"null","<span style='color:GreenYellow; font-size: 70px;'>正确! </span>","null","html-keyboard-response","40","205166","0.0-7.0-0.0-1.0-0.0-1.15","4","4","3","3","4","4","3","4","4","4","4","4","5","5","5","5","5","4","5","5","4","2","3","1","2","1","2","2","1","0","1","0","1","1","1","0","1","0","0","0","1","0","0","0","5","2","1","2","1","4","4","2","3","1","1","783896727882305537","杜","253","","","","","","","","","","","","","","","","","","","","","","","","","","","","","","feedback_test","","","","","","","","","","","",""
"559","","f","psychophysics","41","206728","0.0-7.0-0.0-1.0-0.0-0.16","4","4","3","3","4","4","3","4","4","4","4","4","5","5","5","5","5","4","5","5","4","2","3","1","2","1","2","2","1","0","1","0","1","1","1","0","1","0","0","0","1","0","0","0","5","2","1","2","1","4","4","2","3","1","1","783896727882305537","杜","253","","","","nonmatch","","","","","","","","","","","","","","key","f","16.651612903225555","640","356","f","true","nonmatch","img/circle.png","六边","圆形","ALT1_1","prac_ALT1_1","","","","","","","","","","","",""
"null","<span style='color:GreenYellow; font-size: 70px;'>正确! </span>","null","html-keyboard-response","42","207230","0.0-7.0-0.0-1.0-0.0-1.16","4","4","3","3","4","4","3","4","4","4","4","4","5","5","5","5","5","4","5","5","4","2","3","1","2","1","2","2","1","0","1","0","1","1","1","0","1","0","0","0","1","0","0","0","5","2","1","2","1","4","4","2","3","1","1","783896727882305537","杜","253","","","","","","","","","","","","","","","","","","","","","","","","","","","","","","feedback_test","","","","","","","","","","","",""
"500","","f","psychophysics","43","208733","0.0-7.0-0.0-1.0-0.0-0.17","4","4","3","3","4","4","3","4","4","4","4","4","5","5","5","5","5","4","5","5","4","2","3","1","2","1","2","2","1","0","1","0","1","1","1","0","1","0","0","0","1","0","0","0","5","2","1","2","1","4","4","2","3","1","1","783896727882305537","杜","253","","","","nonmatch","","","","","","","","","","","","","","key","f","16.65280898876411","640","356","f","true","nonmatch","img/circle.png","方形","圆形","ALT1_1","prac_ALT1_1","","","","","","","","","","","",""
"null","<span style='color:GreenYellow; font-size: 70px;'>正确! </span>","null","html-keyboard-response","44","209234","0.0-7.0-0.0-1.0-0.0-1.17","4","4","3","3","4","4","3","4","4","4","4","4","5","5","5","5","5","4","5","5","4","2","3","1","2","1","2","2","1","0","1","0","1","1","1","0","1","0","0","0","1","0","0","0","5","2","1","2","1","4","4","2","3","1","1","783896727882305537","杜","253","","","","","","","","","","","","","","","","","","","","","","","","","","","","","","feedback_test","","","","","","","","","","","",""
"454","","j","psychophysics","45","210691","0.0-7.0-0.0-1.0-0.0-0.18","4","4","3","3","4","4","3","4","4","4","4","4","5","5","5","5","5","4","5","5","4","2","3","1","2","1","2","2","1","0","1","0","1","1","1","0","1","0","0","0","1","0","0","0","5","2","1","2","1","4","4","2","3","1","1","783896727882305537","杜","253","","","","match","","","","","","","","","","","","","","key","j","16.65402298850568","640","356","f","false","nonmatch","img/triangle.png","方形","三角","ALT1_1","prac_ALT1_1","","","","","","","","","","","",""
"null","<span style='color:red; font-size: 70px;'>错误! </span>","null","html-keyboard-response","46","211194","0.0-7.0-0.0-1.0-0.0-1.18","4","4","3","3","4","4","3","4","4","4","4","4","5","5","5","5","5","4","5","5","4","2","3","1","2","1","2","2","1","0","1","0","1","1","1","0","1","0","0","0","1","0","0","0","5","2","1","2","1","4","4","2","3","1","1","783896727882305537","杜","253","","","","","","","","","","","","","","","","","","","","","","","","","","","","","","feedback_test","","","","","","","","","","","",""
"601","","f","psychophysics","47","212797","0.0-7.0-0.0-1.0-0.0-0.19","4","4","3","3","4","4","3","4","4","4","4","4","5","5","5","5","5","4","5","5","4","2","3","1","2","1","2","2","1","0","1","0","1","1","1","0","1","0","0","0","1","0","0","0","5","2","1","2","1","4","4","2","3","1","1","783896727882305537","杜","253","","","","nonmatch","","","","","","","","","","","","","","key","f","16.65368421052638","640","356","j","false","match","img/hexagon.png","六边","六边","ALT1_1","prac_ALT1_1","","","","","","","","","","","",""
"null","<span style='color:red; font-size: 70px;'>错误! </span>","null","html-keyboard-response","48","213299","0.0-7.0-0.0-1.0-0.0-1.19","4","4","3","3","4","4","3","4","4","4","4","4","5","5","5","5","5","4","5","5","4","2","3","1","2","1","2","2","1","0","1","0","1","1","1","0","1","0","0","0","1","0","0","0","5","2","1","2","1","4","4","2","3","1","1","783896727882305537","杜","253","","","","","","","","","","","","","","","","","","","","","","","","","","","","","","feedback_test","","","","","","","","","","","",""
"464","","f","psychophysics","49","214766","0.0-7.0-0.0-1.0-0.0-0.20","4","4","3","3","4","4","3","4","4","4","4","4","5","5","5","5","5","4","5","5","4","2","3","1","2","1","2","2","1","0","1","0","1","1","1","0","1","0","0","0","1","0","0","0","5","2","1","2","1","4","4","2","3","1","1","783896727882305537","杜","253","","","","nonmatch","","","","","","","","","","","","","","key","f","16.655172413793103","640","356","j","false","match","img/hexagon.png","六边","六边","ALT1_1","prac_ALT1_1","","","","","","","","","","","",""
"null","<span style='color:red; font-size: 70px;'>错误! </span>","null","html-keyboard-response","50","215268","0.0-7.0-0.0-1.0-0.0-1.20","4","4","3","3","4","4","3","4","4","4","4","4","5","5","5","5","5","4","5","5","4","2","3","1","2","1","2","2","1","0","1","0","1","1","1","0","1","0","0","0","1","0","0","0","5","2","1","2","1","4","4","2","3","1","1","783896727882305537","杜","253","","","","","","","","","","","","","","","","","","","","","","","","","","","","","","feedback_test","","","","","","","","","","","",""
"575","","f","psychophysics","51","216843","0.0-7.0-0.0-1.0-0.0-0.21","4","4","3","3","4","4","3","4","4","4","4","4","5","5","5","5","5","4","5","5","4","2","3","1","2","1","2","2","1","0","1","0","1","1","1","0","1","0","0","0","1","0","0","0","5","2","1","2","1","4","4","2","3","1","1","783896727882305537","杜","253","","","","nonmatch","","","","","","","","","","","","","","key","f","16.651612903225868","640","356","j","false","match","img/triangle.png","三角","三角","ALT1_1","prac_ALT1_1","","","","","","","","","","","",""
"null","<span style='color:red; font-size: 70px;'>错误! </span>","null","html-keyboard-response","52","217344","0.0-7.0-0.0-1.0-0.0-1.21","4","4","3","3","4","4","3","4","4","4","4","4","5","5","5","5","5","4","5","5","4","2","3","1","2","1","2","2","1","0","1","0","1","1","1","0","1","0","0","0","1","0","0","0","5","2","1","2","1","4","4","2","3","1","1","783896727882305537","杜","253","","","","","","","","","","","","","","","","","","","","","","","","","","","","","","feedback_test","","","","","","","","","","","",""
"407","","j","psychophysics","53","218754","0.0-7.0-0.0-1.0-0.0-0.22","4","4","3","3","4","4","3","4","4","4","4","4","5","5","5","5","5","4","5","5","4","2","3","1","2","1","2","2","1","0","1","0","1","1","1","0","1","0","0","0","1","0","0","0","5","2","1","2","1","4","4","2","3","1","1","783896727882305537","杜","253","","","","match","","","","","","","","","","","","","","key","j","16.647619047618978","640","356","j","true","match","img/triangle.png","三角","三角","ALT1_1","prac_ALT1_1","","","","","","","","","","","",""
"null","<span style='color:GreenYellow; font-size: 70px;'>正确! </span>","null","html-keyboard-response","54","219255","0.0-7.0-0.0-1.0-0.0-1.22","4","4","3","3","4","4","3","4","4","4","4","4","5","5","5","5","5","4","5","5","4","2","3","1","2","1","2","2","1","0","1","0","1","1","1","0","1","0","0","0","1","0","0","0","5","2","1","2","1","4","4","2","3","1","1","783896727882305537","杜","253","","","","","","","","","","","","","","","","","","","","","","","","","","","","","","feedback_test","","","","","","","","","","","",""
"398","","j","psychophysics","55","220655","0.0-7.0-0.0-1.0-0.0-0.23","4","4","3","3","4","4","3","4","4","4","4","4","5","5","5","5","5","4","5","5","4","2","3","1","2","1","2","2","1","0","1","0","1","1","1","0","1","0","0","0","1","0","0","0","5","2","1","2","1","4","4","2","3","1","1","783896727882305537","杜","253","","","","match","","","","","","","","","","","","","","key","j","16.65542168674692","640","356","j","true","match","img/triangle.png","三角","三角","ALT1_1","prac_ALT1_1","","","","","","","","","","","",""
"null","<span style='color:GreenYellow; font-size: 70px;'>正确! </span>","null","html-keyboard-response","56","221156","0.0-7.0-0.0-1.0-0.0-1.23","4","4","3","3","4","4","3","4","4","4","4","4","5","5","5","5","5","4","5","5","4","2","3","1","2","1","2","2","1","0","1","0","1","1","1","0","1","0","0","0","1","0","0","0","5","2","1","2","1","4","4","2","3","1","1","783896727882305537","杜","253","","","","","","","","","","","","","","","","","","","","","","","","","","","","","","feedback_test","","","","","","","","","","","",""
"405","","j","psychophysics","57","222564","0.0-7.0-0.0-1.0-0.0-0.24","4","4","3","3","4","4","3","4","4","4","4","4","5","5","5","5","5","4","5","5","4","2","3","1","2","1","2","2","1","0","1","0","1","1","1","0","1","0","0","0","1","0","0","0","5","2","1","2","1","4","4","2","3","1","1","783896727882305537","杜","253","","","","match","","","","","","","","","","","","","","key","j","16.654761904761905","640","356","f","false","nonmatch","img/square.png","三角","方形","ALT1_1","prac_ALT1_1","","","","","","","","","","","",""
"null","<span style='color:red; font-size: 70px;'>错误! </span>","null","html-keyboard-response","58","223065","0.0-7.0-0.0-1.0-0.0-1.24","4","4","3","3","4","4","3","4","4","4","4","4","5","5","5","5","5","4","5","5","4","2","3","1","2","1","2","2","1","0","1","0","1","1","1","0","1","0","0","0","1","0","0","0","5","2","1","2","1","4","4","2","3","1","1","783896727882305537","杜","253","","","","","","","","","","","","","","","","","","","","","","","","","","","","","","feedback_test","","","","","","","","","","","",""
"370","","j","psychophysics","59","224436","0.0-7.0-0.0-1.0-0.0-0.25","4","4","3","3","4","4","3","4","4","4","4","4","5","5","5","5","5","4","5","5","4","2","3","1","2","1","2","2","1","0","1","0","1","1","1","0","1","0","0","0","1","0","0","0","5","2","1","2","1","4","4","2","3","1","1","783896727882305537","杜","253","","","","match","","","","","","","","","","","","","","key","j","16.650617283950762","640","356","j","true","match","img/triangle.png","三角","三角","ALT1_1","prac_ALT1_1","","","","","","","","","","","",""
"null","<span style='color:GreenYellow; font-size: 70px;'>正确! </span>","null","html-keyboard-response","60","224937","0.0-7.0-0.0-1.0-0.0-1.25","4","4","3","3","4","4","3","4","4","4","4","4","5","5","5","5","5","4","5","5","4","2","3","1","2","1","2","2","1","0","1","0","1","1","1","0","1","0","0","0","1","0","0","0","5","2","1","2","1","4","4","2","3","1","1","783896727882305537","杜","253","","","","","","","","","","","","","","","","","","","","","","","","","","","","","","feedback_test","","","","","","","","","","","",""
"527","","f","psychophysics","61","226467","0.0-7.0-0.0-1.0-0.0-0.26","4","4","3","3","4","4","3","4","4","4","4","4","5","5","5","5","5","4","5","5","4","2","3","1","2","1","2","2","1","0","1","0","1","1","1","0","1","0","0","0","1","0","0","0","5","2","1","2","1","4","4","2","3","1","1","783896727882305537","杜","253","","","","nonmatch","","","","","","","","","","","","","","key","f","16.65494505494512","640","356","j","false","match","img/circle.png","圆形","圆形","ALT1_1","prac_ALT1_1","","","","","","","","","","","",""
"null","<span style='color:red; font-size: 70px;'>错误! </span>","null","html-keyboard-response","62","226969","0.0-7.0-0.0-1.0-0.0-1.26","4","4","3","3","4","4","3","4","4","4","4","4","5","5","5","5","5","4","5","5","4","2","3","1","2","1","2","2","1","0","1","0","1","1","1","0","1","0","0","0","1","0","0","0","5","2","1","2","1","4","4","2","3","1","1","783896727882305537","杜","253","","","","","","","","","","","","","","","","","","","","","","","","","","","","","","feedback_test","","","","","","","","","","","",""
"562","","j","psychophysics","63","228532","0.0-7.0-0.0-1.0-0.0-0.27","4","4","3","3","4","4","3","4","4","4","4","4","5","5","5","5","5","4","5","5","4","2","3","1","2","1","2","2","1","0","1","0","1","1","1","0","1","0","0","0","1","0","0","0","5","2","1","2","1","4","4","2","3","1","1","783896727882305537","杜","253","","","","match","","","","","","","","","","","","","","key","j","16.65376344086009","640","356","f","false","nonmatch","img/circle.png","六边","圆形","ALT1_1","prac_ALT1_1","","","","","","","","","","","",""
"null","<span style='color:red; font-size: 70px;'>错误! </span>","null","html-keyboard-response","64","229034","0.0-7.0-0.0-1.0-0.0-1.27","4","4","3","3","4","4","3","4","4","4","4","4","5","5","5","5","5","4","5","5","4","2","3","1","2","1","2","2","1","0","1","0","1","1","1","0","1","0","0","0","1","0","0","0","5","2","1","2","1","4","4","2","3","1","1","783896727882305537","杜","253","","","","","","","","","","","","","","","","","","","","","","","","","","","","","","feedback_test","","","","","","","","","","","",""
"411","","f","psychophysics","65","230448","0.0-7.0-0.0-1.0-0.0-0.28","4","4","3","3","4","4","3","4","4","4","4","4","5","5","5","5","5","4","5","5","4","2","3","1","2","1","2","2","1","0","1","0","1","1","1","0","1","0","0","0","1","0","0","0","5","2","1","2","1","4","4","2","3","1","1","783896727882305537","杜","253","","","","nonmatch","","","","","","","","","","","","","","key","f","16.64642857142878","640","356","f","true","nonmatch","img/hexagon.png","方形","六边","ALT1_1","prac_ALT1_1","","","","","","","","","","","",""
"null","<span style='color:GreenYellow; font-size: 70px;'>正确! </span>","null","html-keyboard-response","66","230950","0.0-7.0-0.0-1.0-0.0-1.28","4","4","3","3","4","4","3","4","4","4","4","4","5","5","5","5","5","4","5","5","4","2","3","1","2","1","2","2","1","0","1","0","1","1","1","0","1","0","0","0","1","0","0","0","5","2","1","2","1","4","4","2","3","1","1","783896727882305537","杜","253","","","","","","","","","","","","","","","","","","","","","","","","","","","","","","feedback_test","","","","","","","","","","","",""
"498","","f","psychophysics","67","232450","0.0-7.0-0.0-1.0-0.0-0.29","4","4","3","3","4","4","3","4","4","4","4","4","5","5","5","5","5","4","5","5","4","2","3","1","2","1","2","2","1","0","1","0","1","1","1","0","1","0","0","0","1","0","0","0","5","2","1","2","1","4","4","2","3","1","1","783896727882305537","杜","253","","","","nonmatch","","","","","","","","","","","","","","key","f","16.645454545454744","640","356","j","false","match","img/triangle.png","三角","三角","ALT1_1","prac_ALT1_1","","","","","","","","","","","",""
"null","<span style='color:red; font-size: 70px;'>错误! </span>","null","html-keyboard-response","68","232952","0.0-7.0-0.0-1.0-0.0-1.29","4","4","3","3","4","4","3","4","4","4","4","4","5","5","5","5","5","4","5","5","4","2","3","1","2","1","2","2","1","0","1","0","1","1","1","0","1","0","0","0","1","0","0","0","5","2","1","2","1","4","4","2","3","1","1","783896727882305537","杜","253","","","","","","","","","","","","","","","","","","","","","","","","","","","","","","feedback_test","","","","","","","","","","","",""
"510","","j","psychophysics","69","234464","0.0-7.0-0.0-1.0-0.0-0.30","4","4","3","3","4","4","3","4","4","4","4","4","5","5","5","5","5","4","5","5","4","2","3","1","2","1","2","2","1","0","1","0","1","1","1","0","1","0","0","0","1","0","0","0","5","2","1","2","1","4","4","2","3","1","1","783896727882305537","杜","253","","","","match","","","","","","","","","","","","","","key","j","16.653932584269793","640","356","j","true","match","img/triangle.png","三角","三角","ALT1_1","prac_ALT1_1","","","","","","","","","","","",""
"null","<span style='color:GreenYellow; font-size: 70px;'>正确! </span>","null","html-keyboard-response","70","234966","0.0-7.0-0.0-1.0-0.0-1.30","4","4","3","3","4","4","3","4","4","4","4","4","5","5","5","5","5","4","5","5","4","2","3","1","2","1","2","2","1","0","1","0","1","1","1","0","1","0","0","0","1","0","0","0","5","2","1","2","1","4","4","2","3","1","1","783896727882305537","杜","253","","","","","","","","","","","","","","","","","","","","","","","","","","","","","","feedback_test","","","","","","","","","","","",""
"408","","j","psychophysics","71","236374","0.0-7.0-0.0-1.0-0.0-0.31","4","4","3","3","4","4","3","4","4","4","4","4","5","5","5","5","5","4","5","5","4","2","3","1","2","1","2","2","1","0","1","0","1","1","1","0","1","0","0","0","1","0","0","0","5","2","1","2","1","4","4","2","3","1","1","783896727882305537","杜","253","","","","match","","","","","","","","","","","","","","key","j","16.649397590361374","640","356","f","false","nonmatch","img/triangle.png","方形","三角","ALT1_1","prac_ALT1_1","","","","","","","","","","","",""
"null","<span style='color:red; font-size: 70px;'>错误! </span>","null","html-keyboard-response","72","236875","0.0-7.0-0.0-1.0-0.0-1.31","4","4","3","3","4","4","3","4","4","4","4","4","5","5","5","5","5","4","5","5","4","2","3","1","2","1","2","2","1","0","1","0","1","1","1","0","1","0","0","0","1","0","0","0","5","2","1","2","1","4","4","2","3","1","1","783896727882305537","杜","253","","","","","","","","","","","","","","","","","","","","","","","","","","","","","","feedback_test","","","","","","","","","","","",""
"523","","j","psychophysics","73","238400","0.0-7.0-0.0-1.0-0.0-0.32","4","4","3","3","4","4","3","4","4","4","4","4","5","5","5","5","5","4","5","5","4","2","3","1","2","1","2","2","1","0","1","0","1","1","1","0","1","0","0","0","1","0","0","0","5","2","1","2","1","4","4","2","3","1","1","783896727882305537","杜","253","","","","match","","","","","","","","","","","","","","key","j","16.653846153846153","640","356","f","false","nonmatch","img/hexagon.png","三角","六边","ALT1_1","prac_ALT1_1","","","","","","","","","","","",""
"null","<span style='color:red; font-size: 70px;'>错误! </span>","null","html-keyboard-response","74","238901","0.0-7.0-0.0-1.0-0.0-1.32","4","4","3","3","4","4","3","4","4","4","4","4","5","5","5","5","5","4","5","5","4","2","3","1","2","1","2","2","1","0","1","0","1","1","1","0","1","0","0","0","1","0","0","0","5","2","1","2","1","4","4","2","3","1","1","783896727882305537","杜","253","","","","","","","","","","","","","","","","","","","","","","","","","","","","","","feedback_test","","","","","","","","","","","",""
"583","","j","psychophysics","75","240484","0.0-7.0-0.0-1.0-0.0-0.33","4","4","3","3","4","4","3","4","4","4","4","4","5","5","5","5","5","4","5","5","4","2","3","1","2","1","2","2","1","0","1","0","1","1","1","0","1","0","0","0","1","0","0","0","5","2","1","2","1","4","4","2","3","1","1","783896727882305537","杜","253","","","","match","","","","","","","","","","","","","","key","j","16.65319148936164","640","356","j","true","match","img/circle.png","圆形","圆形","ALT1_1","prac_ALT1_1","","","","","","","","","","","",""
"null","<span style='color:GreenYellow; font-size: 70px;'>正确! </span>","null","html-keyboard-response","76","240985","0.0-7.0-0.0-1.0-0.0-1.33","4","4","3","3","4","4","3","4","4","4","4","4","5","5","5","5","5","4","5","5","4","2","3","1","2","1","2","2","1","0","1","0","1","1","1","0","1","0","0","0","1","0","0","0","5","2","1","2","1","4","4","2","3","1","1","783896727882305537","杜","253","","","","","","","","","","","","","","","","","","","","","","","","","","","","","","feedback_test","","","","","","","","","","","",""
"501","","f","psychophysics","77","242487","0.0-7.0-0.0-1.0-0.0-0.34","4","4","3","3","4","4","3","4","4","4","4","4","5","5","5","5","5","4","5","5","4","2","3","1","2","1","2","2","1","0","1","0","1","1","1","0","1","0","0","0","1","0","0","0","5","2","1","2","1","4","4","2","3","1","1","783896727882305537","杜","253","","","","nonmatch","","","","","","","","","","","","","","key","f","16.651685393258425","640","356","j","false","match","img/hexagon.png","六边","六边","ALT1_1","prac_ALT1_1","","","","","","","","","","","",""
"null","<span style='color:red; font-size: 70px;'>错误! </span>","null","html-keyboard-response","78","242988","0.0-7.0-0.0-1.0-0.0-1.34","4","4","3","3","4","4","3","4","4","4","4","4","5","5","5","5","5","4","5","5","4","2","3","1","2","1","2","2","1","0","1","0","1","1","1","0","1","0","0","0","1","0","0","0","5","2","1","2","1","4","4","2","3","1","1","783896727882305537","杜","253","","","","","","","","","","","","","","","","","","","","","","","","","","","","","","feedback_test","","","","","","","","","","","",""
"578","","j","psychophysics","79","244569","0.0-7.0-0.0-1.0-0.0-0.35","4","4","3","3","4","4","3","4","4","4","4","4","5","5","5","5","5","4","5","5","4","2","3","1","2","1","2","2","1","0","1","0","1","1","1","0","1","0","0","0","1","0","0","0","5","2","1","2","1","4","4","2","3","1","1","783896727882305537","杜","253","","","","match","","","","","","","","","","","","","","key","j","16.656382978723528","640","356","f","false","nonmatch","img/square.png","六边","方形","ALT1_1","prac_ALT1_1","","","","","","","","","","","",""
"null","<span style='color:red; font-size: 70px;'>错误! </span>","null","html-keyboard-response","80","245070","0.0-7.0-0.0-1.0-0.0-1.35","4","4","3","3","4","4","3","4","4","4","4","4","5","5","5","5","5","4","5","5","4","2","3","1","2","1","2","2","1","0","1","0","1","1","1","0","1","0","0","0","1","0","0","0","5","2","1","2","1","4","4","2","3","1","1","783896727882305537","杜","253","","","","","","","","","","","","","","","","","","","","","","","","","","","","","","feedback_test","","","","","","","","","","","",""
"618","","j","psychophysics","81","246689","0.0-7.0-0.0-1.0-0.0-0.36","4","4","3","3","4","4","3","4","4","4","4","4","5","5","5","5","5","4","5","5","4","2","3","1","2","1","2","2","1","0","1","0","1","1","1","0","1","0","0","0","1","0","0","0","5","2","1","2","1","4","4","2","3","1","1","783896727882305537","杜","253","","","","match","","","","","","","","","","","","","","key","j","16.64742268041225","640","356","j","true","match","img/square.png","方形","方形","ALT1_1","prac_ALT1_1","","","","","","","","","","","",""
"null","<span style='color:GreenYellow; font-size: 70px;'>正确! </span>","null","html-keyboard-response","82","247191","0.0-7.0-0.0-1.0-0.0-1.36","4","4","3","3","4","4","3","4","4","4","4","4","5","5","5","5","5","4","5","5","4","2","3","1","2","1","2","2","1","0","1","0","1","1","1","0","1","0","0","0","1","0","0","0","5","2","1","2","1","4","4","2","3","1","1","783896727882305537","杜","253","","","","","","","","","","","","","","","","","","","","","","","","","","","","","","feedback_test","","","","","","","","","","","",""
"500","","j","psychophysics","83","248693","0.0-7.0-0.0-1.0-0.0-0.37","4","4","3","3","4","4","3","4","4","4","4","4","5","5","5","5","5","4","5","5","4","2","3","1","2","1","2","2","1","0","1","0","1","1","1","0","1","0","0","0","1","0","0","0","5","2","1","2","1","4","4","2","3","1","1","783896727882305537","杜","253","","","","match","","","","","","","","","","","","","","key","j","16.65056179775307","640","356","f","false","nonmatch","img/triangle.png","六边","三角","ALT1_1","prac_ALT1_1","","","","","","","","","","","",""
"null","<span style='color:red; font-size: 70px;'>错误! </span>","null","html-keyboard-response","84","249195","0.0-7.0-0.0-1.0-0.0-1.37","4","4","3","3","4","4","3","4","4","4","4","4","5","5","5","5","5","4","5","5","4","2","3","1","2","1","2","2","1","0","1","0","1","1","1","0","1","0","0","0","1","0","0","0","5","2","1","2","1","4","4","2","3","1","1","783896727882305537","杜","253","","","","","","","","","","","","","","","","","","","","","","","","","","","","","","feedback_test","","","","","","","","","","","",""
"462","","j","psychophysics","85","250658","0.0-7.0-0.0-1.0-0.0-0.38","4","4","3","3","4","4","3","4","4","4","4","4","5","5","5","5","5","4","5","5","4","2","3","1","2","1","2","2","1","0","1","0","1","1","1","0","1","0","0","0","1","0","0","0","5","2","1","2","1","4","4","2","3","1","1","783896727882305537","杜","253","","","","match","","","","","","","","","","","","","","key","j","16.655172413793103","640","356","j","true","match","img/circle.png","圆形","圆形","ALT1_1","prac_ALT1_1","","","","","","","","","","","",""
"null","<span style='color:GreenYellow; font-size: 70px;'>正确! </span>","null","html-keyboard-response","86","251159","0.0-7.0-0.0-1.0-0.0-1.38","4","4","3","3","4","4","3","4","4","4","4","4","5","5","5","5","5","4","5","5","4","2","3","1","2","1","2","2","1","0","1","0","1","1","1","0","1","0","0","0","1","0","0","0","5","2","1","2","1","4","4","2","3","1","1","783896727882305537","杜","253","","","","","","","","","","","","","","","","","","","","","","","","","","","","","","feedback_test","","","","","","","","","","","",""
"556","","j","psychophysics","87","252717","0.0-7.0-0.0-1.0-0.0-0.39","4","4","3","3","4","4","3","4","4","4","4","4","5","5","5","5","5","4","5","5","4","2","3","1","2","1","2","2","1","0","1","0","1","1","1","0","1","0","0","0","1","0","0","0","5","2","1","2","1","4","4","2","3","1","1","783896727882305537","杜","253","","","","match","","","","","","","","","","","","","","key","j","16.65376344086009","640","356","j","true","match","img/square.png","方形","方形","ALT1_1","prac_ALT1_1","","","","","","","","","","","",""
"null","<span style='color:GreenYellow; font-size: 70px;'>正确! </span>","null","html-keyboard-response","88","253218","0.0-7.0-0.0-1.0-0.0-1.39","4","4","3","3","4","4","3","4","4","4","4","4","5","5","5","5","5","4","5","5","4","2","3","1","2","1","2","2","1","0","1","0","1","1","1","0","1","0","0","0","1","0","0","0","5","2","1","2","1","4","4","2","3","1","1","783896727882305537","杜","253","","","","","","","","","","","","","","","","","","","","","","","","","","","","","","feedback_test","","","","","","","","","","","",""
"468","","j","psychophysics","89","254689","0.0-7.0-0.0-1.0-0.0-0.40","4","4","3","3","4","4","3","4","4","4","4","4","5","5","5","5","5","4","5","5","4","2","3","1","2","1","2","2","1","0","1","0","1","1","1","0","1","0","0","0","1","0","0","0","5","2","1","2","1","4","4","2","3","1","1","783896727882305537","杜","253","","","","match","","","","","","","","","","","","","","key","j","16.650574712643746","640","356","j","true","match","img/square.png","方形","方形","ALT1_1","prac_ALT1_1","","","","","","","","","","","",""
"null","<span style='color:GreenYellow; font-size: 70px;'>正确! </span>","null","html-keyboard-response","90","255190","0.0-7.0-0.0-1.0-0.0-1.40","4","4","3","3","4","4","3","4","4","4","4","4","5","5","5","5","5","4","5","5","4","2","3","1","2","1","2","2","1","0","1","0","1","1","1","0","1","0","0","0","1","0","0","0","5","2","1","2","1","4","4","2","3","1","1","783896727882305537","杜","253","","","","","","","","","","","","","","","","","","","","","","","","","","","","","","feedback_test","","","","","","","","","","","",""
"543","","f","psychophysics","91","256734","0.0-7.0-0.0-1.0-0.0-0.41","4","4","3","3","4","4","3","4","4","4","4","4","5","5","5","5","5","4","5","5","4","2","3","1","2","1","2","2","1","0","1","0","1","1","1","0","1","0","0","0","1","0","0","0","5","2","1","2","1","4","4","2","3","1","1","783896727882305537","杜","253","","","","nonmatch","","","","","","","","","","","","","","key","f","16.65326086956528","640","356","f","true","nonmatch","img/triangle.png","圆形","三角","ALT1_1","prac_ALT1_1","","","","","","","","","","","",""
"null","<span style='color:GreenYellow; font-size: 70px;'>正确! </span>","null","html-keyboard-response","92","257241","0.0-7.0-0.0-1.0-0.0-1.41","4","4","3","3","4","4","3","4","4","4","4","4","5","5","5","5","5","4","5","5","4","2","3","1","2","1","2","2","1","0","1","0","1","1","1","0","1","0","0","0","1","0","0","0","5","2","1","2","1","4","4","2","3","1","1","783896727882305537","杜","253","","","","","","","","","","","","","","","","","","","","","","","","","","","","","","feedback_test","","","","","","","","","","","",""
"735","","j","psychophysics","93","258978","0.0-7.0-0.0-1.0-0.0-0.42","4","4","3","3","4","4","3","4","4","4","4","4","5","5","5","5","5","4","5","5","4","2","3","1","2","1","2","2","1","0","1","0","1","1","1","0","1","0","0","0","1","0","0","0","5","2","1","2","1","4","4","2","3","1","1","783896727882305537","杜","253","","","","match","","","","","","","","","","","","","","key","j","16.647115384615272","640","356","j","true","match","img/hexagon.png","六边","六边","ALT1_1","prac_ALT1_1","","","","","","","","","","","",""
"null","<span style='color:GreenYellow; font-size: 70px;'>正确! </span>","null","html-keyboard-response","94","259479","0.0-7.0-0.0-1.0-0.0-1.42","4","4","3","3","4","4","3","4","4","4","4","4","5","5","5","5","5","4","5","5","4","2","3","1","2","1","2","2","1","0","1","0","1","1","1","0","1","0","0","0","1","0","0","0","5","2","1","2","1","4","4","2","3","1","1","783896727882305537","杜","253","","","","","","","","","","","","","","","","","","","","","","","","","","","","","","feedback_test","","","","","","","","","","","",""
"541","","f","psychophysics","95","261022","0.0-7.0-0.0-1.0-0.0-0.43","4","4","3","3","4","4","3","4","4","4","4","4","5","5","5","5","5","4","5","5","4","2","3","1","2","1","2","2","1","0","1","0","1","1","1","0","1","0","0","0","1","0","0","0","5","2","1","2","1","4","4","2","3","1","1","783896727882305537","杜","253","","","","nonmatch","","","","","","","","","","","","","","key","f","16.65274725274719","640","356","f","true","nonmatch","img/hexagon.png","圆形","六边","ALT1_1","prac_ALT1_1","","","","","","","","","","","",""
"null","<span style='color:GreenYellow; font-size: 70px;'>正确! </span>","null","html-keyboard-response","96","261523","0.0-7.0-0.0-1.0-0.0-1.43","4","4","3","3","4","4","3","4","4","4","4","4","5","5","5","5","5","4","5","5","4","2","3","1","2","1","2","2","1","0","1","0","1","1","1","0","1","0","0","0","1","0","0","0","5","2","1","2","1","4","4","2","3","1","1","783896727882305537","杜","253","","","","","","","","","","","","","","","","","","","","","","","","","","","","","","feedback_test","","","","","","","","","","","",""
"520","","f","psychophysics","97","263043","0.0-7.0-0.0-1.0-0.0-0.44","4","4","3","3","4","4","3","4","4","4","4","4","5","5","5","5","5","4","5","5","4","2","3","1","2","1","2","2","1","0","1","0","1","1","1","0","1","0","0","0","1","0","0","0","5","2","1","2","1","4","4","2","3","1","1","783896727882305537","杜","253","","","","nonmatch","","","","","","","","","","","","","","key","f","16.651111111110854","640","356","f","true","nonmatch","img/circle.png","三角","圆形","ALT1_1","prac_ALT1_1","","","","","","","","","","","",""
"null","<span style='color:GreenYellow; font-size: 70px;'>正确! </span>","null","html-keyboard-response","98","263544","0.0-7.0-0.0-1.0-0.0-1.44","4","4","3","3","4","4","3","4","4","4","4","4","5","5","5","5","5","4","5","5","4","2","3","1","2","1","2","2","1","0","1","0","1","1","1","0","1","0","0","0","1","0","0","0","5","2","1","2","1","4","4","2","3","1","1","783896727882305537","杜","253","","","","","","","","","","","","","","","","","","","","","","","","","","","","","","feedback_test","","","","","","","","","","","",""
"721","","j","psychophysics","99","265268","0.0-7.0-0.0-1.0-0.0-0.45","4","4","3","3","4","4","3","4","4","4","4","4","5","5","5","5","5","4","5","5","4","2","3","1","2","1","2","2","1","0","1","0","1","1","1","0","1","0","0","0","1","0","0","0","5","2","1","2","1","4","4","2","3","1","1","783896727882305537","杜","253","","","","match","","","","","","","","","","","","","","key","j","16.65294117647036","640","356","j","true","match","img/hexagon.png","六边","六边","ALT1_1","prac_ALT1_1","","","","","","","","","","","",""
"null","<span style='color:GreenYellow; font-size: 70px;'>正确! </span>","null","html-keyboard-response","100","265769","0.0-7.0-0.0-1.0-0.0-1.45","4","4","3","3","4","4","3","4","4","4","4","4","5","5","5","5","5","4","5","5","4","2","3","1","2","1","2","2","1","0","1","0","1","1","1","0","1","0","0","0","1","0","0","0","5","2","1","2","1","4","4","2","3","1","1","783896727882305537","杜","253","","","","","","","","","","","","","","","","","","","","","","","","","","","","","","feedback_test","","","","","","","","","","","",""
"707","","f","psychophysics","101","267477","0.0-7.0-0.0-1.0-0.0-0.46","4","4","3","3","4","4","3","4","4","4","4","4","5","5","5","5","5","4","5","5","4","2","3","1","2","1","2","2","1","0","1","0","1","1","1","0","1","0","0","0","1","0","0","0","5","2","1","2","1","4","4","2","3","1","1","783896727882305537","杜","253","","","","nonmatch","","","","","","","","","","","","","","key","f","16.652475247524407","640","356","f","true","nonmatch","img/circle.png","方形","圆形","ALT1_1","prac_ALT1_1","","","","","","","","","","","",""
"null","<span style='color:GreenYellow; font-size: 70px;'>正确! </span>","null","html-keyboard-response","102","267979","0.0-7.0-0.0-1.0-0.0-1.46","4","4","3","3","4","4","3","4","4","4","4","4","5","5","5","5","5","4","5","5","4","2","3","1","2","1","2","2","1","0","1","0","1","1","1","0","1","0","0","0","1","0","0","0","5","2","1","2","1","4","4","2","3","1","1","783896727882305537","杜","253","","","","","","","","","","","","","","","","","","","","","","","","","","","","","","feedback_test","","","","","","","","","","","",""
"587","","f","psychophysics","103","269569","0.0-7.0-0.0-1.0-0.0-0.47","4","4","3","3","4","4","3","4","4","4","4","4","5","5","5","5","5","4","5","5","4","2","3","1","2","1","2","2","1","0","1","0","1","1","1","0","1","0","0","0","1","0","0","0","5","2","1","2","1","4","4","2","3","1","1","783896727882305537","杜","253","","","","nonmatch","","","","","","","","","","","","","","key","f","16.647368421052633","640","356","f","true","nonmatch","img/square.png","圆形","方形","ALT1_1","prac_ALT1_1","","","","","","","","","","","",""
"null","<span style='color:GreenYellow; font-size: 70px;'>正确! </span>","null","html-keyboard-response","104","270071","0.0-7.0-0.0-1.0-0.0-1.47","4","4","3","3","4","4","3","4","4","4","4","4","5","5","5","5","5","4","5","5","4","2","3","1","2","1","2","2","1","0","1","0","1","1","1","0","1","0","0","0","1","0","0","0","5","2","1","2","1","4","4","2","3","1","1","783896727882305537","杜","253","","","","","","","","","","","","","","","","","","","","","","","","","","","","","","feedback_test","","","","","","","","","","","",""
"5425","<style>.context{color:white; font-size: 35px; line-height:40px}</style>                            <div><p class='context'>您正确回答了58% 的试次。</p><p class='context'>您的平均反应时为513毫秒。</p><p class='context'>按空格键继续。</p></div>"," ","html-keyboard-response","105","275500","0.0-7.0-0.0-1.0-1.0-0.0","4","4","3","3","4","4","3","4","4","4","4","4","5","5","5","5","5","4","5","5","4","2","3","1","2","1","2","2","1","0","1","0","1","1","1","0","1","0","0","0","1","0","0","0","5","2","1","2","1","4","4","2","3","1","1","783896727882305537","杜","253","","","","","","","","","","","","","","","","","","","","","","","","","","","","","","","","","","","","","","","","","",""
"11617","","","instructions","106","287122","0.0-7.0-0.0-1.0-1.0-1.0","4","4","3","3","4","4","3","4","4","4","4","4","5","5","5","5","5","4","5","5","4","2","3","1","2","1","2","2","1","0","1","0","1","1","1","0","1","0","0","0","1","0","0","0","5","2","1","2","1","4","4","2","3","1","1","783896727882305537","杜","253","","","","","","","","","","","","","","","","","[{""page_index"":0,""viewing_time"":4289},{""page_index"":1,""viewing_time"":5367},{""page_index"":2,""viewing_time"":1960}]","","","","","","","","","","","","","","","","","","","","","","","","",""
"621","","f","psychophysics","107","288745","0.0-7.0-0.0-1.1-0.1-0.48","4","4","3","3","4","4","3","4","4","4","4","4","5","5","5","5","5","4","5","5","4","2","3","1","2","1","2","2","1","0","1","0","1","1","1","0","1","0","0","0","1","0","0","0","5","2","1","2","1","4","4","2","3","1","1","783896727882305537","杜","253","","","","nonmatch","","","","","","","","","","","","","","key","f","16.649999999999636","640","356","f","true","nonmatch","img/square.png","三角","方形","ALT1_1","prac_ALT1_1","","","","","","","","","","","",""
"null","<span style='color:GreenYellow; font-size: 70px;'>正确! </span>","null","html-keyboard-response","108","289247","0.0-7.0-0.0-1.1-0.1-1.48","4","4","3","3","4","4","3","4","4","4","4","4","5","5","5","5","5","4","5","5","4","2","3","1","2","1","2","2","1","0","1","0","1","1","1","0","1","0","0","0","1","0","0","0","5","2","1","2","1","4","4","2","3","1","1","783896727882305537","杜","253","","","","","","","","","","","","","","","","","","","","","","","","","","","","","","feedback_test","","","","","","","","","","","",""
"581","","f","psychophysics","109","290829","0.0-7.0-0.0-1.1-0.1-0.49","4","4","3","3","4","4","3","4","4","4","4","4","5","5","5","5","5","4","5","5","4","2","3","1","2","1","2","2","1","0","1","0","1","1","1","0","1","0","0","0","1","0","0","0","5","2","1","2","1","4","4","2","3","1","1","783896727882305537","杜","253","","","","nonmatch","","","","","","","","","","","","","","key","f","16.651612903225555","640","356","j","false","match","img/hexagon.png","六边","六边","ALT1_1","prac_ALT1_1","","","","","","","","","","","",""
"null","<span style='color:red; font-size: 70px;'>错误! </span>","null","html-keyboard-response","110","291330","0.0-7.0-0.0-1.1-0.1-1.49","4","4","3","3","4","4","3","4","4","4","4","4","5","5","5","5","5","4","5","5","4","2","3","1","2","1","2","2","1","0","1","0","1","1","1","0","1","0","0","0","1","0","0","0","5","2","1","2","1","4","4","2","3","1","1","783896727882305537","杜","253","","","","","","","","","","","","","","","","","","","","","","","","","","","","","","feedback_test","","","","","","","","","","","",""
"558","","f","psychophysics","111","292891","0.0-7.0-0.0-1.1-0.1-0.50","4","4","3","3","4","4","3","4","4","4","4","4","5","5","5","5","5","4","5","5","4","2","3","1","2","1","2","2","1","0","1","0","1","1","1","0","1","0","0","0","1","0","0","0","5","2","1","2","1","4","4","2","3","1","1","783896727882305537","杜","253","","","","nonmatch","","","","","","","","","","","","","","key","f","16.652173913043477","640","356","f","true","nonmatch","img/hexagon.png","方形","六边","ALT1_1","prac_ALT1_1","","","","","","","","","","","",""
"null","<span style='color:GreenYellow; font-size: 70px;'>正确! </span>","null","html-keyboard-response","112","293393","0.0-7.0-0.0-1.1-0.1-1.50","4","4","3","3","4","4","3","4","4","4","4","4","5","5","5","5","5","4","5","5","4","2","3","1","2","1","2","2","1","0","1","0","1","1","1","0","1","0","0","0","1","0","0","0","5","2","1","2","1","4","4","2","3","1","1","783896727882305537","杜","253","","","","","","","","","","","","","","","","","","","","","","","","","","","","","","feedback_test","","","","","","","","","","","",""
"563","","j","psychophysics","113","294957","0.0-7.0-0.0-1.1-0.1-0.51","4","4","3","3","4","4","3","4","4","4","4","4","5","5","5","5","5","4","5","5","4","2","3","1","2","1","2","2","1","0","1","0","1","1","1","0","1","0","0","0","1","0","0","0","5","2","1","2","1","4","4","2","3","1","1","783896727882305537","杜","253","","","","match","","","","","","","","","","","","","","key","j","16.650000000000507","640","356","j","true","match","img/triangle.png","三角","三角","ALT1_1","prac_ALT1_1","","","","","","","","","","","",""
"null","<span style='color:GreenYellow; font-size: 70px;'>正确! </span>","null","html-keyboard-response","114","295459","0.0-7.0-0.0-1.1-0.1-1.51","4","4","3","3","4","4","3","4","4","4","4","4","5","5","5","5","5","4","5","5","4","2","3","1","2","1","2","2","1","0","1","0","1","1","1","0","1","0","0","0","1","0","0","0","5","2","1","2","1","4","4","2","3","1","1","783896727882305537","杜","253","","","","","","","","","","","","","","","","","","","","","","","","","","","","","","feedback_test","","","","","","","","","","","",""
"493","","f","psychophysics","115","296955","0.0-7.0-0.0-1.1-0.1-0.52","4","4","3","3","4","4","3","4","4","4","4","4","5","5","5","5","5","4","5","5","4","2","3","1","2","1","2","2","1","0","1","0","1","1","1","0","1","0","0","0","1","0","0","0","5","2","1","2","1","4","4","2","3","1","1","783896727882305537","杜","253","","","","nonmatch","","","","","","","","","","","","","","key","f","16.65454545454585","640","356","f","true","nonmatch","img/circle.png","六边","圆形","ALT1_1","prac_ALT1_1","","","","","","","","","","","",""
"null","<span style='color:GreenYellow; font-size: 70px;'>正确! </span>","null","html-keyboard-response","116","297456","0.0-7.0-0.0-1.1-0.1-1.52","4","4","3","3","4","4","3","4","4","4","4","4","5","5","5","5","5","4","5","5","4","2","3","1","2","1","2","2","1","0","1","0","1","1","1","0","1","0","0","0","1","0","0","0","5","2","1","2","1","4","4","2","3","1","1","783896727882305537","杜","253","","","","","","","","","","","","","","","","","","","","","","","","","","","","","","feedback_test","","","","","","","","","","","",""
"534","","f","psychophysics","117","298991","0.0-7.0-0.0-1.1-0.1-0.53","4","4","3","3","4","4","3","4","4","4","4","4","5","5","5","5","5","4","5","5","4","2","3","1","2","1","2","2","1","0","1","0","1","1","1","0","1","0","0","0","1","0","0","0","5","2","1","2","1","4","4","2","3","1","1","783896727882305537","杜","253","","","","nonmatch","","","","","","","","","","","","","","key","f","16.647252747253003","640","356","j","false","match","img/square.png","方形","方形","ALT1_1","prac_ALT1_1","","","","","","","","","","","",""
"null","<span style='color:red; font-size: 70px;'>错误! </span>","null","html-keyboard-response","118","299491","0.0-7.0-0.0-1.1-0.1-1.53","4","4","3","3","4","4","3","4","4","4","4","4","5","5","5","5","5","4","5","5","4","2","3","1","2","1","2","2","1","0","1","0","1","1","1","0","1","0","0","0","1","0","0","0","5","2","1","2","1","4","4","2","3","1","1","783896727882305537","杜","253","","","","","","","","","","","","","","","","","","","","","","","","","","","","","","feedback_test","","","","","","","","","","","",""
"488","","j","psychophysics","119","300981","0.0-7.0-0.0-1.1-0.1-0.54","4","4","3","3","4","4","3","4","4","4","4","4","5","5","5","5","5","4","5","5","4","2","3","1","2","1","2","2","1","0","1","0","1","1","1","0","1","0","0","0","1","0","0","0","5","2","1","2","1","4","4","2","3","1","1","783896727882305537","杜","253","","","","match","","","","","","","","","","","","","","key","j","16.65454545454519","640","356","j","true","match","img/square.png","方形","方形","ALT1_1","prac_ALT1_1","","","","","","","","","","","",""
"null","<span style='color:GreenYellow; font-size: 70px;'>正确! </span>","null","html-keyboard-response","120","301483","0.0-7.0-0.0-1.1-0.1-1.54","4","4","3","3","4","4","3","4","4","4","4","4","5","5","5","5","5","4","5","5","4","2","3","1","2","1","2","2","1","0","1","0","1","1","1","0","1","0","0","0","1","0","0","0","5","2","1","2","1","4","4","2","3","1","1","783896727882305537","杜","253","","","","","","","","","","","","","","","","","","","","","","","","","","","","","","feedback_test","","","","","","","","","","","",""
"564","","f","psychophysics","121","303048","0.0-7.0-0.0-1.1-0.1-0.55","4","4","3","3","4","4","3","4","4","4","4","4","5","5","5","5","5","4","5","5","4","2","3","1","2","1","2","2","1","0","1","0","1","1","1","0","1","0","0","0","1","0","0","0","5","2","1","2","1","4","4","2","3","1","1","783896727882305537","杜","253","","","","nonmatch","","","","","","","","","","","","","","key","f","16.648936170212767","640","356","j","false","match","img/hexagon.png","六边","六边","ALT1_1","prac_ALT1_1","","","","","","","","","","","",""
"null","<span style='color:red; font-size: 70px;'>错误! </span>","null","html-keyboard-response","122","303549","0.0-7.0-0.0-1.1-0.1-1.55","4","4","3","3","4","4","3","4","4","4","4","4","5","5","5","5","5","4","5","5","4","2","3","1","2","1","2","2","1","0","1","0","1","1","1","0","1","0","0","0","1","0","0","0","5","2","1","2","1","4","4","2","3","1","1","783896727882305537","杜","253","","","","","","","","","","","","","","","","","","","","","","","","","","","","","","feedback_test","","","","","","","","","","","",""
"502","","j","psychophysics","123","305053","0.0-7.0-0.0-1.1-0.1-0.56","4","4","3","3","4","4","3","4","4","4","4","4","5","5","5","5","5","4","5","5","4","2","3","1","2","1","2","2","1","0","1","0","1","1","1","0","1","0","0","0","1","0","0","0","5","2","1","2","1","4","4","2","3","1","1","783896727882305537","杜","253","","","","match","","","","","","","","","","","","","","key","j","16.64943820224706","640","356","j","true","match","img/square.png","方形","方形","ALT1_1","prac_ALT1_1","","","","","","","","","","","",""
"null","<span style='color:GreenYellow; font-size: 70px;'>正确! </span>","null","html-keyboard-response","124","305554","0.0-7.0-0.0-1.1-0.1-1.56","4","4","3","3","4","4","3","4","4","4","4","4","5","5","5","5","5","4","5","5","4","2","3","1","2","1","2","2","1","0","1","0","1","1","1","0","1","0","0","0","1","0","0","0","5","2","1","2","1","4","4","2","3","1","1","783896727882305537","杜","253","","","","","","","","","","","","","","","","","","","","","","","","","","","","","","feedback_test","","","","","","","","","","","",""
"545","","j","psychophysics","125","307100","0.0-7.0-0.0-1.1-0.1-0.57","4","4","3","3","4","4","3","4","4","4","4","4","5","5","5","5","5","4","5","5","4","2","3","1","2","1","2","2","1","0","1","0","1","1","1","0","1","0","0","0","1","0","0","0","5","2","1","2","1","4","4","2","3","1","1","783896727882305537","杜","253","","","","match","","","","","","","","","","","","","","key","j","16.653260869564964","640","356","f","false","nonmatch","img/circle.png","方形","圆形","ALT1_1","prac_ALT1_1","","","","","","","","","","","",""
"null","<span style='color:red; font-size: 70px;'>错误! </span>","null","html-keyboard-response","126","307602","0.0-7.0-0.0-1.1-0.1-1.57","4","4","3","3","4","4","3","4","4","4","4","4","5","5","5","5","5","4","5","5","4","2","3","1","2","1","2","2","1","0","1","0","1","1","1","0","1","0","0","0","1","0","0","0","5","2","1","2","1","4","4","2","3","1","1","783896727882305537","杜","253","","","","","","","","","","","","","","","","","","","","","","","","","","","","","","feedback_test","","","","","","","","","","","",""
"527","","j","psychophysics","127","309130","0.0-7.0-0.0-1.1-0.1-0.58","4","4","3","3","4","4","3","4","4","4","4","4","5","5","5","5","5","4","5","5","4","2","3","1","2","1","2","2","1","0","1","0","1","1","1","0","1","0","0","0","1","0","0","0","5","2","1","2","1","4","4","2","3","1","1","783896727882305537","杜","253","","","","match","","","","","","","","","","","","","","key","j","16.651648351648223","640","356","f","false","nonmatch","img/square.png","六边","方形","ALT1_1","prac_ALT1_1","","","","","","","","","","","",""
"null","<span style='color:red; font-size: 70px;'>错误! </span>","null","html-keyboard-response","128","309631","0.0-7.0-0.0-1.1-0.1-1.58","4","4","3","3","4","4","3","4","4","4","4","4","5","5","5","5","5","4","5","5","4","2","3","1","2","1","2","2","1","0","1","0","1","1","1","0","1","0","0","0","1","0","0","0","5","2","1","2","1","4","4","2","3","1","1","783896727882305537","杜","253","","","","","","","","","","","","","","","","","","","","","","","","","","","","","","feedback_test","","","","","","","","","","","",""
"564","","f","psychophysics","129","311197","0.0-7.0-0.0-1.1-0.1-0.59","4","4","3","3","4","4","3","4","4","4","4","4","5","5","5","5","5","4","5","5","4","2","3","1","2","1","2","2","1","0","1","0","1","1","1","0","1","0","0","0","1","0","0","0","5","2","1","2","1","4","4","2","3","1","1","783896727882305537","杜","253","","","","nonmatch","","","","","","","","","","","","","","key","f","16.650537634408604","640","356","f","true","nonmatch","img/triangle.png","六边","三角","ALT1_1","prac_ALT1_1","","","","","","","","","","","",""
"null","<span style='color:GreenYellow; font-size: 70px;'>正确! </span>","null","html-keyboard-response","130","311698","0.0-7.0-0.0-1.1-0.1-1.59","4","4","3","3","4","4","3","4","4","4","4","4","5","5","5","5","5","4","5","5","4","2","3","1","2","1","2","2","1","0","1","0","1","1","1","0","1","0","0","0","1","0","0","0","5","2","1","2","1","4","4","2","3","1","1","783896727882305537","杜","253","","","","","","","","","","","","","","","","","","","","","","","","","","","","","","feedback_test","","","","","","","","","","","",""
"685","","f","psychophysics","131","313384","0.0-7.0-0.0-1.1-0.1-0.60","4","4","3","3","4","4","3","4","4","4","4","4","5","5","5","5","5","4","5","5","4","2","3","1","2","1","2","2","1","0","1","0","1","1","1","0","1","0","0","0","1","0","0","0","5","2","1","2","1","4","4","2","3","1","1","783896727882305537","杜","253","","","","nonmatch","","","","","","","","","","","","","","key","f","16.652000000000115","640","356","f","true","nonmatch","img/circle.png","三角","圆形","ALT1_1","prac_ALT1_1","","","","","","","","","","","",""
"null","<span style='color:GreenYellow; font-size: 70px;'>正确! </span>","null","html-keyboard-response","132","313900","0.0-7.0-0.0-1.1-0.1-1.60","4","4","3","3","4","4","3","4","4","4","4","4","5","5","5","5","5","4","5","5","4","2","3","1","2","1","2","2","1","0","1","0","1","1","1","0","1","0","0","0","1","0","0","0","5","2","1","2","1","4","4","2","3","1","1","783896727882305537","杜","253","","","","","","","","","","","","","","","","","","","","","","","","","","","","","","feedback_test","","","","","","","","","","","",""
"450","","f","psychophysics","133","315352","0.0-7.0-0.0-1.1-0.1-0.61","4","4","3","3","4","4","3","4","4","4","4","4","5","5","5","5","5","4","5","5","4","2","3","1","2","1","2","2","1","0","1","0","1","1","1","0","1","0","0","0","1","0","0","0","5","2","1","2","1","4","4","2","3","1","1","783896727882305537","杜","253","","","","nonmatch","","","","","","","","","","","","","","key","f","16.647126436781477","640","356","j","false","match","img/circle.png","圆形","圆形","ALT1_1","prac_ALT1_1","","","","","","","","","","","",""
"null","<span style='color:red; font-size: 70px;'>错误! </span>","null","html-keyboard-response","134","315854","0.0-7.0-0.0-1.1-0.1-1.61","4","4","3","3","4","4","3","4","4","4","4","4","5","5","5","5","5","4","5","5","4","2","3","1","2","1","2","2","1","0","1","0","1","1","1","0","1","0","0","0","1","0","0","0","5","2","1","2","1","4","4","2","3","1","1","783896727882305537","杜","253","","","","","","","","","","","","","","","","","","","","","","","","","","","","","","feedback_test","","","","","","","","","","","",""
"649","","f","psychophysics","135","317506","0.0-7.0-0.0-1.1-0.1-0.62","4","4","3","3","4","4","3","4","4","4","4","4","5","5","5","5","5","4","5","5","4","2","3","1","2","1","2","2","1","0","1","0","1","1","1","0","1","0","0","0","1","0","0","0","5","2","1","2","1","4","4","2","3","1","1","783896727882305537","杜","253","","","","nonmatch","","","","","","","","","","","","","","key","f","16.64545454545478","640","356","f","true","nonmatch","img/square.png","圆形","方形","ALT1_1","prac_ALT1_1","","","","","","","","","","","",""
"null","<span style='color:GreenYellow; font-size: 70px;'>正确! </span>","null","html-keyboard-response","136","318006","0.0-7.0-0.0-1.1-0.1-1.62","4","4","3","3","4","4","3","4","4","4","4","4","5","5","5","5","5","4","5","5","4","2","3","1","2","1","2","2","1","0","1","0","1","1","1","0","1","0","0","0","1","0","0","0","5","2","1","2","1","4","4","2","3","1","1","783896727882305537","杜","253","","","","","","","","","","","","","","","","","","","","","","","","","","","","","","feedback_test","","","","","","","","","","","",""
"510","","f","psychophysics","137","319518","0.0-7.0-0.0-1.1-0.1-0.63","4","4","3","3","4","4","3","4","4","4","4","4","5","5","5","5","5","4","5","5","4","2","3","1","2","1","2","2","1","0","1","0","1","1","1","0","1","0","0","0","1","0","0","0","5","2","1","2","1","4","4","2","3","1","1","783896727882305537","杜","253","","","","nonmatch","","","","","","","","","","","","","","key","f","16.648314606741703","640","356","f","true","nonmatch","img/hexagon.png","圆形","六边","ALT1_1","prac_ALT1_1","","","","","","","","","","","",""
"null","<span style='color:GreenYellow; font-size: 70px;'>正确! </span>","null","html-keyboard-response","138","320018","0.0-7.0-0.0-1.1-0.1-1.63","4","4","3","3","4","4","3","4","4","4","4","4","5","5","5","5","5","4","5","5","4","2","3","1","2","1","2","2","1","0","1","0","1","1","1","0","1","0","0","0","1","0","0","0","5","2","1","2","1","4","4","2","3","1","1","783896727882305537","杜","253","","","","","","","","","","","","","","","","","","","","","","","","","","","","","","feedback_test","","","","","","","","","","","",""
"575","","j","psychophysics","139","321595","0.0-7.0-0.0-1.1-0.1-0.64","4","4","3","3","4","4","3","4","4","4","4","4","5","5","5","5","5","4","5","5","4","2","3","1","2","1","2","2","1","0","1","0","1","1","1","0","1","0","0","0","1","0","0","0","5","2","1","2","1","4","4","2","3","1","1","783896727882305537","杜","253","","","","match","","","","","","","","","","","","","","key","j","16.651612903225555","640","356","j","true","match","img/triangle.png","三角","三角","ALT1_1","prac_ALT1_1","","","","","","","","","","","",""
"null","<span style='color:GreenYellow; font-size: 70px;'>正确! </span>","null","html-keyboard-response","140","322097","0.0-7.0-0.0-1.1-0.1-1.64","4","4","3","3","4","4","3","4","4","4","4","4","5","5","5","5","5","4","5","5","4","2","3","1","2","1","2","2","1","0","1","0","1","1","1","0","1","0","0","0","1","0","0","0","5","2","1","2","1","4","4","2","3","1","1","783896727882305537","杜","253","","","","","","","","","","","","","","","","","","","","","","","","","","","","","","feedback_test","","","","","","","","","","","",""
"661","","j","psychophysics","141","323760","0.0-7.0-0.0-1.1-0.1-0.65","4","4","3","3","4","4","3","4","4","4","4","4","5","5","5","5","5","4","5","5","4","2","3","1","2","1","2","2","1","0","1","0","1","1","1","0","1","0","0","0","1","0","0","0","5","2","1","2","1","4","4","2","3","1","1","783896727882305537","杜","253","","","","match","","","","","","","","","","","","","","key","j","16.648484848484966","640","356","j","true","match","img/triangle.png","三角","三角","ALT1_1","prac_ALT1_1","","","","","","","","","","","",""
"null","<span style='color:GreenYellow; font-size: 70px;'>正确! </span>","null","html-keyboard-response","142","324261","0.0-7.0-0.0-1.1-0.1-1.65","4","4","3","3","4","4","3","4","4","4","4","4","5","5","5","5","5","4","5","5","4","2","3","1","2","1","2","2","1","0","1","0","1","1","1","0","1","0","0","0","1","0","0","0","5","2","1","2","1","4","4","2","3","1","1","783896727882305537","杜","253","","","","","","","","","","","","","","","","","","","","","","","","","","","","","","feedback_test","","","","","","","","","","","",""
"524","","f","psychophysics","143","325787","0.0-7.0-0.0-1.1-0.1-0.66","4","4","3","3","4","4","3","4","4","4","4","4","5","5","5","5","5","4","5","5","4","2","3","1","2","1","2","2","1","0","1","0","1","1","1","0","1","0","0","0","1","0","0","0","5","2","1","2","1","4","4","2","3","1","1","783896727882305537","杜","253","","","","nonmatch","","","","","","","","","","","","","","key","f","16.65494505494544","640","356","j","false","match","img/circle.png","圆形","圆形","ALT1_1","prac_ALT1_1","","","","","","","","","","","",""
"null","<span style='color:red; font-size: 70px;'>错误! </span>","null","html-keyboard-response","144","326288","0.0-7.0-0.0-1.1-0.1-1.66","4","4","3","3","4","4","3","4","4","4","4","4","5","5","5","5","5","4","5","5","4","2","3","1","2","1","2","2","1","0","1","0","1","1","1","0","1","0","0","0","1","0","0","0","5","2","1","2","1","4","4","2","3","1","1","783896727882305537","杜","253","","","","","","","","","","","","","","","","","","","","","","","","","","","","","","feedback_test","","","","","","","","","","","",""
"424","","j","psychophysics","145","327713","0.0-7.0-0.0-1.1-0.1-0.67","4","4","3","3","4","4","3","4","4","4","4","4","5","5","5","5","5","4","5","5","4","2","3","1","2","1","2","2","1","0","1","0","1","1","1","0","1","0","0","0","1","0","0","0","5","2","1","2","1","4","4","2","3","1","1","783896727882305537","杜","253","","","","match","","","","","","","","","","","","","","key","j","16.652941176470588","640","356","j","true","match","img/circle.png","圆形","圆形","ALT1_1","prac_ALT1_1","","","","","","","","","","","",""
"null","<span style='color:GreenYellow; font-size: 70px;'>正确! </span>","null","html-keyboard-response","146","328214","0.0-7.0-0.0-1.1-0.1-1.67","4","4","3","3","4","4","3","4","4","4","4","4","5","5","5","5","5","4","5","5","4","2","3","1","2","1","2","2","1","0","1","0","1","1","1","0","1","0","0","0","1","0","0","0","5","2","1","2","1","4","4","2","3","1","1","783896727882305537","杜","253","","","","","","","","","","","","","","","","","","","","","","","","","","","","","","feedback_test","","","","","","","","","","","",""
"482","","f","psychophysics","147","329699","0.0-7.0-0.0-1.1-0.1-0.68","4","4","3","3","4","4","3","4","4","4","4","4","5","5","5","5","5","4","5","5","4","2","3","1","2","1","2","2","1","0","1","0","1","1","1","0","1","0","0","0","1","0","0","0","5","2","1","2","1","4","4","2","3","1","1","783896727882305537","杜","253","","","","nonmatch","","","","","","","","","","","","","","key","f","16.651136363636894","640","356","j","false","match","img/hexagon.png","六边","六边","ALT1_1","prac_ALT1_1","","","","","","","","","","","",""
"null","<span style='color:red; font-size: 70px;'>错误! </span>","null","html-keyboard-response","148","330200","0.0-7.0-0.0-1.1-0.1-1.68","4","4","3","3","4","4","3","4","4","4","4","4","5","5","5","5","5","4","5","5","4","2","3","1","2","1","2","2","1","0","1","0","1","1","1","0","1","0","0","0","1","0","0","0","5","2","1","2","1","4","4","2","3","1","1","783896727882305537","杜","253","","","","","","","","","","","","","","","","","","","","","","","","","","","","","","feedback_test","","","","","","","","","","","",""
"721","","f","psychophysics","149","331924","0.0-7.0-0.0-1.1-0.1-0.69","4","4","3","3","4","4","3","4","4","4","4","4","5","5","5","5","5","4","5","5","4","2","3","1","2","1","2","2","1","0","1","0","1","1","1","0","1","0","0","0","1","0","0","0","5","2","1","2","1","4","4","2","3","1","1","783896727882305537","杜","253","","","","nonmatch","","","","","","","","","","","","","","key","f","16.651960784313726","640","356","f","true","nonmatch","img/triangle.png","方形","三角","ALT1_1","prac_ALT1_1","","","","","","","","","","","",""
"null","<span style='color:GreenYellow; font-size: 70px;'>正确! </span>","null","html-keyboard-response","150","332426","0.0-7.0-0.0-1.1-0.1-1.69","4","4","3","3","4","4","3","4","4","4","4","4","5","5","5","5","5","4","5","5","4","2","3","1","2","1","2","2","1","0","1","0","1","1","1","0","1","0","0","0","1","0","0","0","5","2","1","2","1","4","4","2","3","1","1","783896727882305537","杜","253","","","","","","","","","","","","","","","","","","","","","","","","","","","","","","feedback_test","","","","","","","","","","","",""
"523","","j","psychophysics","151","333952","0.0-7.0-0.0-1.1-0.1-0.70","4","4","3","3","4","4","3","4","4","4","4","4","5","5","5","5","5","4","5","5","4","2","3","1","2","1","2","2","1","0","1","0","1","1","1","0","1","0","0","0","1","0","0","0","5","2","1","2","1","4","4","2","3","1","1","783896727882305537","杜","253","","","","match","","","","","","","","","","","","","","key","j","16.652222222222353","640","356","f","false","nonmatch","img/triangle.png","圆形","三角","ALT1_1","prac_ALT1_1","","","","","","","","","","","",""
"null","<span style='color:red; font-size: 70px;'>错误! </span>","null","html-keyboard-response","152","334453","0.0-7.0-0.0-1.1-0.1-1.70","4","4","3","3","4","4","3","4","4","4","4","4","5","5","5","5","5","4","5","5","4","2","3","1","2","1","2","2","1","0","1","0","1","1","1","0","1","0","0","0","1","0","0","0","5","2","1","2","1","4","4","2","3","1","1","783896727882305537","杜","253","","","","","","","","","","","","","","","","","","","","","","","","","","","","","","feedback_test","","","","","","","","","","","",""
"528","","j","psychophysics","153","335982","0.0-7.0-0.0-1.1-0.1-0.71","4","4","3","3","4","4","3","4","4","4","4","4","5","5","5","5","5","4","5","5","4","2","3","1","2","1","2","2","1","0","1","0","1","1","1","0","1","0","0","0","1","0","0","0","5","2","1","2","1","4","4","2","3","1","1","783896727882305537","杜","253","","","","match","","","","","","","","","","","","","","key","j","16.651648351648223","640","356","f","false","nonmatch","img/hexagon.png","三角","六边","ALT1_1","prac_ALT1_1","","","","","","","","","","","",""
"null","<span style='color:red; font-size: 70px;'>错误! </span>","null","html-keyboard-response","154","336484","0.0-7.0-0.0-1.1-0.1-1.71","4","4","3","3","4","4","3","4","4","4","4","4","5","5","5","5","5","4","5","5","4","2","3","1","2","1","2","2","1","0","1","0","1","1","1","0","1","0","0","0","1","0","0","0","5","2","1","2","1","4","4","2","3","1","1","783896727882305537","杜","253","","","","","","","","","","","","","","","","","","","","","","","","","","","","","","feedback_test","","","","","","","","","","","",""
"634","","j","psychophysics","155","338122","0.0-7.0-0.0-1.1-0.1-0.72","4","4","3","3","4","4","3","4","4","4","4","4","5","5","5","5","5","4","5","5","4","2","3","1","2","1","2","2","1","0","1","0","1","1","1","0","1","0","0","0","1","0","0","0","5","2","1","2","1","4","4","2","3","1","1","783896727882305537","杜","253","","","","match","","","","","","","","","","","","","","key","j","16.65360824742292","640","356","f","false","nonmatch","img/circle.png","六边","圆形","ALT1_1","prac_ALT1_1","","","","","","","","","","","",""
"null","<span style='color:red; font-size: 70px;'>错误! </span>","null","html-keyboard-response","156","338623","0.0-7.0-0.0-1.1-0.1-1.72","4","4","3","3","4","4","3","4","4","4","4","4","5","5","5","5","5","4","5","5","4","2","3","1","2","1","2","2","1","0","1","0","1","1","1","0","1","0","0","0","1","0","0","0","5","2","1","2","1","4","4","2","3","1","1","783896727882305537","杜","253","","","","","","","","","","","","","","","","","","","","","","","","","","","","","","feedback_test","","","","","","","","","","","",""
"502","","f","psychophysics","157","340128","0.0-7.0-0.0-1.1-0.1-0.73","4","4","3","3","4","4","3","4","4","4","4","4","5","5","5","5","5","4","5","5","4","2","3","1","2","1","2","2","1","0","1","0","1","1","1","0","1","0","0","0","1","0","0","0","5","2","1","2","1","4","4","2","3","1","1","783896727882305537","杜","253","","","","nonmatch","","","","","","","","","","","","","","key","f","16.65056179775307","640","356","j","false","match","img/square.png","方形","方形","ALT1_1","prac_ALT1_1","","","","","","","","","","","",""
"null","<span style='color:red; font-size: 70px;'>错误! </span>","null","html-keyboard-response","158","340630","0.0-7.0-0.0-1.1-0.1-1.73","4","4","3","3","4","4","3","4","4","4","4","4","5","5","5","5","5","4","5","5","4","2","3","1","2","1","2","2","1","0","1","0","1","1","1","0","1","0","0","0","1","0","0","0","5","2","1","2","1","4","4","2","3","1","1","783896727882305537","杜","253","","","","","","","","","","","","","","","","","","","","","","","","","","","","","","feedback_test","","","","","","","","","","","",""
"686","","f","psychophysics","159","342317","0.0-7.0-0.0-1.1-0.1-0.74","4","4","3","3","4","4","3","4","4","4","4","4","5","5","5","5","5","4","5","5","4","2","3","1","2","1","2","2","1","0","1","0","1","1","1","0","1","0","0","0","1","0","0","0","5","2","1","2","1","4","4","2","3","1","1","783896727882305537","杜","253","","","","nonmatch","","","","","","","","","","","","","","key","f","16.651485148514737","640","356","j","false","match","img/hexagon.png","六边","六边","ALT1_1","prac_ALT1_1","","","","","","","","","","","",""
"null","<span style='color:red; font-size: 70px;'>错误! </span>","null","html-keyboard-response","160","342818","0.0-7.0-0.0-1.1-0.1-1.74","4","4","3","3","4","4","3","4","4","4","4","4","5","5","5","5","5","4","5","5","4","2","3","1","2","1","2","2","1","0","1","0","1","1","1","0","1","0","0","0","1","0","0","0","5","2","1","2","1","4","4","2","3","1","1","783896727882305537","杜","253","","","","","","","","","","","","","","","","","","","","","","","","","","","","","","feedback_test","","","","","","","","","","","",""
"412","","j","psychophysics","161","344231","0.0-7.0-0.0-1.1-0.1-0.75","4","4","3","3","4","4","3","4","4","4","4","4","5","5","5","5","5","4","5","5","4","2","3","1","2","1","2","2","1","0","1","0","1","1","1","0","1","0","0","0","1","0","0","0","5","2","1","2","1","4","4","2","3","1","1","783896727882305537","杜","253","","","","match","","","","","","","","","","","","","","key","j","16.650000000000414","640","356","j","true","match","img/circle.png","圆形","圆形","ALT1_1","prac_ALT1_1","","","","","","","","","","","",""
"null","<span style='color:GreenYellow; font-size: 70px;'>正确! </span>","null","html-keyboard-response","162","344733","0.0-7.0-0.0-1.1-0.1-1.75","4","4","3","3","4","4","3","4","4","4","4","4","5","5","5","5","5","4","5","5","4","2","3","1","2","1","2","2","1","0","1","0","1","1","1","0","1","0","0","0","1","0","0","0","5","2","1","2","1","4","4","2","3","1","1","783896727882305537","杜","253","","","","","","","","","","","","","","","","","","","","","","","","","","","","","","feedback_test","","","","","","","","","","","",""
"405","","j","psychophysics","163","346139","0.0-7.0-0.0-1.1-0.1-0.76","4","4","3","3","4","4","3","4","4","4","4","4","5","5","5","5","5","4","5","5","4","2","3","1","2","1","2","2","1","0","1","0","1","1","1","0","1","0","0","0","1","0","0","0","5","2","1","2","1","4","4","2","3","1","1","783896727882305537","杜","253","","","","match","","","","","","","","","","","","","","key","j","16.65180722891538","640","356","j","true","match","img/circle.png","圆形","圆形","ALT1_1","prac_ALT1_1","","","","","","","","","","","",""
"null","<span style='color:GreenYellow; font-size: 70px;'>正确! </span>","null","html-keyboard-response","164","346641","0.0-7.0-0.0-1.1-0.1-1.76","4","4","3","3","4","4","3","4","4","4","4","4","5","5","5","5","5","4","5","5","4","2","3","1","2","1","2","2","1","0","1","0","1","1","1","0","1","0","0","0","1","0","0","0","5","2","1","2","1","4","4","2","3","1","1","783896727882305537","杜","253","","","","","","","","","","","","","","","","","","","","","","","","","","","","","","feedback_test","","","","","","","","","","","",""
"579","","f","psychophysics","165","348222","0.0-7.0-0.0-1.1-0.1-0.77","4","4","3","3","4","4","3","4","4","4","4","4","5","5","5","5","5","4","5","5","4","2","3","1","2","1","2","2","1","0","1","0","1","1","1","0","1","0","0","0","1","0","0","0","5","2","1","2","1","4","4","2","3","1","1","783896727882305537","杜","253","","","","nonmatch","","","","","","","","","","","","","","key","f","16.648936170212767","640","356","f","true","nonmatch","img/triangle.png","圆形","三角","ALT1_1","prac_ALT1_1","","","","","","","","","","","",""
"null","<span style='color:GreenYellow; font-size: 70px;'>正确! </span>","null","html-keyboard-response","166","348724","0.0-7.0-0.0-1.1-0.1-1.77","4","4","3","3","4","4","3","4","4","4","4","4","5","5","5","5","5","4","5","5","4","2","3","1","2","1","2","2","1","0","1","0","1","1","1","0","1","0","0","0","1","0","0","0","5","2","1","2","1","4","4","2","3","1","1","783896727882305537","杜","253","","","","","","","","","","","","","","","","","","","","","","","","","","","","","","feedback_test","","","","","","","","","","","",""
"460","","f","psychophysics","167","350187","0.0-7.0-0.0-1.1-0.1-0.78","4","4","3","3","4","4","3","4","4","4","4","4","5","5","5","5","5","4","5","5","4","2","3","1","2","1","2","2","1","0","1","0","1","1","1","0","1","0","0","0","1","0","0","0","5","2","1","2","1","4","4","2","3","1","1","783896727882305537","杜","253","","","","nonmatch","","","","","","","","","","","","","","key","f","16.651162790697676","640","356","j","false","match","img/hexagon.png","六边","六边","ALT1_1","prac_ALT1_1","","","","","","","","","","","",""
"null","<span style='color:red; font-size: 70px;'>错误! </span>","null","html-keyboard-response","168","350687","0.0-7.0-0.0-1.1-0.1-1.78","4","4","3","3","4","4","3","4","4","4","4","4","5","5","5","5","5","4","5","5","4","2","3","1","2","1","2","2","1","0","1","0","1","1","1","0","1","0","0","0","1","0","0","0","5","2","1","2","1","4","4","2","3","1","1","783896727882305537","杜","253","","","","","","","","","","","","","","","","","","","","","","","","","","","","","","feedback_test","","","","","","","","","","","",""
"703","","j","psychophysics","169","352392","0.0-7.0-0.0-1.1-0.1-0.79","4","4","3","3","4","4","3","4","4","4","4","4","5","5","5","5","5","4","5","5","4","2","3","1","2","1","2","2","1","0","1","0","1","1","1","0","1","0","0","0","1","0","0","0","5","2","1","2","1","4","4","2","3","1","1","783896727882305537","杜","253","","","","match","","","","","","","","","","","","","","key","j","16.65294117647036","640","356","f","false","nonmatch","img/hexagon.png","圆形","六边","ALT1_1","prac_ALT1_1","","","","","","","","","","","",""
"null","<span style='color:red; font-size: 70px;'>错误! </span>","null","html-keyboard-response","170","352893","0.0-7.0-0.0-1.1-0.1-1.79","4","4","3","3","4","4","3","4","4","4","4","4","5","5","5","5","5","4","5","5","4","2","3","1","2","1","2","2","1","0","1","0","1","1","1","0","1","0","0","0","1","0","0","0","5","2","1","2","1","4","4","2","3","1","1","783896727882305537","杜","253","","","","","","","","","","","","","","","","","","","","","","","","","","","","","","feedback_test","","","","","","","","","","","",""
"638","","j","psychophysics","171","354533","0.0-7.0-0.0-1.1-0.1-0.80","4","4","3","3","4","4","3","4","4","4","4","4","5","5","5","5","5","4","5","5","4","2","3","1","2","1","2","2","1","0","1","0","1","1","1","0","1","0","0","0","1","0","0","0","5","2","1","2","1","4","4","2","3","1","1","783896727882305537","杜","253","","","","match","","","","","","","","","","","","","","key","j","16.649484536082475","640","356","j","true","match","img/triangle.png","三角","三角","ALT1_1","prac_ALT1_1","","","","","","","","","","","",""
"null","<span style='color:GreenYellow; font-size: 70px;'>正确! </span>","null","html-keyboard-response","172","355034","0.0-7.0-0.0-1.1-0.1-1.80","4","4","3","3","4","4","3","4","4","4","4","4","5","5","5","5","5","4","5","5","4","2","3","1","2","1","2","2","1","0","1","0","1","1","1","0","1","0","0","0","1","0","0","0","5","2","1","2","1","4","4","2","3","1","1","783896727882305537","杜","253","","","","","","","","","","","","","","","","","","","","","","","","","","","","","","feedback_test","","","","","","","","","","","",""
"502","","f","psychophysics","173","356538","0.0-7.0-0.0-1.1-0.1-0.81","4","4","3","3","4","4","3","4","4","4","4","4","5","5","5","5","5","4","5","5","4","2","3","1","2","1","2","2","1","0","1","0","1","1","1","0","1","0","0","0","1","0","0","0","5","2","1","2","1","4","4","2","3","1","1","783896727882305537","杜","253","","","","nonmatch","","","","","","","","","","","","","","key","f","16.63932584269689","640","356","f","true","nonmatch","img/square.png","三角","方形","ALT1_1","prac_ALT1_1","","","","","","","","","","","",""
"null","<span style='color:GreenYellow; font-size: 70px;'>正确! </span>","null","html-keyboard-response","174","357039","0.0-7.0-0.0-1.1-0.1-1.81","4","4","3","3","4","4","3","4","4","4","4","4","5","5","5","5","5","4","5","5","4","2","3","1","2","1","2","2","1","0","1","0","1","1","1","0","1","0","0","0","1","0","0","0","5","2","1","2","1","4","4","2","3","1","1","783896727882305537","杜","253","","","","","","","","","","","","","","","","","","","","","","","","","","","","","","feedback_test","","","","","","","","","","","",""
"573","","j","psychophysics","175","358614","0.0-7.0-0.0-1.1-0.1-0.82","4","4","3","3","4","4","3","4","4","4","4","4","5","5","5","5","5","4","5","5","4","2","3","1","2","1","2","2","1","0","1","0","1","1","1","0","1","0","0","0","1","0","0","0","5","2","1","2","1","4","4","2","3","1","1","783896727882305537","杜","253","","","","match","","","","","","","","","","","","","","key","j","16.652688172043135","640","356","j","true","match","img/triangle.png","三角","三角","ALT1_1","prac_ALT1_1","","","","","","","","","","","",""
"null","<span style='color:GreenYellow; font-size: 70px;'>正确! </span>","null","html-keyboard-response","176","359129","0.0-7.0-0.0-1.1-0.1-1.82","4","4","3","3","4","4","3","4","4","4","4","4","5","5","5","5","5","4","5","5","4","2","3","1","2","1","2","2","1","0","1","0","1","1","1","0","1","0","0","0","1","0","0","0","5","2","1","2","1","4","4","2","3","1","1","783896727882305537","杜","253","","","","","","","","","","","","","","","","","","","","","","","","","","","","","","feedback_test","","","","","","","","","","","",""
"571","","j","psychophysics","177","360702","0.0-7.0-0.0-1.1-0.1-0.83","4","4","3","3","4","4","3","4","4","4","4","4","5","5","5","5","5","4","5","5","4","2","3","1","2","1","2","2","1","0","1","0","1","1","1","0","1","0","0","0","1","0","0","0","5","2","1","2","1","4","4","2","3","1","1","783896727882305537","杜","253","","","","match","","","","","","","","","","","","","","key","j","16.646808510638174","640","356","j","true","match","img/square.png","方形","方形","ALT1_1","prac_ALT1_1","","","","","","","","","","","",""
"null","<span style='color:GreenYellow; font-size: 70px;'>正确! </span>","null","html-keyboard-response","178","361203","0.0-7.0-0.0-1.1-0.1-1.83","4","4","3","3","4","4","3","4","4","4","4","4","5","5","5","5","5","4","5","5","4","2","3","1","2","1","2","2","1","0","1","0","1","1","1","0","1","0","0","0","1","0","0","0","5","2","1","2","1","4","4","2","3","1","1","783896727882305537","杜","253","","","","","","","","","","","","","","","","","","","","","","","","","","","","","","feedback_test","","","","","","","","","","","",""
"520","","f","psychophysics","179","362725","0.0-7.0-0.0-1.1-0.1-0.84","4","4","3","3","4","4","3","4","4","4","4","4","5","5","5","5","5","4","5","5","4","2","3","1","2","1","2","2","1","0","1","0","1","1","1","0","1","0","0","0","1","0","0","0","5","2","1","2","1","4","4","2","3","1","1","783896727882305537","杜","253","","","","nonmatch","","","","","","","","","","","","","","key","f","16.652222222222353","640","356","f","true","nonmatch","img/circle.png","三角","圆形","ALT1_1","prac_ALT1_1","","","","","","","","","","","",""
"null","<span style='color:GreenYellow; font-size: 70px;'>正确! </span>","null","html-keyboard-response","180","363225","0.0-7.0-0.0-1.1-0.1-1.84","4","4","3","3","4","4","3","4","4","4","4","4","5","5","5","5","5","4","5","5","4","2","3","1","2","1","2","2","1","0","1","0","1","1","1","0","1","0","0","0","1","0","0","0","5","2","1","2","1","4","4","2","3","1","1","783896727882305537","杜","253","","","","","","","","","","","","","","","","","","","","","","","","","","","","","","feedback_test","","","","","","","","","","","",""
"496","","j","psychophysics","181","364723","0.0-7.0-0.0-1.1-0.1-0.85","4","4","3","3","4","4","3","4","4","4","4","4","5","5","5","5","5","4","5","5","4","2","3","1","2","1","2","2","1","0","1","0","1","1","1","0","1","0","0","0","1","0","0","0","5","2","1","2","1","4","4","2","3","1","1","783896727882305537","杜","253","","","","match","","","","","","","","","","","","","","key","j","16.65393258426914","640","356","j","true","match","img/triangle.png","三角","三角","ALT1_1","prac_ALT1_1","","","","","","","","","","","",""
"null","<span style='color:GreenYellow; font-size: 70px;'>正确! </span>","null","html-keyboard-response","182","365224","0.0-7.0-0.0-1.1-0.1-1.85","4","4","3","3","4","4","3","4","4","4","4","4","5","5","5","5","5","4","5","5","4","2","3","1","2","1","2","2","1","0","1","0","1","1","1","0","1","0","0","0","1","0","0","0","5","2","1","2","1","4","4","2","3","1","1","783896727882305537","杜","253","","","","","","","","","","","","","","","","","","","","","","","","","","","","","","feedback_test","","","","","","","","","","","",""
