"rt","stimulus","response","trial_type","trial_index","time_elapsed","internal_node_id","ses_1","ses_2","ses_3","ses_4","ses_5","ses_6","ses_7","ses_8","ses_9","ses_10","coreself_1","coreself_2","coreself_3","coreself_4","coreself_5","coreself_6","coreself_7","coreself_8","coreself_9","coreself_10","SGPS_1","SGPS_2","SGPS_3","SGPS_4","SGPS_5","SGPS_6","SGPS_7","SGPS_8","SGPS_9","NPI1","NPI2","NPI3","NPI4","NPI5","NPI6","NPI7","NPI8","NPI9","NPI10","NPI11","NPI12","NPI13","NPI14","NPI15","hsns_1","hsns_2","hsns_3","hsns_4","hsns_5","trap1","hsns_6","hsns_7","hsns_8","hsns_9","hsns_10","subj_idx","friend_name","ParticipantID","value","success","user_agent","responses","item_order","radio_event_ids","radio_event_times","key_event_times","mouse_event_times","straightlining","zigzagging","honeypot","timeout","failed_images","failed_audio","failed_video","version_attrib2","version_target2","correct","IAT","screen_id","task_id","RT","condition","word","varname","summary","version_attrib","version_target","time_stamp","view_history","response_type","key_press","avg_frame_time","center_x","center_y","correct_response","identity","Image","question_order","correct_answer","trap1_item"
"41601","
   <p><div style = ""color: white;font-size:25px;"">您好，欢迎参加本次实验。</div> </p>
   <p><div style = ""color: white;font-size:25px;"">为充分保障您的权利，请确保您已经知晓并同意《参与实验同意书》以及《数据公开知情同意书》。</div></p>
   <p><div style = ""color: white;font-size:25px;"">如果您未见过上述内容，请咨询实验员。</div></p>
   <p><div style = ""color: white;font-size:25px;"">如果您选择继续实验，则表示您已经清楚两份知情同意书的内容并同意。</div></p>
   <p><div style = ""color: pink;font-size:30px;"">请确保您记得day0的实验编号，您将在本次实验输入该编号，若您忘记，请咨询实验员后作答。</div></p>
   <p><div style = ""color: lightblue;font-size:25px;"">请您尽可能认真地作答，我们将依据您在各问卷和按键任务中的作答质量发放报酬。</div></p>
   <p> <div style = ""color: green;font-size:25px;""><按空格键至下页></div> </p>
   "," ","html-keyboard-response","0","41612","0.0-0.0","3","4","4","3","3","3","3","3","3","4","4","4","2","4","4","4","4","4","5","4","2","2","1","2","1","2","2","4","1","1","0","1","1","0","0","0","1","0","1","1","0","0","0","1","5","1","4","1","4","3","2","4","1","1","1","776480023275376642","王","618","","","","","","","","","","","","","","","","","","","","","","","","","","","","","","","","","","","","","","","","","",""
"","","","call-function","1","41622","0.0-1.0-0.0","3","4","4","3","3","3","3","3","3","4","4","4","2","4","4","4","4","4","5","4","2","2","1","2","1","2","2","4","1","1","0","1","1","0","0","0","1","0","1","1","0","0","0","1","5","1","4","1","4","3","2","4","1","1","1","776480023275376642","王","618","","","","","","","","","","","","","","","","","","","","","","","","","","","","","","","","","","","","","","","","","",""
"24459","","{""friend_name"":""王"",""ParticipantID"":""618""}","survey-html-form","2","66109","0.0-1.0-1.0","3","4","4","3","3","3","3","3","3","4","4","4","2","4","4","4","4","4","5","4","2","2","1","2","1","2","2","4","1","1","0","1","1","0","0","0","1","0","1","1","0","0","0","1","5","1","4","1","4","3","2","4","1","1","1","776480023275376642","王","618","","","","","","","","","","","","","","","","","","","","","","","","","","","","","","","","","","","","","","","","","",""
"","","","fullscreen","3","96617","0.0-2.0","3","4","4","3","3","3","3","3","3","4","4","4","2","4","4","4","4","4","5","4","2","2","1","2","1","2","2","4","1","1","0","1","1","0","0","0","1","0","1","1","0","0","0","1","5","1","4","1","4","3","2","4","1","1","1","776480023275376642","王","618","","true","","","","","","","","","","","","","","","","","","","","","","","","","","","","","","","","","","","","","","","",""
"54598.28999999998","","{""Q01"":""3"",""Q02"":""4"",""Q03"":""4"",""Q04"":""3"",""Q05"":""3"",""Q06"":""3"",""Q07"":""3"",""Q08"":""3"",""Q09"":""3"",""Q10"":""4""}","survey-template","4","151233","0.0-3.0","3","4","4","3","3","3","3","3","3","4","4","4","2","4","4","4","4","4","5","4","2","2","1","2","1","2","2","4","1","1","0","1","1","0","0","0","1","0","1","1","0","0","0","1","5","1","4","1","4","3","2","4","1","1","1","776480023275376642","王","618","","","","{""Q01"":""3"",""Q02"":""4"",""Q03"":""4"",""Q04"":""3"",""Q05"":""3"",""Q06"":""3"",""Q07"":""3"",""Q08"":""3"",""Q09"":""3"",""Q10"":""4""}","[0,1,2,3,4,5,6,7,8,9]","[""Q01"",""Q02"",""Q03"",""Q04"",""Q05"",""Q06"",""Q07"",""Q08"",""Q09"",""Q10""]","[12409.339999999997,13480.410000000018,16216.430000000008,17872.27000000002,19456.59999999999,21144.104999999967,22824.284999999974,25624.109999999986,27728.039999999964,28408.014999999985]","[]","[12409.339999999997,13480.410000000018,15368.555000000022,16216.430000000008,17872.27000000002,19456.59999999999,21144.104999999967,22824.284999999974,25624.109999999986,27728.039999999964,28408.014999999985,54119.29500000004,54591.42000000004]","0.4","0.6666666666666666","0","","","","","","","","","","","","","","","","","","","","","","","","","","","","","",""
"105932.94500000004","","{""Q01"":""4"",""Q02"":""4"",""Q03"":""2"",""Q04"":""4"",""Q05"":""4"",""Q06"":""4"",""Q07"":""4"",""Q08"":""4"",""Q09"":""5"",""Q10"":""4""}","survey-template","5","257198","0.0-4.0","3","4","4","3","3","3","3","3","3","4","4","4","2","4","4","4","4","4","5","4","2","2","1","2","1","2","2","4","1","1","0","1","1","0","0","0","1","0","1","1","0","0","0","1","5","1","4","1","4","3","2","4","1","1","1","776480023275376642","王","618","","","","{""Q01"":""4"",""Q02"":""4"",""Q03"":""2"",""Q04"":""4"",""Q05"":""4"",""Q06"":""4"",""Q07"":""4"",""Q08"":""4"",""Q09"":""5"",""Q10"":""4""}","[0,1,2,3,4,5,6,7,8,9]","[""Q01"",""Q02"",""Q06"",""Q07"",""Q09"",""Q10"",""Q03"",""Q04"",""Q05"",""Q09"",""Q08"",""Q08"",""Q05"",""Q04""]","[4928.959999999963,7256.584999999963,27232.399999999994,29664.165000000037,32415.925000000017,36839.79000000001,49007.465000000026,53623.21499999997,54791.21999999994,63167.08500000005,69022.79499999998,86870.24499999997,94646.29999999999,96166.29499999998]","[]","[4928.959999999963,7256.584999999963,27232.399999999994,29664.165000000037,32415.925000000017,36839.79000000001,49007.465000000026,53623.21499999997,54791.21999999994,63167.08500000005,69022.79499999998,86870.24499999997,94646.29999999999,96166.29499999998,105926.19500000004]","0.5","0","0","","","","","","","","","","","","","","","","","","","","","","","","","","","","","",""
"","","","preload","6","258898","0.0-5.0","3","4","4","3","3","3","3","3","3","4","4","4","2","4","4","4","4","4","5","4","2","2","1","2","1","2","2","4","1","1","0","1","1","0","0","0","1","0","1","1","0","0","0","1","5","1","4","1","4","3","2","4","1","1","1","776480023275376642","王","618","","true","","","","","","","","","","","false","[]","[]","[]","","","","","","","","","","","","","","","","","","","","","","","","","",""
"22406","
    <h3>词语分类任务</h3>
    <p>在接下来的任务中，你需要对一系列词语进行分类。<p/>
    请先熟悉这些词语，这有利于你完成接下来的任务。</p>
    <table align=""center"" border=1 cellpadding=3 cellspacing=0>
    <tr> <th>类别</th> <th>词语</th> </tr>
    <tr> <td>&emsp;积极&emsp;</td> <td>&emsp;高尚、诚信、善良、君子、廉正、正直&emsp;</td> </tr>
    <tr> <td>&emsp;消极&emsp;</td> <td>&emsp;缺德、卑鄙、不孝、不仁、小人、黑心&emsp;</td> </tr>
    <tr> <td>&emsp;自我&emsp;</td> <td>&emsp;我、我的、自己、自己的、本人、本人的&emsp;</td> </tr>
    <tr> <td>&emsp;他人&emsp;</td> <td>&emsp;他、他的、别人、别人的、他人、他人的&emsp;</td> </tr>
    </table><br/>","0","html-button-response","7","281343","0.0-6.0-1.0-0.0","3","4","4","3","3","3","3","3","3","4","4","4","2","4","4","4","4","4","5","4","2","2","1","2","1","2","2","4","1","1","0","1","1","0","0","0","1","0","1","1","0","0","0","1","5","1","4","1","4","3","2","4","1","1","1","776480023275376642","王","618","","","","","","","","","","","","","","","","","2","1","","","","","","","","","","","","","","","","","","","","","","","",""
"16108","
    <div class=""tag-bottom""><p>
    —— 任务1：对“自我”词和“他人”词分类 ——<p/>
    不同词语会出现在屏幕中央，类别标签将始终显示在屏幕上方<p/>   
    <span style=""color:#FFD866""><b>请根据上方标签的提示，尽可能正确并且快速地做出按键反应</b></span><p/>
    当按键错误时屏幕中会出现<span style=""color:red""> X </span>，需要按另一个键纠正才能继续<br/><p/>
    请把双手食指分别放在键盘的“E”键和“I”键上<p/>
    按<空格键>开始
    </p></div>"," ","html-keyboard-response","8","297469","0.0-6.0-1.0-1.0","3","4","4","3","3","3","3","3","3","4","4","4","2","4","4","4","4","4","5","4","2","2","1","2","1","2","2","4","1","1","0","1","1","0","0","0","1","0","1","1","0","0","0","1","5","1","4","1","4","3","2","4","1","1","1","776480023275376642","王","618","","","","","","","","","","","","","","","","","","","","","","","","","","","","","","","","","","","","","","","","","",""
"null","","null","html-keyboard-response","9","297723","0.0-6.0-1.0-2.0-0.0","3","4","4","3","3","3","3","3","3","4","4","4","2","4","4","4","4","4","5","4","2","2","1","2","1","2","2","4","1","1","0","1","1","0","0","0","1","0","1","1","0","0","0","1","5","1","4","1","4","3","2","4","1","1","1","776480023275376642","王","618","","","","","","","","","","","","","","","","","","","","","","","","","","","","","","","","","","","","","","","","","",""
"921","<p style=""color:rgb(150, 250, 100); font-size: 35px;"">别人</p>","i","categorize-html","10","298659","0.0-6.0-1.0-2.0-1.0","3","4","4","3","3","3","3","3","3","4","4","4","2","4","4","4","4","4","5","4","2","2","1","2","1","2","2","4","1","1","0","1","1","0","0","0","1","0","1","1","0","0","0","1","5","1","4","1","4","3","2","4","1","1","1","776480023275376642","王","618","","","","","","","","","","","","","","","","","","","true","11","1","moral","921","other","别人","","","","","","","","","","","","","","","","",""
"null","","null","html-keyboard-response","11","298916","0.0-6.0-1.0-2.0-0.1","3","4","4","3","3","3","3","3","3","4","4","4","2","4","4","4","4","4","5","4","2","2","1","2","1","2","2","4","1","1","0","1","1","0","0","0","1","0","1","1","0","0","0","1","5","1","4","1","4","3","2","4","1","1","1","776480023275376642","王","618","","","","","","","","","","","","","","","","","","","","","","","","","","","","","","","","","","","","","","","","","",""
"850","<p style=""color:rgb(150, 250, 100); font-size: 35px;"">他的</p>","i","categorize-html","12","299772","0.0-6.0-1.0-2.0-1.1","3","4","4","3","3","3","3","3","3","4","4","4","2","4","4","4","4","4","5","4","2","2","1","2","1","2","2","4","1","1","0","1","1","0","0","0","1","0","1","1","0","0","0","1","5","1","4","1","4","3","2","4","1","1","1","776480023275376642","王","618","","","","","","","","","","","","","","","","","","","true","11","1","moral","850","other","他的","","","","","","","","","","","","","","","","",""
"null","","null","html-keyboard-response","13","300025","0.0-6.0-1.0-2.0-0.2","3","4","4","3","3","3","3","3","3","4","4","4","2","4","4","4","4","4","5","4","2","2","1","2","1","2","2","4","1","1","0","1","1","0","0","0","1","0","1","1","0","0","0","1","5","1","4","1","4","3","2","4","1","1","1","776480023275376642","王","618","","","","","","","","","","","","","","","","","","","","","","","","","","","","","","","","","","","","","","","","","",""
"576","<p style=""color:rgb(150, 250, 100); font-size: 35px;"">自己的</p>","e","categorize-html","14","300608","0.0-6.0-1.0-2.0-1.2","3","4","4","3","3","3","3","3","3","4","4","4","2","4","4","4","4","4","5","4","2","2","1","2","1","2","2","4","1","1","0","1","1","0","0","0","1","0","1","1","0","0","0","1","5","1","4","1","4","3","2","4","1","1","1","776480023275376642","王","618","","","","","","","","","","","","","","","","","","","true","11","1","moral","576","self","自己的","","","","","","","","","","","","","","","","",""
"null","","null","html-keyboard-response","15","300863","0.0-6.0-1.0-2.0-0.3","3","4","4","3","3","3","3","3","3","4","4","4","2","4","4","4","4","4","5","4","2","2","1","2","1","2","2","4","1","1","0","1","1","0","0","0","1","0","1","1","0","0","0","1","5","1","4","1","4","3","2","4","1","1","1","776480023275376642","王","618","","","","","","","","","","","","","","","","","","","","","","","","","","","","","","","","","","","","","","","","","",""
"589","<p style=""color:rgb(150, 250, 100); font-size: 35px;"">自己</p>","e","categorize-html","16","301460","0.0-6.0-1.0-2.0-1.3","3","4","4","3","3","3","3","3","3","4","4","4","2","4","4","4","4","4","5","4","2","2","1","2","1","2","2","4","1","1","0","1","1","0","0","0","1","0","1","1","0","0","0","1","5","1","4","1","4","3","2","4","1","1","1","776480023275376642","王","618","","","","","","","","","","","","","","","","","","","true","11","1","moral","589","self","自己","","","","","","","","","","","","","","","","",""
"null","","null","html-keyboard-response","17","301716","0.0-6.0-1.0-2.0-0.4","3","4","4","3","3","3","3","3","3","4","4","4","2","4","4","4","4","4","5","4","2","2","1","2","1","2","2","4","1","1","0","1","1","0","0","0","1","0","1","1","0","0","0","1","5","1","4","1","4","3","2","4","1","1","1","776480023275376642","王","618","","","","","","","","","","","","","","","","","","","","","","","","","","","","","","","","","","","","","","","","","",""
"630","<p style=""color:rgb(150, 250, 100); font-size: 35px;"">我的</p>","e","categorize-html","18","302358","0.0-6.0-1.0-2.0-1.4","3","4","4","3","3","3","3","3","3","4","4","4","2","4","4","4","4","4","5","4","2","2","1","2","1","2","2","4","1","1","0","1","1","0","0","0","1","0","1","1","0","0","0","1","5","1","4","1","4","3","2","4","1","1","1","776480023275376642","王","618","","","","","","","","","","","","","","","","","","","true","11","1","moral","630","self","我的","","","","","","","","","","","","","","","","",""
"null","","null","html-keyboard-response","19","302611","0.0-6.0-1.0-2.0-0.5","3","4","4","3","3","3","3","3","3","4","4","4","2","4","4","4","4","4","5","4","2","2","1","2","1","2","2","4","1","1","0","1","1","0","0","0","1","0","1","1","0","0","0","1","5","1","4","1","4","3","2","4","1","1","1","776480023275376642","王","618","","","","","","","","","","","","","","","","","","","","","","","","","","","","","","","","","","","","","","","","","",""
"1412","<p style=""color:rgb(150, 250, 100); font-size: 35px;"">本人的</p>","e","categorize-html","20","304029","0.0-6.0-1.0-2.0-1.5","3","4","4","3","3","3","3","3","3","4","4","4","2","4","4","4","4","4","5","4","2","2","1","2","1","2","2","4","1","1","0","1","1","0","0","0","1","0","1","1","0","0","0","1","5","1","4","1","4","3","2","4","1","1","1","776480023275376642","王","618","","","","","","","","","","","","","","","","","","","true","11","1","moral","1412","self","本人的","","","","","","","","","","","","","","","","",""
"null","","null","html-keyboard-response","21","304282","0.0-6.0-1.0-2.0-0.6","3","4","4","3","3","3","3","3","3","4","4","4","2","4","4","4","4","4","5","4","2","2","1","2","1","2","2","4","1","1","0","1","1","0","0","0","1","0","1","1","0","0","0","1","5","1","4","1","4","3","2","4","1","1","1","776480023275376642","王","618","","","","","","","","","","","","","","","","","","","","","","","","","","","","","","","","","","","","","","","","","",""
"800","<p style=""color:rgb(150, 250, 100); font-size: 35px;"">我</p>","e","categorize-html","22","305089","0.0-6.0-1.0-2.0-1.6","3","4","4","3","3","3","3","3","3","4","4","4","2","4","4","4","4","4","5","4","2","2","1","2","1","2","2","4","1","1","0","1","1","0","0","0","1","0","1","1","0","0","0","1","5","1","4","1","4","3","2","4","1","1","1","776480023275376642","王","618","","","","","","","","","","","","","","","","","","","true","11","1","moral","800","self","我","","","","","","","","","","","","","","","","",""
"null","","null","html-keyboard-response","23","305344","0.0-6.0-1.0-2.0-0.7","3","4","4","3","3","3","3","3","3","4","4","4","2","4","4","4","4","4","5","4","2","2","1","2","1","2","2","4","1","1","0","1","1","0","0","0","1","0","1","1","0","0","0","1","5","1","4","1","4","3","2","4","1","1","1","776480023275376642","王","618","","","","","","","","","","","","","","","","","","","","","","","","","","","","","","","","","","","","","","","","","",""
"1087","<p style=""color:rgb(150, 250, 100); font-size: 35px;"">他人</p>","i","categorize-html","24","306438","0.0-6.0-1.0-2.0-1.7","3","4","4","3","3","3","3","3","3","4","4","4","2","4","4","4","4","4","5","4","2","2","1","2","1","2","2","4","1","1","0","1","1","0","0","0","1","0","1","1","0","0","0","1","5","1","4","1","4","3","2","4","1","1","1","776480023275376642","王","618","","","","","","","","","","","","","","","","","","","true","11","1","moral","1087","other","他人","","","","","","","","","","","","","","","","",""
"null","","null","html-keyboard-response","25","306691","0.0-6.0-1.0-2.0-0.8","3","4","4","3","3","3","3","3","3","4","4","4","2","4","4","4","4","4","5","4","2","2","1","2","1","2","2","4","1","1","0","1","1","0","0","0","1","0","1","1","0","0","0","1","5","1","4","1","4","3","2","4","1","1","1","776480023275376642","王","618","","","","","","","","","","","","","","","","","","","","","","","","","","","","","","","","","","","","","","","","","",""
"1387","<p style=""color:rgb(150, 250, 100); font-size: 35px;"">别人的</p>","i","categorize-html","26","308086","0.0-6.0-1.0-2.0-1.8","3","4","4","3","3","3","3","3","3","4","4","4","2","4","4","4","4","4","5","4","2","2","1","2","1","2","2","4","1","1","0","1","1","0","0","0","1","0","1","1","0","0","0","1","5","1","4","1","4","3","2","4","1","1","1","776480023275376642","王","618","","","","","","","","","","","","","","","","","","","true","11","1","moral","1387","other","别人的","","","","","","","","","","","","","","","","",""
"null","","null","html-keyboard-response","27","308338","0.0-6.0-1.0-2.0-0.9","3","4","4","3","3","3","3","3","3","4","4","4","2","4","4","4","4","4","5","4","2","2","1","2","1","2","2","4","1","1","0","1","1","0","0","0","1","0","1","1","0","0","0","1","5","1","4","1","4","3","2","4","1","1","1","776480023275376642","王","618","","","","","","","","","","","","","","","","","","","","","","","","","","","","","","","","","","","","","","","","","",""
"1000","<p style=""color:rgb(150, 250, 100); font-size: 35px;"">他</p>","i","categorize-html","28","309345","0.0-6.0-1.0-2.0-1.9","3","4","4","3","3","3","3","3","3","4","4","4","2","4","4","4","4","4","5","4","2","2","1","2","1","2","2","4","1","1","0","1","1","0","0","0","1","0","1","1","0","0","0","1","5","1","4","1","4","3","2","4","1","1","1","776480023275376642","王","618","","","","","","","","","","","","","","","","","","","true","11","1","moral","1000","other","他","","","","","","","","","","","","","","","","",""
"null","","null","html-keyboard-response","29","309599","0.0-6.0-1.0-2.0-0.10","3","4","4","3","3","3","3","3","3","4","4","4","2","4","4","4","4","4","5","4","2","2","1","2","1","2","2","4","1","1","0","1","1","0","0","0","1","0","1","1","0","0","0","1","5","1","4","1","4","3","2","4","1","1","1","776480023275376642","王","618","","","","","","","","","","","","","","","","","","","","","","","","","","","","","","","","","","","","","","","","","",""
"947","<p style=""color:rgb(150, 250, 100); font-size: 35px;"">本人</p>","e","categorize-html","30","310553","0.0-6.0-1.0-2.0-1.10","3","4","4","3","3","3","3","3","3","4","4","4","2","4","4","4","4","4","5","4","2","2","1","2","1","2","2","4","1","1","0","1","1","0","0","0","1","0","1","1","0","0","0","1","5","1","4","1","4","3","2","4","1","1","1","776480023275376642","王","618","","","","","","","","","","","","","","","","","","","true","11","1","moral","947","self","本人","","","","","","","","","","","","","","","","",""
"null","","null","html-keyboard-response","31","310806","0.0-6.0-1.0-2.0-0.11","3","4","4","3","3","3","3","3","3","4","4","4","2","4","4","4","4","4","5","4","2","2","1","2","1","2","2","4","1","1","0","1","1","0","0","0","1","0","1","1","0","0","0","1","5","1","4","1","4","3","2","4","1","1","1","776480023275376642","王","618","","","","","","","","","","","","","","","","","","","","","","","","","","","","","","","","","","","","","","","","","",""
"974","<p style=""color:rgb(150, 250, 100); font-size: 35px;"">他人的</p>","i","categorize-html","32","311788","0.0-6.0-1.0-2.0-1.11","3","4","4","3","3","3","3","3","3","4","4","4","2","4","4","4","4","4","5","4","2","2","1","2","1","2","2","4","1","1","0","1","1","0","0","0","1","0","1","1","0","0","0","1","5","1","4","1","4","3","2","4","1","1","1","776480023275376642","王","618","","","","","","","","","","","","","","","","","","","true","11","1","moral","974","other","他人的","","","","","","","","","","","","","","","","",""
"14451","
    <div class=""tag-bottom""><p>
    —— 任务2：对“消极”词和“积极”词分类 ——<p/>   
    <span style=""color:#78DCE8""><b>注意上方，类别标签和需要分类的词语都已经改变</b></span><p/>
    <span style=""color:#FFD866""><b>请根据上方标签的提示，尽可能正确并且快速地做出按键反应</b></span><p/>
    当按键错误时屏幕中会出现<span style=""color:red""> X </span>，需要按另一个键纠正才能继续<br/><p/>
    请把双手食指分别放在键盘的“E”键和“I”键上<p/>
    按<空格键>开始
    </p></div>"," ","html-keyboard-response","33","326244","0.0-6.0-1.0-3.0","3","4","4","3","3","3","3","3","3","4","4","4","2","4","4","4","4","4","5","4","2","2","1","2","1","2","2","4","1","1","0","1","1","0","0","0","1","0","1","1","0","0","0","1","5","1","4","1","4","3","2","4","1","1","1","776480023275376642","王","618","","","","","","","","","","","","","","","","","","","","","","","","","","","","","","","","","","","","","","","","","",""
"null","","null","html-keyboard-response","34","326496","0.0-6.0-1.0-4.0-0.0","3","4","4","3","3","3","3","3","3","4","4","4","2","4","4","4","4","4","5","4","2","2","1","2","1","2","2","4","1","1","0","1","1","0","0","0","1","0","1","1","0","0","0","1","5","1","4","1","4","3","2","4","1","1","1","776480023275376642","王","618","","","","","","","","","","","","","","","","","","","","","","","","","","","","","","","","","","","","","","","","","",""
"1589","<p style=""color:white; font-size: 35px;"">卑鄙</p>","e","categorize-html","35","328094","0.0-6.0-1.0-4.0-1.0","3","4","4","3","3","3","3","3","3","4","4","4","2","4","4","4","4","4","5","4","2","2","1","2","1","2","2","4","1","1","0","1","1","0","0","0","1","0","1","1","0","0","0","1","5","1","4","1","4","3","2","4","1","1","1","776480023275376642","王","618","","","","","","","","","","","","","","","","","","","true","12","2","moral","1589","negative","卑鄙","","","","","","","","","","","","","","","","",""
"null","","null","html-keyboard-response","36","328346","0.0-6.0-1.0-4.0-0.1","3","4","4","3","3","3","3","3","3","4","4","4","2","4","4","4","4","4","5","4","2","2","1","2","1","2","2","4","1","1","0","1","1","0","0","0","1","0","1","1","0","0","0","1","5","1","4","1","4","3","2","4","1","1","1","776480023275376642","王","618","","","","","","","","","","","","","","","","","","","","","","","","","","","","","","","","","","","","","","","","","",""
"752","<p style=""color:white; font-size: 35px;"">诚信</p>","i","categorize-html","37","329106","0.0-6.0-1.0-4.0-1.1","3","4","4","3","3","3","3","3","3","4","4","4","2","4","4","4","4","4","5","4","2","2","1","2","1","2","2","4","1","1","0","1","1","0","0","0","1","0","1","1","0","0","0","1","5","1","4","1","4","3","2","4","1","1","1","776480023275376642","王","618","","","","","","","","","","","","","","","","","","","true","12","2","moral","752","positive","诚信","","","","","","","","","","","","","","","","",""
"null","","null","html-keyboard-response","38","329360","0.0-6.0-1.0-4.0-0.2","3","4","4","3","3","3","3","3","3","4","4","4","2","4","4","4","4","4","5","4","2","2","1","2","1","2","2","4","1","1","0","1","1","0","0","0","1","0","1","1","0","0","0","1","5","1","4","1","4","3","2","4","1","1","1","776480023275376642","王","618","","","","","","","","","","","","","","","","","","","","","","","","","","","","","","","","","","","","","","","","","",""
"975","<p style=""color:white; font-size: 35px;"">黑心</p>","e","categorize-html","39","330342","0.0-6.0-1.0-4.0-1.2","3","4","4","3","3","3","3","3","3","4","4","4","2","4","4","4","4","4","5","4","2","2","1","2","1","2","2","4","1","1","0","1","1","0","0","0","1","0","1","1","0","0","0","1","5","1","4","1","4","3","2","4","1","1","1","776480023275376642","王","618","","","","","","","","","","","","","","","","","","","true","12","2","moral","975","negative","黑心","","","","","","","","","","","","","","","","",""
"null","","null","html-keyboard-response","40","330597","0.0-6.0-1.0-4.0-0.3","3","4","4","3","3","3","3","3","3","4","4","4","2","4","4","4","4","4","5","4","2","2","1","2","1","2","2","4","1","1","0","1","1","0","0","0","1","0","1","1","0","0","0","1","5","1","4","1","4","3","2","4","1","1","1","776480023275376642","王","618","","","","","","","","","","","","","","","","","","","","","","","","","","","","","","","","","","","","","","","","","",""
"736","<p style=""color:white; font-size: 35px;"">廉正</p>","i","categorize-html","41","331341","0.0-6.0-1.0-4.0-1.3","3","4","4","3","3","3","3","3","3","4","4","4","2","4","4","4","4","4","5","4","2","2","1","2","1","2","2","4","1","1","0","1","1","0","0","0","1","0","1","1","0","0","0","1","5","1","4","1","4","3","2","4","1","1","1","776480023275376642","王","618","","","","","","","","","","","","","","","","","","","true","12","2","moral","736","positive","廉正","","","","","","","","","","","","","","","","",""
"null","","null","html-keyboard-response","42","331594","0.0-6.0-1.0-4.0-0.4","3","4","4","3","3","3","3","3","3","4","4","4","2","4","4","4","4","4","5","4","2","2","1","2","1","2","2","4","1","1","0","1","1","0","0","0","1","0","1","1","0","0","0","1","5","1","4","1","4","3","2","4","1","1","1","776480023275376642","王","618","","","","","","","","","","","","","","","","","","","","","","","","","","","","","","","","","","","","","","","","","",""
"842","<p style=""color:white; font-size: 35px;"">小人</p>","e","categorize-html","43","332443","0.0-6.0-1.0-4.0-1.4","3","4","4","3","3","3","3","3","3","4","4","4","2","4","4","4","4","4","5","4","2","2","1","2","1","2","2","4","1","1","0","1","1","0","0","0","1","0","1","1","0","0","0","1","5","1","4","1","4","3","2","4","1","1","1","776480023275376642","王","618","","","","","","","","","","","","","","","","","","","true","12","2","moral","842","negative","小人","","","","","","","","","","","","","","","","",""
"null","","null","html-keyboard-response","44","332698","0.0-6.0-1.0-4.0-0.5","3","4","4","3","3","3","3","3","3","4","4","4","2","4","4","4","4","4","5","4","2","2","1","2","1","2","2","4","1","1","0","1","1","0","0","0","1","0","1","1","0","0","0","1","5","1","4","1","4","3","2","4","1","1","1","776480023275376642","王","618","","","","","","","","","","","","","","","","","","","","","","","","","","","","","","","","","","","","","","","","","",""
"822","<p style=""color:white; font-size: 35px;"">君子</p>","i","categorize-html","45","333528","0.0-6.0-1.0-4.0-1.5","3","4","4","3","3","3","3","3","3","4","4","4","2","4","4","4","4","4","5","4","2","2","1","2","1","2","2","4","1","1","0","1","1","0","0","0","1","0","1","1","0","0","0","1","5","1","4","1","4","3","2","4","1","1","1","776480023275376642","王","618","","","","","","","","","","","","","","","","","","","true","12","2","moral","822","positive","君子","","","","","","","","","","","","","","","","",""
"null","","null","html-keyboard-response","46","333781","0.0-6.0-1.0-4.0-0.6","3","4","4","3","3","3","3","3","3","4","4","4","2","4","4","4","4","4","5","4","2","2","1","2","1","2","2","4","1","1","0","1","1","0","0","0","1","0","1","1","0","0","0","1","5","1","4","1","4","3","2","4","1","1","1","776480023275376642","王","618","","","","","","","","","","","","","","","","","","","","","","","","","","","","","","","","","","","","","","","","","",""
"927","<p style=""color:white; font-size: 35px;"">不孝</p>","e","categorize-html","47","334714","0.0-6.0-1.0-4.0-1.6","3","4","4","3","3","3","3","3","3","4","4","4","2","4","4","4","4","4","5","4","2","2","1","2","1","2","2","4","1","1","0","1","1","0","0","0","1","0","1","1","0","0","0","1","5","1","4","1","4","3","2","4","1","1","1","776480023275376642","王","618","","","","","","","","","","","","","","","","","","","true","12","2","moral","927","negative","不孝","","","","","","","","","","","","","","","","",""
"null","","null","html-keyboard-response","48","334969","0.0-6.0-1.0-4.0-0.7","3","4","4","3","3","3","3","3","3","4","4","4","2","4","4","4","4","4","5","4","2","2","1","2","1","2","2","4","1","1","0","1","1","0","0","0","1","0","1","1","0","0","0","1","5","1","4","1","4","3","2","4","1","1","1","776480023275376642","王","618","","","","","","","","","","","","","","","","","","","","","","","","","","","","","","","","","","","","","","","","","",""
"1143","<p style=""color:white; font-size: 35px;"">缺德</p>","e","categorize-html","49","336120","0.0-6.0-1.0-4.0-1.7","3","4","4","3","3","3","3","3","3","4","4","4","2","4","4","4","4","4","5","4","2","2","1","2","1","2","2","4","1","1","0","1","1","0","0","0","1","0","1","1","0","0","0","1","5","1","4","1","4","3","2","4","1","1","1","776480023275376642","王","618","","","","","","","","","","","","","","","","","","","true","12","2","moral","1143","negative","缺德","","","","","","","","","","","","","","","","",""
"null","","null","html-keyboard-response","50","336373","0.0-6.0-1.0-4.0-0.8","3","4","4","3","3","3","3","3","3","4","4","4","2","4","4","4","4","4","5","4","2","2","1","2","1","2","2","4","1","1","0","1","1","0","0","0","1","0","1","1","0","0","0","1","5","1","4","1","4","3","2","4","1","1","1","776480023275376642","王","618","","","","","","","","","","","","","","","","","","","","","","","","","","","","","","","","","","","","","","","","","",""
"780","<p style=""color:white; font-size: 35px;"">不仁</p>","e","categorize-html","51","337160","0.0-6.0-1.0-4.0-1.8","3","4","4","3","3","3","3","3","3","4","4","4","2","4","4","4","4","4","5","4","2","2","1","2","1","2","2","4","1","1","0","1","1","0","0","0","1","0","1","1","0","0","0","1","5","1","4","1","4","3","2","4","1","1","1","776480023275376642","王","618","","","","","","","","","","","","","","","","","","","true","12","2","moral","780","negative","不仁","","","","","","","","","","","","","","","","",""
"null","","null","html-keyboard-response","52","337415","0.0-6.0-1.0-4.0-0.9","3","4","4","3","3","3","3","3","3","4","4","4","2","4","4","4","4","4","5","4","2","2","1","2","1","2","2","4","1","1","0","1","1","0","0","0","1","0","1","1","0","0","0","1","5","1","4","1","4","3","2","4","1","1","1","776480023275376642","王","618","","","","","","","","","","","","","","","","","","","","","","","","","","","","","","","","","","","","","","","","","",""
"1427","<p style=""color:white; font-size: 35px;"">高尚</p>","i","categorize-html","53","338849","0.0-6.0-1.0-4.0-1.9","3","4","4","3","3","3","3","3","3","4","4","4","2","4","4","4","4","4","5","4","2","2","1","2","1","2","2","4","1","1","0","1","1","0","0","0","1","0","1","1","0","0","0","1","5","1","4","1","4","3","2","4","1","1","1","776480023275376642","王","618","","","","","","","","","","","","","","","","","","","true","12","2","moral","1427","positive","高尚","","","","","","","","","","","","","","","","",""
"null","","null","html-keyboard-response","54","339102","0.0-6.0-1.0-4.0-0.10","3","4","4","3","3","3","3","3","3","4","4","4","2","4","4","4","4","4","5","4","2","2","1","2","1","2","2","4","1","1","0","1","1","0","0","0","1","0","1","1","0","0","0","1","5","1","4","1","4","3","2","4","1","1","1","776480023275376642","王","618","","","","","","","","","","","","","","","","","","","","","","","","","","","","","","","","","","","","","","","","","",""
"876","<p style=""color:white; font-size: 35px;"">善良</p>","i","categorize-html","55","339985","0.0-6.0-1.0-4.0-1.10","3","4","4","3","3","3","3","3","3","4","4","4","2","4","4","4","4","4","5","4","2","2","1","2","1","2","2","4","1","1","0","1","1","0","0","0","1","0","1","1","0","0","0","1","5","1","4","1","4","3","2","4","1","1","1","776480023275376642","王","618","","","","","","","","","","","","","","","","","","","true","12","2","moral","876","positive","善良","","","","","","","","","","","","","","","","",""
"null","","null","html-keyboard-response","56","340240","0.0-6.0-1.0-4.0-0.11","3","4","4","3","3","3","3","3","3","4","4","4","2","4","4","4","4","4","5","4","2","2","1","2","1","2","2","4","1","1","0","1","1","0","0","0","1","0","1","1","0","0","0","1","5","1","4","1","4","3","2","4","1","1","1","776480023275376642","王","618","","","","","","","","","","","","","","","","","","","","","","","","","","","","","","","","","","","","","","","","","",""
"662","<p style=""color:white; font-size: 35px;"">正直</p>","i","categorize-html","57","340911","0.0-6.0-1.0-4.0-1.11","3","4","4","3","3","3","3","3","3","4","4","4","2","4","4","4","4","4","5","4","2","2","1","2","1","2","2","4","1","1","0","1","1","0","0","0","1","0","1","1","0","0","0","1","5","1","4","1","4","3","2","4","1","1","1","776480023275376642","王","618","","","","","","","","","","","","","","","","","","","true","12","2","moral","662","positive","正直","","","","","","","","","","","","","","","","",""
"11939","
    <div class=""tag-bottom""><p>
    —— 任务3：对“自我/消极”词和“他人/积极”词分类 ——<p/>
    <span style=""color:#78DCE8""><b>注意上方，之前的四类词语将混合在一起交替呈现</b></span><p/>
    <span style=""color:#FFD866""><b>请根据上方标签的提示，尽可能正确并且快速地做出按键反应</b></span><p/>
    当按键错误时屏幕中会出现<span style=""color:red""> X </span>，需要按另一个键纠正才能继续<br/><p/>
    请把双手食指分别放在键盘的“E”键和“I”键上<p/>
    按<空格键>开始
    </p></div>"," ","html-keyboard-response","58","352855","0.0-6.0-1.0-5.0","3","4","4","3","3","3","3","3","3","4","4","4","2","4","4","4","4","4","5","4","2","2","1","2","1","2","2","4","1","1","0","1","1","0","0","0","1","0","1","1","0","0","0","1","5","1","4","1","4","3","2","4","1","1","1","776480023275376642","王","618","","","","","","","","","","","","","","","","","","","","","","","","","","","","","","","","","","","","","","","","","",""
"null","","null","html-keyboard-response","59","353108","0.0-6.0-1.0-6.0-0.0","3","4","4","3","3","3","3","3","3","4","4","4","2","4","4","4","4","4","5","4","2","2","1","2","1","2","2","4","1","1","0","1","1","0","0","0","1","0","1","1","0","0","0","1","5","1","4","1","4","3","2","4","1","1","1","776480023275376642","王","618","","","","","","","","","","","","","","","","","","","","","","","","","","","","","","","","","","","","","","","","","",""
"891","<p style=""color:rgb(150, 250, 100); font-size: 35px;"">他</p>","i","categorize-html","60","354008","0.0-6.0-1.0-6.0-1.0","3","4","4","3","3","3","3","3","3","4","4","4","2","4","4","4","4","4","5","4","2","2","1","2","1","2","2","4","1","1","0","1","1","0","0","0","1","0","1","1","0","0","0","1","5","1","4","1","4","3","2","4","1","1","1","776480023275376642","王","618","","","","","","","","","","","","","","","","","","","true","13","3","moral","891","other","他","","","","","","","","","","","","","","","","",""
"null","","null","html-keyboard-response","61","354264","0.0-6.0-1.0-6.0-0.1","3","4","4","3","3","3","3","3","3","4","4","4","2","4","4","4","4","4","5","4","2","2","1","2","1","2","2","4","1","1","0","1","1","0","0","0","1","0","1","1","0","0","0","1","5","1","4","1","4","3","2","4","1","1","1","776480023275376642","王","618","","","","","","","","","","","","","","","","","","","","","","","","","","","","","","","","","","","","","","","","","",""
"977","<p style=""color:white; font-size: 35px;"">黑心</p>","e","categorize-html","62","355250","0.0-6.0-1.0-6.0-1.1","3","4","4","3","3","3","3","3","3","4","4","4","2","4","4","4","4","4","5","4","2","2","1","2","1","2","2","4","1","1","0","1","1","0","0","0","1","0","1","1","0","0","0","1","5","1","4","1","4","3","2","4","1","1","1","776480023275376642","王","618","","","","","","","","","","","","","","","","","","","true","13","3","moral","977","negative","黑心","","","","","","","","","","","","","","","","",""
"null","","null","html-keyboard-response","63","355505","0.0-6.0-1.0-6.0-0.2","3","4","4","3","3","3","3","3","3","4","4","4","2","4","4","4","4","4","5","4","2","2","1","2","1","2","2","4","1","1","0","1","1","0","0","0","1","0","1","1","0","0","0","1","5","1","4","1","4","3","2","4","1","1","1","776480023275376642","王","618","","","","","","","","","","","","","","","","","","","","","","","","","","","","","","","","","","","","","","","","","",""
"736","<p style=""color:rgb(150, 250, 100); font-size: 35px;"">我的</p>","e","categorize-html","64","356253","0.0-6.0-1.0-6.0-1.2","3","4","4","3","3","3","3","3","3","4","4","4","2","4","4","4","4","4","5","4","2","2","1","2","1","2","2","4","1","1","0","1","1","0","0","0","1","0","1","1","0","0","0","1","5","1","4","1","4","3","2","4","1","1","1","776480023275376642","王","618","","","","","","","","","","","","","","","","","","","true","13","3","moral","736","self","我的","","","","","","","","","","","","","","","","",""
"null","","null","html-keyboard-response","65","356507","0.0-6.0-1.0-6.0-0.3","3","4","4","3","3","3","3","3","3","4","4","4","2","4","4","4","4","4","5","4","2","2","1","2","1","2","2","4","1","1","0","1","1","0","0","0","1","0","1","1","0","0","0","1","5","1","4","1","4","3","2","4","1","1","1","776480023275376642","王","618","","","","","","","","","","","","","","","","","","","","","","","","","","","","","","","","","","","","","","","","","",""
"1748","<p style=""color:white; font-size: 35px;"">君子</p>","i","categorize-html","66","358264","0.0-6.0-1.0-6.0-1.3","3","4","4","3","3","3","3","3","3","4","4","4","2","4","4","4","4","4","5","4","2","2","1","2","1","2","2","4","1","1","0","1","1","0","0","0","1","0","1","1","0","0","0","1","5","1","4","1","4","3","2","4","1","1","1","776480023275376642","王","618","","","","","","","","","","","","","","","","","","","true","13","3","moral","1748","positive","君子","","","","","","","","","","","","","","","","",""
"null","","null","html-keyboard-response","67","358517","0.0-6.0-1.0-6.0-0.4","3","4","4","3","3","3","3","3","3","4","4","4","2","4","4","4","4","4","5","4","2","2","1","2","1","2","2","4","1","1","0","1","1","0","0","0","1","0","1","1","0","0","0","1","5","1","4","1","4","3","2","4","1","1","1","776480023275376642","王","618","","","","","","","","","","","","","","","","","","","","","","","","","","","","","","","","","","","","","","","","","",""
"868","<p style=""color:rgb(150, 250, 100); font-size: 35px;"">他人</p>","i","categorize-html","68","359393","0.0-6.0-1.0-6.0-1.4","3","4","4","3","3","3","3","3","3","4","4","4","2","4","4","4","4","4","5","4","2","2","1","2","1","2","2","4","1","1","0","1","1","0","0","0","1","0","1","1","0","0","0","1","5","1","4","1","4","3","2","4","1","1","1","776480023275376642","王","618","","","","","","","","","","","","","","","","","","","true","13","3","moral","868","other","他人","","","","","","","","","","","","","","","","",""
"null","","null","html-keyboard-response","69","359648","0.0-6.0-1.0-6.0-0.5","3","4","4","3","3","3","3","3","3","4","4","4","2","4","4","4","4","4","5","4","2","2","1","2","1","2","2","4","1","1","0","1","1","0","0","0","1","0","1","1","0","0","0","1","5","1","4","1","4","3","2","4","1","1","1","776480023275376642","王","618","","","","","","","","","","","","","","","","","","","","","","","","","","","","","","","","","","","","","","","","","",""
"966","<p style=""color:white; font-size: 35px;"">正直</p>","e","categorize-html","70","361786","0.0-6.0-1.0-6.0-1.5","3","4","4","3","3","3","3","3","3","4","4","4","2","4","4","4","4","4","5","4","2","2","1","2","1","2","2","4","1","1","0","1","1","0","0","0","1","0","1","1","0","0","0","1","5","1","4","1","4","3","2","4","1","1","1","776480023275376642","王","618","","","","","","","","","","","","","","","","","","","false","13","3","moral","1686.4761904761904","positive","正直","","","","","","","","","","","","","","","","",""
"null","","null","html-keyboard-response","71","362039","0.0-6.0-1.0-6.0-0.6","3","4","4","3","3","3","3","3","3","4","4","4","2","4","4","4","4","4","5","4","2","2","1","2","1","2","2","4","1","1","0","1","1","0","0","0","1","0","1","1","0","0","0","1","5","1","4","1","4","3","2","4","1","1","1","776480023275376642","王","618","","","","","","","","","","","","","","","","","","","","","","","","","","","","","","","","","","","","","","","","","",""
"1279","<p style=""color:rgb(150, 250, 100); font-size: 35px;"">自己的</p>","e","categorize-html","72","363328","0.0-6.0-1.0-6.0-1.6","3","4","4","3","3","3","3","3","3","4","4","4","2","4","4","4","4","4","5","4","2","2","1","2","1","2","2","4","1","1","0","1","1","0","0","0","1","0","1","1","0","0","0","1","5","1","4","1","4","3","2","4","1","1","1","776480023275376642","王","618","","","","","","","","","","","","","","","","","","","true","13","3","moral","1279","self","自己的","","","","","","","","","","","","","","","","",""
"null","","null","html-keyboard-response","73","363580","0.0-6.0-1.0-6.0-0.7","3","4","4","3","3","3","3","3","3","4","4","4","2","4","4","4","4","4","5","4","2","2","1","2","1","2","2","4","1","1","0","1","1","0","0","0","1","0","1","1","0","0","0","1","5","1","4","1","4","3","2","4","1","1","1","776480023275376642","王","618","","","","","","","","","","","","","","","","","","","","","","","","","","","","","","","","","","","","","","","","","",""
"840","<p style=""color:white; font-size: 35px;"">缺德</p>","e","categorize-html","74","364429","0.0-6.0-1.0-6.0-1.7","3","4","4","3","3","3","3","3","3","4","4","4","2","4","4","4","4","4","5","4","2","2","1","2","1","2","2","4","1","1","0","1","1","0","0","0","1","0","1","1","0","0","0","1","5","1","4","1","4","3","2","4","1","1","1","776480023275376642","王","618","","","","","","","","","","","","","","","","","","","true","13","3","moral","840","negative","缺德","","","","","","","","","","","","","","","","",""
"null","","null","html-keyboard-response","75","364682","0.0-6.0-1.0-6.0-0.8","3","4","4","3","3","3","3","3","3","4","4","4","2","4","4","4","4","4","5","4","2","2","1","2","1","2","2","4","1","1","0","1","1","0","0","0","1","0","1","1","0","0","0","1","5","1","4","1","4","3","2","4","1","1","1","776480023275376642","王","618","","","","","","","","","","","","","","","","","","","","","","","","","","","","","","","","","","","","","","","","","",""
"936","<p style=""color:rgb(150, 250, 100); font-size: 35px;"">我</p>","e","categorize-html","76","365627","0.0-6.0-1.0-6.0-1.8","3","4","4","3","3","3","3","3","3","4","4","4","2","4","4","4","4","4","5","4","2","2","1","2","1","2","2","4","1","1","0","1","1","0","0","0","1","0","1","1","0","0","0","1","5","1","4","1","4","3","2","4","1","1","1","776480023275376642","王","618","","","","","","","","","","","","","","","","","","","true","13","3","moral","936","self","我","","","","","","","","","","","","","","","","",""
"null","","null","html-keyboard-response","77","365882","0.0-6.0-1.0-6.0-0.9","3","4","4","3","3","3","3","3","3","4","4","4","2","4","4","4","4","4","5","4","2","2","1","2","1","2","2","4","1","1","0","1","1","0","0","0","1","0","1","1","0","0","0","1","5","1","4","1","4","3","2","4","1","1","1","776480023275376642","王","618","","","","","","","","","","","","","","","","","","","","","","","","","","","","","","","","","","","","","","","","","",""
"943","<p style=""color:white; font-size: 35px;"">不仁</p>","e","categorize-html","78","366834","0.0-6.0-1.0-6.0-1.9","3","4","4","3","3","3","3","3","3","4","4","4","2","4","4","4","4","4","5","4","2","2","1","2","1","2","2","4","1","1","0","1","1","0","0","0","1","0","1","1","0","0","0","1","5","1","4","1","4","3","2","4","1","1","1","776480023275376642","王","618","","","","","","","","","","","","","","","","","","","true","13","3","moral","943","negative","不仁","","","","","","","","","","","","","","","","",""
"null","","null","html-keyboard-response","79","367086","0.0-6.0-1.0-6.0-0.10","3","4","4","3","3","3","3","3","3","4","4","4","2","4","4","4","4","4","5","4","2","2","1","2","1","2","2","4","1","1","0","1","1","0","0","0","1","0","1","1","0","0","0","1","5","1","4","1","4","3","2","4","1","1","1","776480023275376642","王","618","","","","","","","","","","","","","","","","","","","","","","","","","","","","","","","","","","","","","","","","","",""
"975","<p style=""color:rgb(150, 250, 100); font-size: 35px;"">他人的</p>","i","categorize-html","80","368069","0.0-6.0-1.0-6.0-1.10","3","4","4","3","3","3","3","3","3","4","4","4","2","4","4","4","4","4","5","4","2","2","1","2","1","2","2","4","1","1","0","1","1","0","0","0","1","0","1","1","0","0","0","1","5","1","4","1","4","3","2","4","1","1","1","776480023275376642","王","618","","","","","","","","","","","","","","","","","","","true","13","3","moral","975","other","他人的","","","","","","","","","","","","","","","","",""
"null","","null","html-keyboard-response","81","368322","0.0-6.0-1.0-6.0-0.11","3","4","4","3","3","3","3","3","3","4","4","4","2","4","4","4","4","4","5","4","2","2","1","2","1","2","2","4","1","1","0","1","1","0","0","0","1","0","1","1","0","0","0","1","5","1","4","1","4","3","2","4","1","1","1","776480023275376642","王","618","","","","","","","","","","","","","","","","","","","","","","","","","","","","","","","","","","","","","","","","","",""
"1074","<p style=""color:white; font-size: 35px;"">高尚</p>","i","categorize-html","82","369405","0.0-6.0-1.0-6.0-1.11","3","4","4","3","3","3","3","3","3","4","4","4","2","4","4","4","4","4","5","4","2","2","1","2","1","2","2","4","1","1","0","1","1","0","0","0","1","0","1","1","0","0","0","1","5","1","4","1","4","3","2","4","1","1","1","776480023275376642","王","618","","","","","","","","","","","","","","","","","","","true","13","3","moral","1074","positive","高尚","","","","","","","","","","","","","","","","",""
"null","","null","html-keyboard-response","83","369657","0.0-6.0-1.0-6.0-0.12","3","4","4","3","3","3","3","3","3","4","4","4","2","4","4","4","4","4","5","4","2","2","1","2","1","2","2","4","1","1","0","1","1","0","0","0","1","0","1","1","0","0","0","1","5","1","4","1","4","3","2","4","1","1","1","776480023275376642","王","618","","","","","","","","","","","","","","","","","","","","","","","","","","","","","","","","","","","","","","","","","",""
"1828","<p style=""color:rgb(150, 250, 100); font-size: 35px;"">他的</p>","i","categorize-html","84","371493","0.0-6.0-1.0-6.0-1.12","3","4","4","3","3","3","3","3","3","4","4","4","2","4","4","4","4","4","5","4","2","2","1","2","1","2","2","4","1","1","0","1","1","0","0","0","1","0","1","1","0","0","0","1","5","1","4","1","4","3","2","4","1","1","1","776480023275376642","王","618","","","","","","","","","","","","","","","","","","","true","13","3","moral","1828","other","他的","","","","","","","","","","","","","","","","",""
"null","","null","html-keyboard-response","85","371746","0.0-6.0-1.0-6.0-0.13","3","4","4","3","3","3","3","3","3","4","4","4","2","4","4","4","4","4","5","4","2","2","1","2","1","2","2","4","1","1","0","1","1","0","0","0","1","0","1","1","0","0","0","1","5","1","4","1","4","3","2","4","1","1","1","776480023275376642","王","618","","","","","","","","","","","","","","","","","","","","","","","","","","","","","","","","","","","","","","","","","",""
"1155","<p style=""color:white; font-size: 35px;"">不孝</p>","i","categorize-html","86","373576","0.0-6.0-1.0-6.0-1.13","3","4","4","3","3","3","3","3","3","4","4","4","2","4","4","4","4","4","5","4","2","2","1","2","1","2","2","4","1","1","0","1","1","0","0","0","1","0","1","1","0","0","0","1","5","1","4","1","4","3","2","4","1","1","1","776480023275376642","王","618","","","","","","","","","","","","","","","","","","","false","13","3","moral","1686.4761904761904","negative","不孝","","","","","","","","","","","","","","","","",""
"null","","null","html-keyboard-response","87","373829","0.0-6.0-1.0-6.0-0.14","3","4","4","3","3","3","3","3","3","4","4","4","2","4","4","4","4","4","5","4","2","2","1","2","1","2","2","4","1","1","0","1","1","0","0","0","1","0","1","1","0","0","0","1","5","1","4","1","4","3","2","4","1","1","1","776480023275376642","王","618","","","","","","","","","","","","","","","","","","","","","","","","","","","","","","","","","","","","","","","","","",""
"1997","<p style=""color:rgb(150, 250, 100); font-size: 35px;"">自己</p>","e","categorize-html","88","375836","0.0-6.0-1.0-6.0-1.14","3","4","4","3","3","3","3","3","3","4","4","4","2","4","4","4","4","4","5","4","2","2","1","2","1","2","2","4","1","1","0","1","1","0","0","0","1","0","1","1","0","0","0","1","5","1","4","1","4","3","2","4","1","1","1","776480023275376642","王","618","","","","","","","","","","","","","","","","","","","true","13","3","moral","1997","self","自己","","","","","","","","","","","","","","","","",""
"null","","null","html-keyboard-response","89","376088","0.0-6.0-1.0-6.0-0.15","3","4","4","3","3","3","3","3","3","4","4","4","2","4","4","4","4","4","5","4","2","2","1","2","1","2","2","4","1","1","0","1","1","0","0","0","1","0","1","1","0","0","0","1","5","1","4","1","4","3","2","4","1","1","1","776480023275376642","王","618","","","","","","","","","","","","","","","","","","","","","","","","","","","","","","","","","","","","","","","","","",""
"726","<p style=""color:white; font-size: 35px;"">诚信</p>","i","categorize-html","90","376823","0.0-6.0-1.0-6.0-1.15","3","4","4","3","3","3","3","3","3","4","4","4","2","4","4","4","4","4","5","4","2","2","1","2","1","2","2","4","1","1","0","1","1","0","0","0","1","0","1","1","0","0","0","1","5","1","4","1","4","3","2","4","1","1","1","776480023275376642","王","618","","","","","","","","","","","","","","","","","","","true","13","3","moral","726","positive","诚信","","","","","","","","","","","","","","","","",""
"null","","null","html-keyboard-response","91","377075","0.0-6.0-1.0-6.0-0.16","3","4","4","3","3","3","3","3","3","4","4","4","2","4","4","4","4","4","5","4","2","2","1","2","1","2","2","4","1","1","0","1","1","0","0","0","1","0","1","1","0","0","0","1","5","1","4","1","4","3","2","4","1","1","1","776480023275376642","王","618","","","","","","","","","","","","","","","","","","","","","","","","","","","","","","","","","","","","","","","","","",""
"838","<p style=""color:rgb(150, 250, 100); font-size: 35px;"">本人</p>","e","categorize-html","92","377922","0.0-6.0-1.0-6.0-1.16","3","4","4","3","3","3","3","3","3","4","4","4","2","4","4","4","4","4","5","4","2","2","1","2","1","2","2","4","1","1","0","1","1","0","0","0","1","0","1","1","0","0","0","1","5","1","4","1","4","3","2","4","1","1","1","776480023275376642","王","618","","","","","","","","","","","","","","","","","","","true","13","3","moral","838","self","本人","","","","","","","","","","","","","","","","",""
"null","","null","html-keyboard-response","93","378178","0.0-6.0-1.0-6.0-0.17","3","4","4","3","3","3","3","3","3","4","4","4","2","4","4","4","4","4","5","4","2","2","1","2","1","2","2","4","1","1","0","1","1","0","0","0","1","0","1","1","0","0","0","1","5","1","4","1","4","3","2","4","1","1","1","776480023275376642","王","618","","","","","","","","","","","","","","","","","","","","","","","","","","","","","","","","","","","","","","","","","",""
"1076","<p style=""color:white; font-size: 35px;"">小人</p>","e","categorize-html","94","379262","0.0-6.0-1.0-6.0-1.17","3","4","4","3","3","3","3","3","3","4","4","4","2","4","4","4","4","4","5","4","2","2","1","2","1","2","2","4","1","1","0","1","1","0","0","0","1","0","1","1","0","0","0","1","5","1","4","1","4","3","2","4","1","1","1","776480023275376642","王","618","","","","","","","","","","","","","","","","","","","true","13","3","moral","1076","negative","小人","","","","","","","","","","","","","","","","",""
"null","","null","html-keyboard-response","95","379514","0.0-6.0-1.0-6.0-0.18","3","4","4","3","3","3","3","3","3","4","4","4","2","4","4","4","4","4","5","4","2","2","1","2","1","2","2","4","1","1","0","1","1","0","0","0","1","0","1","1","0","0","0","1","5","1","4","1","4","3","2","4","1","1","1","776480023275376642","王","618","","","","","","","","","","","","","","","","","","","","","","","","","","","","","","","","","","","","","","","","","",""
"1285","<p style=""color:rgb(150, 250, 100); font-size: 35px;"">别人的</p>","i","categorize-html","96","380807","0.0-6.0-1.0-6.0-1.18","3","4","4","3","3","3","3","3","3","4","4","4","2","4","4","4","4","4","5","4","2","2","1","2","1","2","2","4","1","1","0","1","1","0","0","0","1","0","1","1","0","0","0","1","5","1","4","1","4","3","2","4","1","1","1","776480023275376642","王","618","","","","","","","","","","","","","","","","","","","true","13","3","moral","1285","other","别人的","","","","","","","","","","","","","","","","",""
"null","","null","html-keyboard-response","97","381060","0.0-6.0-1.0-6.0-0.19","3","4","4","3","3","3","3","3","3","4","4","4","2","4","4","4","4","4","5","4","2","2","1","2","1","2","2","4","1","1","0","1","1","0","0","0","1","0","1","1","0","0","0","1","5","1","4","1","4","3","2","4","1","1","1","776480023275376642","王","618","","","","","","","","","","","","","","","","","","","","","","","","","","","","","","","","","","","","","","","","","",""
"868","<p style=""color:white; font-size: 35px;"">善良</p>","i","categorize-html","98","381936","0.0-6.0-1.0-6.0-1.19","3","4","4","3","3","3","3","3","3","4","4","4","2","4","4","4","4","4","5","4","2","2","1","2","1","2","2","4","1","1","0","1","1","0","0","0","1","0","1","1","0","0","0","1","5","1","4","1","4","3","2","4","1","1","1","776480023275376642","王","618","","","","","","","","","","","","","","","","","","","true","13","3","moral","868","positive","善良","","","","","","","","","","","","","","","","",""
"null","","null","html-keyboard-response","99","382191","0.0-6.0-1.0-6.0-0.20","3","4","4","3","3","3","3","3","3","4","4","4","2","4","4","4","4","4","5","4","2","2","1","2","1","2","2","4","1","1","0","1","1","0","0","0","1","0","1","1","0","0","0","1","5","1","4","1","4","3","2","4","1","1","1","776480023275376642","王","618","","","","","","","","","","","","","","","","","","","","","","","","","","","","","","","","","","","","","","","","","",""
"586","<p style=""color:rgb(150, 250, 100); font-size: 35px;"">本人的</p>","i","categorize-html","100","383724","0.0-6.0-1.0-6.0-1.20","3","4","4","3","3","3","3","3","3","4","4","4","2","4","4","4","4","4","5","4","2","2","1","2","1","2","2","4","1","1","0","1","1","0","0","0","1","0","1","1","0","0","0","1","5","1","4","1","4","3","2","4","1","1","1","776480023275376642","王","618","","","","","","","","","","","","","","","","","","","false","13","3","moral","1686.4761904761904","self","本人的","","","","","","","","","","","","","","","","",""
"null","","null","html-keyboard-response","101","383977","0.0-6.0-1.0-6.0-0.21","3","4","4","3","3","3","3","3","3","4","4","4","2","4","4","4","4","4","5","4","2","2","1","2","1","2","2","4","1","1","0","1","1","0","0","0","1","0","1","1","0","0","0","1","5","1","4","1","4","3","2","4","1","1","1","776480023275376642","王","618","","","","","","","","","","","","","","","","","","","","","","","","","","","","","","","","","","","","","","","","","",""
"960","<p style=""color:white; font-size: 35px;"">廉正</p>","i","categorize-html","102","384945","0.0-6.0-1.0-6.0-1.21","3","4","4","3","3","3","3","3","3","4","4","4","2","4","4","4","4","4","5","4","2","2","1","2","1","2","2","4","1","1","0","1","1","0","0","0","1","0","1","1","0","0","0","1","5","1","4","1","4","3","2","4","1","1","1","776480023275376642","王","618","","","","","","","","","","","","","","","","","","","true","13","3","moral","960","positive","廉正","","","","","","","","","","","","","","","","",""
"null","","null","html-keyboard-response","103","385198","0.0-6.0-1.0-6.0-0.22","3","4","4","3","3","3","3","3","3","4","4","4","2","4","4","4","4","4","5","4","2","2","1","2","1","2","2","4","1","1","0","1","1","0","0","0","1","0","1","1","0","0","0","1","5","1","4","1","4","3","2","4","1","1","1","776480023275376642","王","618","","","","","","","","","","","","","","","","","","","","","","","","","","","","","","","","","","","","","","","","","",""
"1225","<p style=""color:rgb(150, 250, 100); font-size: 35px;"">别人</p>","i","categorize-html","104","386431","0.0-6.0-1.0-6.0-1.22","3","4","4","3","3","3","3","3","3","4","4","4","2","4","4","4","4","4","5","4","2","2","1","2","1","2","2","4","1","1","0","1","1","0","0","0","1","0","1","1","0","0","0","1","5","1","4","1","4","3","2","4","1","1","1","776480023275376642","王","618","","","","","","","","","","","","","","","","","","","true","13","3","moral","1225","other","别人","","","","","","","","","","","","","","","","",""
"null","","null","html-keyboard-response","105","386684","0.0-6.0-1.0-6.0-0.23","3","4","4","3","3","3","3","3","3","4","4","4","2","4","4","4","4","4","5","4","2","2","1","2","1","2","2","4","1","1","0","1","1","0","0","0","1","0","1","1","0","0","0","1","5","1","4","1","4","3","2","4","1","1","1","776480023275376642","王","618","","","","","","","","","","","","","","","","","","","","","","","","","","","","","","","","","","","","","","","","","",""
"746","<p style=""color:white; font-size: 35px;"">卑鄙</p>","e","categorize-html","106","387438","0.0-6.0-1.0-6.0-1.23","3","4","4","3","3","3","3","3","3","4","4","4","2","4","4","4","4","4","5","4","2","2","1","2","1","2","2","4","1","1","0","1","1","0","0","0","1","0","1","1","0","0","0","1","5","1","4","1","4","3","2","4","1","1","1","776480023275376642","王","618","","","","","","","","","","","","","","","","","","","true","13","3","moral","746","negative","卑鄙","","","","","","","","","","","","","","","","",""
"16293","
    <div class=""tag-bottom""><p>
    —— 任务4：对“自我/消极”词和“他人/积极”词分类 ——<p/>
    <span style=""color:#78DCE8""><b>与刚才的任务完全相同，请再次对这四类词语分类</b></span><p/>
    <span style=""color:#FFD866""><b>请根据上方标签的提示，尽可能正确并且快速地做出按键反应</b></span><p/>
    当按键错误时屏幕中会出现<span style=""color:red""> X </span>，需要按另一个键纠正才能继续<br/><p/>
    请把双手食指分别放在键盘的“E”键和“I”键上<p/>
    按<空格键>开始
    </p></div>"," ","html-keyboard-response","107","403738","0.0-6.0-1.0-7.0","3","4","4","3","3","3","3","3","3","4","4","4","2","4","4","4","4","4","5","4","2","2","1","2","1","2","2","4","1","1","0","1","1","0","0","0","1","0","1","1","0","0","0","1","5","1","4","1","4","3","2","4","1","1","1","776480023275376642","王","618","","","","","","","","","","","","","","","","","","","","","","","","","","","","","","","","","","","","","","","","","",""
"null","","null","html-keyboard-response","108","403991","0.0-6.0-1.0-8.0-0.0","3","4","4","3","3","3","3","3","3","4","4","4","2","4","4","4","4","4","5","4","2","2","1","2","1","2","2","4","1","1","0","1","1","0","0","0","1","0","1","1","0","0","0","1","5","1","4","1","4","3","2","4","1","1","1","776480023275376642","王","618","","","","","","","","","","","","","","","","","","","","","","","","","","","","","","","","","","","","","","","","","",""
"1025","<p style=""color:rgb(150, 250, 100); font-size: 35px;"">自己</p>","e","categorize-html","109","405025","0.0-6.0-1.0-8.0-1.0","3","4","4","3","3","3","3","3","3","4","4","4","2","4","4","4","4","4","5","4","2","2","1","2","1","2","2","4","1","1","0","1","1","0","0","0","1","0","1","1","0","0","0","1","5","1","4","1","4","3","2","4","1","1","1","776480023275376642","王","618","","","","","","","","","","","","","","","","","","","true","14","4","moral","1025","self","自己","","","","","","","","","","","","","","","","",""
"null","","null","html-keyboard-response","110","405278","0.0-6.0-1.0-8.0-0.1","3","4","4","3","3","3","3","3","3","4","4","4","2","4","4","4","4","4","5","4","2","2","1","2","1","2","2","4","1","1","0","1","1","0","0","0","1","0","1","1","0","0","0","1","5","1","4","1","4","3","2","4","1","1","1","776480023275376642","王","618","","","","","","","","","","","","","","","","","","","","","","","","","","","","","","","","","","","","","","","","","",""
"781","<p style=""color:white; font-size: 35px;"">不仁</p>","e","categorize-html","111","406066","0.0-6.0-1.0-8.0-1.1","3","4","4","3","3","3","3","3","3","4","4","4","2","4","4","4","4","4","5","4","2","2","1","2","1","2","2","4","1","1","0","1","1","0","0","0","1","0","1","1","0","0","0","1","5","1","4","1","4","3","2","4","1","1","1","776480023275376642","王","618","","","","","","","","","","","","","","","","","","","true","14","4","moral","781","negative","不仁","","","","","","","","","","","","","","","","",""
"null","","null","html-keyboard-response","112","406321","0.0-6.0-1.0-8.0-0.2","3","4","4","3","3","3","3","3","3","4","4","4","2","4","4","4","4","4","5","4","2","2","1","2","1","2","2","4","1","1","0","1","1","0","0","0","1","0","1","1","0","0","0","1","5","1","4","1","4","3","2","4","1","1","1","776480023275376642","王","618","","","","","","","","","","","","","","","","","","","","","","","","","","","","","","","","","","","","","","","","","",""
"782","<p style=""color:rgb(150, 250, 100); font-size: 35px;"">他</p>","i","categorize-html","113","407111","0.0-6.0-1.0-8.0-1.2","3","4","4","3","3","3","3","3","3","4","4","4","2","4","4","4","4","4","5","4","2","2","1","2","1","2","2","4","1","1","0","1","1","0","0","0","1","0","1","1","0","0","0","1","5","1","4","1","4","3","2","4","1","1","1","776480023275376642","王","618","","","","","","","","","","","","","","","","","","","true","14","4","moral","782","other","他","","","","","","","","","","","","","","","","",""
"null","","null","html-keyboard-response","114","407366","0.0-6.0-1.0-8.0-0.3","3","4","4","3","3","3","3","3","3","4","4","4","2","4","4","4","4","4","5","4","2","2","1","2","1","2","2","4","1","1","0","1","1","0","0","0","1","0","1","1","0","0","0","1","5","1","4","1","4","3","2","4","1","1","1","776480023275376642","王","618","","","","","","","","","","","","","","","","","","","","","","","","","","","","","","","","","","","","","","","","","",""
"934","<p style=""color:white; font-size: 35px;"">君子</p>","i","categorize-html","115","408308","0.0-6.0-1.0-8.0-1.3","3","4","4","3","3","3","3","3","3","4","4","4","2","4","4","4","4","4","5","4","2","2","1","2","1","2","2","4","1","1","0","1","1","0","0","0","1","0","1","1","0","0","0","1","5","1","4","1","4","3","2","4","1","1","1","776480023275376642","王","618","","","","","","","","","","","","","","","","","","","true","14","4","moral","934","positive","君子","","","","","","","","","","","","","","","","",""
"null","","null","html-keyboard-response","116","408561","0.0-6.0-1.0-8.0-0.4","3","4","4","3","3","3","3","3","3","4","4","4","2","4","4","4","4","4","5","4","2","2","1","2","1","2","2","4","1","1","0","1","1","0","0","0","1","0","1","1","0","0","0","1","5","1","4","1","4","3","2","4","1","1","1","776480023275376642","王","618","","","","","","","","","","","","","","","","","","","","","","","","","","","","","","","","","","","","","","","","","",""
"1009","<p style=""color:rgb(150, 250, 100); font-size: 35px;"">他人的</p>","i","categorize-html","117","409579","0.0-6.0-1.0-8.0-1.4","3","4","4","3","3","3","3","3","3","4","4","4","2","4","4","4","4","4","5","4","2","2","1","2","1","2","2","4","1","1","0","1","1","0","0","0","1","0","1","1","0","0","0","1","5","1","4","1","4","3","2","4","1","1","1","776480023275376642","王","618","","","","","","","","","","","","","","","","","","","true","14","4","moral","1009","other","他人的","","","","","","","","","","","","","","","","",""
"null","","null","html-keyboard-response","118","409832","0.0-6.0-1.0-8.0-0.5","3","4","4","3","3","3","3","3","3","4","4","4","2","4","4","4","4","4","5","4","2","2","1","2","1","2","2","4","1","1","0","1","1","0","0","0","1","0","1","1","0","0","0","1","5","1","4","1","4","3","2","4","1","1","1","776480023275376642","王","618","","","","","","","","","","","","","","","","","","","","","","","","","","","","","","","","","","","","","","","","","",""
"866","<p style=""color:white; font-size: 35px;"">缺德</p>","e","categorize-html","119","410706","0.0-6.0-1.0-8.0-1.5","3","4","4","3","3","3","3","3","3","4","4","4","2","4","4","4","4","4","5","4","2","2","1","2","1","2","2","4","1","1","0","1","1","0","0","0","1","0","1","1","0","0","0","1","5","1","4","1","4","3","2","4","1","1","1","776480023275376642","王","618","","","","","","","","","","","","","","","","","","","true","14","4","moral","866","negative","缺德","","","","","","","","","","","","","","","","",""
"null","","null","html-keyboard-response","120","410961","0.0-6.0-1.0-8.0-0.6","3","4","4","3","3","3","3","3","3","4","4","4","2","4","4","4","4","4","5","4","2","2","1","2","1","2","2","4","1","1","0","1","1","0","0","0","1","0","1","1","0","0","0","1","5","1","4","1","4","3","2","4","1","1","1","776480023275376642","王","618","","","","","","","","","","","","","","","","","","","","","","","","","","","","","","","","","","","","","","","","","",""
"685","<p style=""color:rgb(150, 250, 100); font-size: 35px;"">本人的</p>","e","categorize-html","121","411654","0.0-6.0-1.0-8.0-1.6","3","4","4","3","3","3","3","3","3","4","4","4","2","4","4","4","4","4","5","4","2","2","1","2","1","2","2","4","1","1","0","1","1","0","0","0","1","0","1","1","0","0","0","1","5","1","4","1","4","3","2","4","1","1","1","776480023275376642","王","618","","","","","","","","","","","","","","","","","","","true","14","4","moral","685","self","本人的","","","","","","","","","","","","","","","","",""
"null","","null","html-keyboard-response","122","411907","0.0-6.0-1.0-8.0-0.7","3","4","4","3","3","3","3","3","3","4","4","4","2","4","4","4","4","4","5","4","2","2","1","2","1","2","2","4","1","1","0","1","1","0","0","0","1","0","1","1","0","0","0","1","5","1","4","1","4","3","2","4","1","1","1","776480023275376642","王","618","","","","","","","","","","","","","","","","","","","","","","","","","","","","","","","","","","","","","","","","","",""
"768","<p style=""color:white; font-size: 35px;"">高尚</p>","i","categorize-html","123","412683","0.0-6.0-1.0-8.0-1.7","3","4","4","3","3","3","3","3","3","4","4","4","2","4","4","4","4","4","5","4","2","2","1","2","1","2","2","4","1","1","0","1","1","0","0","0","1","0","1","1","0","0","0","1","5","1","4","1","4","3","2","4","1","1","1","776480023275376642","王","618","","","","","","","","","","","","","","","","","","","true","14","4","moral","768","positive","高尚","","","","","","","","","","","","","","","","",""
"null","","null","html-keyboard-response","124","412938","0.0-6.0-1.0-8.0-0.8","3","4","4","3","3","3","3","3","3","4","4","4","2","4","4","4","4","4","5","4","2","2","1","2","1","2","2","4","1","1","0","1","1","0","0","0","1","0","1","1","0","0","0","1","5","1","4","1","4","3","2","4","1","1","1","776480023275376642","王","618","","","","","","","","","","","","","","","","","","","","","","","","","","","","","","","","","","","","","","","","","",""
"958","<p style=""color:rgb(150, 250, 100); font-size: 35px;"">别人的</p>","i","categorize-html","125","413904","0.0-6.0-1.0-8.0-1.8","3","4","4","3","3","3","3","3","3","4","4","4","2","4","4","4","4","4","5","4","2","2","1","2","1","2","2","4","1","1","0","1","1","0","0","0","1","0","1","1","0","0","0","1","5","1","4","1","4","3","2","4","1","1","1","776480023275376642","王","618","","","","","","","","","","","","","","","","","","","true","14","4","moral","958","other","别人的","","","","","","","","","","","","","","","","",""
"null","","null","html-keyboard-response","126","414157","0.0-6.0-1.0-8.0-0.9","3","4","4","3","3","3","3","3","3","4","4","4","2","4","4","4","4","4","5","4","2","2","1","2","1","2","2","4","1","1","0","1","1","0","0","0","1","0","1","1","0","0","0","1","5","1","4","1","4","3","2","4","1","1","1","776480023275376642","王","618","","","","","","","","","","","","","","","","","","","","","","","","","","","","","","","","","","","","","","","","","",""
"747","<p style=""color:white; font-size: 35px;"">黑心</p>","e","categorize-html","127","414912","0.0-6.0-1.0-8.0-1.9","3","4","4","3","3","3","3","3","3","4","4","4","2","4","4","4","4","4","5","4","2","2","1","2","1","2","2","4","1","1","0","1","1","0","0","0","1","0","1","1","0","0","0","1","5","1","4","1","4","3","2","4","1","1","1","776480023275376642","王","618","","","","","","","","","","","","","","","","","","","true","14","4","moral","747","negative","黑心","","","","","","","","","","","","","","","","",""
"null","","null","html-keyboard-response","128","415165","0.0-6.0-1.0-8.0-0.10","3","4","4","3","3","3","3","3","3","4","4","4","2","4","4","4","4","4","5","4","2","2","1","2","1","2","2","4","1","1","0","1","1","0","0","0","1","0","1","1","0","0","0","1","5","1","4","1","4","3","2","4","1","1","1","776480023275376642","王","618","","","","","","","","","","","","","","","","","","","","","","","","","","","","","","","","","","","","","","","","","",""
"665","<p style=""color:rgb(150, 250, 100); font-size: 35px;"">我的</p>","e","categorize-html","129","415839","0.0-6.0-1.0-8.0-1.10","3","4","4","3","3","3","3","3","3","4","4","4","2","4","4","4","4","4","5","4","2","2","1","2","1","2","2","4","1","1","0","1","1","0","0","0","1","0","1","1","0","0","0","1","5","1","4","1","4","3","2","4","1","1","1","776480023275376642","王","618","","","","","","","","","","","","","","","","","","","true","14","4","moral","665","self","我的","","","","","","","","","","","","","","","","",""
"null","","null","html-keyboard-response","130","416092","0.0-6.0-1.0-8.0-0.11","3","4","4","3","3","3","3","3","3","4","4","4","2","4","4","4","4","4","5","4","2","2","1","2","1","2","2","4","1","1","0","1","1","0","0","0","1","0","1","1","0","0","0","1","5","1","4","1","4","3","2","4","1","1","1","776480023275376642","王","618","","","","","","","","","","","","","","","","","","","","","","","","","","","","","","","","","","","","","","","","","",""
"667","<p style=""color:white; font-size: 35px;"">廉正</p>","i","categorize-html","131","416767","0.0-6.0-1.0-8.0-1.11","3","4","4","3","3","3","3","3","3","4","4","4","2","4","4","4","4","4","5","4","2","2","1","2","1","2","2","4","1","1","0","1","1","0","0","0","1","0","1","1","0","0","0","1","5","1","4","1","4","3","2","4","1","1","1","776480023275376642","王","618","","","","","","","","","","","","","","","","","","","true","14","4","moral","667","positive","廉正","","","","","","","","","","","","","","","","",""
"null","","null","html-keyboard-response","132","417022","0.0-6.0-1.0-8.0-0.12","3","4","4","3","3","3","3","3","3","4","4","4","2","4","4","4","4","4","5","4","2","2","1","2","1","2","2","4","1","1","0","1","1","0","0","0","1","0","1","1","0","0","0","1","5","1","4","1","4","3","2","4","1","1","1","776480023275376642","王","618","","","","","","","","","","","","","","","","","","","","","","","","","","","","","","","","","","","","","","","","","",""
"673","<p style=""color:rgb(150, 250, 100); font-size: 35px;"">他的</p>","i","categorize-html","133","417703","0.0-6.0-1.0-8.0-1.12","3","4","4","3","3","3","3","3","3","4","4","4","2","4","4","4","4","4","5","4","2","2","1","2","1","2","2","4","1","1","0","1","1","0","0","0","1","0","1","1","0","0","0","1","5","1","4","1","4","3","2","4","1","1","1","776480023275376642","王","618","","","","","","","","","","","","","","","","","","","true","14","4","moral","673","other","他的","","","","","","","","","","","","","","","","",""
"null","","null","html-keyboard-response","134","417956","0.0-6.0-1.0-8.0-0.13","3","4","4","3","3","3","3","3","3","4","4","4","2","4","4","4","4","4","5","4","2","2","1","2","1","2","2","4","1","1","0","1","1","0","0","0","1","0","1","1","0","0","0","1","5","1","4","1","4","3","2","4","1","1","1","776480023275376642","王","618","","","","","","","","","","","","","","","","","","","","","","","","","","","","","","","","","","","","","","","","","",""
"693","<p style=""color:white; font-size: 35px;"">黑心</p>","e","categorize-html","135","418657","0.0-6.0-1.0-8.0-1.13","3","4","4","3","3","3","3","3","3","4","4","4","2","4","4","4","4","4","5","4","2","2","1","2","1","2","2","4","1","1","0","1","1","0","0","0","1","0","1","1","0","0","0","1","5","1","4","1","4","3","2","4","1","1","1","776480023275376642","王","618","","","","","","","","","","","","","","","","","","","true","14","4","moral","693","negative","黑心","","","","","","","","","","","","","","","","",""
"null","","null","html-keyboard-response","136","418910","0.0-6.0-1.0-8.0-0.14","3","4","4","3","3","3","3","3","3","4","4","4","2","4","4","4","4","4","5","4","2","2","1","2","1","2","2","4","1","1","0","1","1","0","0","0","1","0","1","1","0","0","0","1","5","1","4","1","4","3","2","4","1","1","1","776480023275376642","王","618","","","","","","","","","","","","","","","","","","","","","","","","","","","","","","","","","","","","","","","","","",""
"648","<p style=""color:rgb(150, 250, 100); font-size: 35px;"">我</p>","e","categorize-html","137","419567","0.0-6.0-1.0-8.0-1.14","3","4","4","3","3","3","3","3","3","4","4","4","2","4","4","4","4","4","5","4","2","2","1","2","1","2","2","4","1","1","0","1","1","0","0","0","1","0","1","1","0","0","0","1","5","1","4","1","4","3","2","4","1","1","1","776480023275376642","王","618","","","","","","","","","","","","","","","","","","","true","14","4","moral","648","self","我","","","","","","","","","","","","","","","","",""
"null","","null","html-keyboard-response","138","419820","0.0-6.0-1.0-8.0-0.15","3","4","4","3","3","3","3","3","3","4","4","4","2","4","4","4","4","4","5","4","2","2","1","2","1","2","2","4","1","1","0","1","1","0","0","0","1","0","1","1","0","0","0","1","5","1","4","1","4","3","2","4","1","1","1","776480023275376642","王","618","","","","","","","","","","","","","","","","","","","","","","","","","","","","","","","","","","","","","","","","","",""
"710","<p style=""color:white; font-size: 35px;"">君子</p>","i","categorize-html","139","420538","0.0-6.0-1.0-8.0-1.15","3","4","4","3","3","3","3","3","3","4","4","4","2","4","4","4","4","4","5","4","2","2","1","2","1","2","2","4","1","1","0","1","1","0","0","0","1","0","1","1","0","0","0","1","5","1","4","1","4","3","2","4","1","1","1","776480023275376642","王","618","","","","","","","","","","","","","","","","","","","true","14","4","moral","710","positive","君子","","","","","","","","","","","","","","","","",""
"null","","null","html-keyboard-response","140","420791","0.0-6.0-1.0-8.0-0.16","3","4","4","3","3","3","3","3","3","4","4","4","2","4","4","4","4","4","5","4","2","2","1","2","1","2","2","4","1","1","0","1","1","0","0","0","1","0","1","1","0","0","0","1","5","1","4","1","4","3","2","4","1","1","1","776480023275376642","王","618","","","","","","","","","","","","","","","","","","","","","","","","","","","","","","","","","","","","","","","","","",""
"807","<p style=""color:rgb(150, 250, 100); font-size: 35px;"">自己的</p>","e","categorize-html","141","421606","0.0-6.0-1.0-8.0-1.16","3","4","4","3","3","3","3","3","3","4","4","4","2","4","4","4","4","4","5","4","2","2","1","2","1","2","2","4","1","1","0","1","1","0","0","0","1","0","1","1","0","0","0","1","5","1","4","1","4","3","2","4","1","1","1","776480023275376642","王","618","","","","","","","","","","","","","","","","","","","true","14","4","moral","807","self","自己的","","","","","","","","","","","","","","","","",""
"null","","null","html-keyboard-response","142","421859","0.0-6.0-1.0-8.0-0.17","3","4","4","3","3","3","3","3","3","4","4","4","2","4","4","4","4","4","5","4","2","2","1","2","1","2","2","4","1","1","0","1","1","0","0","0","1","0","1","1","0","0","0","1","5","1","4","1","4","3","2","4","1","1","1","776480023275376642","王","618","","","","","","","","","","","","","","","","","","","","","","","","","","","","","","","","","","","","","","","","","",""
"753","<p style=""color:white; font-size: 35px;"">缺德</p>","e","categorize-html","143","422621","0.0-6.0-1.0-8.0-1.17","3","4","4","3","3","3","3","3","3","4","4","4","2","4","4","4","4","4","5","4","2","2","1","2","1","2","2","4","1","1","0","1","1","0","0","0","1","0","1","1","0","0","0","1","5","1","4","1","4","3","2","4","1","1","1","776480023275376642","王","618","","","","","","","","","","","","","","","","","","","true","14","4","moral","753","negative","缺德","","","","","","","","","","","","","","","","",""
"null","","null","html-keyboard-response","144","422873","0.0-6.0-1.0-8.0-0.18","3","4","4","3","3","3","3","3","3","4","4","4","2","4","4","4","4","4","5","4","2","2","1","2","1","2","2","4","1","1","0","1","1","0","0","0","1","0","1","1","0","0","0","1","5","1","4","1","4","3","2","4","1","1","1","776480023275376642","王","618","","","","","","","","","","","","","","","","","","","","","","","","","","","","","","","","","","","","","","","","","",""
"732","<p style=""color:rgb(150, 250, 100); font-size: 35px;"">他人的</p>","i","categorize-html","145","423613","0.0-6.0-1.0-8.0-1.18","3","4","4","3","3","3","3","3","3","4","4","4","2","4","4","4","4","4","5","4","2","2","1","2","1","2","2","4","1","1","0","1","1","0","0","0","1","0","1","1","0","0","0","1","5","1","4","1","4","3","2","4","1","1","1","776480023275376642","王","618","","","","","","","","","","","","","","","","","","","true","14","4","moral","732","other","他人的","","","","","","","","","","","","","","","","",""
"null","","null","html-keyboard-response","146","423868","0.0-6.0-1.0-8.0-0.19","3","4","4","3","3","3","3","3","3","4","4","4","2","4","4","4","4","4","5","4","2","2","1","2","1","2","2","4","1","1","0","1","1","0","0","0","1","0","1","1","0","0","0","1","5","1","4","1","4","3","2","4","1","1","1","776480023275376642","王","618","","","","","","","","","","","","","","","","","","","","","","","","","","","","","","","","","","","","","","","","","",""
"821","<p style=""color:white; font-size: 35px;"">正直</p>","i","categorize-html","147","424698","0.0-6.0-1.0-8.0-1.19","3","4","4","3","3","3","3","3","3","4","4","4","2","4","4","4","4","4","5","4","2","2","1","2","1","2","2","4","1","1","0","1","1","0","0","0","1","0","1","1","0","0","0","1","5","1","4","1","4","3","2","4","1","1","1","776480023275376642","王","618","","","","","","","","","","","","","","","","","","","true","14","4","moral","821","positive","正直","","","","","","","","","","","","","","","","",""
"null","","null","html-keyboard-response","148","424950","0.0-6.0-1.0-8.0-0.20","3","4","4","3","3","3","3","3","3","4","4","4","2","4","4","4","4","4","5","4","2","2","1","2","1","2","2","4","1","1","0","1","1","0","0","0","1","0","1","1","0","0","0","1","5","1","4","1","4","3","2","4","1","1","1","776480023275376642","王","618","","","","","","","","","","","","","","","","","","","","","","","","","","","","","","","","","","","","","","","","","",""
"632","<p style=""color:rgb(150, 250, 100); font-size: 35px;"">自己的</p>","e","categorize-html","149","425590","0.0-6.0-1.0-8.0-1.20","3","4","4","3","3","3","3","3","3","4","4","4","2","4","4","4","4","4","5","4","2","2","1","2","1","2","2","4","1","1","0","1","1","0","0","0","1","0","1","1","0","0","0","1","5","1","4","1","4","3","2","4","1","1","1","776480023275376642","王","618","","","","","","","","","","","","","","","","","","","true","14","4","moral","632","self","自己的","","","","","","","","","","","","","","","","",""
"null","","null","html-keyboard-response","150","425843","0.0-6.0-1.0-8.0-0.21","3","4","4","3","3","3","3","3","3","4","4","4","2","4","4","4","4","4","5","4","2","2","1","2","1","2","2","4","1","1","0","1","1","0","0","0","1","0","1","1","0","0","0","1","5","1","4","1","4","3","2","4","1","1","1","776480023275376642","王","618","","","","","","","","","","","","","","","","","","","","","","","","","","","","","","","","","","","","","","","","","",""
"651","<p style=""color:white; font-size: 35px;"">不仁</p>","e","categorize-html","151","426502","0.0-6.0-1.0-8.0-1.21","3","4","4","3","3","3","3","3","3","4","4","4","2","4","4","4","4","4","5","4","2","2","1","2","1","2","2","4","1","1","0","1","1","0","0","0","1","0","1","1","0","0","0","1","5","1","4","1","4","3","2","4","1","1","1","776480023275376642","王","618","","","","","","","","","","","","","","","","","","","true","14","4","moral","651","negative","不仁","","","","","","","","","","","","","","","","",""
"null","","null","html-keyboard-response","152","426754","0.0-6.0-1.0-8.0-0.22","3","4","4","3","3","3","3","3","3","4","4","4","2","4","4","4","4","4","5","4","2","2","1","2","1","2","2","4","1","1","0","1","1","0","0","0","1","0","1","1","0","0","0","1","5","1","4","1","4","3","2","4","1","1","1","776480023275376642","王","618","","","","","","","","","","","","","","","","","","","","","","","","","","","","","","","","","","","","","","","","","",""
"752","<p style=""color:rgb(150, 250, 100); font-size: 35px;"">别人</p>","i","categorize-html","153","427514","0.0-6.0-1.0-8.0-1.22","3","4","4","3","3","3","3","3","3","4","4","4","2","4","4","4","4","4","5","4","2","2","1","2","1","2","2","4","1","1","0","1","1","0","0","0","1","0","1","1","0","0","0","1","5","1","4","1","4","3","2","4","1","1","1","776480023275376642","王","618","","","","","","","","","","","","","","","","","","","true","14","4","moral","752","other","别人","","","","","","","","","","","","","","","","",""
"null","","null","html-keyboard-response","154","427767","0.0-6.0-1.0-8.0-0.23","3","4","4","3","3","3","3","3","3","4","4","4","2","4","4","4","4","4","5","4","2","2","1","2","1","2","2","4","1","1","0","1","1","0","0","0","1","0","1","1","0","0","0","1","5","1","4","1","4","3","2","4","1","1","1","776480023275376642","王","618","","","","","","","","","","","","","","","","","","","","","","","","","","","","","","","","","","","","","","","","","",""
"772","<p style=""color:white; font-size: 35px;"">正直</p>","i","categorize-html","155","428548","0.0-6.0-1.0-8.0-1.23","3","4","4","3","3","3","3","3","3","4","4","4","2","4","4","4","4","4","5","4","2","2","1","2","1","2","2","4","1","1","0","1","1","0","0","0","1","0","1","1","0","0","0","1","5","1","4","1","4","3","2","4","1","1","1","776480023275376642","王","618","","","","","","","","","","","","","","","","","","","true","14","4","moral","772","positive","正直","","","","","","","","","","","","","","","","",""
"null","","null","html-keyboard-response","156","428801","0.0-6.0-1.0-8.0-0.24","3","4","4","3","3","3","3","3","3","4","4","4","2","4","4","4","4","4","5","4","2","2","1","2","1","2","2","4","1","1","0","1","1","0","0","0","1","0","1","1","0","0","0","1","5","1","4","1","4","3","2","4","1","1","1","776480023275376642","王","618","","","","","","","","","","","","","","","","","","","","","","","","","","","","","","","","","","","","","","","","","",""
"779","<p style=""color:rgb(150, 250, 100); font-size: 35px;"">本人</p>","e","categorize-html","157","429588","0.0-6.0-1.0-8.0-1.24","3","4","4","3","3","3","3","3","3","4","4","4","2","4","4","4","4","4","5","4","2","2","1","2","1","2","2","4","1","1","0","1","1","0","0","0","1","0","1","1","0","0","0","1","5","1","4","1","4","3","2","4","1","1","1","776480023275376642","王","618","","","","","","","","","","","","","","","","","","","true","14","4","moral","779","self","本人","","","","","","","","","","","","","","","","",""
"null","","null","html-keyboard-response","158","429843","0.0-6.0-1.0-8.0-0.25","3","4","4","3","3","3","3","3","3","4","4","4","2","4","4","4","4","4","5","4","2","2","1","2","1","2","2","4","1","1","0","1","1","0","0","0","1","0","1","1","0","0","0","1","5","1","4","1","4","3","2","4","1","1","1","776480023275376642","王","618","","","","","","","","","","","","","","","","","","","","","","","","","","","","","","","","","","","","","","","","","",""
"622","<p style=""color:white; font-size: 35px;"">廉正</p>","i","categorize-html","159","430474","0.0-6.0-1.0-8.0-1.25","3","4","4","3","3","3","3","3","3","4","4","4","2","4","4","4","4","4","5","4","2","2","1","2","1","2","2","4","1","1","0","1","1","0","0","0","1","0","1","1","0","0","0","1","5","1","4","1","4","3","2","4","1","1","1","776480023275376642","王","618","","","","","","","","","","","","","","","","","","","true","14","4","moral","622","positive","廉正","","","","","","","","","","","","","","","","",""
"null","","null","html-keyboard-response","160","430730","0.0-6.0-1.0-8.0-0.26","3","4","4","3","3","3","3","3","3","4","4","4","2","4","4","4","4","4","5","4","2","2","1","2","1","2","2","4","1","1","0","1","1","0","0","0","1","0","1","1","0","0","0","1","5","1","4","1","4","3","2","4","1","1","1","776480023275376642","王","618","","","","","","","","","","","","","","","","","","","","","","","","","","","","","","","","","","","","","","","","","",""
"798","<p style=""color:rgb(150, 250, 100); font-size: 35px;"">他人</p>","i","categorize-html","161","431534","0.0-6.0-1.0-8.0-1.26","3","4","4","3","3","3","3","3","3","4","4","4","2","4","4","4","4","4","5","4","2","2","1","2","1","2","2","4","1","1","0","1","1","0","0","0","1","0","1","1","0","0","0","1","5","1","4","1","4","3","2","4","1","1","1","776480023275376642","王","618","","","","","","","","","","","","","","","","","","","true","14","4","moral","798","other","他人","","","","","","","","","","","","","","","","",""
"null","","null","html-keyboard-response","162","431787","0.0-6.0-1.0-8.0-0.27","3","4","4","3","3","3","3","3","3","4","4","4","2","4","4","4","4","4","5","4","2","2","1","2","1","2","2","4","1","1","0","1","1","0","0","0","1","0","1","1","0","0","0","1","5","1","4","1","4","3","2","4","1","1","1","776480023275376642","王","618","","","","","","","","","","","","","","","","","","","","","","","","","","","","","","","","","","","","","","","","","",""
"668","<p style=""color:white; font-size: 35px;"">小人</p>","e","categorize-html","163","432464","0.0-6.0-1.0-8.0-1.27","3","4","4","3","3","3","3","3","3","4","4","4","2","4","4","4","4","4","5","4","2","2","1","2","1","2","2","4","1","1","0","1","1","0","0","0","1","0","1","1","0","0","0","1","5","1","4","1","4","3","2","4","1","1","1","776480023275376642","王","618","","","","","","","","","","","","","","","","","","","true","14","4","moral","668","negative","小人","","","","","","","","","","","","","","","","",""
"null","","null","html-keyboard-response","164","432716","0.0-6.0-1.0-8.0-0.28","3","4","4","3","3","3","3","3","3","4","4","4","2","4","4","4","4","4","5","4","2","2","1","2","1","2","2","4","1","1","0","1","1","0","0","0","1","0","1","1","0","0","0","1","5","1","4","1","4","3","2","4","1","1","1","776480023275376642","王","618","","","","","","","","","","","","","","","","","","","","","","","","","","","","","","","","","","","","","","","","","",""
"721","<p style=""color:rgb(150, 250, 100); font-size: 35px;"">本人的</p>","e","categorize-html","165","433446","0.0-6.0-1.0-8.0-1.28","3","4","4","3","3","3","3","3","3","4","4","4","2","4","4","4","4","4","5","4","2","2","1","2","1","2","2","4","1","1","0","1","1","0","0","0","1","0","1","1","0","0","0","1","5","1","4","1","4","3","2","4","1","1","1","776480023275376642","王","618","","","","","","","","","","","","","","","","","","","true","14","4","moral","721","self","本人的","","","","","","","","","","","","","","","","",""
"null","","null","html-keyboard-response","166","433698","0.0-6.0-1.0-8.0-0.29","3","4","4","3","3","3","3","3","3","4","4","4","2","4","4","4","4","4","5","4","2","2","1","2","1","2","2","4","1","1","0","1","1","0","0","0","1","0","1","1","0","0","0","1","5","1","4","1","4","3","2","4","1","1","1","776480023275376642","王","618","","","","","","","","","","","","","","","","","","","","","","","","","","","","","","","","","","","","","","","","","",""
"686","<p style=""color:white; font-size: 35px;"">善良</p>","i","categorize-html","167","434394","0.0-6.0-1.0-8.0-1.29","3","4","4","3","3","3","3","3","3","4","4","4","2","4","4","4","4","4","5","4","2","2","1","2","1","2","2","4","1","1","0","1","1","0","0","0","1","0","1","1","0","0","0","1","5","1","4","1","4","3","2","4","1","1","1","776480023275376642","王","618","","","","","","","","","","","","","","","","","","","true","14","4","moral","686","positive","善良","","","","","","","","","","","","","","","","",""
"null","","null","html-keyboard-response","168","434646","0.0-6.0-1.0-8.0-0.30","3","4","4","3","3","3","3","3","3","4","4","4","2","4","4","4","4","4","5","4","2","2","1","2","1","2","2","4","1","1","0","1","1","0","0","0","1","0","1","1","0","0","0","1","5","1","4","1","4","3","2","4","1","1","1","776480023275376642","王","618","","","","","","","","","","","","","","","","","","","","","","","","","","","","","","","","","","","","","","","","","",""
"800","<p style=""color:rgb(150, 250, 100); font-size: 35px;"">别人的</p>","i","categorize-html","169","435455","0.0-6.0-1.0-8.0-1.30","3","4","4","3","3","3","3","3","3","4","4","4","2","4","4","4","4","4","5","4","2","2","1","2","1","2","2","4","1","1","0","1","1","0","0","0","1","0","1","1","0","0","0","1","5","1","4","1","4","3","2","4","1","1","1","776480023275376642","王","618","","","","","","","","","","","","","","","","","","","true","14","4","moral","800","other","别人的","","","","","","","","","","","","","","","","",""
"null","","null","html-keyboard-response","170","435708","0.0-6.0-1.0-8.0-0.31","3","4","4","3","3","3","3","3","3","4","4","4","2","4","4","4","4","4","5","4","2","2","1","2","1","2","2","4","1","1","0","1","1","0","0","0","1","0","1","1","0","0","0","1","5","1","4","1","4","3","2","4","1","1","1","776480023275376642","王","618","","","","","","","","","","","","","","","","","","","","","","","","","","","","","","","","","","","","","","","","","",""
"715","<p style=""color:white; font-size: 35px;"">小人</p>","e","categorize-html","171","436432","0.0-6.0-1.0-8.0-1.31","3","4","4","3","3","3","3","3","3","4","4","4","2","4","4","4","4","4","5","4","2","2","1","2","1","2","2","4","1","1","0","1","1","0","0","0","1","0","1","1","0","0","0","1","5","1","4","1","4","3","2","4","1","1","1","776480023275376642","王","618","","","","","","","","","","","","","","","","","","","true","14","4","moral","715","negative","小人","","","","","","","","","","","","","","","","",""
"null","","null","html-keyboard-response","172","436687","0.0-6.0-1.0-8.0-0.32","3","4","4","3","3","3","3","3","3","4","4","4","2","4","4","4","4","4","5","4","2","2","1","2","1","2","2","4","1","1","0","1","1","0","0","0","1","0","1","1","0","0","0","1","5","1","4","1","4","3","2","4","1","1","1","776480023275376642","王","618","","","","","","","","","","","","","","","","","","","","","","","","","","","","","","","","","","","","","","","","","",""
"773","<p style=""color:rgb(150, 250, 100); font-size: 35px;"">他的</p>","i","categorize-html","173","437467","0.0-6.0-1.0-8.0-1.32","3","4","4","3","3","3","3","3","3","4","4","4","2","4","4","4","4","4","5","4","2","2","1","2","1","2","2","4","1","1","0","1","1","0","0","0","1","0","1","1","0","0","0","1","5","1","4","1","4","3","2","4","1","1","1","776480023275376642","王","618","","","","","","","","","","","","","","","","","","","true","14","4","moral","773","other","他的","","","","","","","","","","","","","","","","",""
"null","","null","html-keyboard-response","174","437720","0.0-6.0-1.0-8.0-0.33","3","4","4","3","3","3","3","3","3","4","4","4","2","4","4","4","4","4","5","4","2","2","1","2","1","2","2","4","1","1","0","1","1","0","0","0","1","0","1","1","0","0","0","1","5","1","4","1","4","3","2","4","1","1","1","776480023275376642","王","618","","","","","","","","","","","","","","","","","","","","","","","","","","","","","","","","","","","","","","","","","",""
"944","<p style=""color:white; font-size: 35px;"">不孝</p>","e","categorize-html","175","438671","0.0-6.0-1.0-8.0-1.33","3","4","4","3","3","3","3","3","3","4","4","4","2","4","4","4","4","4","5","4","2","2","1","2","1","2","2","4","1","1","0","1","1","0","0","0","1","0","1","1","0","0","0","1","5","1","4","1","4","3","2","4","1","1","1","776480023275376642","王","618","","","","","","","","","","","","","","","","","","","true","14","4","moral","944","negative","不孝","","","","","","","","","","","","","","","","",""
"null","","null","html-keyboard-response","176","438924","0.0-6.0-1.0-8.0-0.34","3","4","4","3","3","3","3","3","3","4","4","4","2","4","4","4","4","4","5","4","2","2","1","2","1","2","2","4","1","1","0","1","1","0","0","0","1","0","1","1","0","0","0","1","5","1","4","1","4","3","2","4","1","1","1","776480023275376642","王","618","","","","","","","","","","","","","","","","","","","","","","","","","","","","","","","","","","","","","","","","","",""
"646","<p style=""color:rgb(150, 250, 100); font-size: 35px;"">我</p>","e","categorize-html","177","439578","0.0-6.0-1.0-8.0-1.34","3","4","4","3","3","3","3","3","3","4","4","4","2","4","4","4","4","4","5","4","2","2","1","2","1","2","2","4","1","1","0","1","1","0","0","0","1","0","1","1","0","0","0","1","5","1","4","1","4","3","2","4","1","1","1","776480023275376642","王","618","","","","","","","","","","","","","","","","","","","true","14","4","moral","646","self","我","","","","","","","","","","","","","","","","",""
"null","","null","html-keyboard-response","178","439831","0.0-6.0-1.0-8.0-0.35","3","4","4","3","3","3","3","3","3","4","4","4","2","4","4","4","4","4","5","4","2","2","1","2","1","2","2","4","1","1","0","1","1","0","0","0","1","0","1","1","0","0","0","1","5","1","4","1","4","3","2","4","1","1","1","776480023275376642","王","618","","","","","","","","","","","","","","","","","","","","","","","","","","","","","","","","","","","","","","","","","",""
"689","<p style=""color:white; font-size: 35px;"">善良</p>","i","categorize-html","179","440528","0.0-6.0-1.0-8.0-1.35","3","4","4","3","3","3","3","3","3","4","4","4","2","4","4","4","4","4","5","4","2","2","1","2","1","2","2","4","1","1","0","1","1","0","0","0","1","0","1","1","0","0","0","1","5","1","4","1","4","3","2","4","1","1","1","776480023275376642","王","618","","","","","","","","","","","","","","","","","","","true","14","4","moral","689","positive","善良","","","","","","","","","","","","","","","","",""
"null","","null","html-keyboard-response","180","440781","0.0-6.0-1.0-8.0-0.36","3","4","4","3","3","3","3","3","3","4","4","4","2","4","4","4","4","4","5","4","2","2","1","2","1","2","2","4","1","1","0","1","1","0","0","0","1","0","1","1","0","0","0","1","5","1","4","1","4","3","2","4","1","1","1","776480023275376642","王","618","","","","","","","","","","","","","","","","","","","","","","","","","","","","","","","","","","","","","","","","","",""
"849","<p style=""color:rgb(150, 250, 100); font-size: 35px;"">我的</p>","e","categorize-html","181","441638","0.0-6.0-1.0-8.0-1.36","3","4","4","3","3","3","3","3","3","4","4","4","2","4","4","4","4","4","5","4","2","2","1","2","1","2","2","4","1","1","0","1","1","0","0","0","1","0","1","1","0","0","0","1","5","1","4","1","4","3","2","4","1","1","1","776480023275376642","王","618","","","","","","","","","","","","","","","","","","","true","14","4","moral","849","self","我的","","","","","","","","","","","","","","","","",""
"null","","null","html-keyboard-response","182","441891","0.0-6.0-1.0-8.0-0.37","3","4","4","3","3","3","3","3","3","4","4","4","2","4","4","4","4","4","5","4","2","2","1","2","1","2","2","4","1","1","0","1","1","0","0","0","1","0","1","1","0","0","0","1","5","1","4","1","4","3","2","4","1","1","1","776480023275376642","王","618","","","","","","","","","","","","","","","","","","","","","","","","","","","","","","","","","","","","","","","","","",""
"656","<p style=""color:white; font-size: 35px;"">不孝</p>","e","categorize-html","183","442555","0.0-6.0-1.0-8.0-1.37","3","4","4","3","3","3","3","3","3","4","4","4","2","4","4","4","4","4","5","4","2","2","1","2","1","2","2","4","1","1","0","1","1","0","0","0","1","0","1","1","0","0","0","1","5","1","4","1","4","3","2","4","1","1","1","776480023275376642","王","618","","","","","","","","","","","","","","","","","","","true","14","4","moral","656","negative","不孝","","","","","","","","","","","","","","","","",""
"null","","null","html-keyboard-response","184","442808","0.0-6.0-1.0-8.0-0.38","3","4","4","3","3","3","3","3","3","4","4","4","2","4","4","4","4","4","5","4","2","2","1","2","1","2","2","4","1","1","0","1","1","0","0","0","1","0","1","1","0","0","0","1","5","1","4","1","4","3","2","4","1","1","1","776480023275376642","王","618","","","","","","","","","","","","","","","","","","","","","","","","","","","","","","","","","","","","","","","","","",""
"929","<p style=""color:rgb(150, 250, 100); font-size: 35px;"">他人</p>","i","categorize-html","185","443745","0.0-6.0-1.0-8.0-1.38","3","4","4","3","3","3","3","3","3","4","4","4","2","4","4","4","4","4","5","4","2","2","1","2","1","2","2","4","1","1","0","1","1","0","0","0","1","0","1","1","0","0","0","1","5","1","4","1","4","3","2","4","1","1","1","776480023275376642","王","618","","","","","","","","","","","","","","","","","","","true","14","4","moral","929","other","他人","","","","","","","","","","","","","","","","",""
"null","","null","html-keyboard-response","186","443998","0.0-6.0-1.0-8.0-0.39","3","4","4","3","3","3","3","3","3","4","4","4","2","4","4","4","4","4","5","4","2","2","1","2","1","2","2","4","1","1","0","1","1","0","0","0","1","0","1","1","0","0","0","1","5","1","4","1","4","3","2","4","1","1","1","776480023275376642","王","618","","","","","","","","","","","","","","","","","","","","","","","","","","","","","","","","","","","","","","","","","",""
"842","<p style=""color:white; font-size: 35px;"">高尚</p>","i","categorize-html","187","444848","0.0-6.0-1.0-8.0-1.39","3","4","4","3","3","3","3","3","3","4","4","4","2","4","4","4","4","4","5","4","2","2","1","2","1","2","2","4","1","1","0","1","1","0","0","0","1","0","1","1","0","0","0","1","5","1","4","1","4","3","2","4","1","1","1","776480023275376642","王","618","","","","","","","","","","","","","","","","","","","true","14","4","moral","842","positive","高尚","","","","","","","","","","","","","","","","",""
"null","","null","html-keyboard-response","188","445100","0.0-6.0-1.0-8.0-0.40","3","4","4","3","3","3","3","3","3","4","4","4","2","4","4","4","4","4","5","4","2","2","1","2","1","2","2","4","1","1","0","1","1","0","0","0","1","0","1","1","0","0","0","1","5","1","4","1","4","3","2","4","1","1","1","776480023275376642","王","618","","","","","","","","","","","","","","","","","","","","","","","","","","","","","","","","","","","","","","","","","",""
"769","<p style=""color:rgb(150, 250, 100); font-size: 35px;"">自己</p>","e","categorize-html","189","445877","0.0-6.0-1.0-8.0-1.40","3","4","4","3","3","3","3","3","3","4","4","4","2","4","4","4","4","4","5","4","2","2","1","2","1","2","2","4","1","1","0","1","1","0","0","0","1","0","1","1","0","0","0","1","5","1","4","1","4","3","2","4","1","1","1","776480023275376642","王","618","","","","","","","","","","","","","","","","","","","true","14","4","moral","769","self","自己","","","","","","","","","","","","","","","","",""
"null","","null","html-keyboard-response","190","446130","0.0-6.0-1.0-8.0-0.41","3","4","4","3","3","3","3","3","3","4","4","4","2","4","4","4","4","4","5","4","2","2","1","2","1","2","2","4","1","1","0","1","1","0","0","0","1","0","1","1","0","0","0","1","5","1","4","1","4","3","2","4","1","1","1","776480023275376642","王","618","","","","","","","","","","","","","","","","","","","","","","","","","","","","","","","","","","","","","","","","","",""
"805","<p style=""color:white; font-size: 35px;"">卑鄙</p>","e","categorize-html","191","446943","0.0-6.0-1.0-8.0-1.41","3","4","4","3","3","3","3","3","3","4","4","4","2","4","4","4","4","4","5","4","2","2","1","2","1","2","2","4","1","1","0","1","1","0","0","0","1","0","1","1","0","0","0","1","5","1","4","1","4","3","2","4","1","1","1","776480023275376642","王","618","","","","","","","","","","","","","","","","","","","true","14","4","moral","805","negative","卑鄙","","","","","","","","","","","","","","","","",""
"null","","null","html-keyboard-response","192","447196","0.0-6.0-1.0-8.0-0.42","3","4","4","3","3","3","3","3","3","4","4","4","2","4","4","4","4","4","5","4","2","2","1","2","1","2","2","4","1","1","0","1","1","0","0","0","1","0","1","1","0","0","0","1","5","1","4","1","4","3","2","4","1","1","1","776480023275376642","王","618","","","","","","","","","","","","","","","","","","","","","","","","","","","","","","","","","","","","","","","","","",""
