"rt","stimulus","response","trial_type","trial_index","time_elapsed","internal_node_id","ses_1","ses_2","ses_3","ses_4","ses_5","ses_6","ses_7","ses_8","ses_9","ses_10","coreself_1","coreself_2","coreself_3","coreself_4","coreself_5","coreself_6","coreself_7","coreself_8","coreself_9","coreself_10","SGPS_1","SGPS_2","SGPS_3","SGPS_4","SGPS_5","SGPS_6","SGPS_7","SGPS_8","SGPS_9","NPI1","NPI2","NPI3","NPI4","NPI5","NPI6","NPI7","NPI8","NPI9","NPI10","NPI11","NPI12","NPI13","NPI14","NPI15","hsns_1","hsns_2","hsns_3","hsns_4","hsns_5","trap1","hsns_6","hsns_7","hsns_8","hsns_9","hsns_10","subj_idx","friend_name","ParticipantID","value","success","user_agent","responses","item_order","radio_event_ids","radio_event_times","key_event_times","mouse_event_times","straightlining","zigzagging","honeypot","timeout","failed_images","failed_audio","failed_video","view_history","response_type","key_press","avg_frame_time","center_x","center_y","correct_response","correct","identity","Image","word","condition","task_id","screen_id","time_stamp","version_attrib","version_target","IAT","RT","varname","summary","version_attrib2","version_target2","question_order","correct_answer","trap1_item"
"5673","
   <p><div style = ""color: white;font-size:25px;"">您好，欢迎参加本次实验。</div> </p>
   <p><div style = ""color: white;font-size:25px;"">为充分保障您的权利，请确保您已经知晓并同意《参与实验同意书》以及《数据公开知情同意书》。</div></p>
   <p><div style = ""color: white;font-size:25px;"">如果您未见过上述内容，请咨询实验员。</div></p>
   <p><div style = ""color: white;font-size:25px;"">如果您选择继续实验，则表示您已经清楚两份知情同意书的内容并同意。</div></p>
   <p><div style = ""color: pink;font-size:30px;"">请确保您记得day0的实验编号，您将在本次实验输入该编号，若您忘记，请咨询实验员后作答。</div></p>
   <p><div style = ""color: lightblue;font-size:25px;"">请您尽可能认真地作答，我们将依据您在各问卷和按键任务中的作答质量发放报酬。</div></p>
   <p> <div style = ""color: green;font-size:25px;""><按空格键至下页></div> </p>
   "," ","html-keyboard-response","0","5675","0.0-0.0","4","4","4","3","4","4","4","3","4","4","5","5","5","4","5","5","5","5","5","5","1","1","2","1","2","2","2","1","1","1","0","1","1","0","0","0","1","0","1","1","0","1","0","1","4","1","1","2","2","5","2","1","1","4","1","656564688670162944","朱","106","","","","","","","","","","","","","","","","","","","","","","","","","","","","","","","","","","","","","","","","","",""
"","","","call-function","1","5676","0.0-1.0-0.0","4","4","4","3","4","4","4","3","4","4","5","5","5","4","5","5","5","5","5","5","1","1","2","1","2","2","2","1","1","1","0","1","1","0","0","0","1","0","1","1","0","1","0","1","4","1","1","2","2","5","2","1","1","4","1","656564688670162944","朱","106","","","","","","","","","","","","","","","","","","","","","","","","","","","","","","","","","","","","","","","","","",""
"33741","","{""friend_name"":""朱"",""ParticipantID"":""106""}","survey-html-form","2","39417","0.0-1.0-1.0","4","4","4","3","4","4","4","3","4","4","5","5","5","4","5","5","5","5","5","5","1","1","2","1","2","2","2","1","1","1","0","1","1","0","0","0","1","0","1","1","0","1","0","1","4","1","1","2","2","5","2","1","1","4","1","656564688670162944","朱","106","","","","","","","","","","","","","","","","","","","","","","","","","","","","","","","","","","","","","","","","","",""
"","","","fullscreen","3","40575","0.0-2.0","4","4","4","3","4","4","4","3","4","4","5","5","5","4","5","5","5","5","5","5","1","1","2","1","2","2","2","1","1","1","0","1","1","0","0","0","1","0","1","1","0","1","0","1","4","1","1","2","2","5","2","1","1","4","1","656564688670162944","朱","106","","true","{}","","","","","","","","","","","","","","","","","","","","","","","","","","","","","","","","","","","","","","",""
"16297.899999976158","","{""Q01"":""4"",""Q02"":""4"",""Q03"":""4"",""Q04"":""3"",""Q05"":""4"",""Q06"":""4"",""Q07"":""4"",""Q08"":""3"",""Q09"":""4"",""Q10"":""4""}","survey-template","4","56875","0.0-3.0","4","4","4","3","4","4","4","3","4","4","5","5","5","4","5","5","5","5","5","5","1","1","2","1","2","2","2","1","1","1","0","1","1","0","0","0","1","0","1","1","0","1","0","1","4","1","1","2","2","5","2","1","1","4","1","656564688670162944","朱","106","","","","{""Q01"":""4"",""Q02"":""4"",""Q03"":""4"",""Q04"":""3"",""Q05"":""4"",""Q06"":""4"",""Q07"":""4"",""Q08"":""3"",""Q09"":""4"",""Q10"":""4""}","[0,1,2,3,4,5,6,7,8,9]","[""Q01"",""Q02"",""Q03"",""Q04"",""Q05"",""Q06"",""Q08"",""Q07"",""Q09"",""Q10""]","[2096.5,3088.399999976158,4224.5,5416.600000023842,6480.799999952316,8360.399999976158,9608.600000023842,11632.5,12873.600000023842,13440.299999952316]","[]","[2096.5,3088.399999976158,4224.5,5416.600000023842,6480.799999952316,8360.399999976158,9608.600000023842,11632.5,12873.600000023842,13440.299999952316,16296.5]","0.4","0.3333333333333333","0","","","","","","","","","","","","","","","","","","","","","","","","","","","","","",""
"21794.299999952316","","{""Q01"":""5"",""Q02"":""5"",""Q03"":""5"",""Q04"":""4"",""Q05"":""5"",""Q06"":""5"",""Q07"":""5"",""Q08"":""5"",""Q09"":""5"",""Q10"":""5""}","survey-template","5","78674","0.0-4.0","4","4","4","3","4","4","4","3","4","4","5","5","5","4","5","5","5","5","5","5","1","1","2","1","2","2","2","1","1","1","0","1","1","0","0","0","1","0","1","1","0","1","0","1","4","1","1","2","2","5","2","1","1","4","1","656564688670162944","朱","106","","","","{""Q01"":""5"",""Q02"":""5"",""Q03"":""5"",""Q04"":""4"",""Q05"":""5"",""Q06"":""5"",""Q07"":""5"",""Q08"":""5"",""Q09"":""5"",""Q10"":""5""}","[0,1,2,3,4,5,6,7,8,9]","[""Q01"",""Q02"",""Q03"",""Q04"",""Q05"",""Q06"",""Q07"",""Q08"",""Q09"",""Q10"",""Q04""]","[1753.2999999523163,4026.899999976158,4353.5,5753.199999928474,6889.199999928474,8185.199999928474,9153.299999952316,9937.299999952316,12561.299999952316,14833.299999952316,16873.199999928474]","[]","[1753.2999999523163,2753.399999976158,4026.899999976158,4353.5,5753.199999928474,6889.199999928474,8185.199999928474,9153.299999952316,9937.299999952316,12330.5,12561.299999952316,13497.299999952316,14377.199999928474,14833.299999952316,16873.199999928474,21793.199999928474]","0.6","0.5555555555555556","0","","","","","","","","","","","","","","","","","","","","","","","","","","","","","",""
"","","","preload","6","78849","0.0-5.0","4","4","4","3","4","4","4","3","4","4","5","5","5","4","5","5","5","5","5","5","1","1","2","1","2","2","2","1","1","1","0","1","1","0","0","0","1","0","1","1","0","1","0","1","4","1","1","2","2","5","2","1","1","4","1","656564688670162944","朱","106","","true","","","","","","","","","","","false","[]","[]","[]","","","","","","","","","","","","","","","","","","","","","","","","","",""
"1912","","","instructions","7","80761","0.0-6.0","4","4","4","3","4","4","4","3","4","4","5","5","5","4","5","5","5","5","5","5","1","1","2","1","2","2","2","1","1","1","0","1","1","0","0","0","1","0","1","1","0","1","0","1","4","1","1","2","2","5","2","1","1","4","1","656564688670162944","朱","106","","","","","","","","","","","","","","","","","[{""page_index"":0,""viewing_time"":1912}]","","","","","","","","","","","","","","","","","","","","","","","","",""
"92441","","","instructions","8","173202","0.0-7.0-0.0-0.0","4","4","4","3","4","4","4","3","4","4","5","5","5","4","5","5","5","5","5","5","1","1","2","1","2","2","2","1","1","1","0","1","1","0","0","0","1","0","1","1","0","1","0","1","4","1","1","2","2","5","2","1","1","4","1","656564688670162944","朱","106","","","","","","","","","","","","","","","","","[{""page_index"":0,""viewing_time"":89136},{""page_index"":1,""viewing_time"":1976},{""page_index"":2,""viewing_time"":1329}]","","","","","","","","","","","","","","","","","","","","","","","","",""
"676","","j","psychophysics","9","174882","0.0-7.0-0.0-1.0-0.0-0.0","4","4","4","3","4","4","4","3","4","4","5","5","5","4","5","5","5","5","5","5","1","1","2","1","2","2","2","1","1","1","0","1","1","0","0","0","1","0","1","1","0","1","0","1","4","1","1","2","2","5","2","1","1","4","1","656564688670162944","朱","106","","","","nonmatch","","","","","","","","","","","","","","key","j","16.66497999999992","768","428","f","false","match","img/square.png","方形","方形","ALT1_1","prac_ALT1_1","","","","","","","","","","","",""
"null","<span style='color:red; font-size: 70px;'>错误! </span>","null","html-keyboard-response","10","175383","0.0-7.0-0.0-1.0-0.0-1.0","4","4","4","3","4","4","4","3","4","4","5","5","5","4","5","5","5","5","5","5","1","1","2","1","2","2","2","1","1","1","0","1","1","0","0","0","1","0","1","1","0","1","0","1","4","1","1","2","2","5","2","1","1","4","1","656564688670162944","朱","106","","","","","","","","","","","","","","","","","","","","","","","","","","","","","","feedback_test","","","","","","","","","","","",""
"561","","f","psychophysics","11","176946","0.0-7.0-0.0-1.0-0.0-0.1","4","4","4","3","4","4","4","3","4","4","5","5","5","4","5","5","5","5","5","5","1","1","2","1","2","2","2","1","1","1","0","1","1","0","0","0","1","0","1","1","0","1","0","1","4","1","1","2","2","5","2","1","1","4","1","656564688670162944","朱","106","","","","match","","","","","","","","","","","","","","key","f","16.665999999999944","768","428","f","true","match","img/square.png","方形","方形","ALT1_1","prac_ALT1_1","","","","","","","","","","","",""
"null","<span style='color:GreenYellow; font-size: 70px;'>正确! </span>","null","html-keyboard-response","12","177447","0.0-7.0-0.0-1.0-0.0-1.1","4","4","4","3","4","4","4","3","4","4","5","5","5","4","5","5","5","5","5","5","1","1","2","1","2","2","2","1","1","1","0","1","1","0","0","0","1","0","1","1","0","1","0","1","4","1","1","2","2","5","2","1","1","4","1","656564688670162944","朱","106","","","","","","","","","","","","","","","","","","","","","","","","","","","","","","feedback_test","","","","","","","","","","","",""
"625","","f","psychophysics","13","179074","0.0-7.0-0.0-1.0-0.0-0.2","4","4","4","3","4","4","4","3","4","4","5","5","5","4","5","5","5","5","5","5","1","1","2","1","2","2","2","1","1","1","0","1","1","0","0","0","1","0","1","1","0","1","0","1","4","1","1","2","2","5","2","1","1","4","1","656564688670162944","朱","106","","","","match","","","","","","","","","","","","","","key","f","16.664814432989626","768","428","f","true","match","img/trapezoid.png","梯形","梯形","ALT1_1","prac_ALT1_1","","","","","","","","","","","",""
"null","<span style='color:GreenYellow; font-size: 70px;'>正确! </span>","null","html-keyboard-response","14","179574","0.0-7.0-0.0-1.0-0.0-1.2","4","4","4","3","4","4","4","3","4","4","5","5","5","4","5","5","5","5","5","5","1","1","2","1","2","2","2","1","1","1","0","1","1","0","0","0","1","0","1","1","0","1","0","1","4","1","1","2","2","5","2","1","1","4","1","656564688670162944","朱","106","","","","","","","","","","","","","","","","","","","","","","","","","","","","","","feedback_test","","","","","","","","","","","",""
"603","","f","psychophysics","15","181178","0.0-7.0-0.0-1.0-0.0-0.3","4","4","4","3","4","4","4","3","4","4","5","5","5","4","5","5","5","5","5","5","1","1","2","1","2","2","2","1","1","1","0","1","1","0","0","0","1","0","1","1","0","1","0","1","4","1","1","2","2","5","2","1","1","4","1","656564688670162944","朱","106","","","","match","","","","","","","","","","","","","","key","f","16.664610526315855","768","428","f","true","match","img/hexagon.png","六边","六边","ALT1_1","prac_ALT1_1","","","","","","","","","","","",""
"null","<span style='color:GreenYellow; font-size: 70px;'>正确! </span>","null","html-keyboard-response","16","181679","0.0-7.0-0.0-1.0-0.0-1.3","4","4","4","3","4","4","4","3","4","4","5","5","5","4","5","5","5","5","5","5","1","1","2","1","2","2","2","1","1","1","0","1","1","0","0","0","1","0","1","1","0","1","0","1","4","1","1","2","2","5","2","1","1","4","1","656564688670162944","朱","106","","","","","","","","","","","","","","","","","","","","","","","","","","","","","","feedback_test","","","","","","","","","","","",""
"681","","j","psychophysics","17","183362","0.0-7.0-0.0-1.0-0.0-0.4","4","4","4","3","4","4","4","3","4","4","5","5","5","4","5","5","5","5","5","5","1","1","2","1","2","2","2","1","1","1","0","1","1","0","0","0","1","0","1","1","0","1","0","1","4","1","1","2","2","5","2","1","1","4","1","656564688670162944","朱","106","","","","nonmatch","","","","","","","","","","","","","","key","j","16.66583000000013","768","428","j","true","nonmatch","img/ellipse.png","六边","椭圆","ALT1_1","prac_ALT1_1","","","","","","","","","","","",""
"null","<span style='color:GreenYellow; font-size: 70px;'>正确! </span>","null","html-keyboard-response","18","183864","0.0-7.0-0.0-1.0-0.0-1.4","4","4","4","3","4","4","4","3","4","4","5","5","5","4","5","5","5","5","5","5","1","1","2","1","2","2","2","1","1","1","0","1","1","0","0","0","1","0","1","1","0","1","0","1","4","1","1","2","2","5","2","1","1","4","1","656564688670162944","朱","106","","","","","","","","","","","","","","","","","","","","","","","","","","","","","","feedback_test","","","","","","","","","","","",""
"784","","f","psychophysics","19","185649","0.0-7.0-0.0-1.0-0.0-0.5","4","4","4","3","4","4","4","3","4","4","5","5","5","4","5","5","5","5","5","5","1","1","2","1","2","2","2","1","1","1","0","1","1","0","0","0","1","0","1","1","0","1","0","1","4","1","1","2","2","5","2","1","1","4","1","656564688670162944","朱","106","","","","match","","","","","","","","","","","","","","key","f","16.666169811320767","768","428","j","false","nonmatch","img/hexagon.png","椭圆","六边","ALT1_1","prac_ALT1_1","","","","","","","","","","","",""
"null","<span style='color:red; font-size: 70px;'>错误! </span>","null","html-keyboard-response","20","186151","0.0-7.0-0.0-1.0-0.0-1.5","4","4","4","3","4","4","4","3","4","4","5","5","5","4","5","5","5","5","5","5","1","1","2","1","2","2","2","1","1","1","0","1","1","0","0","0","1","0","1","1","0","1","0","1","4","1","1","2","2","5","2","1","1","4","1","656564688670162944","朱","106","","","","","","","","","","","","","","","","","","","","","","","","","","","","","","feedback_test","","","","","","","","","","","",""
"737","","j","psychophysics","21","187890","0.0-7.0-0.0-1.0-0.0-0.6","4","4","4","3","4","4","4","3","4","4","5","5","5","4","5","5","5","5","5","5","1","1","2","1","2","2","2","1","1","1","0","1","1","0","0","0","1","0","1","1","0","1","0","1","4","1","1","2","2","5","2","1","1","4","1","656564688670162944","朱","106","","","","nonmatch","","","","","","","","","","","","","","key","j","16.65944660194184","768","428","j","true","nonmatch","img/trapezoid.png","方形","梯形","ALT1_1","prac_ALT1_1","","","","","","","","","","","",""
"null","<span style='color:GreenYellow; font-size: 70px;'>正确! </span>","null","html-keyboard-response","22","188391","0.0-7.0-0.0-1.0-0.0-1.6","4","4","4","3","4","4","4","3","4","4","5","5","5","4","5","5","5","5","5","5","1","1","2","1","2","2","2","1","1","1","0","1","1","0","0","0","1","0","1","1","0","1","0","1","4","1","1","2","2","5","2","1","1","4","1","656564688670162944","朱","106","","","","","","","","","","","","","","","","","","","","","","","","","","","","","","feedback_test","","","","","","","","","","","",""
"657","","f","psychophysics","23","190050","0.0-7.0-0.0-1.0-0.0-0.7","4","4","4","3","4","4","4","3","4","4","5","5","5","4","5","5","5","5","5","5","1","1","2","1","2","2","2","1","1","1","0","1","1","0","0","0","1","0","1","1","0","1","0","1","4","1","1","2","2","5","2","1","1","4","1","656564688670162944","朱","106","","","","match","","","","","","","","","","","","","","key","f","16.66474489795908","768","428","f","true","match","img/hexagon.png","六边","六边","ALT1_1","prac_ALT1_1","","","","","","","","","","","",""
"null","<span style='color:GreenYellow; font-size: 70px;'>正确! </span>","null","html-keyboard-response","24","190550","0.0-7.0-0.0-1.0-0.0-1.7","4","4","4","3","4","4","4","3","4","4","5","5","5","4","5","5","5","5","5","5","1","1","2","1","2","2","2","1","1","1","0","1","1","0","0","0","1","0","1","1","0","1","0","1","4","1","1","2","2","5","2","1","1","4","1","656564688670162944","朱","106","","","","","","","","","","","","","","","","","","","","","","","","","","","","","","feedback_test","","","","","","","","","","","",""
"715","","j","psychophysics","25","192267","0.0-7.0-0.0-1.0-0.0-0.8","4","4","4","3","4","4","4","3","4","4","5","5","5","4","5","5","5","5","5","5","1","1","2","1","2","2","2","1","1","1","0","1","1","0","0","0","1","0","1","1","0","1","0","1","4","1","1","2","2","5","2","1","1","4","1","656564688670162944","朱","106","","","","nonmatch","","","","","","","","","","","","","","key","j","16.651653465346346","768","428","j","true","nonmatch","img/hexagon.png","方形","六边","ALT1_1","prac_ALT1_1","","","","","","","","","","","",""
"null","<span style='color:GreenYellow; font-size: 70px;'>正确! </span>","null","html-keyboard-response","26","192767","0.0-7.0-0.0-1.0-0.0-1.8","4","4","4","3","4","4","4","3","4","4","5","5","5","4","5","5","5","5","5","5","1","1","2","1","2","2","2","1","1","1","0","1","1","0","0","0","1","0","1","1","0","1","0","1","4","1","1","2","2","5","2","1","1","4","1","656564688670162944","朱","106","","","","","","","","","","","","","","","","","","","","","","","","","","","","","","feedback_test","","","","","","","","","","","",""
"681","","f","psychophysics","27","194450","0.0-7.0-0.0-1.0-0.0-0.9","4","4","4","3","4","4","4","3","4","4","5","5","5","4","5","5","5","5","5","5","1","1","2","1","2","2","2","1","1","1","0","1","1","0","0","0","1","0","1","1","0","1","0","1","4","1","1","2","2","5","2","1","1","4","1","656564688670162944","朱","106","","","","match","","","","","","","","","","","","","","key","f","16.66427272727279","768","428","f","true","match","img/ellipse.png","椭圆","椭圆","ALT1_1","prac_ALT1_1","","","","","","","","","","","",""
"null","<span style='color:GreenYellow; font-size: 70px;'>正确! </span>","null","html-keyboard-response","28","194952","0.0-7.0-0.0-1.0-0.0-1.9","4","4","4","3","4","4","4","3","4","4","5","5","5","4","5","5","5","5","5","5","1","1","2","1","2","2","2","1","1","1","0","1","1","0","0","0","1","0","1","1","0","1","0","1","4","1","1","2","2","5","2","1","1","4","1","656564688670162944","朱","106","","","","","","","","","","","","","","","","","","","","","","","","","","","","","","feedback_test","","","","","","","","","","","",""
"873","","j","psychophysics","29","196826","0.0-7.0-0.0-1.0-0.0-0.10","4","4","4","3","4","4","4","3","4","4","5","5","5","4","5","5","5","5","5","5","1","1","2","1","2","2","2","1","1","1","0","1","1","0","0","0","1","0","1","1","0","1","0","1","4","1","1","2","2","5","2","1","1","4","1","656564688670162944","朱","106","","","","nonmatch","","","","","","","","","","","","","","key","j","16.66432432432424","768","428","j","true","nonmatch","img/hexagon.png","梯形","六边","ALT1_1","prac_ALT1_1","","","","","","","","","","","",""
"null","<span style='color:GreenYellow; font-size: 70px;'>正确! </span>","null","html-keyboard-response","30","197327","0.0-7.0-0.0-1.0-0.0-1.10","4","4","4","3","4","4","4","3","4","4","5","5","5","4","5","5","5","5","5","5","1","1","2","1","2","2","2","1","1","1","0","1","1","0","0","0","1","0","1","1","0","1","0","1","4","1","1","2","2","5","2","1","1","4","1","656564688670162944","朱","106","","","","","","","","","","","","","","","","","","","","","","","","","","","","","","feedback_test","","","","","","","","","","","",""
"577","","j","psychophysics","31","198906","0.0-7.0-0.0-1.0-0.0-0.11","4","4","4","3","4","4","4","3","4","4","5","5","5","4","5","5","5","5","5","5","1","1","2","1","2","2","2","1","1","1","0","1","1","0","0","0","1","0","1","1","0","1","0","1","4","1","1","2","2","5","2","1","1","4","1","656564688670162944","朱","106","","","","nonmatch","","","","","","","","","","","","","","key","j","16.665627659574657","768","428","j","true","nonmatch","img/square.png","椭圆","方形","ALT1_1","prac_ALT1_1","","","","","","","","","","","",""
"null","<span style='color:GreenYellow; font-size: 70px;'>正确! </span>","null","html-keyboard-response","32","199407","0.0-7.0-0.0-1.0-0.0-1.11","4","4","4","3","4","4","4","3","4","4","5","5","5","4","5","5","5","5","5","5","1","1","2","1","2","2","2","1","1","1","0","1","1","0","0","0","1","0","1","1","0","1","0","1","4","1","1","2","2","5","2","1","1","4","1","656564688670162944","朱","106","","","","","","","","","","","","","","","","","","","","","","","","","","","","","","feedback_test","","","","","","","","","","","",""
"634","","j","psychophysics","33","201042","0.0-7.0-0.0-1.0-0.0-0.12","4","4","4","3","4","4","4","3","4","4","5","5","5","4","5","5","5","5","5","5","1","1","2","1","2","2","2","1","1","1","0","1","1","0","0","0","1","0","1","1","0","1","0","1","4","1","1","2","2","5","2","1","1","4","1","656564688670162944","朱","106","","","","nonmatch","","","","","","","","","","","","","","key","j","16.664577319587703","768","428","j","true","nonmatch","img/trapezoid.png","椭圆","梯形","ALT1_1","prac_ALT1_1","","","","","","","","","","","",""
"null","<span style='color:GreenYellow; font-size: 70px;'>正确! </span>","null","html-keyboard-response","34","201543","0.0-7.0-0.0-1.0-0.0-1.12","4","4","4","3","4","4","4","3","4","4","5","5","5","4","5","5","5","5","5","5","1","1","2","1","2","2","2","1","1","1","0","1","1","0","0","0","1","0","1","1","0","1","0","1","4","1","1","2","2","5","2","1","1","4","1","656564688670162944","朱","106","","","","","","","","","","","","","","","","","","","","","","","","","","","","","","feedback_test","","","","","","","","","","","",""
"602","","f","psychophysics","35","203146","0.0-7.0-0.0-1.0-0.0-0.13","4","4","4","3","4","4","4","3","4","4","5","5","5","4","5","5","5","5","5","5","1","1","2","1","2","2","2","1","1","1","0","1","1","0","0","0","1","0","1","1","0","1","0","1","4","1","1","2","2","5","2","1","1","4","1","656564688670162944","朱","106","","","","match","","","","","","","","","","","","","","key","f","16.664842105263194","768","428","f","true","match","img/square.png","方形","方形","ALT1_1","prac_ALT1_1","","","","","","","","","","","",""
"null","<span style='color:GreenYellow; font-size: 70px;'>正确! </span>","null","html-keyboard-response","36","203648","0.0-7.0-0.0-1.0-0.0-1.13","4","4","4","3","4","4","4","3","4","4","5","5","5","4","5","5","5","5","5","5","1","1","2","1","2","2","2","1","1","1","0","1","1","0","0","0","1","0","1","1","0","1","0","1","4","1","1","2","2","5","2","1","1","4","1","656564688670162944","朱","106","","","","","","","","","","","","","","","","","","","","","","","","","","","","","","feedback_test","","","","","","","","","","","",""
"592","","f","psychophysics","37","205242","0.0-7.0-0.0-1.0-0.0-0.14","4","4","4","3","4","4","4","3","4","4","5","5","5","4","5","5","5","5","5","5","1","1","2","1","2","2","2","1","1","1","0","1","1","0","0","0","1","0","1","1","0","1","0","1","4","1","1","2","2","5","2","1","1","4","1","656564688670162944","朱","106","","","","match","","","","","","","","","","","","","","key","f","16.665200000000187","768","428","f","true","match","img/ellipse.png","椭圆","椭圆","ALT1_1","prac_ALT1_1","","","","","","","","","","","",""
"null","<span style='color:GreenYellow; font-size: 70px;'>正确! </span>","null","html-keyboard-response","38","205744","0.0-7.0-0.0-1.0-0.0-1.14","4","4","4","3","4","4","4","3","4","4","5","5","5","4","5","5","5","5","5","5","1","1","2","1","2","2","2","1","1","1","0","1","1","0","0","0","1","0","1","1","0","1","0","1","4","1","1","2","2","5","2","1","1","4","1","656564688670162944","朱","106","","","","","","","","","","","","","","","","","","","","","","","","","","","","","","feedback_test","","","","","","","","","","","",""
"664","","j","psychophysics","39","207410","0.0-7.0-0.0-1.0-0.0-0.15","4","4","4","3","4","4","4","3","4","4","5","5","5","4","5","5","5","5","5","5","1","1","2","1","2","2","2","1","1","1","0","1","1","0","0","0","1","0","1","1","0","1","0","1","4","1","1","2","2","5","2","1","1","4","1","656564688670162944","朱","106","","","","nonmatch","","","","","","","","","","","","","","key","j","16.666171717171725","768","428","j","true","nonmatch","img/ellipse.png","方形","椭圆","ALT1_1","prac_ALT1_1","","","","","","","","","","","",""
"null","<span style='color:GreenYellow; font-size: 70px;'>正确! </span>","null","html-keyboard-response","40","207911","0.0-7.0-0.0-1.0-0.0-1.15","4","4","4","3","4","4","4","3","4","4","5","5","5","4","5","5","5","5","5","5","1","1","2","1","2","2","2","1","1","1","0","1","1","0","0","0","1","0","1","1","0","1","0","1","4","1","1","2","2","5","2","1","1","4","1","656564688670162944","朱","106","","","","","","","","","","","","","","","","","","","","","","","","","","","","","","feedback_test","","","","","","","","","","","",""
"633","","f","psychophysics","41","209546","0.0-7.0-0.0-1.0-0.0-0.16","4","4","4","3","4","4","4","3","4","4","5","5","5","4","5","5","5","5","5","5","1","1","2","1","2","2","2","1","1","1","0","1","1","0","0","0","1","0","1","1","0","1","0","1","4","1","1","2","2","5","2","1","1","4","1","656564688670162944","朱","106","","","","match","","","","","","","","","","","","","","key","f","16.664721649484566","768","428","f","true","match","img/ellipse.png","椭圆","椭圆","ALT1_1","prac_ALT1_1","","","","","","","","","","","",""
"null","<span style='color:GreenYellow; font-size: 70px;'>正确! </span>","null","html-keyboard-response","42","210046","0.0-7.0-0.0-1.0-0.0-1.16","4","4","4","3","4","4","4","3","4","4","5","5","5","4","5","5","5","5","5","5","1","1","2","1","2","2","2","1","1","1","0","1","1","0","0","0","1","0","1","1","0","1","0","1","4","1","1","2","2","5","2","1","1","4","1","656564688670162944","朱","106","","","","","","","","","","","","","","","","","","","","","","","","","","","","","","feedback_test","","","","","","","","","","","",""
"594","","j","psychophysics","43","211642","0.0-7.0-0.0-1.0-0.0-0.17","4","4","4","3","4","4","4","3","4","4","5","5","5","4","5","5","5","5","5","5","1","1","2","1","2","2","2","1","1","1","0","1","1","0","0","0","1","0","1","1","0","1","0","1","4","1","1","2","2","5","2","1","1","4","1","656564688670162944","朱","106","","","","nonmatch","","","","","","","","","","","","","","key","j","16.66471578947385","768","428","j","true","nonmatch","img/trapezoid.png","六边","梯形","ALT1_1","prac_ALT1_1","","","","","","","","","","","",""
"null","<span style='color:GreenYellow; font-size: 70px;'>正确! </span>","null","html-keyboard-response","44","212143","0.0-7.0-0.0-1.0-0.0-1.17","4","4","4","3","4","4","4","3","4","4","5","5","5","4","5","5","5","5","5","5","1","1","2","1","2","2","2","1","1","1","0","1","1","0","0","0","1","0","1","1","0","1","0","1","4","1","1","2","2","5","2","1","1","4","1","656564688670162944","朱","106","","","","","","","","","","","","","","","","","","","","","","","","","","","","","","feedback_test","","","","","","","","","","","",""
"602","","f","psychophysics","45","213746","0.0-7.0-0.0-1.0-0.0-0.18","4","4","4","3","4","4","4","3","4","4","5","5","5","4","5","5","5","5","5","5","1","1","2","1","2","2","2","1","1","1","0","1","1","0","0","0","1","0","1","1","0","1","0","1","4","1","1","2","2","5","2","1","1","4","1","656564688670162944","朱","106","","","","match","","","","","","","","","","","","","","key","f","16.666136842105217","768","428","f","true","match","img/trapezoid.png","梯形","梯形","ALT1_1","prac_ALT1_1","","","","","","","","","","","",""
"null","<span style='color:GreenYellow; font-size: 70px;'>正确! </span>","null","html-keyboard-response","46","214248","0.0-7.0-0.0-1.0-0.0-1.18","4","4","4","3","4","4","4","3","4","4","5","5","5","4","5","5","5","5","5","5","1","1","2","1","2","2","2","1","1","1","0","1","1","0","0","0","1","0","1","1","0","1","0","1","4","1","1","2","2","5","2","1","1","4","1","656564688670162944","朱","106","","","","","","","","","","","","","","","","","","","","","","","","","","","","","","feedback_test","","","","","","","","","","","",""
"776","","f","psychophysics","47","216026","0.0-7.0-0.0-1.0-0.0-0.19","4","4","4","3","4","4","4","3","4","4","5","5","5","4","5","5","5","5","5","5","1","1","2","1","2","2","2","1","1","1","0","1","1","0","0","0","1","0","1","1","0","1","0","1","4","1","1","2","2","5","2","1","1","4","1","656564688670162944","朱","106","","","","match","","","","","","","","","","","","","","key","f","16.664885714285663","768","428","f","true","match","img/hexagon.png","六边","六边","ALT1_1","prac_ALT1_1","","","","","","","","","","","",""
"null","<span style='color:GreenYellow; font-size: 70px;'>正确! </span>","null","html-keyboard-response","48","216527","0.0-7.0-0.0-1.0-0.0-1.19","4","4","4","3","4","4","4","3","4","4","5","5","5","4","5","5","5","5","5","5","1","1","2","1","2","2","2","1","1","1","0","1","1","0","0","0","1","0","1","1","0","1","0","1","4","1","1","2","2","5","2","1","1","4","1","656564688670162944","朱","106","","","","","","","","","","","","","","","","","","","","","","","","","","","","","","feedback_test","","","","","","","","","","","",""
"707","","j","psychophysics","49","218235","0.0-7.0-0.0-1.0-0.0-0.20","4","4","4","3","4","4","4","3","4","4","5","5","5","4","5","5","5","5","5","5","1","1","2","1","2","2","2","1","1","1","0","1","1","0","0","0","1","0","1","1","0","1","0","1","4","1","1","2","2","5","2","1","1","4","1","656564688670162944","朱","106","","","","nonmatch","","","","","","","","","","","","","","key","j","16.66633333333348","768","428","j","true","nonmatch","img/square.png","六边","方形","ALT1_1","prac_ALT1_1","","","","","","","","","","","",""
"null","<span style='color:GreenYellow; font-size: 70px;'>正确! </span>","null","html-keyboard-response","50","218737","0.0-7.0-0.0-1.0-0.0-1.20","4","4","4","3","4","4","4","3","4","4","5","5","5","4","5","5","5","5","5","5","1","1","2","1","2","2","2","1","1","1","0","1","1","0","0","0","1","0","1","1","0","1","0","1","4","1","1","2","2","5","2","1","1","4","1","656564688670162944","朱","106","","","","","","","","","","","","","","","","","","","","","","","","","","","","","","feedback_test","","","","","","","","","","","",""
"630","","j","psychophysics","51","220370","0.0-7.0-0.0-1.0-0.0-0.21","4","4","4","3","4","4","4","3","4","4","5","5","5","4","5","5","5","5","5","5","1","1","2","1","2","2","2","1","1","1","0","1","1","0","0","0","1","0","1","1","0","1","0","1","4","1","1","2","2","5","2","1","1","4","1","656564688670162944","朱","106","","","","nonmatch","","","","","","","","","","","","","","key","j","16.666309278350642","768","428","j","true","nonmatch","img/ellipse.png","梯形","椭圆","ALT1_1","prac_ALT1_1","","","","","","","","","","","",""
"null","<span style='color:GreenYellow; font-size: 70px;'>正确! </span>","null","html-keyboard-response","52","220870","0.0-7.0-0.0-1.0-0.0-1.21","4","4","4","3","4","4","4","3","4","4","5","5","5","4","5","5","5","5","5","5","1","1","2","1","2","2","2","1","1","1","0","1","1","0","0","0","1","0","1","1","0","1","0","1","4","1","1","2","2","5","2","1","1","4","1","656564688670162944","朱","106","","","","","","","","","","","","","","","","","","","","","","","","","","","","","","feedback_test","","","","","","","","","","","",""
"690","","j","psychophysics","53","222562","0.0-7.0-0.0-1.0-0.0-0.22","4","4","4","3","4","4","4","3","4","4","5","5","5","4","5","5","5","5","5","5","1","1","2","1","2","2","2","1","1","1","0","1","1","0","0","0","1","0","1","1","0","1","0","1","4","1","1","2","2","5","2","1","1","4","1","656564688670162944","朱","106","","","","nonmatch","","","","","","","","","","","","","","key","j","16.665620000000054","768","428","j","true","nonmatch","img/square.png","梯形","方形","ALT1_1","prac_ALT1_1","","","","","","","","","","","",""
"null","<span style='color:GreenYellow; font-size: 70px;'>正确! </span>","null","html-keyboard-response","54","223063","0.0-7.0-0.0-1.0-0.0-1.22","4","4","4","3","4","4","4","3","4","4","5","5","5","4","5","5","5","5","5","5","1","1","2","1","2","2","2","1","1","1","0","1","1","0","0","0","1","0","1","1","0","1","0","1","4","1","1","2","2","5","2","1","1","4","1","656564688670162944","朱","106","","","","","","","","","","","","","","","","","","","","","","","","","","","","","","feedback_test","","","","","","","","","","","",""
"617","","f","psychophysics","55","224681","0.0-7.0-0.0-1.0-0.0-0.23","4","4","4","3","4","4","4","3","4","4","5","5","5","4","5","5","5","5","5","5","1","1","2","1","2","2","2","1","1","1","0","1","1","0","0","0","1","0","1","1","0","1","0","1","4","1","1","2","2","5","2","1","1","4","1","656564688670162944","朱","106","","","","match","","","","","","","","","","","","","","key","f","16.664350515464022","768","428","f","true","match","img/trapezoid.png","梯形","梯形","ALT1_1","prac_ALT1_1","","","","","","","","","","","",""
"null","<span style='color:GreenYellow; font-size: 70px;'>正确! </span>","null","html-keyboard-response","56","225183","0.0-7.0-0.0-1.0-0.0-1.23","4","4","4","3","4","4","4","3","4","4","5","5","5","4","5","5","5","5","5","5","1","1","2","1","2","2","2","1","1","1","0","1","1","0","0","0","1","0","1","1","0","1","0","1","4","1","1","2","2","5","2","1","1","4","1","656564688670162944","朱","106","","","","","","","","","","","","","","","","","","","","","","","","","","","","","","feedback_test","","","","","","","","","","","",""
"497","","j","psychophysics","57","226681","0.0-7.0-0.0-1.0-0.0-0.24","4","4","4","3","4","4","4","3","4","4","5","5","5","4","5","5","5","5","5","5","1","1","2","1","2","2","2","1","1","1","0","1","1","0","0","0","1","0","1","1","0","1","0","1","4","1","1","2","2","5","2","1","1","4","1","656564688670162944","朱","106","","","","nonmatch","","","","","","","","","","","","","","key","j","16.66475280898877","768","428","f","false","match","img/ellipse.png","椭圆","椭圆","ALT1_1","prac_ALT1_1","","","","","","","","","","","",""
"null","<span style='color:red; font-size: 70px;'>错误! </span>","null","html-keyboard-response","58","227182","0.0-7.0-0.0-1.0-0.0-1.24","4","4","4","3","4","4","4","3","4","4","5","5","5","4","5","5","5","5","5","5","1","1","2","1","2","2","2","1","1","1","0","1","1","0","0","0","1","0","1","1","0","1","0","1","4","1","1","2","2","5","2","1","1","4","1","656564688670162944","朱","106","","","","","","","","","","","","","","","","","","","","","","","","","","","","","","feedback_test","","","","","","","","","","","",""
"577","","j","psychophysics","59","228761","0.0-7.0-0.0-1.0-0.0-0.25","4","4","4","3","4","4","4","3","4","4","5","5","5","4","5","5","5","5","5","5","1","1","2","1","2","2","2","1","1","1","0","1","1","0","0","0","1","0","1","1","0","1","0","1","4","1","1","2","2","5","2","1","1","4","1","656564688670162944","朱","106","","","","nonmatch","","","","","","","","","","","","","","key","j","16.666483870967824","768","428","j","true","nonmatch","img/hexagon.png","方形","六边","ALT1_1","prac_ALT1_1","","","","","","","","","","","",""
"null","<span style='color:GreenYellow; font-size: 70px;'>正确! </span>","null","html-keyboard-response","60","229262","0.0-7.0-0.0-1.0-0.0-1.25","4","4","4","3","4","4","4","3","4","4","5","5","5","4","5","5","5","5","5","5","1","1","2","1","2","2","2","1","1","1","0","1","1","0","0","0","1","0","1","1","0","1","0","1","4","1","1","2","2","5","2","1","1","4","1","656564688670162944","朱","106","","","","","","","","","","","","","","","","","","","","","","","","","","","","","","feedback_test","","","","","","","","","","","",""
"561","","f","psychophysics","61","230826","0.0-7.0-0.0-1.0-0.0-0.26","4","4","4","3","4","4","4","3","4","4","5","5","5","4","5","5","5","5","5","5","1","1","2","1","2","2","2","1","1","1","0","1","1","0","0","0","1","0","1","1","0","1","0","1","4","1","1","2","2","5","2","1","1","4","1","656564688670162944","朱","106","","","","match","","","","","","","","","","","","","","key","f","16.664709677419346","768","428","f","true","match","img/square.png","方形","方形","ALT1_1","prac_ALT1_1","","","","","","","","","","","",""
"null","<span style='color:GreenYellow; font-size: 70px;'>正确! </span>","null","html-keyboard-response","62","231326","0.0-7.0-0.0-1.0-0.0-1.26","4","4","4","3","4","4","4","3","4","4","5","5","5","4","5","5","5","5","5","5","1","1","2","1","2","2","2","1","1","1","0","1","1","0","0","0","1","0","1","1","0","1","0","1","4","1","1","2","2","5","2","1","1","4","1","656564688670162944","朱","106","","","","","","","","","","","","","","","","","","","","","","","","","","","","","","feedback_test","","","","","","","","","","","",""
"546","","f","psychophysics","63","232875","0.0-7.0-0.0-1.0-0.0-0.27","4","4","4","3","4","4","4","3","4","4","5","5","5","4","5","5","5","5","5","5","1","1","2","1","2","2","2","1","1","1","0","1","1","0","0","0","1","0","1","1","0","1","0","1","4","1","1","2","2","5","2","1","1","4","1","656564688670162944","朱","106","","","","match","","","","","","","","","","","","","","key","f","16.6644891304348","768","428","f","true","match","img/trapezoid.png","梯形","梯形","ALT1_1","prac_ALT1_1","","","","","","","","","","","",""
"null","<span style='color:GreenYellow; font-size: 70px;'>正确! </span>","null","html-keyboard-response","64","233376","0.0-7.0-0.0-1.0-0.0-1.27","4","4","4","3","4","4","4","3","4","4","5","5","5","4","5","5","5","5","5","5","1","1","2","1","2","2","2","1","1","1","0","1","1","0","0","0","1","0","1","1","0","1","0","1","4","1","1","2","2","5","2","1","1","4","1","656564688670162944","朱","106","","","","","","","","","","","","","","","","","","","","","","","","","","","","","","feedback_test","","","","","","","","","","","",""
"696","","j","psychophysics","65","235074","0.0-7.0-0.0-1.0-0.0-0.28","4","4","4","3","4","4","4","3","4","4","5","5","5","4","5","5","5","5","5","5","1","1","2","1","2","2","2","1","1","1","0","1","1","0","0","0","1","0","1","1","0","1","0","1","4","1","1","2","2","5","2","1","1","4","1","656564688670162944","朱","106","","","","nonmatch","","","","","","","","","","","","","","key","j","16.666287128712998","768","428","j","true","nonmatch","img/hexagon.png","梯形","六边","ALT1_1","prac_ALT1_1","","","","","","","","","","","",""
"null","<span style='color:GreenYellow; font-size: 70px;'>正确! </span>","null","html-keyboard-response","66","235575","0.0-7.0-0.0-1.0-0.0-1.28","4","4","4","3","4","4","4","3","4","4","5","5","5","4","5","5","5","5","5","5","1","1","2","1","2","2","2","1","1","1","0","1","1","0","0","0","1","0","1","1","0","1","0","1","4","1","1","2","2","5","2","1","1","4","1","656564688670162944","朱","106","","","","","","","","","","","","","","","","","","","","","","","","","","","","","","feedback_test","","","","","","","","","","","",""
"570","","j","psychophysics","67","237147","0.0-7.0-0.0-1.0-0.0-0.29","4","4","4","3","4","4","4","3","4","4","5","5","5","4","5","5","5","5","5","5","1","1","2","1","2","2","2","1","1","1","0","1","1","0","0","0","1","0","1","1","0","1","0","1","4","1","1","2","2","5","2","1","1","4","1","656564688670162944","朱","106","","","","nonmatch","","","","","","","","","","","","","","key","j","16.6659787234044","768","428","j","true","nonmatch","img/trapezoid.png","方形","梯形","ALT1_1","prac_ALT1_1","","","","","","","","","","","",""
"null","<span style='color:GreenYellow; font-size: 70px;'>正确! </span>","null","html-keyboard-response","68","237647","0.0-7.0-0.0-1.0-0.0-1.29","4","4","4","3","4","4","4","3","4","4","5","5","5","4","5","5","5","5","5","5","1","1","2","1","2","2","2","1","1","1","0","1","1","0","0","0","1","0","1","1","0","1","0","1","4","1","1","2","2","5","2","1","1","4","1","656564688670162944","朱","106","","","","","","","","","","","","","","","","","","","","","","","","","","","","","","feedback_test","","","","","","","","","","","",""
"608","","f","psychophysics","69","239257","0.0-7.0-0.0-1.0-0.0-0.30","4","4","4","3","4","4","4","3","4","4","5","5","5","4","5","5","5","5","5","5","1","1","2","1","2","2","2","1","1","1","0","1","1","0","0","0","1","0","1","1","0","1","0","1","4","1","1","2","2","5","2","1","1","4","1","656564688670162944","朱","106","","","","match","","","","","","","","","","","","","","key","f","16.666115789473867","768","428","f","true","match","img/hexagon.png","六边","六边","ALT1_1","prac_ALT1_1","","","","","","","","","","","",""
"null","<span style='color:GreenYellow; font-size: 70px;'>正确! </span>","null","html-keyboard-response","70","239758","0.0-7.0-0.0-1.0-0.0-1.30","4","4","4","3","4","4","4","3","4","4","5","5","5","4","5","5","5","5","5","5","1","1","2","1","2","2","2","1","1","1","0","1","1","0","0","0","1","0","1","1","0","1","0","1","4","1","1","2","2","5","2","1","1","4","1","656564688670162944","朱","106","","","","","","","","","","","","","","","","","","","","","","","","","","","","","","feedback_test","","","","","","","","","","","",""
"619","","j","psychophysics","71","241378","0.0-7.0-0.0-1.0-0.0-0.31","4","4","4","3","4","4","4","3","4","4","5","5","5","4","5","5","5","5","5","5","1","1","2","1","2","2","2","1","1","1","0","1","1","0","0","0","1","0","1","1","0","1","0","1","4","1","1","2","2","5","2","1","1","4","1","656564688670162944","朱","106","","","","nonmatch","","","","","","","","","","","","","","key","j","16.666104166666628","768","428","j","true","nonmatch","img/square.png","椭圆","方形","ALT1_1","prac_ALT1_1","","","","","","","","","","","",""
"null","<span style='color:GreenYellow; font-size: 70px;'>正确! </span>","null","html-keyboard-response","72","241880","0.0-7.0-0.0-1.0-0.0-1.31","4","4","4","3","4","4","4","3","4","4","5","5","5","4","5","5","5","5","5","5","1","1","2","1","2","2","2","1","1","1","0","1","1","0","0","0","1","0","1","1","0","1","0","1","4","1","1","2","2","5","2","1","1","4","1","656564688670162944","朱","106","","","","","","","","","","","","","","","","","","","","","","","","","","","","","","feedback_test","","","","","","","","","","","",""
"584","","j","psychophysics","73","243466","0.0-7.0-0.0-1.0-0.0-0.32","4","4","4","3","4","4","4","3","4","4","5","5","5","4","5","5","5","5","5","5","1","1","2","1","2","2","2","1","1","1","0","1","1","0","0","0","1","0","1","1","0","1","0","1","4","1","1","2","2","5","2","1","1","4","1","656564688670162944","朱","106","","","","nonmatch","","","","","","","","","","","","","","key","j","16.665468085106422","768","428","j","true","nonmatch","img/hexagon.png","椭圆","六边","ALT1_1","prac_ALT1_1","","","","","","","","","","","",""
"null","<span style='color:GreenYellow; font-size: 70px;'>正确! </span>","null","html-keyboard-response","74","243967","0.0-7.0-0.0-1.0-0.0-1.32","4","4","4","3","4","4","4","3","4","4","5","5","5","4","5","5","5","5","5","5","1","1","2","1","2","2","2","1","1","1","0","1","1","0","0","0","1","0","1","1","0","1","0","1","4","1","1","2","2","5","2","1","1","4","1","656564688670162944","朱","106","","","","","","","","","","","","","","","","","","","","","","","","","","","","","","feedback_test","","","","","","","","","","","",""
"626","","f","psychophysics","75","245594","0.0-7.0-0.0-1.0-0.0-0.33","4","4","4","3","4","4","4","3","4","4","5","5","5","4","5","5","5","5","5","5","1","1","2","1","2","2","2","1","1","1","0","1","1","0","0","0","1","0","1","1","0","1","0","1","4","1","1","2","2","5","2","1","1","4","1","656564688670162944","朱","106","","","","match","","","","","","","","","","","","","","key","f","16.666281249999884","768","428","f","true","match","img/hexagon.png","六边","六边","ALT1_1","prac_ALT1_1","","","","","","","","","","","",""
"null","<span style='color:GreenYellow; font-size: 70px;'>正确! </span>","null","html-keyboard-response","76","246095","0.0-7.0-0.0-1.0-0.0-1.33","4","4","4","3","4","4","4","3","4","4","5","5","5","4","5","5","5","5","5","5","1","1","2","1","2","2","2","1","1","1","0","1","1","0","0","0","1","0","1","1","0","1","0","1","4","1","1","2","2","5","2","1","1","4","1","656564688670162944","朱","106","","","","","","","","","","","","","","","","","","","","","","","","","","","","","","feedback_test","","","","","","","","","","","",""
"579","","f","psychophysics","77","247674","0.0-7.0-0.0-1.0-0.0-0.34","4","4","4","3","4","4","4","3","4","4","5","5","5","4","5","5","5","5","5","5","1","1","2","1","2","2","2","1","1","1","0","1","1","0","0","0","1","0","1","1","0","1","0","1","4","1","1","2","2","5","2","1","1","4","1","656564688670162944","朱","106","","","","match","","","","","","","","","","","","","","key","f","16.654118279570035","768","428","f","true","match","img/trapezoid.png","梯形","梯形","ALT1_1","prac_ALT1_1","","","","","","","","","","","",""
"null","<span style='color:GreenYellow; font-size: 70px;'>正确! </span>","null","html-keyboard-response","78","248176","0.0-7.0-0.0-1.0-0.0-1.34","4","4","4","3","4","4","4","3","4","4","5","5","5","4","5","5","5","5","5","5","1","1","2","1","2","2","2","1","1","1","0","1","1","0","0","0","1","0","1","1","0","1","0","1","4","1","1","2","2","5","2","1","1","4","1","656564688670162944","朱","106","","","","","","","","","","","","","","","","","","","","","","","","","","","","","","feedback_test","","","","","","","","","","","",""
"624","","j","psychophysics","79","249801","0.0-7.0-0.0-1.0-0.0-0.35","4","4","4","3","4","4","4","3","4","4","5","5","5","4","5","5","5","5","5","5","1","1","2","1","2","2","2","1","1","1","0","1","1","0","0","0","1","0","1","1","0","1","0","1","4","1","1","2","2","5","2","1","1","4","1","656564688670162944","朱","106","","","","nonmatch","","","","","","","","","","","","","","key","j","16.66512371134013","768","428","j","true","nonmatch","img/square.png","梯形","方形","ALT1_1","prac_ALT1_1","","","","","","","","","","","",""
"null","<span style='color:GreenYellow; font-size: 70px;'>正确! </span>","null","html-keyboard-response","80","250303","0.0-7.0-0.0-1.0-0.0-1.35","4","4","4","3","4","4","4","3","4","4","5","5","5","4","5","5","5","5","5","5","1","1","2","1","2","2","2","1","1","1","0","1","1","0","0","0","1","0","1","1","0","1","0","1","4","1","1","2","2","5","2","1","1","4","1","656564688670162944","朱","106","","","","","","","","","","","","","","","","","","","","","","","","","","","","","","feedback_test","","","","","","","","","","","",""
"633","","j","psychophysics","81","251938","0.0-7.0-0.0-1.0-0.0-0.36","4","4","4","3","4","4","4","3","4","4","5","5","5","4","5","5","5","5","5","5","1","1","2","1","2","2","2","1","1","1","0","1","1","0","0","0","1","0","1","1","0","1","0","1","4","1","1","2","2","5","2","1","1","4","1","656564688670162944","朱","106","","","","nonmatch","","","","","","","","","","","","","","key","j","16.66589690721654","768","428","j","true","nonmatch","img/square.png","六边","方形","ALT1_1","prac_ALT1_1","","","","","","","","","","","",""
"null","<span style='color:GreenYellow; font-size: 70px;'>正确! </span>","null","html-keyboard-response","82","252439","0.0-7.0-0.0-1.0-0.0-1.36","4","4","4","3","4","4","4","3","4","4","5","5","5","4","5","5","5","5","5","5","1","1","2","1","2","2","2","1","1","1","0","1","1","0","0","0","1","0","1","1","0","1","0","1","4","1","1","2","2","5","2","1","1","4","1","656564688670162944","朱","106","","","","","","","","","","","","","","","","","","","","","","","","","","","","","","feedback_test","","","","","","","","","","","",""
"595","","f","psychophysics","83","254035","0.0-7.0-0.0-1.0-0.0-0.37","4","4","4","3","4","4","4","3","4","4","5","5","5","4","5","5","5","5","5","5","1","1","2","1","2","2","2","1","1","1","0","1","1","0","0","0","1","0","1","1","0","1","0","1","4","1","1","2","2","5","2","1","1","4","1","656564688670162944","朱","106","","","","match","","","","","","","","","","","","","","key","f","16.666042105262903","768","428","f","true","match","img/ellipse.png","椭圆","椭圆","ALT1_1","prac_ALT1_1","","","","","","","","","","","",""
"null","<span style='color:GreenYellow; font-size: 70px;'>正确! </span>","null","html-keyboard-response","84","254536","0.0-7.0-0.0-1.0-0.0-1.37","4","4","4","3","4","4","4","3","4","4","5","5","5","4","5","5","5","5","5","5","1","1","2","1","2","2","2","1","1","1","0","1","1","0","0","0","1","0","1","1","0","1","0","1","4","1","1","2","2","5","2","1","1","4","1","656564688670162944","朱","106","","","","","","","","","","","","","","","","","","","","","","","","","","","","","","feedback_test","","","","","","","","","","","",""
"536","","f","psychophysics","85","256074","0.0-7.0-0.0-1.0-0.0-0.38","4","4","4","3","4","4","4","3","4","4","5","5","5","4","5","5","5","5","5","5","1","1","2","1","2","2","2","1","1","1","0","1","1","0","0","0","1","0","1","1","0","1","0","1","4","1","1","2","2","5","2","1","1","4","1","656564688670162944","朱","106","","","","match","","","","","","","","","","","","","","key","f","16.664626373626373","768","428","f","true","match","img/square.png","方形","方形","ALT1_1","prac_ALT1_1","","","","","","","","","","","",""
"null","<span style='color:GreenYellow; font-size: 70px;'>正确! </span>","null","html-keyboard-response","86","256576","0.0-7.0-0.0-1.0-0.0-1.38","4","4","4","3","4","4","4","3","4","4","5","5","5","4","5","5","5","5","5","5","1","1","2","1","2","2","2","1","1","1","0","1","1","0","0","0","1","0","1","1","0","1","0","1","4","1","1","2","2","5","2","1","1","4","1","656564688670162944","朱","106","","","","","","","","","","","","","","","","","","","","","","","","","","","","","","feedback_test","","","","","","","","","","","",""
"641","","j","psychophysics","87","258217","0.0-7.0-0.0-1.0-0.0-0.39","4","4","4","3","4","4","4","3","4","4","5","5","5","4","5","5","5","5","5","5","1","1","2","1","2","2","2","1","1","1","0","1","1","0","0","0","1","0","1","1","0","1","0","1","4","1","1","2","2","5","2","1","1","4","1","656564688670162944","朱","106","","","","nonmatch","","","","","","","","","","","","","","key","j","16.665071428571387","768","428","j","true","nonmatch","img/trapezoid.png","椭圆","梯形","ALT1_1","prac_ALT1_1","","","","","","","","","","","",""
"null","<span style='color:GreenYellow; font-size: 70px;'>正确! </span>","null","html-keyboard-response","88","258727","0.0-7.0-0.0-1.0-0.0-1.39","4","4","4","3","4","4","4","3","4","4","5","5","5","4","5","5","5","5","5","5","1","1","2","1","2","2","2","1","1","1","0","1","1","0","0","0","1","0","1","1","0","1","0","1","4","1","1","2","2","5","2","1","1","4","1","656564688670162944","朱","106","","","","","","","","","","","","","","","","","","","","","","","","","","","","","","feedback_test","","","","","","","","","","","",""
"578","","f","psychophysics","89","260305","0.0-7.0-0.0-1.0-0.0-0.40","4","4","4","3","4","4","4","3","4","4","5","5","5","4","5","5","5","5","5","5","1","1","2","1","2","2","2","1","1","1","0","1","1","0","0","0","1","0","1","1","0","1","0","1","4","1","1","2","2","5","2","1","1","4","1","656564688670162944","朱","106","","","","match","","","","","","","","","","","","","","key","f","16.665731182795703","768","428","f","true","match","img/hexagon.png","六边","六边","ALT1_1","prac_ALT1_1","","","","","","","","","","","",""
"null","<span style='color:GreenYellow; font-size: 70px;'>正确! </span>","null","html-keyboard-response","90","260806","0.0-7.0-0.0-1.0-0.0-1.40","4","4","4","3","4","4","4","3","4","4","5","5","5","4","5","5","5","5","5","5","1","1","2","1","2","2","2","1","1","1","0","1","1","0","0","0","1","0","1","1","0","1","0","1","4","1","1","2","2","5","2","1","1","4","1","656564688670162944","朱","106","","","","","","","","","","","","","","","","","","","","","","","","","","","","","","feedback_test","","","","","","","","","","","",""
"705","","f","psychophysics","91","262513","0.0-7.0-0.0-1.0-0.0-0.41","4","4","4","3","4","4","4","3","4","4","5","5","5","4","5","5","5","5","5","5","1","1","2","1","2","2","2","1","1","1","0","1","1","0","0","0","1","0","1","1","0","1","0","1","4","1","1","2","2","5","2","1","1","4","1","656564688670162944","朱","106","","","","match","","","","","","","","","","","","","","key","f","16.66482352941153","768","428","f","true","match","img/trapezoid.png","梯形","梯形","ALT1_1","prac_ALT1_1","","","","","","","","","","","",""
"null","<span style='color:GreenYellow; font-size: 70px;'>正确! </span>","null","html-keyboard-response","92","263014","0.0-7.0-0.0-1.0-0.0-1.41","4","4","4","3","4","4","4","3","4","4","5","5","5","4","5","5","5","5","5","5","1","1","2","1","2","2","2","1","1","1","0","1","1","0","0","0","1","0","1","1","0","1","0","1","4","1","1","2","2","5","2","1","1","4","1","656564688670162944","朱","106","","","","","","","","","","","","","","","","","","","","","","","","","","","","","","feedback_test","","","","","","","","","","","",""
"568","","j","psychophysics","93","264585","0.0-7.0-0.0-1.0-0.0-0.42","4","4","4","3","4","4","4","3","4","4","5","5","5","4","5","5","5","5","5","5","1","1","2","1","2","2","2","1","1","1","0","1","1","0","0","0","1","0","1","1","0","1","0","1","4","1","1","2","2","5","2","1","1","4","1","656564688670162944","朱","106","","","","nonmatch","","","","","","","","","","","","","","key","j","16.666720430107578","768","428","j","true","nonmatch","img/ellipse.png","方形","椭圆","ALT1_1","prac_ALT1_1","","","","","","","","","","","",""
"null","<span style='color:GreenYellow; font-size: 70px;'>正确! </span>","null","html-keyboard-response","94","265087","0.0-7.0-0.0-1.0-0.0-1.42","4","4","4","3","4","4","4","3","4","4","5","5","5","4","5","5","5","5","5","5","1","1","2","1","2","2","2","1","1","1","0","1","1","0","0","0","1","0","1","1","0","1","0","1","4","1","1","2","2","5","2","1","1","4","1","656564688670162944","朱","106","","","","","","","","","","","","","","","","","","","","","","","","","","","","","","feedback_test","","","","","","","","","","","",""
"833","","j","psychophysics","95","266922","0.0-7.0-0.0-1.0-0.0-0.43","4","4","4","3","4","4","4","3","4","4","5","5","5","4","5","5","5","5","5","5","1","1","2","1","2","2","2","1","1","1","0","1","1","0","0","0","1","0","1","1","0","1","0","1","4","1","1","2","2","5","2","1","1","4","1","656564688670162944","朱","106","","","","nonmatch","","","","","","","","","","","","","","key","j","16.664192660550434","768","428","j","true","nonmatch","img/trapezoid.png","六边","梯形","ALT1_1","prac_ALT1_1","","","","","","","","","","","",""
"null","<span style='color:GreenYellow; font-size: 70px;'>正确! </span>","null","html-keyboard-response","96","267425","0.0-7.0-0.0-1.0-0.0-1.43","4","4","4","3","4","4","4","3","4","4","5","5","5","4","5","5","5","5","5","5","1","1","2","1","2","2","2","1","1","1","0","1","1","0","0","0","1","0","1","1","0","1","0","1","4","1","1","2","2","5","2","1","1","4","1","656564688670162944","朱","106","","","","","","","","","","","","","","","","","","","","","","","","","","","","","","feedback_test","","","","","","","","","","","",""
"617","","j","psychophysics","97","269042","0.0-7.0-0.0-1.0-0.0-0.44","4","4","4","3","4","4","4","3","4","4","5","5","5","4","5","5","5","5","5","5","1","1","2","1","2","2","2","1","1","1","0","1","1","0","0","0","1","0","1","1","0","1","0","1","4","1","1","2","2","5","2","1","1","4","1","656564688670162944","朱","106","","","","nonmatch","","","","","","","","","","","","","","key","j","16.659568421052473","768","428","j","true","nonmatch","img/ellipse.png","梯形","椭圆","ALT1_1","prac_ALT1_1","","","","","","","","","","","",""
"null","<span style='color:GreenYellow; font-size: 70px;'>正确! </span>","null","html-keyboard-response","98","269543","0.0-7.0-0.0-1.0-0.0-1.44","4","4","4","3","4","4","4","3","4","4","5","5","5","4","5","5","5","5","5","5","1","1","2","1","2","2","2","1","1","1","0","1","1","0","0","0","1","0","1","1","0","1","0","1","4","1","1","2","2","5","2","1","1","4","1","656564688670162944","朱","106","","","","","","","","","","","","","","","","","","","","","","","","","","","","","","feedback_test","","","","","","","","","","","",""
"641","","j","psychophysics","99","271185","0.0-7.0-0.0-1.0-0.0-0.45","4","4","4","3","4","4","4","3","4","4","5","5","5","4","5","5","5","5","5","5","1","1","2","1","2","2","2","1","1","1","0","1","1","0","0","0","1","0","1","1","0","1","0","1","4","1","1","2","2","5","2","1","1","4","1","656564688670162944","朱","106","","","","nonmatch","","","","","","","","","","","","","","key","j","16.664628865979203","768","428","j","true","nonmatch","img/ellipse.png","六边","椭圆","ALT1_1","prac_ALT1_1","","","","","","","","","","","",""
"null","<span style='color:GreenYellow; font-size: 70px;'>正确! </span>","null","html-keyboard-response","100","271686","0.0-7.0-0.0-1.0-0.0-1.45","4","4","4","3","4","4","4","3","4","4","5","5","5","4","5","5","5","5","5","5","1","1","2","1","2","2","2","1","1","1","0","1","1","0","0","0","1","0","1","1","0","1","0","1","4","1","1","2","2","5","2","1","1","4","1","656564688670162944","朱","106","","","","","","","","","","","","","","","","","","","","","","","","","","","","","","feedback_test","","","","","","","","","","","",""
"555","","f","psychophysics","101","273242","0.0-7.0-0.0-1.0-0.0-0.46","4","4","4","3","4","4","4","3","4","4","5","5","5","4","5","5","5","5","5","5","1","1","2","1","2","2","2","1","1","1","0","1","1","0","0","0","1","0","1","1","0","1","0","1","4","1","1","2","2","5","2","1","1","4","1","656564688670162944","朱","106","","","","match","","","","","","","","","","","","","","key","f","16.665827956988842","768","428","f","true","match","img/square.png","方形","方形","ALT1_1","prac_ALT1_1","","","","","","","","","","","",""
"null","<span style='color:GreenYellow; font-size: 70px;'>正确! </span>","null","html-keyboard-response","102","273744","0.0-7.0-0.0-1.0-0.0-1.46","4","4","4","3","4","4","4","3","4","4","5","5","5","4","5","5","5","5","5","5","1","1","2","1","2","2","2","1","1","1","0","1","1","0","0","0","1","0","1","1","0","1","0","1","4","1","1","2","2","5","2","1","1","4","1","656564688670162944","朱","106","","","","","","","","","","","","","","","","","","","","","","","","","","","","","","feedback_test","","","","","","","","","","","",""
"760","","f","psychophysics","103","275506","0.0-7.0-0.0-1.0-0.0-0.47","4","4","4","3","4","4","4","3","4","4","5","5","5","4","5","5","5","5","5","5","1","1","2","1","2","2","2","1","1","1","0","1","1","0","0","0","1","0","1","1","0","1","0","1","4","1","1","2","2","5","2","1","1","4","1","656564688670162944","朱","106","","","","match","","","","","","","","","","","","","","key","f","16.664673076922973","768","428","f","true","match","img/ellipse.png","椭圆","椭圆","ALT1_1","prac_ALT1_1","","","","","","","","","","","",""
"null","<span style='color:GreenYellow; font-size: 70px;'>正确! </span>","null","html-keyboard-response","104","276007","0.0-7.0-0.0-1.0-0.0-1.47","4","4","4","3","4","4","4","3","4","4","5","5","5","4","5","5","5","5","5","5","1","1","2","1","2","2","2","1","1","1","0","1","1","0","0","0","1","0","1","1","0","1","0","1","4","1","1","2","2","5","2","1","1","4","1","656564688670162944","朱","106","","","","","","","","","","","","","","","","","","","","","","","","","","","","","","feedback_test","","","","","","","","","","","",""
"14672","<style>.context{color:white; font-size: 35px; line-height:40px}</style>                            <div><p class='context'>您正确回答了94% 的试次。</p><p class='context'>您的平均反应时为638毫秒。</p><p class='context'>恭喜您完成练习。按空格键进入正式实验。</p><p class='footer' style='font-size: 35px; line-height:40px;'>请在进入正式实验之前将您的<span style='color: lightgreen;'>食指</span>放在电脑键盘的相应键位上进行按键。</p>"," ","html-keyboard-response","105","290681","0.0-7.0-0.0-2.0","4","4","4","3","4","4","4","3","4","4","5","5","5","4","5","5","5","5","5","5","1","1","2","1","2","2","2","1","1","1","0","1","1","0","0","0","1","0","1","1","0","1","0","1","4","1","1","2","2","5","2","1","1","4","1","656564688670162944","朱","106","","","","","","","","","","","","","","","","","","","","","","","","","","","","","","","","","","","","","","","","","",""
"454","
    <p style='color: white; font-size: 22px'>请您将手指放在按键上，准备进入正式的匹配任务。</p>
    <p> <div style = ""color: green""><按空格键进入下一阶段的匹配任务></div></p>
    "," ","html-keyboard-response","106","291137","0.0-7.0-0.0-3.0","4","4","4","3","4","4","4","3","4","4","5","5","5","4","5","5","5","5","5","5","1","1","2","1","2","2","2","1","1","1","0","1","1","0","0","0","1","0","1","1","0","1","0","1","4","1","1","2","2","5","2","1","1","4","1","656564688670162944","朱","106","","","","","","","","","","","","","","","","","","","","","","","","","","","","","","","","","","","","","","","","","",""
"615","","f","psychophysics","107","292754","0.0-7.0-0.0-4.0-0.0-0.0","4","4","4","3","4","4","4","3","4","4","5","5","5","4","5","5","5","5","5","5","1","1","2","1","2","2","2","1","1","1","0","1","1","0","0","0","1","0","1","1","0","1","0","1","4","1","1","2","2","5","2","1","1","4","1","656564688670162944","朱","106","","","","match","","","","","","","","","","","","","","key","f","16.665270833333125","768","428","f","true","match","img/trapezoid.png","梯形","梯形","ALT1","formal_ALT1_1","","","","","","","","","","","",""
"null","<span style='color:GreenYellow; font-size: 70px;'>正确! </span>","null","html-keyboard-response","108","293256","0.0-7.0-0.0-4.0-0.0-1.0","4","4","4","3","4","4","4","3","4","4","5","5","5","4","5","5","5","5","5","5","1","1","2","1","2","2","2","1","1","1","0","1","1","0","0","0","1","0","1","1","0","1","0","1","4","1","1","2","2","5","2","1","1","4","1","656564688670162944","朱","106","","","","","","","","","","","","","","","","","","","","","","","","","","","","","","feedback_test","","","","","","","","","","","",""
"585","","f","psychophysics","109","294841","0.0-7.0-0.0-4.0-0.0-0.1","4","4","4","3","4","4","4","3","4","4","5","5","5","4","5","5","5","5","5","5","1","1","2","1","2","2","2","1","1","1","0","1","1","0","0","0","1","0","1","1","0","1","0","1","4","1","1","2","2","5","2","1","1","4","1","656564688670162944","朱","106","","","","match","","","","","","","","","","","","","","key","f","16.66434736842118","768","428","f","true","match","img/square.png","方形","方形","ALT1","formal_ALT1_1","","","","","","","","","","","",""
"null","<span style='color:GreenYellow; font-size: 70px;'>正确! </span>","null","html-keyboard-response","110","295342","0.0-7.0-0.0-4.0-0.0-1.1","4","4","4","3","4","4","4","3","4","4","5","5","5","4","5","5","5","5","5","5","1","1","2","1","2","2","2","1","1","1","0","1","1","0","0","0","1","0","1","1","0","1","0","1","4","1","1","2","2","5","2","1","1","4","1","656564688670162944","朱","106","","","","","","","","","","","","","","","","","","","","","","","","","","","","","","feedback_test","","","","","","","","","","","",""
"537","","j","psychophysics","111","296881","0.0-7.0-0.0-4.0-0.0-0.2","4","4","4","3","4","4","4","3","4","4","5","5","5","4","5","5","5","5","5","5","1","1","2","1","2","2","2","1","1","1","0","1","1","0","0","0","1","0","1","1","0","1","0","1","4","1","1","2","2","5","2","1","1","4","1","656564688670162944","朱","106","","","","nonmatch","","","","","","","","","","","","","","key","j","16.664296703296714","768","428","j","true","nonmatch","img/hexagon.png","方形","六边","ALT1","formal_ALT1_1","","","","","","","","","","","",""
"null","<span style='color:GreenYellow; font-size: 70px;'>正确! </span>","null","html-keyboard-response","112","297381","0.0-7.0-0.0-4.0-0.0-1.2","4","4","4","3","4","4","4","3","4","4","5","5","5","4","5","5","5","5","5","5","1","1","2","1","2","2","2","1","1","1","0","1","1","0","0","0","1","0","1","1","0","1","0","1","4","1","1","2","2","5","2","1","1","4","1","656564688670162944","朱","106","","","","","","","","","","","","","","","","","","","","","","","","","","","","","","feedback_test","","","","","","","","","","","",""
"587","","j","psychophysics","113","298970","0.0-7.0-0.0-4.0-0.0-0.3","4","4","4","3","4","4","4","3","4","4","5","5","5","4","5","5","5","5","5","5","1","1","2","1","2","2","2","1","1","1","0","1","1","0","0","0","1","0","1","1","0","1","0","1","4","1","1","2","2","5","2","1","1","4","1","656564688670162944","朱","106","","","","nonmatch","","","","","","","","","","","","","","key","j","16.666531914893408","768","428","j","true","nonmatch","img/hexagon.png","椭圆","六边","ALT1","formal_ALT1_1","","","","","","","","","","","",""
"null","<span style='color:GreenYellow; font-size: 70px;'>正确! </span>","null","html-keyboard-response","114","299471","0.0-7.0-0.0-4.0-0.0-1.3","4","4","4","3","4","4","4","3","4","4","5","5","5","4","5","5","5","5","5","5","1","1","2","1","2","2","2","1","1","1","0","1","1","0","0","0","1","0","1","1","0","1","0","1","4","1","1","2","2","5","2","1","1","4","1","656564688670162944","朱","106","","","","","","","","","","","","","","","","","","","","","","","","","","","","","","feedback_test","","","","","","","","","","","",""
"633","","j","psychophysics","115","301105","0.0-7.0-0.0-4.0-0.0-0.4","4","4","4","3","4","4","4","3","4","4","5","5","5","4","5","5","5","5","5","5","1","1","2","1","2","2","2","1","1","1","0","1","1","0","0","0","1","0","1","1","0","1","0","1","4","1","1","2","2","5","2","1","1","4","1","656564688670162944","朱","106","","","","nonmatch","","","","","","","","","","","","","","key","j","16.653447916666362","768","428","j","true","nonmatch","img/ellipse.png","方形","椭圆","ALT1","formal_ALT1_1","","","","","","","","","","","",""
"null","<span style='color:GreenYellow; font-size: 70px;'>正确! </span>","null","html-keyboard-response","116","301606","0.0-7.0-0.0-4.0-0.0-1.4","4","4","4","3","4","4","4","3","4","4","5","5","5","4","5","5","5","5","5","5","1","1","2","1","2","2","2","1","1","1","0","1","1","0","0","0","1","0","1","1","0","1","0","1","4","1","1","2","2","5","2","1","1","4","1","656564688670162944","朱","106","","","","","","","","","","","","","","","","","","","","","","","","","","","","","","feedback_test","","","","","","","","","","","",""
"713","","j","psychophysics","117","303321","0.0-7.0-0.0-4.0-0.0-0.5","4","4","4","3","4","4","4","3","4","4","5","5","5","4","5","5","5","5","5","5","1","1","2","1","2","2","2","1","1","1","0","1","1","0","0","0","1","0","1","1","0","1","0","1","4","1","1","2","2","5","2","1","1","4","1","656564688670162944","朱","106","","","","nonmatch","","","","","","","","","","","","","","key","j","16.665019801980353","768","428","j","true","nonmatch","img/ellipse.png","梯形","椭圆","ALT1","formal_ALT1_1","","","","","","","","","","","",""
"null","<span style='color:GreenYellow; font-size: 70px;'>正确! </span>","null","html-keyboard-response","118","303823","0.0-7.0-0.0-4.0-0.0-1.5","4","4","4","3","4","4","4","3","4","4","5","5","5","4","5","5","5","5","5","5","1","1","2","1","2","2","2","1","1","1","0","1","1","0","0","0","1","0","1","1","0","1","0","1","4","1","1","2","2","5","2","1","1","4","1","656564688670162944","朱","106","","","","","","","","","","","","","","","","","","","","","","","","","","","","","","feedback_test","","","","","","","","","","","",""
"545","","f","psychophysics","119","305369","0.0-7.0-0.0-4.0-0.0-0.6","4","4","4","3","4","4","4","3","4","4","5","5","5","4","5","5","5","5","5","5","1","1","2","1","2","2","2","1","1","1","0","1","1","0","0","0","1","0","1","1","0","1","0","1","4","1","1","2","2","5","2","1","1","4","1","656564688670162944","朱","106","","","","match","","","","","","","","","","","","","","key","f","16.666747252747243","768","428","f","true","match","img/square.png","方形","方形","ALT1","formal_ALT1_1","","","","","","","","","","","",""
"null","<span style='color:GreenYellow; font-size: 70px;'>正确! </span>","null","html-keyboard-response","120","305871","0.0-7.0-0.0-4.0-0.0-1.6","4","4","4","3","4","4","4","3","4","4","5","5","5","4","5","5","5","5","5","5","1","1","2","1","2","2","2","1","1","1","0","1","1","0","0","0","1","0","1","1","0","1","0","1","4","1","1","2","2","5","2","1","1","4","1","656564688670162944","朱","106","","","","","","","","","","","","","","","","","","","","","","","","","","","","","","feedback_test","","","","","","","","","","","",""
"771","","f","psychophysics","121","307642","0.0-7.0-0.0-4.0-0.0-0.7","4","4","4","3","4","4","4","3","4","4","5","5","5","4","5","5","5","5","5","5","1","1","2","1","2","2","2","1","1","1","0","1","1","0","0","0","1","0","1","1","0","1","0","1","4","1","1","2","2","5","2","1","1","4","1","656564688670162944","朱","106","","","","match","","","","","","","","","","","","","","key","f","16.658438095238083","768","428","f","true","match","img/hexagon.png","六边","六边","ALT1","formal_ALT1_1","","","","","","","","","","","",""
"null","<span style='color:GreenYellow; font-size: 70px;'>正确! </span>","null","html-keyboard-response","122","308143","0.0-7.0-0.0-4.0-0.0-1.7","4","4","4","3","4","4","4","3","4","4","5","5","5","4","5","5","5","5","5","5","1","1","2","1","2","2","2","1","1","1","0","1","1","0","0","0","1","0","1","1","0","1","0","1","4","1","1","2","2","5","2","1","1","4","1","656564688670162944","朱","106","","","","","","","","","","","","","","","","","","","","","","","","","","","","","","feedback_test","","","","","","","","","","","",""
"569","","j","psychophysics","123","309713","0.0-7.0-0.0-4.0-0.0-0.8","4","4","4","3","4","4","4","3","4","4","5","5","5","4","5","5","5","5","5","5","1","1","2","1","2","2","2","1","1","1","0","1","1","0","0","0","1","0","1","1","0","1","0","1","4","1","1","2","2","5","2","1","1","4","1","656564688670162944","朱","106","","","","nonmatch","","","","","","","","","","","","","","key","j","16.66546236559178","768","428","j","true","nonmatch","img/trapezoid.png","六边","梯形","ALT1","formal_ALT1_1","","","","","","","","","","","",""
"null","<span style='color:GreenYellow; font-size: 70px;'>正确! </span>","null","html-keyboard-response","124","310214","0.0-7.0-0.0-4.0-0.0-1.8","4","4","4","3","4","4","4","3","4","4","5","5","5","4","5","5","5","5","5","5","1","1","2","1","2","2","2","1","1","1","0","1","1","0","0","0","1","0","1","1","0","1","0","1","4","1","1","2","2","5","2","1","1","4","1","656564688670162944","朱","106","","","","","","","","","","","","","","","","","","","","","","","","","","","","","","feedback_test","","","","","","","","","","","",""
"682","","f","psychophysics","125","311898","0.0-7.0-0.0-4.0-0.0-0.9","4","4","4","3","4","4","4","3","4","4","5","5","5","4","5","5","5","5","5","5","1","1","2","1","2","2","2","1","1","1","0","1","1","0","0","0","1","0","1","1","0","1","0","1","4","1","1","2","2","5","2","1","1","4","1","656564688670162944","朱","106","","","","match","","","","","","","","","","","","","","key","f","16.666049999999814","768","428","f","true","match","img/hexagon.png","六边","六边","ALT1","formal_ALT1_1","","","","","","","","","","","",""
"null","<span style='color:GreenYellow; font-size: 70px;'>正确! </span>","null","html-keyboard-response","126","312399","0.0-7.0-0.0-4.0-0.0-1.9","4","4","4","3","4","4","4","3","4","4","5","5","5","4","5","5","5","5","5","5","1","1","2","1","2","2","2","1","1","1","0","1","1","0","0","0","1","0","1","1","0","1","0","1","4","1","1","2","2","5","2","1","1","4","1","656564688670162944","朱","106","","","","","","","","","","","","","","","","","","","","","","","","","","","","","","feedback_test","","","","","","","","","","","",""
"570","","j","psychophysics","127","313970","0.0-7.0-0.0-4.0-0.0-0.10","4","4","4","3","4","4","4","3","4","4","5","5","5","4","5","5","5","5","5","5","1","1","2","1","2","2","2","1","1","1","0","1","1","0","0","0","1","0","1","1","0","1","0","1","4","1","1","2","2","5","2","1","1","4","1","656564688670162944","朱","106","","","","nonmatch","","","","","","","","","","","","","","key","j","16.665139784946316","768","428","j","true","nonmatch","img/square.png","椭圆","方形","ALT1","formal_ALT1_1","","","","","","","","","","","",""
"null","<span style='color:GreenYellow; font-size: 70px;'>正确! </span>","null","html-keyboard-response","128","314471","0.0-7.0-0.0-4.0-0.0-1.10","4","4","4","3","4","4","4","3","4","4","5","5","5","4","5","5","5","5","5","5","1","1","2","1","2","2","2","1","1","1","0","1","1","0","0","0","1","0","1","1","0","1","0","1","4","1","1","2","2","5","2","1","1","4","1","656564688670162944","朱","106","","","","","","","","","","","","","","","","","","","","","","","","","","","","","","feedback_test","","","","","","","","","","","",""
"721","","j","psychophysics","129","316193","0.0-7.0-0.0-4.0-0.0-0.11","4","4","4","3","4","4","4","3","4","4","5","5","5","4","5","5","5","5","5","5","1","1","2","1","2","2","2","1","1","1","0","1","1","0","0","0","1","0","1","1","0","1","0","1","4","1","1","2","2","5","2","1","1","4","1","656564688670162944","朱","106","","","","nonmatch","","","","","","","","","","","","","","key","j","16.665352941176273","768","428","j","true","nonmatch","img/square.png","六边","方形","ALT1","formal_ALT1_1","","","","","","","","","","","",""
"null","<span style='color:GreenYellow; font-size: 70px;'>正确! </span>","null","html-keyboard-response","130","316694","0.0-7.0-0.0-4.0-0.0-1.11","4","4","4","3","4","4","4","3","4","4","5","5","5","4","5","5","5","5","5","5","1","1","2","1","2","2","2","1","1","1","0","1","1","0","0","0","1","0","1","1","0","1","0","1","4","1","1","2","2","5","2","1","1","4","1","656564688670162944","朱","106","","","","","","","","","","","","","","","","","","","","","","","","","","","","","","feedback_test","","","","","","","","","","","",""
"571","","j","psychophysics","131","318267","0.0-7.0-0.0-4.0-0.0-0.12","4","4","4","3","4","4","4","3","4","4","5","5","5","4","5","5","5","5","5","5","1","1","2","1","2","2","2","1","1","1","0","1","1","0","0","0","1","0","1","1","0","1","0","1","4","1","1","2","2","5","2","1","1","4","1","656564688670162944","朱","106","","","","nonmatch","","","","","","","","","","","","","","key","j","16.664849462365652","768","428","j","true","nonmatch","img/trapezoid.png","方形","梯形","ALT1","formal_ALT1_1","","","","","","","","","","","",""
"null","<span style='color:GreenYellow; font-size: 70px;'>正确! </span>","null","html-keyboard-response","132","318768","0.0-7.0-0.0-4.0-0.0-1.12","4","4","4","3","4","4","4","3","4","4","5","5","5","4","5","5","5","5","5","5","1","1","2","1","2","2","2","1","1","1","0","1","1","0","0","0","1","0","1","1","0","1","0","1","4","1","1","2","2","5","2","1","1","4","1","656564688670162944","朱","106","","","","","","","","","","","","","","","","","","","","","","","","","","","","","","feedback_test","","","","","","","","","","","",""
"657","","f","psychophysics","133","320426","0.0-7.0-0.0-4.0-0.0-0.13","4","4","4","3","4","4","4","3","4","4","5","5","5","4","5","5","5","5","5","5","1","1","2","1","2","2","2","1","1","1","0","1","1","0","0","0","1","0","1","1","0","1","0","1","4","1","1","2","2","5","2","1","1","4","1","656564688670162944","朱","106","","","","match","","","","","","","","","","","","","","key","f","16.6652323232324","768","428","f","true","match","img/ellipse.png","椭圆","椭圆","ALT1","formal_ALT1_1","","","","","","","","","","","",""
"null","<span style='color:GreenYellow; font-size: 70px;'>正确! </span>","null","html-keyboard-response","134","320928","0.0-7.0-0.0-4.0-0.0-1.13","4","4","4","3","4","4","4","3","4","4","5","5","5","4","5","5","5","5","5","5","1","1","2","1","2","2","2","1","1","1","0","1","1","0","0","0","1","0","1","1","0","1","0","1","4","1","1","2","2","5","2","1","1","4","1","656564688670162944","朱","106","","","","","","","","","","","","","","","","","","","","","","","","","","","","","","feedback_test","","","","","","","","","","","",""
"745","","j","psychophysics","135","322675","0.0-7.0-0.0-4.0-0.0-0.14","4","4","4","3","4","4","4","3","4","4","5","5","5","4","5","5","5","5","5","5","1","1","2","1","2","2","2","1","1","1","0","1","1","0","0","0","1","0","1","1","0","1","0","1","4","1","1","2","2","5","2","1","1","4","1","656564688670162944","朱","106","","","","nonmatch","","","","","","","","","","","","","","key","j","16.66597115384614","768","428","j","true","nonmatch","img/hexagon.png","梯形","六边","ALT1","formal_ALT1_1","","","","","","","","","","","",""
"null","<span style='color:GreenYellow; font-size: 70px;'>正确! </span>","null","html-keyboard-response","136","323176","0.0-7.0-0.0-4.0-0.0-1.14","4","4","4","3","4","4","4","3","4","4","5","5","5","4","5","5","5","5","5","5","1","1","2","1","2","2","2","1","1","1","0","1","1","0","0","0","1","0","1","1","0","1","0","1","4","1","1","2","2","5","2","1","1","4","1","656564688670162944","朱","106","","","","","","","","","","","","","","","","","","","","","","","","","","","","","","feedback_test","","","","","","","","","","","",""
"633","","f","psychophysics","137","324810","0.0-7.0-0.0-4.0-0.0-0.15","4","4","4","3","4","4","4","3","4","4","5","5","5","4","5","5","5","5","5","5","1","1","2","1","2","2","2","1","1","1","0","1","1","0","0","0","1","0","1","1","0","1","0","1","4","1","1","2","2","5","2","1","1","4","1","656564688670162944","朱","106","","","","match","","","","","","","","","","","","","","key","f","16.66449484536088","768","428","f","true","match","img/hexagon.png","六边","六边","ALT1","formal_ALT1_1","","","","","","","","","","","",""
"null","<span style='color:GreenYellow; font-size: 70px;'>正确! </span>","null","html-keyboard-response","138","325312","0.0-7.0-0.0-4.0-0.0-1.15","4","4","4","3","4","4","4","3","4","4","5","5","5","4","5","5","5","5","5","5","1","1","2","1","2","2","2","1","1","1","0","1","1","0","0","0","1","0","1","1","0","1","0","1","4","1","1","2","2","5","2","1","1","4","1","656564688670162944","朱","106","","","","","","","","","","","","","","","","","","","","","","","","","","","","","","feedback_test","","","","","","","","","","","",""
"562","","j","psychophysics","139","326874","0.0-7.0-0.0-4.0-0.0-0.16","4","4","4","3","4","4","4","3","4","4","5","5","5","4","5","5","5","5","5","5","1","1","2","1","2","2","2","1","1","1","0","1","1","0","0","0","1","0","1","1","0","1","0","1","4","1","1","2","2","5","2","1","1","4","1","656564688670162944","朱","106","","","","nonmatch","","","","","","","","","","","","","","key","j","16.664741935483832","768","428","j","true","nonmatch","img/square.png","梯形","方形","ALT1","formal_ALT1_1","","","","","","","","","","","",""
"null","<span style='color:GreenYellow; font-size: 70px;'>正确! </span>","null","html-keyboard-response","140","327375","0.0-7.0-0.0-4.0-0.0-1.16","4","4","4","3","4","4","4","3","4","4","5","5","5","4","5","5","5","5","5","5","1","1","2","1","2","2","2","1","1","1","0","1","1","0","0","0","1","0","1","1","0","1","0","1","4","1","1","2","2","5","2","1","1","4","1","656564688670162944","朱","106","","","","","","","","","","","","","","","","","","","","","","","","","","","","","","feedback_test","","","","","","","","","","","",""
"562","","j","psychophysics","141","328938","0.0-7.0-0.0-4.0-0.0-0.17","4","4","4","3","4","4","4","3","4","4","5","5","5","4","5","5","5","5","5","5","1","1","2","1","2","2","2","1","1","1","0","1","1","0","0","0","1","0","1","1","0","1","0","1","4","1","1","2","2","5","2","1","1","4","1","656564688670162944","朱","106","","","","nonmatch","","","","","","","","","","","","","","key","j","16.665817204300787","768","428","j","true","nonmatch","img/trapezoid.png","椭圆","梯形","ALT1","formal_ALT1_1","","","","","","","","","","","",""
"null","<span style='color:GreenYellow; font-size: 70px;'>正确! </span>","null","html-keyboard-response","142","329439","0.0-7.0-0.0-4.0-0.0-1.17","4","4","4","3","4","4","4","3","4","4","5","5","5","4","5","5","5","5","5","5","1","1","2","1","2","2","2","1","1","1","0","1","1","0","0","0","1","0","1","1","0","1","0","1","4","1","1","2","2","5","2","1","1","4","1","656564688670162944","朱","106","","","","","","","","","","","","","","","","","","","","","","","","","","","","","","feedback_test","","","","","","","","","","","",""
"674","","f","psychophysics","143","331114","0.0-7.0-0.0-4.0-0.0-0.18","4","4","4","3","4","4","4","3","4","4","5","5","5","4","5","5","5","5","5","5","1","1","2","1","2","2","2","1","1","1","0","1","1","0","0","0","1","0","1","1","0","1","0","1","4","1","1","2","2","5","2","1","1","4","1","656564688670162944","朱","106","","","","match","","","","","","","","","","","","","","key","f","16.66518181818126","768","428","f","true","match","img/ellipse.png","椭圆","椭圆","ALT1","formal_ALT1_1","","","","","","","","","","","",""
"null","<span style='color:GreenYellow; font-size: 70px;'>正确! </span>","null","html-keyboard-response","144","331616","0.0-7.0-0.0-4.0-0.0-1.18","4","4","4","3","4","4","4","3","4","4","5","5","5","4","5","5","5","5","5","5","1","1","2","1","2","2","2","1","1","1","0","1","1","0","0","0","1","0","1","1","0","1","0","1","4","1","1","2","2","5","2","1","1","4","1","656564688670162944","朱","106","","","","","","","","","","","","","","","","","","","","","","","","","","","","","","feedback_test","","","","","","","","","","","",""
"608","","f","psychophysics","145","333226","0.0-7.0-0.0-4.0-0.0-0.19","4","4","4","3","4","4","4","3","4","4","5","5","5","4","5","5","5","5","5","5","1","1","2","1","2","2","2","1","1","1","0","1","1","0","0","0","1","0","1","1","0","1","0","1","4","1","1","2","2","5","2","1","1","4","1","656564688670162944","朱","106","","","","match","","","","","","","","","","","","","","key","f","16.666510416667126","768","428","f","true","match","img/trapezoid.png","梯形","梯形","ALT1","formal_ALT1_1","","","","","","","","","","","",""
"null","<span style='color:GreenYellow; font-size: 70px;'>正确! </span>","null","html-keyboard-response","146","333728","0.0-7.0-0.0-4.0-0.0-1.19","4","4","4","3","4","4","4","3","4","4","5","5","5","4","5","5","5","5","5","5","1","1","2","1","2","2","2","1","1","1","0","1","1","0","0","0","1","0","1","1","0","1","0","1","4","1","1","2","2","5","2","1","1","4","1","656564688670162944","朱","106","","","","","","","","","","","","","","","","","","","","","","","","","","","","","","feedback_test","","","","","","","","","","","",""
"529","","j","psychophysics","147","335258","0.0-7.0-0.0-4.0-0.0-0.20","4","4","4","3","4","4","4","3","4","4","5","5","5","4","5","5","5","5","5","5","1","1","2","1","2","2","2","1","1","1","0","1","1","0","0","0","1","0","1","1","0","1","0","1","4","1","1","2","2","5","2","1","1","4","1","656564688670162944","朱","106","","","","nonmatch","","","","","","","","","","","","","","key","j","16.66586813186858","768","428","j","true","nonmatch","img/ellipse.png","六边","椭圆","ALT1","formal_ALT1_1","","","","","","","","","","","",""
"null","<span style='color:GreenYellow; font-size: 70px;'>正确! </span>","null","html-keyboard-response","148","335760","0.0-7.0-0.0-4.0-0.0-1.20","4","4","4","3","4","4","4","3","4","4","5","5","5","4","5","5","5","5","5","5","1","1","2","1","2","2","2","1","1","1","0","1","1","0","0","0","1","0","1","1","0","1","0","1","4","1","1","2","2","5","2","1","1","4","1","656564688670162944","朱","106","","","","","","","","","","","","","","","","","","","","","","","","","","","","","","feedback_test","","","","","","","","","","","",""
"753","","f","psychophysics","149","337515","0.0-7.0-0.0-4.0-0.0-0.21","4","4","4","3","4","4","4","3","4","4","5","5","5","4","5","5","5","5","5","5","1","1","2","1","2","2","2","1","1","1","0","1","1","0","0","0","1","0","1","1","0","1","0","1","4","1","1","2","2","5","2","1","1","4","1","656564688670162944","朱","106","","","","match","","","","","","","","","","","","","","key","f","16.66629807692292","768","428","f","true","match","img/trapezoid.png","梯形","梯形","ALT1","formal_ALT1_1","","","","","","","","","","","",""
"null","<span style='color:GreenYellow; font-size: 70px;'>正确! </span>","null","html-keyboard-response","150","338016","0.0-7.0-0.0-4.0-0.0-1.21","4","4","4","3","4","4","4","3","4","4","5","5","5","4","5","5","5","5","5","5","1","1","2","1","2","2","2","1","1","1","0","1","1","0","0","0","1","0","1","1","0","1","0","1","4","1","1","2","2","5","2","1","1","4","1","656564688670162944","朱","106","","","","","","","","","","","","","","","","","","","","","","","","","","","","","","feedback_test","","","","","","","","","","","",""
"625","","j","psychophysics","151","339642","0.0-7.0-0.0-4.0-0.0-0.22","4","4","4","3","4","4","4","3","4","4","5","5","5","4","5","5","5","5","5","5","1","1","2","1","2","2","2","1","1","1","0","1","1","0","0","0","1","0","1","1","0","1","0","1","4","1","1","2","2","5","2","1","1","4","1","656564688670162944","朱","106","","","","nonmatch","","","","","","","","","","","","","","key","j","16.66517525773193","768","428","f","false","match","img/ellipse.png","椭圆","椭圆","ALT1","formal_ALT1_1","","","","","","","","","","","",""
"null","<span style='color:red; font-size: 70px;'>错误! </span>","null","html-keyboard-response","152","340144","0.0-7.0-0.0-4.0-0.0-1.22","4","4","4","3","4","4","4","3","4","4","5","5","5","4","5","5","5","5","5","5","1","1","2","1","2","2","2","1","1","1","0","1","1","0","0","0","1","0","1","1","0","1","0","1","4","1","1","2","2","5","2","1","1","4","1","656564688670162944","朱","106","","","","","","","","","","","","","","","","","","","","","","","","","","","","","","feedback_test","","","","","","","","","","","",""
"721","","f","psychophysics","153","341867","0.0-7.0-0.0-4.0-0.0-0.23","4","4","4","3","4","4","4","3","4","4","5","5","5","4","5","5","5","5","5","5","1","1","2","1","2","2","2","1","1","1","0","1","1","0","0","0","1","0","1","1","0","1","0","1","4","1","1","2","2","5","2","1","1","4","1","656564688670162944","朱","106","","","","match","","","","","","","","","","","","","","key","f","16.665098039215366","768","428","f","true","match","img/square.png","方形","方形","ALT1","formal_ALT1_1","","","","","","","","","","","",""
"null","<span style='color:GreenYellow; font-size: 70px;'>正确! </span>","null","html-keyboard-response","154","342368","0.0-7.0-0.0-4.0-0.0-1.23","4","4","4","3","4","4","4","3","4","4","5","5","5","4","5","5","5","5","5","5","1","1","2","1","2","2","2","1","1","1","0","1","1","0","0","0","1","0","1","1","0","1","0","1","4","1","1","2","2","5","2","1","1","4","1","656564688670162944","朱","106","","","","","","","","","","","","","","","","","","","","","","","","","","","","","","feedback_test","","","","","","","","","","","",""
"625","","f","psychophysics","155","343995","0.0-7.0-0.0-4.0-0.0-0.24","4","4","4","3","4","4","4","3","4","4","5","5","5","4","5","5","5","5","5","5","1","1","2","1","2","2","2","1","1","1","0","1","1","0","0","0","1","0","1","1","0","1","0","1","4","1","1","2","2","5","2","1","1","4","1","656564688670162944","朱","106","","","","match","","","","","","","","","","","","","","key","f","16.66475000000052","768","428","f","true","match","img/trapezoid.png","梯形","梯形","ALT1","formal_ALT1_1","","","","","","","","","","","",""
"null","<span style='color:GreenYellow; font-size: 70px;'>正确! </span>","null","html-keyboard-response","156","344496","0.0-7.0-0.0-4.0-0.0-1.24","4","4","4","3","4","4","4","3","4","4","5","5","5","4","5","5","5","5","5","5","1","1","2","1","2","2","2","1","1","1","0","1","1","0","0","0","1","0","1","1","0","1","0","1","4","1","1","2","2","5","2","1","1","4","1","656564688670162944","朱","106","","","","","","","","","","","","","","","","","","","","","","","","","","","","","","feedback_test","","","","","","","","","","","",""
"568","","j","psychophysics","157","346066","0.0-7.0-0.0-4.0-0.0-0.25","4","4","4","3","4","4","4","3","4","4","5","5","5","4","5","5","5","5","5","5","1","1","2","1","2","2","2","1","1","1","0","1","1","0","0","0","1","0","1","1","0","1","0","1","4","1","1","2","2","5","2","1","1","4","1","656564688670162944","朱","106","","","","nonmatch","","","","","","","","","","","","","","key","j","16.66463440860201","768","428","j","true","nonmatch","img/ellipse.png","六边","椭圆","ALT1","formal_ALT1_1","","","","","","","","","","","",""
"null","<span style='color:GreenYellow; font-size: 70px;'>正确! </span>","null","html-keyboard-response","158","346567","0.0-7.0-0.0-4.0-0.0-1.25","4","4","4","3","4","4","4","3","4","4","5","5","5","4","5","5","5","5","5","5","1","1","2","1","2","2","2","1","1","1","0","1","1","0","0","0","1","0","1","1","0","1","0","1","4","1","1","2","2","5","2","1","1","4","1","656564688670162944","朱","106","","","","","","","","","","","","","","","","","","","","","","","","","","","","","","feedback_test","","","","","","","","","","","",""
"547","","j","psychophysics","159","348115","0.0-7.0-0.0-4.0-0.0-0.26","4","4","4","3","4","4","4","3","4","4","5","5","5","4","5","5","5","5","5","5","1","1","2","1","2","2","2","1","1","1","0","1","1","0","0","0","1","0","1","1","0","1","0","1","4","1","1","2","2","5","2","1","1","4","1","656564688670162944","朱","106","","","","nonmatch","","","","","","","","","","","","","","key","j","16.66452747252757","768","428","j","true","nonmatch","img/hexagon.png","方形","六边","ALT1","formal_ALT1_1","","","","","","","","","","","",""
"null","<span style='color:GreenYellow; font-size: 70px;'>正确! </span>","null","html-keyboard-response","160","348617","0.0-7.0-0.0-4.0-0.0-1.26","4","4","4","3","4","4","4","3","4","4","5","5","5","4","5","5","5","5","5","5","1","1","2","1","2","2","2","1","1","1","0","1","1","0","0","0","1","0","1","1","0","1","0","1","4","1","1","2","2","5","2","1","1","4","1","656564688670162944","朱","106","","","","","","","","","","","","","","","","","","","","","","","","","","","","","","feedback_test","","","","","","","","","","","",""
"697","","f","psychophysics","161","350315","0.0-7.0-0.0-4.0-0.0-0.27","4","4","4","3","4","4","4","3","4","4","5","5","5","4","5","5","5","5","5","5","1","1","2","1","2","2","2","1","1","1","0","1","1","0","0","0","1","0","1","1","0","1","0","1","4","1","1","2","2","5","2","1","1","4","1","656564688670162944","朱","106","","","","match","","","","","","","","","","","","","","key","f","16.665040000000154","768","428","f","true","match","img/ellipse.png","椭圆","椭圆","ALT1","formal_ALT1_1","","","","","","","","","","","",""
"null","<span style='color:GreenYellow; font-size: 70px;'>正确! </span>","null","html-keyboard-response","162","350816","0.0-7.0-0.0-4.0-0.0-1.27","4","4","4","3","4","4","4","3","4","4","5","5","5","4","5","5","5","5","5","5","1","1","2","1","2","2","2","1","1","1","0","1","1","0","0","0","1","0","1","1","0","1","0","1","4","1","1","2","2","5","2","1","1","4","1","656564688670162944","朱","106","","","","","","","","","","","","","","","","","","","","","","","","","","","","","","feedback_test","","","","","","","","","","","",""
"721","","f","psychophysics","163","352538","0.0-7.0-0.0-4.0-0.0-0.28","4","4","4","3","4","4","4","3","4","4","5","5","5","4","5","5","5","5","5","5","1","1","2","1","2","2","2","1","1","1","0","1","1","0","0","0","1","0","1","1","0","1","0","1","4","1","1","2","2","5","2","1","1","4","1","656564688670162944","朱","106","","","","match","","","","","","","","","","","","","","key","f","16.660637254902053","768","428","f","true","match","img/ellipse.png","椭圆","椭圆","ALT1","formal_ALT1_1","","","","","","","","","","","",""
"null","<span style='color:GreenYellow; font-size: 70px;'>正确! </span>","null","html-keyboard-response","164","353040","0.0-7.0-0.0-4.0-0.0-1.28","4","4","4","3","4","4","4","3","4","4","5","5","5","4","5","5","5","5","5","5","1","1","2","1","2","2","2","1","1","1","0","1","1","0","0","0","1","0","1","1","0","1","0","1","4","1","1","2","2","5","2","1","1","4","1","656564688670162944","朱","106","","","","","","","","","","","","","","","","","","","","","","","","","","","","","","feedback_test","","","","","","","","","","","",""
"638","","j","psychophysics","165","354682","0.0-7.0-0.0-4.0-0.0-0.29","4","4","4","3","4","4","4","3","4","4","5","5","5","4","5","5","5","5","5","5","1","1","2","1","2","2","2","1","1","1","0","1","1","0","0","0","1","0","1","1","0","1","0","1","4","1","1","2","2","5","2","1","1","4","1","656564688670162944","朱","106","","","","nonmatch","","","","","","","","","","","","","","key","j","16.666422680412182","768","428","j","true","nonmatch","img/square.png","梯形","方形","ALT1","formal_ALT1_1","","","","","","","","","","","",""
"null","<span style='color:GreenYellow; font-size: 70px;'>正确! </span>","null","html-keyboard-response","166","355182","0.0-7.0-0.0-4.0-0.0-1.29","4","4","4","3","4","4","4","3","4","4","5","5","5","4","5","5","5","5","5","5","1","1","2","1","2","2","2","1","1","1","0","1","1","0","0","0","1","0","1","1","0","1","0","1","4","1","1","2","2","5","2","1","1","4","1","656564688670162944","朱","106","","","","","","","","","","","","","","","","","","","","","","","","","","","","","","feedback_test","","","","","","","","","","","",""
"739","","f","psychophysics","167","356922","0.0-7.0-0.0-4.0-0.0-0.30","4","4","4","3","4","4","4","3","4","4","5","5","5","4","5","5","5","5","5","5","1","1","2","1","2","2","2","1","1","1","0","1","1","0","0","0","1","0","1","1","0","1","0","1","4","1","1","2","2","5","2","1","1","4","1","656564688670162944","朱","106","","","","match","","","","","","","","","","","","","","key","f","16.65925242718438","768","428","f","true","match","img/hexagon.png","六边","六边","ALT1","formal_ALT1_1","","","","","","","","","","","",""
"null","<span style='color:GreenYellow; font-size: 70px;'>正确! </span>","null","html-keyboard-response","168","357423","0.0-7.0-0.0-4.0-0.0-1.30","4","4","4","3","4","4","4","3","4","4","5","5","5","4","5","5","5","5","5","5","1","1","2","1","2","2","2","1","1","1","0","1","1","0","0","0","1","0","1","1","0","1","0","1","4","1","1","2","2","5","2","1","1","4","1","656564688670162944","朱","106","","","","","","","","","","","","","","","","","","","","","","","","","","","","","","feedback_test","","","","","","","","","","","",""
"618","","j","psychophysics","169","359042","0.0-7.0-0.0-4.0-0.0-0.31","4","4","4","3","4","4","4","3","4","4","5","5","5","4","5","5","5","5","5","5","1","1","2","1","2","2","2","1","1","1","0","1","1","0","0","0","1","0","1","1","0","1","0","1","4","1","1","2","2","5","2","1","1","4","1","656564688670162944","朱","106","","","","nonmatch","","","","","","","","","","","","","","key","j","16.6658020833335","768","428","j","true","nonmatch","img/trapezoid.png","方形","梯形","ALT1","formal_ALT1_1","","","","","","","","","","","",""
"null","<span style='color:GreenYellow; font-size: 70px;'>正确! </span>","null","html-keyboard-response","170","359543","0.0-7.0-0.0-4.0-0.0-1.31","4","4","4","3","4","4","4","3","4","4","5","5","5","4","5","5","5","5","5","5","1","1","2","1","2","2","2","1","1","1","0","1","1","0","0","0","1","0","1","1","0","1","0","1","4","1","1","2","2","5","2","1","1","4","1","656564688670162944","朱","106","","","","","","","","","","","","","","","","","","","","","","","","","","","","","","feedback_test","","","","","","","","","","","",""
"634","","j","psychophysics","171","361178","0.0-7.0-0.0-4.0-0.0-0.32","4","4","4","3","4","4","4","3","4","4","5","5","5","4","5","5","5","5","5","5","1","1","2","1","2","2","2","1","1","1","0","1","1","0","0","0","1","0","1","1","0","1","0","1","4","1","1","2","2","5","2","1","1","4","1","656564688670162944","朱","106","","","","nonmatch","","","","","","","","","","","","","","key","j","16.66615463917494","768","428","j","true","nonmatch","img/trapezoid.png","椭圆","梯形","ALT1","formal_ALT1_1","","","","","","","","","","","",""
"null","<span style='color:GreenYellow; font-size: 70px;'>正确! </span>","null","html-keyboard-response","172","361680","0.0-7.0-0.0-4.0-0.0-1.32","4","4","4","3","4","4","4","3","4","4","5","5","5","4","5","5","5","5","5","5","1","1","2","1","2","2","2","1","1","1","0","1","1","0","0","0","1","0","1","1","0","1","0","1","4","1","1","2","2","5","2","1","1","4","1","656564688670162944","朱","106","","","","","","","","","","","","","","","","","","","","","","","","","","","","","","feedback_test","","","","","","","","","","","",""
"656","","f","psychophysics","173","363338","0.0-7.0-0.0-4.0-0.0-0.33","4","4","4","3","4","4","4","3","4","4","5","5","5","4","5","5","5","5","5","5","1","1","2","1","2","2","2","1","1","1","0","1","1","0","0","0","1","0","1","1","0","1","0","1","4","1","1","2","2","5","2","1","1","4","1","656564688670162944","朱","106","","","","match","","","","","","","","","","","","","","key","f","16.665222222222404","768","428","f","true","match","img/hexagon.png","六边","六边","ALT1","formal_ALT1_1","","","","","","","","","","","",""
"null","<span style='color:GreenYellow; font-size: 70px;'>正确! </span>","null","html-keyboard-response","174","363839","0.0-7.0-0.0-4.0-0.0-1.33","4","4","4","3","4","4","4","3","4","4","5","5","5","4","5","5","5","5","5","5","1","1","2","1","2","2","2","1","1","1","0","1","1","0","0","0","1","0","1","1","0","1","0","1","4","1","1","2","2","5","2","1","1","4","1","656564688670162944","朱","106","","","","","","","","","","","","","","","","","","","","","","","","","","","","","","feedback_test","","","","","","","","","","","",""
"530","","f","psychophysics","175","365370","0.0-7.0-0.0-4.0-0.0-0.34","4","4","4","3","4","4","4","3","4","4","5","5","5","4","5","5","5","5","5","5","1","1","2","1","2","2","2","1","1","1","0","1","1","0","0","0","1","0","1","1","0","1","0","1","4","1","1","2","2","5","2","1","1","4","1","656564688670162944","朱","106","","","","match","","","","","","","","","","","","","","key","f","16.665813186812947","768","428","f","true","match","img/ellipse.png","椭圆","椭圆","ALT1","formal_ALT1_1","","","","","","","","","","","",""
"null","<span style='color:GreenYellow; font-size: 70px;'>正确! </span>","null","html-keyboard-response","176","365871","0.0-7.0-0.0-4.0-0.0-1.34","4","4","4","3","4","4","4","3","4","4","5","5","5","4","5","5","5","5","5","5","1","1","2","1","2","2","2","1","1","1","0","1","1","0","0","0","1","0","1","1","0","1","0","1","4","1","1","2","2","5","2","1","1","4","1","656564688670162944","朱","106","","","","","","","","","","","","","","","","","","","","","","","","","","","","","","feedback_test","","","","","","","","","","","",""
"650","","f","psychophysics","177","367522","0.0-7.0-0.0-4.0-0.0-0.35","4","4","4","3","4","4","4","3","4","4","5","5","5","4","5","5","5","5","5","5","1","1","2","1","2","2","2","1","1","1","0","1","1","0","0","0","1","0","1","1","0","1","0","1","4","1","1","2","2","5","2","1","1","4","1","656564688670162944","朱","106","","","","match","","","","","","","","","","","","","","key","f","16.66639795918398","768","428","f","true","match","img/trapezoid.png","梯形","梯形","ALT1","formal_ALT1_1","","","","","","","","","","","",""
"null","<span style='color:GreenYellow; font-size: 70px;'>正确! </span>","null","html-keyboard-response","178","368024","0.0-7.0-0.0-4.0-0.0-1.35","4","4","4","3","4","4","4","3","4","4","5","5","5","4","5","5","5","5","5","5","1","1","2","1","2","2","2","1","1","1","0","1","1","0","0","0","1","0","1","1","0","1","0","1","4","1","1","2","2","5","2","1","1","4","1","656564688670162944","朱","106","","","","","","","","","","","","","","","","","","","","","","","","","","","","","","feedback_test","","","","","","","","","","","",""
"585","","j","psychophysics","179","369611","0.0-7.0-0.0-4.0-0.0-0.36","4","4","4","3","4","4","4","3","4","4","5","5","5","4","5","5","5","5","5","5","1","1","2","1","2","2","2","1","1","1","0","1","1","0","0","0","1","0","1","1","0","1","0","1","4","1","1","2","2","5","2","1","1","4","1","656564688670162944","朱","106","","","","nonmatch","","","","","","","","","","","","","","key","j","16.666478723404616","768","428","j","true","nonmatch","img/trapezoid.png","六边","梯形","ALT1","formal_ALT1_1","","","","","","","","","","","",""
"null","<span style='color:GreenYellow; font-size: 70px;'>正确! </span>","null","html-keyboard-response","180","370111","0.0-7.0-0.0-4.0-0.0-1.36","4","4","4","3","4","4","4","3","4","4","5","5","5","4","5","5","5","5","5","5","1","1","2","1","2","2","2","1","1","1","0","1","1","0","0","0","1","0","1","1","0","1","0","1","4","1","1","2","2","5","2","1","1","4","1","656564688670162944","朱","106","","","","","","","","","","","","","","","","","","","","","","","","","","","","","","feedback_test","","","","","","","","","","","",""
"833","","f","psychophysics","181","371946","0.0-7.0-0.0-4.0-0.0-0.37","4","4","4","3","4","4","4","3","4","4","5","5","5","4","5","5","5","5","5","5","1","1","2","1","2","2","2","1","1","1","0","1","1","0","0","0","1","0","1","1","0","1","0","1","4","1","1","2","2","5","2","1","1","4","1","656564688670162944","朱","106","","","","match","","","","","","","","","","","","","","key","f","16.66514678899073","768","428","f","true","match","img/trapezoid.png","梯形","梯形","ALT1","formal_ALT1_1","","","","","","","","","","","",""
