"rt","stimulus","response","trial_type","trial_index","time_elapsed","internal_node_id","ses_1","ses_2","ses_3","ses_4","ses_5","ses_6","ses_7","ses_8","ses_9","ses_10","coreself_1","coreself_2","coreself_3","coreself_4","coreself_5","coreself_6","coreself_7","coreself_8","coreself_9","coreself_10","SGPS_1","SGPS_2","SGPS_3","SGPS_4","SGPS_5","SGPS_6","SGPS_7","SGPS_8","SGPS_9","NPI1","NPI2","NPI3","NPI4","NPI5","NPI6","NPI7","NPI8","NPI9","NPI10","NPI11","NPI12","NPI13","NPI14","NPI15","hsns_1","hsns_2","hsns_3","hsns_4","hsns_5","trap1","hsns_6","hsns_7","hsns_8","hsns_9","hsns_10","subj_idx","friend_name","ParticipantID","value","success","user_agent","responses","item_order","radio_event_ids","radio_event_times","key_event_times","mouse_event_times","straightlining","zigzagging","honeypot","timeout","failed_images","failed_audio","failed_video","version_attrib2","version_target2","correct","IAT","screen_id","task_id","RT","condition","word","varname","summary","version_attrib","version_target","time_stamp","view_history","response_type","key_press","avg_frame_time","center_x","center_y","correct_response","identity","Image","question_order","correct_answer","trap1_item"
"10538","
   <p><div style = ""color: white;font-size:25px;"">您好，欢迎参加本次实验。</div> </p>
   <p><div style = ""color: white;font-size:25px;"">为充分保障您的权利，请确保您已经知晓并同意《参与实验同意书》以及《数据公开知情同意书》。</div></p>
   <p><div style = ""color: white;font-size:25px;"">如果您未见过上述内容，请咨询实验员。</div></p>
   <p><div style = ""color: white;font-size:25px;"">如果您选择继续实验，则表示您已经清楚两份知情同意书的内容并同意。</div></p>
   <p><div style = ""color: pink;font-size:30px;"">请确保您记得day0的实验编号，您将在本次实验输入该编号，若您忘记，请咨询实验员后作答。</div></p>
   <p><div style = ""color: lightblue;font-size:25px;"">请您尽可能认真地作答，我们将依据您在各问卷和按键任务中的作答质量发放报酬。</div></p>
   <p> <div style = ""color: green;font-size:25px;""><按空格键至下页></div> </p>
   "," ","html-keyboard-response","0","10540","0.0-0.0","4","4","4","4","4","4","4","4","4","4","5","5","5","5","5","5","5","5","4","5","1","1","2","1","2","2","1","1","1","0","0","1","1","0","0","0","1","0","1","1","0","1","0","1","5","1","1","3","2","5","2","2","1","5","1","598892418162491392","何","590","","","","","","","","","","","","","","","","","","","","","","","","","","","","","","","","","","","","","","","","","",""
"","","","call-function","1","10541","0.0-1.0-0.0","4","4","4","4","4","4","4","4","4","4","5","5","5","5","5","5","5","5","4","5","1","1","2","1","2","2","1","1","1","0","0","1","1","0","0","0","1","0","1","1","0","1","0","1","5","1","1","3","2","5","2","2","1","5","1","598892418162491392","何","590","","","","","","","","","","","","","","","","","","","","","","","","","","","","","","","","","","","","","","","","","",""
"30270","","{""friend_name"":""何"",""ParticipantID"":""590""}","survey-html-form","2","40812","0.0-1.0-1.0","4","4","4","4","4","4","4","4","4","4","5","5","5","5","5","5","5","5","4","5","1","1","2","1","2","2","1","1","1","0","0","1","1","0","0","0","1","0","1","1","0","1","0","1","5","1","1","3","2","5","2","2","1","5","1","598892418162491392","何","590","","","","","","","","","","","","","","","","","","","","","","","","","","","","","","","","","","","","","","","","","",""
"","","","fullscreen","3","42463","0.0-2.0","4","4","4","4","4","4","4","4","4","4","5","5","5","5","5","5","5","5","4","5","1","1","2","1","2","2","1","1","1","0","0","1","1","0","0","0","1","0","1","1","0","1","0","1","5","1","1","3","2","5","2","2","1","5","1","598892418162491392","何","590","","true","{}","","","","","","","","","","","","","","","","","","","","","","","","","","","","","","","","","","","","","","",""
"20930.70000076294","","{""Q01"":""4"",""Q02"":""4"",""Q03"":""4"",""Q04"":""4"",""Q05"":""4"",""Q06"":""4"",""Q07"":""4"",""Q08"":""4"",""Q09"":""4"",""Q10"":""4""}","survey-template","4","63396","0.0-3.0","4","4","4","4","4","4","4","4","4","4","5","5","5","5","5","5","5","5","4","5","1","1","2","1","2","2","1","1","1","0","0","1","1","0","0","0","1","0","1","1","0","1","0","1","5","1","1","3","2","5","2","2","1","5","1","598892418162491392","何","590","","","","{""Q01"":""4"",""Q02"":""4"",""Q03"":""4"",""Q04"":""4"",""Q05"":""4"",""Q06"":""4"",""Q07"":""4"",""Q08"":""4"",""Q09"":""4"",""Q10"":""4""}","[0,1,2,3,4,5,6,7,8,9]","[""Q09"",""Q08"",""Q10"",""Q07"",""Q06"",""Q05"",""Q04"",""Q03"",""Q02"",""Q01""]","[4930.10000038147,5465.800001144409,6427.200000762939,7346,8338.30000114441,10041.80000114441,10729.80000114441,13825.80000114441,14577.900001525879,15330.20000076294]","[]","[4377.700000762939,4930.10000038147,5465.800001144409,5961.800001144409,6427.200000762939,7346,8338.30000114441,9586.900001525879,10041.80000114441,10729.80000114441,11729.80000114441,13825.80000114441,14577.900001525879,15330.20000076294,20929.80000114441]","0.5","0.5555555555555556","0","","","","","","","","","","","","","","","","","","","","","","","","","","","","","",""
"25011.60000038147","","{""Q01"":""5"",""Q02"":""5"",""Q03"":""5"",""Q04"":""5"",""Q05"":""5"",""Q06"":""5"",""Q07"":""5"",""Q08"":""5"",""Q09"":""4"",""Q10"":""5""}","survey-template","5","88412","0.0-4.0","4","4","4","4","4","4","4","4","4","4","5","5","5","5","5","5","5","5","4","5","1","1","2","1","2","2","1","1","1","0","0","1","1","0","0","0","1","0","1","1","0","1","0","1","5","1","1","3","2","5","2","2","1","5","1","598892418162491392","何","590","","","","{""Q01"":""5"",""Q02"":""5"",""Q03"":""5"",""Q04"":""5"",""Q05"":""5"",""Q06"":""5"",""Q07"":""5"",""Q08"":""5"",""Q09"":""4"",""Q10"":""5""}","[0,1,2,3,4,5,6,7,8,9]","[""Q01"",""Q02"",""Q03"",""Q04"",""Q05"",""Q06"",""Q07"",""Q07"",""Q08"",""Q09"",""Q09"",""Q10"",""Q09""]","[1770.7000007629395,3067.1000003814697,3979.7999992370605,5338.60000038147,6498.700000762939,7874.5,9731.89999961853,10203.10000038147,10738.70000076294,12266.60000038147,12962.70000076294,13994.60000038147,22292.20000076294]","[]","[1770.7000007629395,3067.1000003814697,3979.7999992370605,5338.60000038147,6498.700000762939,7874.5,9075,9731.89999961853,10203.10000038147,10738.70000076294,12266.60000038147,12962.70000076294,13994.60000038147,22292.20000076294,25010.60000038147]","0.6","0.5555555555555556","0","","","","","","","","","","","","","","","","","","","","","","","","","","","","","",""
"","","","preload","6","88636","0.0-5.0","4","4","4","4","4","4","4","4","4","4","5","5","5","5","5","5","5","5","4","5","1","1","2","1","2","2","1","1","1","0","0","1","1","0","0","0","1","0","1","1","0","1","0","1","5","1","1","3","2","5","2","2","1","5","1","598892418162491392","何","590","","true","","","","","","","","","","","false","[]","[]","[]","","","","","","","","","","","","","","","","","","","","","","","","","",""
"123678","
    <h3>词语分类任务</h3>
    <p>在接下来的任务中，你需要对一系列词语进行分类。<p/>
    请先熟悉这些词语，这有利于你完成接下来的任务。</p>
    <table align=""center"" border=1 cellpadding=3 cellspacing=0>
    <tr> <th>类别</th> <th>词语</th> </tr>
    <tr> <td>&emsp;积极&emsp;</td> <td>&emsp;高尚、诚信、善良、君子、廉正、正直&emsp;</td> </tr>
    <tr> <td>&emsp;消极&emsp;</td> <td>&emsp;缺德、卑鄙、不孝、不仁、小人、黑心&emsp;</td> </tr>
    <tr> <td>&emsp;自我&emsp;</td> <td>&emsp;我、我的、自己、自己的、本人、本人的&emsp;</td> </tr>
    <tr> <td>&emsp;他人&emsp;</td> <td>&emsp;他、他的、别人、别人的、他人、他人的&emsp;</td> </tr>
    </table><br/>","0","html-button-response","7","212315","0.0-6.0-1.0-0.0","4","4","4","4","4","4","4","4","4","4","5","5","5","5","5","5","5","5","4","5","1","1","2","1","2","2","1","1","1","0","0","1","1","0","0","0","1","0","1","1","0","1","0","1","5","1","1","3","2","5","2","2","1","5","1","598892418162491392","何","590","","","","","","","","","","","","","","","","","2","2","","","","","","","","","","","","","","","","","","","","","","","",""
"1469","
    <div class=""tag-bottom""><p>
    —— 任务1：对“他人”词和“自我”词分类 ——<p/>
    不同词语会出现在屏幕中央，类别标签将始终显示在屏幕上方<p/>   
    <span style=""color:#FFD866""><b>请根据上方标签的提示，尽可能正确并且快速地做出按键反应</b></span><p/>
    当按键错误时屏幕中会出现<span style=""color:red""> X </span>，需要按另一个键纠正才能继续<br/><p/>
    请把双手食指分别放在键盘的“E”键和“I”键上<p/>
    按<空格键>开始
    </p></div>"," ","html-keyboard-response","8","213787","0.0-6.0-1.0-1.0","4","4","4","4","4","4","4","4","4","4","5","5","5","5","5","5","5","5","4","5","1","1","2","1","2","2","1","1","1","0","0","1","1","0","0","0","1","0","1","1","0","1","0","1","5","1","1","3","2","5","2","2","1","5","1","598892418162491392","何","590","","","","","","","","","","","","","","","","","","","","","","","","","","","","","","","","","","","","","","","","","",""
"null","","null","html-keyboard-response","9","214038","0.0-6.0-1.0-2.0-0.0","4","4","4","4","4","4","4","4","4","4","5","5","5","5","5","5","5","5","4","5","1","1","2","1","2","2","1","1","1","0","0","1","1","0","0","0","1","0","1","1","0","1","0","1","5","1","1","3","2","5","2","2","1","5","1","598892418162491392","何","590","","","","","","","","","","","","","","","","","","","","","","","","","","","","","","","","","","","","","","","","","",""
"636","<p style=""color:rgb(150, 250, 100); font-size: 35px;"">本人的</p>","i","categorize-html","10","214676","0.0-6.0-1.0-2.0-1.0","4","4","4","4","4","4","4","4","4","4","5","5","5","5","5","5","5","5","4","5","1","1","2","1","2","2","1","1","1","0","0","1","1","0","0","0","1","0","1","1","0","1","0","1","5","1","1","3","2","5","2","2","1","5","1","598892418162491392","何","590","","","","","","","","","","","","","","","","","","","true","11","1","moral","636","self","本人的","","","","","","","","","","","","","","","","",""
"null","","null","html-keyboard-response","11","214928","0.0-6.0-1.0-2.0-0.1","4","4","4","4","4","4","4","4","4","4","5","5","5","5","5","5","5","5","4","5","1","1","2","1","2","2","1","1","1","0","0","1","1","0","0","0","1","0","1","1","0","1","0","1","5","1","1","3","2","5","2","2","1","5","1","598892418162491392","何","590","","","","","","","","","","","","","","","","","","","","","","","","","","","","","","","","","","","","","","","","","",""
"508","<p style=""color:rgb(150, 250, 100); font-size: 35px;"">他人的</p>","e","categorize-html","12","215437","0.0-6.0-1.0-2.0-1.1","4","4","4","4","4","4","4","4","4","4","5","5","5","5","5","5","5","5","4","5","1","1","2","1","2","2","1","1","1","0","0","1","1","0","0","0","1","0","1","1","0","1","0","1","5","1","1","3","2","5","2","2","1","5","1","598892418162491392","何","590","","","","","","","","","","","","","","","","","","","true","11","1","moral","508","other","他人的","","","","","","","","","","","","","","","","",""
"null","","null","html-keyboard-response","13","215689","0.0-6.0-1.0-2.0-0.2","4","4","4","4","4","4","4","4","4","4","5","5","5","5","5","5","5","5","4","5","1","1","2","1","2","2","1","1","1","0","0","1","1","0","0","0","1","0","1","1","0","1","0","1","5","1","1","3","2","5","2","2","1","5","1","598892418162491392","何","590","","","","","","","","","","","","","","","","","","","","","","","","","","","","","","","","","","","","","","","","","",""
"522","<p style=""color:rgb(150, 250, 100); font-size: 35px;"">我</p>","i","categorize-html","14","216211","0.0-6.0-1.0-2.0-1.2","4","4","4","4","4","4","4","4","4","4","5","5","5","5","5","5","5","5","4","5","1","1","2","1","2","2","1","1","1","0","0","1","1","0","0","0","1","0","1","1","0","1","0","1","5","1","1","3","2","5","2","2","1","5","1","598892418162491392","何","590","","","","","","","","","","","","","","","","","","","true","11","1","moral","522","self","我","","","","","","","","","","","","","","","","",""
"null","","null","html-keyboard-response","15","216463","0.0-6.0-1.0-2.0-0.3","4","4","4","4","4","4","4","4","4","4","5","5","5","5","5","5","5","5","4","5","1","1","2","1","2","2","1","1","1","0","0","1","1","0","0","0","1","0","1","1","0","1","0","1","5","1","1","3","2","5","2","2","1","5","1","598892418162491392","何","590","","","","","","","","","","","","","","","","","","","","","","","","","","","","","","","","","","","","","","","","","",""
"588","<p style=""color:rgb(150, 250, 100); font-size: 35px;"">我的</p>","i","categorize-html","16","217051","0.0-6.0-1.0-2.0-1.3","4","4","4","4","4","4","4","4","4","4","5","5","5","5","5","5","5","5","4","5","1","1","2","1","2","2","1","1","1","0","0","1","1","0","0","0","1","0","1","1","0","1","0","1","5","1","1","3","2","5","2","2","1","5","1","598892418162491392","何","590","","","","","","","","","","","","","","","","","","","true","11","1","moral","588","self","我的","","","","","","","","","","","","","","","","",""
"null","","null","html-keyboard-response","17","217302","0.0-6.0-1.0-2.0-0.4","4","4","4","4","4","4","4","4","4","4","5","5","5","5","5","5","5","5","4","5","1","1","2","1","2","2","1","1","1","0","0","1","1","0","0","0","1","0","1","1","0","1","0","1","5","1","1","3","2","5","2","2","1","5","1","598892418162491392","何","590","","","","","","","","","","","","","","","","","","","","","","","","","","","","","","","","","","","","","","","","","",""
"455","<p style=""color:rgb(150, 250, 100); font-size: 35px;"">他人</p>","e","categorize-html","18","217758","0.0-6.0-1.0-2.0-1.4","4","4","4","4","4","4","4","4","4","4","5","5","5","5","5","5","5","5","4","5","1","1","2","1","2","2","1","1","1","0","0","1","1","0","0","0","1","0","1","1","0","1","0","1","5","1","1","3","2","5","2","2","1","5","1","598892418162491392","何","590","","","","","","","","","","","","","","","","","","","true","11","1","moral","455","other","他人","","","","","","","","","","","","","","","","",""
"null","","null","html-keyboard-response","19","218010","0.0-6.0-1.0-2.0-0.5","4","4","4","4","4","4","4","4","4","4","5","5","5","5","5","5","5","5","4","5","1","1","2","1","2","2","1","1","1","0","0","1","1","0","0","0","1","0","1","1","0","1","0","1","5","1","1","3","2","5","2","2","1","5","1","598892418162491392","何","590","","","","","","","","","","","","","","","","","","","","","","","","","","","","","","","","","","","","","","","","","",""
"505","<p style=""color:rgb(150, 250, 100); font-size: 35px;"">本人</p>","i","categorize-html","20","218516","0.0-6.0-1.0-2.0-1.5","4","4","4","4","4","4","4","4","4","4","5","5","5","5","5","5","5","5","4","5","1","1","2","1","2","2","1","1","1","0","0","1","1","0","0","0","1","0","1","1","0","1","0","1","5","1","1","3","2","5","2","2","1","5","1","598892418162491392","何","590","","","","","","","","","","","","","","","","","","","true","11","1","moral","505","self","本人","","","","","","","","","","","","","","","","",""
"null","","null","html-keyboard-response","21","218767","0.0-6.0-1.0-2.0-0.6","4","4","4","4","4","4","4","4","4","4","5","5","5","5","5","5","5","5","4","5","1","1","2","1","2","2","1","1","1","0","0","1","1","0","0","0","1","0","1","1","0","1","0","1","5","1","1","3","2","5","2","2","1","5","1","598892418162491392","何","590","","","","","","","","","","","","","","","","","","","","","","","","","","","","","","","","","","","","","","","","","",""
"476","<p style=""color:rgb(150, 250, 100); font-size: 35px;"">别人</p>","e","categorize-html","22","219243","0.0-6.0-1.0-2.0-1.6","4","4","4","4","4","4","4","4","4","4","5","5","5","5","5","5","5","5","4","5","1","1","2","1","2","2","1","1","1","0","0","1","1","0","0","0","1","0","1","1","0","1","0","1","5","1","1","3","2","5","2","2","1","5","1","598892418162491392","何","590","","","","","","","","","","","","","","","","","","","true","11","1","moral","476","other","别人","","","","","","","","","","","","","","","","",""
"null","","null","html-keyboard-response","23","219494","0.0-6.0-1.0-2.0-0.7","4","4","4","4","4","4","4","4","4","4","5","5","5","5","5","5","5","5","4","5","1","1","2","1","2","2","1","1","1","0","0","1","1","0","0","0","1","0","1","1","0","1","0","1","5","1","1","3","2","5","2","2","1","5","1","598892418162491392","何","590","","","","","","","","","","","","","","","","","","","","","","","","","","","","","","","","","","","","","","","","","",""
"525","<p style=""color:rgb(150, 250, 100); font-size: 35px;"">自己</p>","i","categorize-html","24","220020","0.0-6.0-1.0-2.0-1.7","4","4","4","4","4","4","4","4","4","4","5","5","5","5","5","5","5","5","4","5","1","1","2","1","2","2","1","1","1","0","0","1","1","0","0","0","1","0","1","1","0","1","0","1","5","1","1","3","2","5","2","2","1","5","1","598892418162491392","何","590","","","","","","","","","","","","","","","","","","","true","11","1","moral","525","self","自己","","","","","","","","","","","","","","","","",""
"null","","null","html-keyboard-response","25","220270","0.0-6.0-1.0-2.0-0.8","4","4","4","4","4","4","4","4","4","4","5","5","5","5","5","5","5","5","4","5","1","1","2","1","2","2","1","1","1","0","0","1","1","0","0","0","1","0","1","1","0","1","0","1","5","1","1","3","2","5","2","2","1","5","1","598892418162491392","何","590","","","","","","","","","","","","","","","","","","","","","","","","","","","","","","","","","","","","","","","","","",""
"485","<p style=""color:rgb(150, 250, 100); font-size: 35px;"">他</p>","e","categorize-html","26","220756","0.0-6.0-1.0-2.0-1.8","4","4","4","4","4","4","4","4","4","4","5","5","5","5","5","5","5","5","4","5","1","1","2","1","2","2","1","1","1","0","0","1","1","0","0","0","1","0","1","1","0","1","0","1","5","1","1","3","2","5","2","2","1","5","1","598892418162491392","何","590","","","","","","","","","","","","","","","","","","","true","11","1","moral","485","other","他","","","","","","","","","","","","","","","","",""
"null","","null","html-keyboard-response","27","221008","0.0-6.0-1.0-2.0-0.9","4","4","4","4","4","4","4","4","4","4","5","5","5","5","5","5","5","5","4","5","1","1","2","1","2","2","1","1","1","0","0","1","1","0","0","0","1","0","1","1","0","1","0","1","5","1","1","3","2","5","2","2","1","5","1","598892418162491392","何","590","","","","","","","","","","","","","","","","","","","","","","","","","","","","","","","","","","","","","","","","","",""
"492","<p style=""color:rgb(150, 250, 100); font-size: 35px;"">自己的</p>","i","categorize-html","28","221501","0.0-6.0-1.0-2.0-1.9","4","4","4","4","4","4","4","4","4","4","5","5","5","5","5","5","5","5","4","5","1","1","2","1","2","2","1","1","1","0","0","1","1","0","0","0","1","0","1","1","0","1","0","1","5","1","1","3","2","5","2","2","1","5","1","598892418162491392","何","590","","","","","","","","","","","","","","","","","","","true","11","1","moral","492","self","自己的","","","","","","","","","","","","","","","","",""
"null","","null","html-keyboard-response","29","221752","0.0-6.0-1.0-2.0-0.10","4","4","4","4","4","4","4","4","4","4","5","5","5","5","5","5","5","5","4","5","1","1","2","1","2","2","1","1","1","0","0","1","1","0","0","0","1","0","1","1","0","1","0","1","5","1","1","3","2","5","2","2","1","5","1","598892418162491392","何","590","","","","","","","","","","","","","","","","","","","","","","","","","","","","","","","","","","","","","","","","","",""
"468","<p style=""color:rgb(150, 250, 100); font-size: 35px;"">他的</p>","e","categorize-html","30","222221","0.0-6.0-1.0-2.0-1.10","4","4","4","4","4","4","4","4","4","4","5","5","5","5","5","5","5","5","4","5","1","1","2","1","2","2","1","1","1","0","0","1","1","0","0","0","1","0","1","1","0","1","0","1","5","1","1","3","2","5","2","2","1","5","1","598892418162491392","何","590","","","","","","","","","","","","","","","","","","","true","11","1","moral","468","other","他的","","","","","","","","","","","","","","","","",""
"null","","null","html-keyboard-response","31","222472","0.0-6.0-1.0-2.0-0.11","4","4","4","4","4","4","4","4","4","4","5","5","5","5","5","5","5","5","4","5","1","1","2","1","2","2","1","1","1","0","0","1","1","0","0","0","1","0","1","1","0","1","0","1","5","1","1","3","2","5","2","2","1","5","1","598892418162491392","何","590","","","","","","","","","","","","","","","","","","","","","","","","","","","","","","","","","","","","","","","","","",""
"546","<p style=""color:rgb(150, 250, 100); font-size: 35px;"">别人的</p>","e","categorize-html","32","223019","0.0-6.0-1.0-2.0-1.11","4","4","4","4","4","4","4","4","4","4","5","5","5","5","5","5","5","5","4","5","1","1","2","1","2","2","1","1","1","0","0","1","1","0","0","0","1","0","1","1","0","1","0","1","5","1","1","3","2","5","2","2","1","5","1","598892418162491392","何","590","","","","","","","","","","","","","","","","","","","true","11","1","moral","546","other","别人的","","","","","","","","","","","","","","","","",""
"5216","
    <div class=""tag-bottom""><p>
    —— 任务2：对“消极”词和“积极”词分类 ——<p/>   
    <span style=""color:#78DCE8""><b>注意上方，类别标签和需要分类的词语都已经改变</b></span><p/>
    <span style=""color:#FFD866""><b>请根据上方标签的提示，尽可能正确并且快速地做出按键反应</b></span><p/>
    当按键错误时屏幕中会出现<span style=""color:red""> X </span>，需要按另一个键纠正才能继续<br/><p/>
    请把双手食指分别放在键盘的“E”键和“I”键上<p/>
    按<空格键>开始
    </p></div>"," ","html-keyboard-response","33","228235","0.0-6.0-1.0-3.0","4","4","4","4","4","4","4","4","4","4","5","5","5","5","5","5","5","5","4","5","1","1","2","1","2","2","1","1","1","0","0","1","1","0","0","0","1","0","1","1","0","1","0","1","5","1","1","3","2","5","2","2","1","5","1","598892418162491392","何","590","","","","","","","","","","","","","","","","","","","","","","","","","","","","","","","","","","","","","","","","","",""
"null","","null","html-keyboard-response","34","228487","0.0-6.0-1.0-4.0-0.0","4","4","4","4","4","4","4","4","4","4","5","5","5","5","5","5","5","5","4","5","1","1","2","1","2","2","1","1","1","0","0","1","1","0","0","0","1","0","1","1","0","1","0","1","5","1","1","3","2","5","2","2","1","5","1","598892418162491392","何","590","","","","","","","","","","","","","","","","","","","","","","","","","","","","","","","","","","","","","","","","","",""
"596","<p style=""color:white; font-size: 35px;"">卑鄙</p>","e","categorize-html","35","229083","0.0-6.0-1.0-4.0-1.0","4","4","4","4","4","4","4","4","4","4","5","5","5","5","5","5","5","5","4","5","1","1","2","1","2","2","1","1","1","0","0","1","1","0","0","0","1","0","1","1","0","1","0","1","5","1","1","3","2","5","2","2","1","5","1","598892418162491392","何","590","","","","","","","","","","","","","","","","","","","true","12","2","moral","596","negative","卑鄙","","","","","","","","","","","","","","","","",""
"null","","null","html-keyboard-response","36","229335","0.0-6.0-1.0-4.0-0.1","4","4","4","4","4","4","4","4","4","4","5","5","5","5","5","5","5","5","4","5","1","1","2","1","2","2","1","1","1","0","0","1","1","0","0","0","1","0","1","1","0","1","0","1","5","1","1","3","2","5","2","2","1","5","1","598892418162491392","何","590","","","","","","","","","","","","","","","","","","","","","","","","","","","","","","","","","","","","","","","","","",""
"484","<p style=""color:white; font-size: 35px;"">缺德</p>","e","categorize-html","37","229820","0.0-6.0-1.0-4.0-1.1","4","4","4","4","4","4","4","4","4","4","5","5","5","5","5","5","5","5","4","5","1","1","2","1","2","2","1","1","1","0","0","1","1","0","0","0","1","0","1","1","0","1","0","1","5","1","1","3","2","5","2","2","1","5","1","598892418162491392","何","590","","","","","","","","","","","","","","","","","","","true","12","2","moral","484","negative","缺德","","","","","","","","","","","","","","","","",""
"null","","null","html-keyboard-response","38","230072","0.0-6.0-1.0-4.0-0.2","4","4","4","4","4","4","4","4","4","4","5","5","5","5","5","5","5","5","4","5","1","1","2","1","2","2","1","1","1","0","0","1","1","0","0","0","1","0","1","1","0","1","0","1","5","1","1","3","2","5","2","2","1","5","1","598892418162491392","何","590","","","","","","","","","","","","","","","","","","","","","","","","","","","","","","","","","","","","","","","","","",""
"555","<p style=""color:white; font-size: 35px;"">黑心</p>","e","categorize-html","39","230628","0.0-6.0-1.0-4.0-1.2","4","4","4","4","4","4","4","4","4","4","5","5","5","5","5","5","5","5","4","5","1","1","2","1","2","2","1","1","1","0","0","1","1","0","0","0","1","0","1","1","0","1","0","1","5","1","1","3","2","5","2","2","1","5","1","598892418162491392","何","590","","","","","","","","","","","","","","","","","","","true","12","2","moral","555","negative","黑心","","","","","","","","","","","","","","","","",""
"null","","null","html-keyboard-response","40","230878","0.0-6.0-1.0-4.0-0.3","4","4","4","4","4","4","4","4","4","4","5","5","5","5","5","5","5","5","4","5","1","1","2","1","2","2","1","1","1","0","0","1","1","0","0","0","1","0","1","1","0","1","0","1","5","1","1","3","2","5","2","2","1","5","1","598892418162491392","何","590","","","","","","","","","","","","","","","","","","","","","","","","","","","","","","","","","","","","","","","","","",""
"540","<p style=""color:white; font-size: 35px;"">廉正</p>","i","categorize-html","41","231419","0.0-6.0-1.0-4.0-1.3","4","4","4","4","4","4","4","4","4","4","5","5","5","5","5","5","5","5","4","5","1","1","2","1","2","2","1","1","1","0","0","1","1","0","0","0","1","0","1","1","0","1","0","1","5","1","1","3","2","5","2","2","1","5","1","598892418162491392","何","590","","","","","","","","","","","","","","","","","","","true","12","2","moral","540","positive","廉正","","","","","","","","","","","","","","","","",""
"null","","null","html-keyboard-response","42","231670","0.0-6.0-1.0-4.0-0.4","4","4","4","4","4","4","4","4","4","4","5","5","5","5","5","5","5","5","4","5","1","1","2","1","2","2","1","1","1","0","0","1","1","0","0","0","1","0","1","1","0","1","0","1","5","1","1","3","2","5","2","2","1","5","1","598892418162491392","何","590","","","","","","","","","","","","","","","","","","","","","","","","","","","","","","","","","","","","","","","","","",""
"476","<p style=""color:white; font-size: 35px;"">君子</p>","i","categorize-html","43","232147","0.0-6.0-1.0-4.0-1.4","4","4","4","4","4","4","4","4","4","4","5","5","5","5","5","5","5","5","4","5","1","1","2","1","2","2","1","1","1","0","0","1","1","0","0","0","1","0","1","1","0","1","0","1","5","1","1","3","2","5","2","2","1","5","1","598892418162491392","何","590","","","","","","","","","","","","","","","","","","","true","12","2","moral","476","positive","君子","","","","","","","","","","","","","","","","",""
"null","","null","html-keyboard-response","44","232398","0.0-6.0-1.0-4.0-0.5","4","4","4","4","4","4","4","4","4","4","5","5","5","5","5","5","5","5","4","5","1","1","2","1","2","2","1","1","1","0","0","1","1","0","0","0","1","0","1","1","0","1","0","1","5","1","1","3","2","5","2","2","1","5","1","598892418162491392","何","590","","","","","","","","","","","","","","","","","","","","","","","","","","","","","","","","","","","","","","","","","",""
"453","<p style=""color:white; font-size: 35px;"">高尚</p>","i","categorize-html","45","232852","0.0-6.0-1.0-4.0-1.5","4","4","4","4","4","4","4","4","4","4","5","5","5","5","5","5","5","5","4","5","1","1","2","1","2","2","1","1","1","0","0","1","1","0","0","0","1","0","1","1","0","1","0","1","5","1","1","3","2","5","2","2","1","5","1","598892418162491392","何","590","","","","","","","","","","","","","","","","","","","true","12","2","moral","453","positive","高尚","","","","","","","","","","","","","","","","",""
"null","","null","html-keyboard-response","46","233103","0.0-6.0-1.0-4.0-0.6","4","4","4","4","4","4","4","4","4","4","5","5","5","5","5","5","5","5","4","5","1","1","2","1","2","2","1","1","1","0","0","1","1","0","0","0","1","0","1","1","0","1","0","1","5","1","1","3","2","5","2","2","1","5","1","598892418162491392","何","590","","","","","","","","","","","","","","","","","","","","","","","","","","","","","","","","","","","","","","","","","",""
"580","<p style=""color:white; font-size: 35px;"">小人</p>","e","categorize-html","47","233684","0.0-6.0-1.0-4.0-1.6","4","4","4","4","4","4","4","4","4","4","5","5","5","5","5","5","5","5","4","5","1","1","2","1","2","2","1","1","1","0","0","1","1","0","0","0","1","0","1","1","0","1","0","1","5","1","1","3","2","5","2","2","1","5","1","598892418162491392","何","590","","","","","","","","","","","","","","","","","","","true","12","2","moral","580","negative","小人","","","","","","","","","","","","","","","","",""
"null","","null","html-keyboard-response","48","233935","0.0-6.0-1.0-4.0-0.7","4","4","4","4","4","4","4","4","4","4","5","5","5","5","5","5","5","5","4","5","1","1","2","1","2","2","1","1","1","0","0","1","1","0","0","0","1","0","1","1","0","1","0","1","5","1","1","3","2","5","2","2","1","5","1","598892418162491392","何","590","","","","","","","","","","","","","","","","","","","","","","","","","","","","","","","","","","","","","","","","","",""
"540","<p style=""color:white; font-size: 35px;"">正直</p>","i","categorize-html","49","234475","0.0-6.0-1.0-4.0-1.7","4","4","4","4","4","4","4","4","4","4","5","5","5","5","5","5","5","5","4","5","1","1","2","1","2","2","1","1","1","0","0","1","1","0","0","0","1","0","1","1","0","1","0","1","5","1","1","3","2","5","2","2","1","5","1","598892418162491392","何","590","","","","","","","","","","","","","","","","","","","true","12","2","moral","540","positive","正直","","","","","","","","","","","","","","","","",""
"null","","null","html-keyboard-response","50","234727","0.0-6.0-1.0-4.0-0.8","4","4","4","4","4","4","4","4","4","4","5","5","5","5","5","5","5","5","4","5","1","1","2","1","2","2","1","1","1","0","0","1","1","0","0","0","1","0","1","1","0","1","0","1","5","1","1","3","2","5","2","2","1","5","1","598892418162491392","何","590","","","","","","","","","","","","","","","","","","","","","","","","","","","","","","","","","","","","","","","","","",""
"460","<p style=""color:white; font-size: 35px;"">善良</p>","i","categorize-html","51","235188","0.0-6.0-1.0-4.0-1.8","4","4","4","4","4","4","4","4","4","4","5","5","5","5","5","5","5","5","4","5","1","1","2","1","2","2","1","1","1","0","0","1","1","0","0","0","1","0","1","1","0","1","0","1","5","1","1","3","2","5","2","2","1","5","1","598892418162491392","何","590","","","","","","","","","","","","","","","","","","","true","12","2","moral","460","positive","善良","","","","","","","","","","","","","","","","",""
"null","","null","html-keyboard-response","52","235439","0.0-6.0-1.0-4.0-0.9","4","4","4","4","4","4","4","4","4","4","5","5","5","5","5","5","5","5","4","5","1","1","2","1","2","2","1","1","1","0","0","1","1","0","0","0","1","0","1","1","0","1","0","1","5","1","1","3","2","5","2","2","1","5","1","598892418162491392","何","590","","","","","","","","","","","","","","","","","","","","","","","","","","","","","","","","","","","","","","","","","",""
"492","<p style=""color:white; font-size: 35px;"">诚信</p>","i","categorize-html","53","235931","0.0-6.0-1.0-4.0-1.9","4","4","4","4","4","4","4","4","4","4","5","5","5","5","5","5","5","5","4","5","1","1","2","1","2","2","1","1","1","0","0","1","1","0","0","0","1","0","1","1","0","1","0","1","5","1","1","3","2","5","2","2","1","5","1","598892418162491392","何","590","","","","","","","","","","","","","","","","","","","true","12","2","moral","492","positive","诚信","","","","","","","","","","","","","","","","",""
"null","","null","html-keyboard-response","54","236182","0.0-6.0-1.0-4.0-0.10","4","4","4","4","4","4","4","4","4","4","5","5","5","5","5","5","5","5","4","5","1","1","2","1","2","2","1","1","1","0","0","1","1","0","0","0","1","0","1","1","0","1","0","1","5","1","1","3","2","5","2","2","1","5","1","598892418162491392","何","590","","","","","","","","","","","","","","","","","","","","","","","","","","","","","","","","","","","","","","","","","",""
"524","<p style=""color:white; font-size: 35px;"">不仁</p>","e","categorize-html","55","236708","0.0-6.0-1.0-4.0-1.10","4","4","4","4","4","4","4","4","4","4","5","5","5","5","5","5","5","5","4","5","1","1","2","1","2","2","1","1","1","0","0","1","1","0","0","0","1","0","1","1","0","1","0","1","5","1","1","3","2","5","2","2","1","5","1","598892418162491392","何","590","","","","","","","","","","","","","","","","","","","true","12","2","moral","524","negative","不仁","","","","","","","","","","","","","","","","",""
"null","","null","html-keyboard-response","56","236959","0.0-6.0-1.0-4.0-0.11","4","4","4","4","4","4","4","4","4","4","5","5","5","5","5","5","5","5","4","5","1","1","2","1","2","2","1","1","1","0","0","1","1","0","0","0","1","0","1","1","0","1","0","1","5","1","1","3","2","5","2","2","1","5","1","598892418162491392","何","590","","","","","","","","","","","","","","","","","","","","","","","","","","","","","","","","","","","","","","","","","",""
"419","<p style=""color:white; font-size: 35px;"">不孝</p>","e","categorize-html","57","237380","0.0-6.0-1.0-4.0-1.11","4","4","4","4","4","4","4","4","4","4","5","5","5","5","5","5","5","5","4","5","1","1","2","1","2","2","1","1","1","0","0","1","1","0","0","0","1","0","1","1","0","1","0","1","5","1","1","3","2","5","2","2","1","5","1","598892418162491392","何","590","","","","","","","","","","","","","","","","","","","true","12","2","moral","419","negative","不孝","","","","","","","","","","","","","","","","",""
"1439","
    <div class=""tag-bottom""><p>
    —— 任务3：对“他人/消极”词和“自我/积极”词分类 ——<p/>
    <span style=""color:#78DCE8""><b>注意上方，之前的四类词语将混合在一起交替呈现</b></span><p/>
    <span style=""color:#FFD866""><b>请根据上方标签的提示，尽可能正确并且快速地做出按键反应</b></span><p/>
    当按键错误时屏幕中会出现<span style=""color:red""> X </span>，需要按另一个键纠正才能继续<br/><p/>
    请把双手食指分别放在键盘的“E”键和“I”键上<p/>
    按<空格键>开始
    </p></div>"," ","html-keyboard-response","58","238819","0.0-6.0-1.0-5.0","4","4","4","4","4","4","4","4","4","4","5","5","5","5","5","5","5","5","4","5","1","1","2","1","2","2","1","1","1","0","0","1","1","0","0","0","1","0","1","1","0","1","0","1","5","1","1","3","2","5","2","2","1","5","1","598892418162491392","何","590","","","","","","","","","","","","","","","","","","","","","","","","","","","","","","","","","","","","","","","","","",""
"null","","null","html-keyboard-response","59","239070","0.0-6.0-1.0-6.0-0.0","4","4","4","4","4","4","4","4","4","4","5","5","5","5","5","5","5","5","4","5","1","1","2","1","2","2","1","1","1","0","0","1","1","0","0","0","1","0","1","1","0","1","0","1","5","1","1","3","2","5","2","2","1","5","1","598892418162491392","何","590","","","","","","","","","","","","","","","","","","","","","","","","","","","","","","","","","","","","","","","","","",""
"508","<p style=""color:rgb(150, 250, 100); font-size: 35px;"">他人</p>","e","categorize-html","60","239580","0.0-6.0-1.0-6.0-1.0","4","4","4","4","4","4","4","4","4","4","5","5","5","5","5","5","5","5","4","5","1","1","2","1","2","2","1","1","1","0","0","1","1","0","0","0","1","0","1","1","0","1","0","1","5","1","1","3","2","5","2","2","1","5","1","598892418162491392","何","590","","","","","","","","","","","","","","","","","","","true","13","3","moral","508","other","他人","","","","","","","","","","","","","","","","",""
"null","","null","html-keyboard-response","61","239831","0.0-6.0-1.0-6.0-0.1","4","4","4","4","4","4","4","4","4","4","5","5","5","5","5","5","5","5","4","5","1","1","2","1","2","2","1","1","1","0","0","1","1","0","0","0","1","0","1","1","0","1","0","1","5","1","1","3","2","5","2","2","1","5","1","598892418162491392","何","590","","","","","","","","","","","","","","","","","","","","","","","","","","","","","","","","","","","","","","","","","",""
"485","<p style=""color:white; font-size: 35px;"">不孝</p>","e","categorize-html","62","240317","0.0-6.0-1.0-6.0-1.1","4","4","4","4","4","4","4","4","4","4","5","5","5","5","5","5","5","5","4","5","1","1","2","1","2","2","1","1","1","0","0","1","1","0","0","0","1","0","1","1","0","1","0","1","5","1","1","3","2","5","2","2","1","5","1","598892418162491392","何","590","","","","","","","","","","","","","","","","","","","true","13","3","moral","485","negative","不孝","","","","","","","","","","","","","","","","",""
"null","","null","html-keyboard-response","63","240568","0.0-6.0-1.0-6.0-0.2","4","4","4","4","4","4","4","4","4","4","5","5","5","5","5","5","5","5","4","5","1","1","2","1","2","2","1","1","1","0","0","1","1","0","0","0","1","0","1","1","0","1","0","1","5","1","1","3","2","5","2","2","1","5","1","598892418162491392","何","590","","","","","","","","","","","","","","","","","","","","","","","","","","","","","","","","","","","","","","","","","",""
"459","<p style=""color:rgb(150, 250, 100); font-size: 35px;"">自己</p>","i","categorize-html","64","241028","0.0-6.0-1.0-6.0-1.2","4","4","4","4","4","4","4","4","4","4","5","5","5","5","5","5","5","5","4","5","1","1","2","1","2","2","1","1","1","0","0","1","1","0","0","0","1","0","1","1","0","1","0","1","5","1","1","3","2","5","2","2","1","5","1","598892418162491392","何","590","","","","","","","","","","","","","","","","","","","true","13","3","moral","459","self","自己","","","","","","","","","","","","","","","","",""
"null","","null","html-keyboard-response","65","241279","0.0-6.0-1.0-6.0-0.3","4","4","4","4","4","4","4","4","4","4","5","5","5","5","5","5","5","5","4","5","1","1","2","1","2","2","1","1","1","0","0","1","1","0","0","0","1","0","1","1","0","1","0","1","5","1","1","3","2","5","2","2","1","5","1","598892418162491392","何","590","","","","","","","","","","","","","","","","","","","","","","","","","","","","","","","","","","","","","","","","","",""
"533","<p style=""color:white; font-size: 35px;"">君子</p>","i","categorize-html","66","241813","0.0-6.0-1.0-6.0-1.3","4","4","4","4","4","4","4","4","4","4","5","5","5","5","5","5","5","5","4","5","1","1","2","1","2","2","1","1","1","0","0","1","1","0","0","0","1","0","1","1","0","1","0","1","5","1","1","3","2","5","2","2","1","5","1","598892418162491392","何","590","","","","","","","","","","","","","","","","","","","true","13","3","moral","533","positive","君子","","","","","","","","","","","","","","","","",""
"null","","null","html-keyboard-response","67","242063","0.0-6.0-1.0-6.0-0.4","4","4","4","4","4","4","4","4","4","4","5","5","5","5","5","5","5","5","4","5","1","1","2","1","2","2","1","1","1","0","0","1","1","0","0","0","1","0","1","1","0","1","0","1","5","1","1","3","2","5","2","2","1","5","1","598892418162491392","何","590","","","","","","","","","","","","","","","","","","","","","","","","","","","","","","","","","","","","","","","","","",""
"516","<p style=""color:rgb(150, 250, 100); font-size: 35px;"">他的</p>","e","categorize-html","68","242580","0.0-6.0-1.0-6.0-1.4","4","4","4","4","4","4","4","4","4","4","5","5","5","5","5","5","5","5","4","5","1","1","2","1","2","2","1","1","1","0","0","1","1","0","0","0","1","0","1","1","0","1","0","1","5","1","1","3","2","5","2","2","1","5","1","598892418162491392","何","590","","","","","","","","","","","","","","","","","","","true","13","3","moral","516","other","他的","","","","","","","","","","","","","","","","",""
"null","","null","html-keyboard-response","69","242831","0.0-6.0-1.0-6.0-0.5","4","4","4","4","4","4","4","4","4","4","5","5","5","5","5","5","5","5","4","5","1","1","2","1","2","2","1","1","1","0","0","1","1","0","0","0","1","0","1","1","0","1","0","1","5","1","1","3","2","5","2","2","1","5","1","598892418162491392","何","590","","","","","","","","","","","","","","","","","","","","","","","","","","","","","","","","","","","","","","","","","",""
"524","<p style=""color:white; font-size: 35px;"">黑心</p>","e","categorize-html","70","243355","0.0-6.0-1.0-6.0-1.5","4","4","4","4","4","4","4","4","4","4","5","5","5","5","5","5","5","5","4","5","1","1","2","1","2","2","1","1","1","0","0","1","1","0","0","0","1","0","1","1","0","1","0","1","5","1","1","3","2","5","2","2","1","5","1","598892418162491392","何","590","","","","","","","","","","","","","","","","","","","true","13","3","moral","524","negative","黑心","","","","","","","","","","","","","","","","",""
"null","","null","html-keyboard-response","71","243606","0.0-6.0-1.0-6.0-0.6","4","4","4","4","4","4","4","4","4","4","5","5","5","5","5","5","5","5","4","5","1","1","2","1","2","2","1","1","1","0","0","1","1","0","0","0","1","0","1","1","0","1","0","1","5","1","1","3","2","5","2","2","1","5","1","598892418162491392","何","590","","","","","","","","","","","","","","","","","","","","","","","","","","","","","","","","","","","","","","","","","",""
"461","<p style=""color:rgb(150, 250, 100); font-size: 35px;"">本人</p>","i","categorize-html","72","244068","0.0-6.0-1.0-6.0-1.6","4","4","4","4","4","4","4","4","4","4","5","5","5","5","5","5","5","5","4","5","1","1","2","1","2","2","1","1","1","0","0","1","1","0","0","0","1","0","1","1","0","1","0","1","5","1","1","3","2","5","2","2","1","5","1","598892418162491392","何","590","","","","","","","","","","","","","","","","","","","true","13","3","moral","461","self","本人","","","","","","","","","","","","","","","","",""
"null","","null","html-keyboard-response","73","244319","0.0-6.0-1.0-6.0-0.7","4","4","4","4","4","4","4","4","4","4","5","5","5","5","5","5","5","5","4","5","1","1","2","1","2","2","1","1","1","0","0","1","1","0","0","0","1","0","1","1","0","1","0","1","5","1","1","3","2","5","2","2","1","5","1","598892418162491392","何","590","","","","","","","","","","","","","","","","","","","","","","","","","","","","","","","","","","","","","","","","","",""
"547","<p style=""color:white; font-size: 35px;"">廉正</p>","i","categorize-html","74","244868","0.0-6.0-1.0-6.0-1.7","4","4","4","4","4","4","4","4","4","4","5","5","5","5","5","5","5","5","4","5","1","1","2","1","2","2","1","1","1","0","0","1","1","0","0","0","1","0","1","1","0","1","0","1","5","1","1","3","2","5","2","2","1","5","1","598892418162491392","何","590","","","","","","","","","","","","","","","","","","","true","13","3","moral","547","positive","廉正","","","","","","","","","","","","","","","","",""
"null","","null","html-keyboard-response","75","245119","0.0-6.0-1.0-6.0-0.8","4","4","4","4","4","4","4","4","4","4","5","5","5","5","5","5","5","5","4","5","1","1","2","1","2","2","1","1","1","0","0","1","1","0","0","0","1","0","1","1","0","1","0","1","5","1","1","3","2","5","2","2","1","5","1","598892418162491392","何","590","","","","","","","","","","","","","","","","","","","","","","","","","","","","","","","","","","","","","","","","","",""
"540","<p style=""color:rgb(150, 250, 100); font-size: 35px;"">他人的</p>","e","categorize-html","76","245661","0.0-6.0-1.0-6.0-1.8","4","4","4","4","4","4","4","4","4","4","5","5","5","5","5","5","5","5","4","5","1","1","2","1","2","2","1","1","1","0","0","1","1","0","0","0","1","0","1","1","0","1","0","1","5","1","1","3","2","5","2","2","1","5","1","598892418162491392","何","590","","","","","","","","","","","","","","","","","","","true","13","3","moral","540","other","他人的","","","","","","","","","","","","","","","","",""
"null","","null","html-keyboard-response","77","245911","0.0-6.0-1.0-6.0-0.9","4","4","4","4","4","4","4","4","4","4","5","5","5","5","5","5","5","5","4","5","1","1","2","1","2","2","1","1","1","0","0","1","1","0","0","0","1","0","1","1","0","1","0","1","5","1","1","3","2","5","2","2","1","5","1","598892418162491392","何","590","","","","","","","","","","","","","","","","","","","","","","","","","","","","","","","","","","","","","","","","","",""
"508","<p style=""color:white; font-size: 35px;"">诚信</p>","i","categorize-html","78","246421","0.0-6.0-1.0-6.0-1.9","4","4","4","4","4","4","4","4","4","4","5","5","5","5","5","5","5","5","4","5","1","1","2","1","2","2","1","1","1","0","0","1","1","0","0","0","1","0","1","1","0","1","0","1","5","1","1","3","2","5","2","2","1","5","1","598892418162491392","何","590","","","","","","","","","","","","","","","","","","","true","13","3","moral","508","positive","诚信","","","","","","","","","","","","","","","","",""
"null","","null","html-keyboard-response","79","246671","0.0-6.0-1.0-6.0-0.10","4","4","4","4","4","4","4","4","4","4","5","5","5","5","5","5","5","5","4","5","1","1","2","1","2","2","1","1","1","0","0","1","1","0","0","0","1","0","1","1","0","1","0","1","5","1","1","3","2","5","2","2","1","5","1","598892418162491392","何","590","","","","","","","","","","","","","","","","","","","","","","","","","","","","","","","","","","","","","","","","","",""
"475","<p style=""color:rgb(150, 250, 100); font-size: 35px;"">本人的</p>","i","categorize-html","80","247148","0.0-6.0-1.0-6.0-1.10","4","4","4","4","4","4","4","4","4","4","5","5","5","5","5","5","5","5","4","5","1","1","2","1","2","2","1","1","1","0","0","1","1","0","0","0","1","0","1","1","0","1","0","1","5","1","1","3","2","5","2","2","1","5","1","598892418162491392","何","590","","","","","","","","","","","","","","","","","","","true","13","3","moral","475","self","本人的","","","","","","","","","","","","","","","","",""
"null","","null","html-keyboard-response","81","247399","0.0-6.0-1.0-6.0-0.11","4","4","4","4","4","4","4","4","4","4","5","5","5","5","5","5","5","5","4","5","1","1","2","1","2","2","1","1","1","0","0","1","1","0","0","0","1","0","1","1","0","1","0","1","5","1","1","3","2","5","2","2","1","5","1","598892418162491392","何","590","","","","","","","","","","","","","","","","","","","","","","","","","","","","","","","","","","","","","","","","","",""
"523","<p style=""color:white; font-size: 35px;"">缺德</p>","e","categorize-html","82","247924","0.0-6.0-1.0-6.0-1.11","4","4","4","4","4","4","4","4","4","4","5","5","5","5","5","5","5","5","4","5","1","1","2","1","2","2","1","1","1","0","0","1","1","0","0","0","1","0","1","1","0","1","0","1","5","1","1","3","2","5","2","2","1","5","1","598892418162491392","何","590","","","","","","","","","","","","","","","","","","","true","13","3","moral","523","negative","缺德","","","","","","","","","","","","","","","","",""
"null","","null","html-keyboard-response","83","248175","0.0-6.0-1.0-6.0-0.12","4","4","4","4","4","4","4","4","4","4","5","5","5","5","5","5","5","5","4","5","1","1","2","1","2","2","1","1","1","0","0","1","1","0","0","0","1","0","1","1","0","1","0","1","5","1","1","3","2","5","2","2","1","5","1","598892418162491392","何","590","","","","","","","","","","","","","","","","","","","","","","","","","","","","","","","","","","","","","","","","","",""
"636","<p style=""color:rgb(150, 250, 100); font-size: 35px;"">我</p>","i","categorize-html","84","248812","0.0-6.0-1.0-6.0-1.12","4","4","4","4","4","4","4","4","4","4","5","5","5","5","5","5","5","5","4","5","1","1","2","1","2","2","1","1","1","0","0","1","1","0","0","0","1","0","1","1","0","1","0","1","5","1","1","3","2","5","2","2","1","5","1","598892418162491392","何","590","","","","","","","","","","","","","","","","","","","true","13","3","moral","636","self","我","","","","","","","","","","","","","","","","",""
"null","","null","html-keyboard-response","85","249063","0.0-6.0-1.0-6.0-0.13","4","4","4","4","4","4","4","4","4","4","5","5","5","5","5","5","5","5","4","5","1","1","2","1","2","2","1","1","1","0","0","1","1","0","0","0","1","0","1","1","0","1","0","1","5","1","1","3","2","5","2","2","1","5","1","598892418162491392","何","590","","","","","","","","","","","","","","","","","","","","","","","","","","","","","","","","","","","","","","","","","",""
"548","<p style=""color:white; font-size: 35px;"">高尚</p>","i","categorize-html","86","249612","0.0-6.0-1.0-6.0-1.13","4","4","4","4","4","4","4","4","4","4","5","5","5","5","5","5","5","5","4","5","1","1","2","1","2","2","1","1","1","0","0","1","1","0","0","0","1","0","1","1","0","1","0","1","5","1","1","3","2","5","2","2","1","5","1","598892418162491392","何","590","","","","","","","","","","","","","","","","","","","true","13","3","moral","548","positive","高尚","","","","","","","","","","","","","","","","",""
"null","","null","html-keyboard-response","87","249864","0.0-6.0-1.0-6.0-0.14","4","4","4","4","4","4","4","4","4","4","5","5","5","5","5","5","5","5","4","5","1","1","2","1","2","2","1","1","1","0","0","1","1","0","0","0","1","0","1","1","0","1","0","1","5","1","1","3","2","5","2","2","1","5","1","598892418162491392","何","590","","","","","","","","","","","","","","","","","","","","","","","","","","","","","","","","","","","","","","","","","",""
"547","<p style=""color:rgb(150, 250, 100); font-size: 35px;"">他</p>","e","categorize-html","88","250411","0.0-6.0-1.0-6.0-1.14","4","4","4","4","4","4","4","4","4","4","5","5","5","5","5","5","5","5","4","5","1","1","2","1","2","2","1","1","1","0","0","1","1","0","0","0","1","0","1","1","0","1","0","1","5","1","1","3","2","5","2","2","1","5","1","598892418162491392","何","590","","","","","","","","","","","","","","","","","","","true","13","3","moral","547","other","他","","","","","","","","","","","","","","","","",""
"null","","null","html-keyboard-response","89","250662","0.0-6.0-1.0-6.0-0.15","4","4","4","4","4","4","4","4","4","4","5","5","5","5","5","5","5","5","4","5","1","1","2","1","2","2","1","1","1","0","0","1","1","0","0","0","1","0","1","1","0","1","0","1","5","1","1","3","2","5","2","2","1","5","1","598892418162491392","何","590","","","","","","","","","","","","","","","","","","","","","","","","","","","","","","","","","","","","","","","","","",""
"445","<p style=""color:white; font-size: 35px;"">不仁</p>","e","categorize-html","90","251108","0.0-6.0-1.0-6.0-1.15","4","4","4","4","4","4","4","4","4","4","5","5","5","5","5","5","5","5","4","5","1","1","2","1","2","2","1","1","1","0","0","1","1","0","0","0","1","0","1","1","0","1","0","1","5","1","1","3","2","5","2","2","1","5","1","598892418162491392","何","590","","","","","","","","","","","","","","","","","","","true","13","3","moral","445","negative","不仁","","","","","","","","","","","","","","","","",""
"null","","null","html-keyboard-response","91","251359","0.0-6.0-1.0-6.0-0.16","4","4","4","4","4","4","4","4","4","4","5","5","5","5","5","5","5","5","4","5","1","1","2","1","2","2","1","1","1","0","0","1","1","0","0","0","1","0","1","1","0","1","0","1","5","1","1","3","2","5","2","2","1","5","1","598892418162491392","何","590","","","","","","","","","","","","","","","","","","","","","","","","","","","","","","","","","","","","","","","","","",""
"588","<p style=""color:rgb(150, 250, 100); font-size: 35px;"">别人的</p>","e","categorize-html","92","251947","0.0-6.0-1.0-6.0-1.16","4","4","4","4","4","4","4","4","4","4","5","5","5","5","5","5","5","5","4","5","1","1","2","1","2","2","1","1","1","0","0","1","1","0","0","0","1","0","1","1","0","1","0","1","5","1","1","3","2","5","2","2","1","5","1","598892418162491392","何","590","","","","","","","","","","","","","","","","","","","true","13","3","moral","588","other","别人的","","","","","","","","","","","","","","","","",""
"null","","null","html-keyboard-response","93","252198","0.0-6.0-1.0-6.0-0.17","4","4","4","4","4","4","4","4","4","4","5","5","5","5","5","5","5","5","4","5","1","1","2","1","2","2","1","1","1","0","0","1","1","0","0","0","1","0","1","1","0","1","0","1","5","1","1","3","2","5","2","2","1","5","1","598892418162491392","何","590","","","","","","","","","","","","","","","","","","","","","","","","","","","","","","","","","","","","","","","","","",""
"509","<p style=""color:white; font-size: 35px;"">正直</p>","i","categorize-html","94","252708","0.0-6.0-1.0-6.0-1.17","4","4","4","4","4","4","4","4","4","4","5","5","5","5","5","5","5","5","4","5","1","1","2","1","2","2","1","1","1","0","0","1","1","0","0","0","1","0","1","1","0","1","0","1","5","1","1","3","2","5","2","2","1","5","1","598892418162491392","何","590","","","","","","","","","","","","","","","","","","","true","13","3","moral","509","positive","正直","","","","","","","","","","","","","","","","",""
"null","","null","html-keyboard-response","95","252960","0.0-6.0-1.0-6.0-0.18","4","4","4","4","4","4","4","4","4","4","5","5","5","5","5","5","5","5","4","5","1","1","2","1","2","2","1","1","1","0","0","1","1","0","0","0","1","0","1","1","0","1","0","1","5","1","1","3","2","5","2","2","1","5","1","598892418162491392","何","590","","","","","","","","","","","","","","","","","","","","","","","","","","","","","","","","","","","","","","","","","",""
"499","<p style=""color:rgb(150, 250, 100); font-size: 35px;"">自己的</p>","i","categorize-html","96","253460","0.0-6.0-1.0-6.0-1.18","4","4","4","4","4","4","4","4","4","4","5","5","5","5","5","5","5","5","4","5","1","1","2","1","2","2","1","1","1","0","0","1","1","0","0","0","1","0","1","1","0","1","0","1","5","1","1","3","2","5","2","2","1","5","1","598892418162491392","何","590","","","","","","","","","","","","","","","","","","","true","13","3","moral","499","self","自己的","","","","","","","","","","","","","","","","",""
"null","","null","html-keyboard-response","97","253712","0.0-6.0-1.0-6.0-0.19","4","4","4","4","4","4","4","4","4","4","5","5","5","5","5","5","5","5","4","5","1","1","2","1","2","2","1","1","1","0","0","1","1","0","0","0","1","0","1","1","0","1","0","1","5","1","1","3","2","5","2","2","1","5","1","598892418162491392","何","590","","","","","","","","","","","","","","","","","","","","","","","","","","","","","","","","","","","","","","","","","",""
"724","<p style=""color:white; font-size: 35px;"">卑鄙</p>","e","categorize-html","98","254437","0.0-6.0-1.0-6.0-1.19","4","4","4","4","4","4","4","4","4","4","5","5","5","5","5","5","5","5","4","5","1","1","2","1","2","2","1","1","1","0","0","1","1","0","0","0","1","0","1","1","0","1","0","1","5","1","1","3","2","5","2","2","1","5","1","598892418162491392","何","590","","","","","","","","","","","","","","","","","","","true","13","3","moral","724","negative","卑鄙","","","","","","","","","","","","","","","","",""
"null","","null","html-keyboard-response","99","254689","0.0-6.0-1.0-6.0-0.20","4","4","4","4","4","4","4","4","4","4","5","5","5","5","5","5","5","5","4","5","1","1","2","1","2","2","1","1","1","0","0","1","1","0","0","0","1","0","1","1","0","1","0","1","5","1","1","3","2","5","2","2","1","5","1","598892418162491392","何","590","","","","","","","","","","","","","","","","","","","","","","","","","","","","","","","","","","","","","","","","","",""
"802","<p style=""color:rgb(150, 250, 100); font-size: 35px;"">别人</p>","e","categorize-html","100","255491","0.0-6.0-1.0-6.0-1.20","4","4","4","4","4","4","4","4","4","4","5","5","5","5","5","5","5","5","4","5","1","1","2","1","2","2","1","1","1","0","0","1","1","0","0","0","1","0","1","1","0","1","0","1","5","1","1","3","2","5","2","2","1","5","1","598892418162491392","何","590","","","","","","","","","","","","","","","","","","","true","13","3","moral","802","other","别人","","","","","","","","","","","","","","","","",""
"null","","null","html-keyboard-response","101","255742","0.0-6.0-1.0-6.0-0.21","4","4","4","4","4","4","4","4","4","4","5","5","5","5","5","5","5","5","4","5","1","1","2","1","2","2","1","1","1","0","0","1","1","0","0","0","1","0","1","1","0","1","0","1","5","1","1","3","2","5","2","2","1","5","1","598892418162491392","何","590","","","","","","","","","","","","","","","","","","","","","","","","","","","","","","","","","","","","","","","","","",""
"573","<p style=""color:white; font-size: 35px;"">善良</p>","i","categorize-html","102","256317","0.0-6.0-1.0-6.0-1.21","4","4","4","4","4","4","4","4","4","4","5","5","5","5","5","5","5","5","4","5","1","1","2","1","2","2","1","1","1","0","0","1","1","0","0","0","1","0","1","1","0","1","0","1","5","1","1","3","2","5","2","2","1","5","1","598892418162491392","何","590","","","","","","","","","","","","","","","","","","","true","13","3","moral","573","positive","善良","","","","","","","","","","","","","","","","",""
"null","","null","html-keyboard-response","103","256568","0.0-6.0-1.0-6.0-0.22","4","4","4","4","4","4","4","4","4","4","5","5","5","5","5","5","5","5","4","5","1","1","2","1","2","2","1","1","1","0","0","1","1","0","0","0","1","0","1","1","0","1","0","1","5","1","1","3","2","5","2","2","1","5","1","598892418162491392","何","590","","","","","","","","","","","","","","","","","","","","","","","","","","","","","","","","","","","","","","","","","",""
"717","<p style=""color:rgb(150, 250, 100); font-size: 35px;"">我的</p>","i","categorize-html","104","257287","0.0-6.0-1.0-6.0-1.22","4","4","4","4","4","4","4","4","4","4","5","5","5","5","5","5","5","5","4","5","1","1","2","1","2","2","1","1","1","0","0","1","1","0","0","0","1","0","1","1","0","1","0","1","5","1","1","3","2","5","2","2","1","5","1","598892418162491392","何","590","","","","","","","","","","","","","","","","","","","true","13","3","moral","717","self","我的","","","","","","","","","","","","","","","","",""
"null","","null","html-keyboard-response","105","257538","0.0-6.0-1.0-6.0-0.23","4","4","4","4","4","4","4","4","4","4","5","5","5","5","5","5","5","5","4","5","1","1","2","1","2","2","1","1","1","0","0","1","1","0","0","0","1","0","1","1","0","1","0","1","5","1","1","3","2","5","2","2","1","5","1","598892418162491392","何","590","","","","","","","","","","","","","","","","","","","","","","","","","","","","","","","","","","","","","","","","","",""
"592","<p style=""color:white; font-size: 35px;"">小人</p>","e","categorize-html","106","258132","0.0-6.0-1.0-6.0-1.23","4","4","4","4","4","4","4","4","4","4","5","5","5","5","5","5","5","5","4","5","1","1","2","1","2","2","1","1","1","0","0","1","1","0","0","0","1","0","1","1","0","1","0","1","5","1","1","3","2","5","2","2","1","5","1","598892418162491392","何","590","","","","","","","","","","","","","","","","","","","true","13","3","moral","592","negative","小人","","","","","","","","","","","","","","","","",""
"3655","
    <div class=""tag-bottom""><p>
    —— 任务4：对“他人/消极”词和“自我/积极”词分类 ——<p/>
    <span style=""color:#78DCE8""><b>与刚才的任务完全相同，请再次对这四类词语分类</b></span><p/>
    <span style=""color:#FFD866""><b>请根据上方标签的提示，尽可能正确并且快速地做出按键反应</b></span><p/>
    当按键错误时屏幕中会出现<span style=""color:red""> X </span>，需要按另一个键纠正才能继续<br/><p/>
    请把双手食指分别放在键盘的“E”键和“I”键上<p/>
    按<空格键>开始
    </p></div>"," ","html-keyboard-response","107","261787","0.0-6.0-1.0-7.0","4","4","4","4","4","4","4","4","4","4","5","5","5","5","5","5","5","5","4","5","1","1","2","1","2","2","1","1","1","0","0","1","1","0","0","0","1","0","1","1","0","1","0","1","5","1","1","3","2","5","2","2","1","5","1","598892418162491392","何","590","","","","","","","","","","","","","","","","","","","","","","","","","","","","","","","","","","","","","","","","","",""
"null","","null","html-keyboard-response","108","262039","0.0-6.0-1.0-8.0-0.0","4","4","4","4","4","4","4","4","4","4","5","5","5","5","5","5","5","5","4","5","1","1","2","1","2","2","1","1","1","0","0","1","1","0","0","0","1","0","1","1","0","1","0","1","5","1","1","3","2","5","2","2","1","5","1","598892418162491392","何","590","","","","","","","","","","","","","","","","","","","","","","","","","","","","","","","","","","","","","","","","","",""
"541","<p style=""color:rgb(150, 250, 100); font-size: 35px;"">别人的</p>","e","categorize-html","109","262581","0.0-6.0-1.0-8.0-1.0","4","4","4","4","4","4","4","4","4","4","5","5","5","5","5","5","5","5","4","5","1","1","2","1","2","2","1","1","1","0","0","1","1","0","0","0","1","0","1","1","0","1","0","1","5","1","1","3","2","5","2","2","1","5","1","598892418162491392","何","590","","","","","","","","","","","","","","","","","","","true","14","4","moral","541","other","别人的","","","","","","","","","","","","","","","","",""
"null","","null","html-keyboard-response","110","262834","0.0-6.0-1.0-8.0-0.1","4","4","4","4","4","4","4","4","4","4","5","5","5","5","5","5","5","5","4","5","1","1","2","1","2","2","1","1","1","0","0","1","1","0","0","0","1","0","1","1","0","1","0","1","5","1","1","3","2","5","2","2","1","5","1","598892418162491392","何","590","","","","","","","","","","","","","","","","","","","","","","","","","","","","","","","","","","","","","","","","","",""
"537","<p style=""color:white; font-size: 35px;"">高尚</p>","i","categorize-html","111","263371","0.0-6.0-1.0-8.0-1.1","4","4","4","4","4","4","4","4","4","4","5","5","5","5","5","5","5","5","4","5","1","1","2","1","2","2","1","1","1","0","0","1","1","0","0","0","1","0","1","1","0","1","0","1","5","1","1","3","2","5","2","2","1","5","1","598892418162491392","何","590","","","","","","","","","","","","","","","","","","","true","14","4","moral","537","positive","高尚","","","","","","","","","","","","","","","","",""
"null","","null","html-keyboard-response","112","263622","0.0-6.0-1.0-8.0-0.2","4","4","4","4","4","4","4","4","4","4","5","5","5","5","5","5","5","5","4","5","1","1","2","1","2","2","1","1","1","0","0","1","1","0","0","0","1","0","1","1","0","1","0","1","5","1","1","3","2","5","2","2","1","5","1","598892418162491392","何","590","","","","","","","","","","","","","","","","","","","","","","","","","","","","","","","","","","","","","","","","","",""
"486","<p style=""color:rgb(150, 250, 100); font-size: 35px;"">自己</p>","i","categorize-html","113","264109","0.0-6.0-1.0-8.0-1.2","4","4","4","4","4","4","4","4","4","4","5","5","5","5","5","5","5","5","4","5","1","1","2","1","2","2","1","1","1","0","0","1","1","0","0","0","1","0","1","1","0","1","0","1","5","1","1","3","2","5","2","2","1","5","1","598892418162491392","何","590","","","","","","","","","","","","","","","","","","","true","14","4","moral","486","self","自己","","","","","","","","","","","","","","","","",""
"null","","null","html-keyboard-response","114","264360","0.0-6.0-1.0-8.0-0.3","4","4","4","4","4","4","4","4","4","4","5","5","5","5","5","5","5","5","4","5","1","1","2","1","2","2","1","1","1","0","0","1","1","0","0","0","1","0","1","1","0","1","0","1","5","1","1","3","2","5","2","2","1","5","1","598892418162491392","何","590","","","","","","","","","","","","","","","","","","","","","","","","","","","","","","","","","","","","","","","","","",""
"507","<p style=""color:white; font-size: 35px;"">缺德</p>","e","categorize-html","115","264867","0.0-6.0-1.0-8.0-1.3","4","4","4","4","4","4","4","4","4","4","5","5","5","5","5","5","5","5","4","5","1","1","2","1","2","2","1","1","1","0","0","1","1","0","0","0","1","0","1","1","0","1","0","1","5","1","1","3","2","5","2","2","1","5","1","598892418162491392","何","590","","","","","","","","","","","","","","","","","","","true","14","4","moral","507","negative","缺德","","","","","","","","","","","","","","","","",""
"null","","null","html-keyboard-response","116","265119","0.0-6.0-1.0-8.0-0.4","4","4","4","4","4","4","4","4","4","4","5","5","5","5","5","5","5","5","4","5","1","1","2","1","2","2","1","1","1","0","0","1","1","0","0","0","1","0","1","1","0","1","0","1","5","1","1","3","2","5","2","2","1","5","1","598892418162491392","何","590","","","","","","","","","","","","","","","","","","","","","","","","","","","","","","","","","","","","","","","","","",""
"516","<p style=""color:rgb(150, 250, 100); font-size: 35px;"">自己的</p>","i","categorize-html","117","265636","0.0-6.0-1.0-8.0-1.4","4","4","4","4","4","4","4","4","4","4","5","5","5","5","5","5","5","5","4","5","1","1","2","1","2","2","1","1","1","0","0","1","1","0","0","0","1","0","1","1","0","1","0","1","5","1","1","3","2","5","2","2","1","5","1","598892418162491392","何","590","","","","","","","","","","","","","","","","","","","true","14","4","moral","516","self","自己的","","","","","","","","","","","","","","","","",""
"null","","null","html-keyboard-response","118","265887","0.0-6.0-1.0-8.0-0.5","4","4","4","4","4","4","4","4","4","4","5","5","5","5","5","5","5","5","4","5","1","1","2","1","2","2","1","1","1","0","0","1","1","0","0","0","1","0","1","1","0","1","0","1","5","1","1","3","2","5","2","2","1","5","1","598892418162491392","何","590","","","","","","","","","","","","","","","","","","","","","","","","","","","","","","","","","","","","","","","","","",""
"540","<p style=""color:white; font-size: 35px;"">不孝</p>","e","categorize-html","119","266427","0.0-6.0-1.0-8.0-1.5","4","4","4","4","4","4","4","4","4","4","5","5","5","5","5","5","5","5","4","5","1","1","2","1","2","2","1","1","1","0","0","1","1","0","0","0","1","0","1","1","0","1","0","1","5","1","1","3","2","5","2","2","1","5","1","598892418162491392","何","590","","","","","","","","","","","","","","","","","","","true","14","4","moral","540","negative","不孝","","","","","","","","","","","","","","","","",""
"null","","null","html-keyboard-response","120","266679","0.0-6.0-1.0-8.0-0.6","4","4","4","4","4","4","4","4","4","4","5","5","5","5","5","5","5","5","4","5","1","1","2","1","2","2","1","1","1","0","0","1","1","0","0","0","1","0","1","1","0","1","0","1","5","1","1","3","2","5","2","2","1","5","1","598892418162491392","何","590","","","","","","","","","","","","","","","","","","","","","","","","","","","","","","","","","","","","","","","","","",""
"492","<p style=""color:rgb(150, 250, 100); font-size: 35px;"">他</p>","e","categorize-html","121","267172","0.0-6.0-1.0-8.0-1.6","4","4","4","4","4","4","4","4","4","4","5","5","5","5","5","5","5","5","4","5","1","1","2","1","2","2","1","1","1","0","0","1","1","0","0","0","1","0","1","1","0","1","0","1","5","1","1","3","2","5","2","2","1","5","1","598892418162491392","何","590","","","","","","","","","","","","","","","","","","","true","14","4","moral","492","other","他","","","","","","","","","","","","","","","","",""
"null","","null","html-keyboard-response","122","267424","0.0-6.0-1.0-8.0-0.7","4","4","4","4","4","4","4","4","4","4","5","5","5","5","5","5","5","5","4","5","1","1","2","1","2","2","1","1","1","0","0","1","1","0","0","0","1","0","1","1","0","1","0","1","5","1","1","3","2","5","2","2","1","5","1","598892418162491392","何","590","","","","","","","","","","","","","","","","","","","","","","","","","","","","","","","","","","","","","","","","","",""
"579","<p style=""color:white; font-size: 35px;"">善良</p>","i","categorize-html","123","268004","0.0-6.0-1.0-8.0-1.7","4","4","4","4","4","4","4","4","4","4","5","5","5","5","5","5","5","5","4","5","1","1","2","1","2","2","1","1","1","0","0","1","1","0","0","0","1","0","1","1","0","1","0","1","5","1","1","3","2","5","2","2","1","5","1","598892418162491392","何","590","","","","","","","","","","","","","","","","","","","true","14","4","moral","579","positive","善良","","","","","","","","","","","","","","","","",""
"null","","null","html-keyboard-response","124","268254","0.0-6.0-1.0-8.0-0.8","4","4","4","4","4","4","4","4","4","4","5","5","5","5","5","5","5","5","4","5","1","1","2","1","2","2","1","1","1","0","0","1","1","0","0","0","1","0","1","1","0","1","0","1","5","1","1","3","2","5","2","2","1","5","1","598892418162491392","何","590","","","","","","","","","","","","","","","","","","","","","","","","","","","","","","","","","","","","","","","","","",""
"709","<p style=""color:rgb(150, 250, 100); font-size: 35px;"">他人</p>","e","categorize-html","125","268963","0.0-6.0-1.0-8.0-1.8","4","4","4","4","4","4","4","4","4","4","5","5","5","5","5","5","5","5","4","5","1","1","2","1","2","2","1","1","1","0","0","1","1","0","0","0","1","0","1","1","0","1","0","1","5","1","1","3","2","5","2","2","1","5","1","598892418162491392","何","590","","","","","","","","","","","","","","","","","","","true","14","4","moral","709","other","他人","","","","","","","","","","","","","","","","",""
"null","","null","html-keyboard-response","126","269215","0.0-6.0-1.0-8.0-0.9","4","4","4","4","4","4","4","4","4","4","5","5","5","5","5","5","5","5","4","5","1","1","2","1","2","2","1","1","1","0","0","1","1","0","0","0","1","0","1","1","0","1","0","1","5","1","1","3","2","5","2","2","1","5","1","598892418162491392","何","590","","","","","","","","","","","","","","","","","","","","","","","","","","","","","","","","","","","","","","","","","",""
"588","<p style=""color:white; font-size: 35px;"">善良</p>","i","categorize-html","127","269803","0.0-6.0-1.0-8.0-1.9","4","4","4","4","4","4","4","4","4","4","5","5","5","5","5","5","5","5","4","5","1","1","2","1","2","2","1","1","1","0","0","1","1","0","0","0","1","0","1","1","0","1","0","1","5","1","1","3","2","5","2","2","1","5","1","598892418162491392","何","590","","","","","","","","","","","","","","","","","","","true","14","4","moral","588","positive","善良","","","","","","","","","","","","","","","","",""
"null","","null","html-keyboard-response","128","270055","0.0-6.0-1.0-8.0-0.10","4","4","4","4","4","4","4","4","4","4","5","5","5","5","5","5","5","5","4","5","1","1","2","1","2","2","1","1","1","0","0","1","1","0","0","0","1","0","1","1","0","1","0","1","5","1","1","3","2","5","2","2","1","5","1","598892418162491392","何","590","","","","","","","","","","","","","","","","","","","","","","","","","","","","","","","","","","","","","","","","","",""
"564","<p style=""color:rgb(150, 250, 100); font-size: 35px;"">自己的</p>","i","categorize-html","129","270619","0.0-6.0-1.0-8.0-1.10","4","4","4","4","4","4","4","4","4","4","5","5","5","5","5","5","5","5","4","5","1","1","2","1","2","2","1","1","1","0","0","1","1","0","0","0","1","0","1","1","0","1","0","1","5","1","1","3","2","5","2","2","1","5","1","598892418162491392","何","590","","","","","","","","","","","","","","","","","","","true","14","4","moral","564","self","自己的","","","","","","","","","","","","","","","","",""
"null","","null","html-keyboard-response","130","270871","0.0-6.0-1.0-8.0-0.11","4","4","4","4","4","4","4","4","4","4","5","5","5","5","5","5","5","5","4","5","1","1","2","1","2","2","1","1","1","0","0","1","1","0","0","0","1","0","1","1","0","1","0","1","5","1","1","3","2","5","2","2","1","5","1","598892418162491392","何","590","","","","","","","","","","","","","","","","","","","","","","","","","","","","","","","","","","","","","","","","","",""
"812","<p style=""color:white; font-size: 35px;"">小人</p>","e","categorize-html","131","271684","0.0-6.0-1.0-8.0-1.11","4","4","4","4","4","4","4","4","4","4","5","5","5","5","5","5","5","5","4","5","1","1","2","1","2","2","1","1","1","0","0","1","1","0","0","0","1","0","1","1","0","1","0","1","5","1","1","3","2","5","2","2","1","5","1","598892418162491392","何","590","","","","","","","","","","","","","","","","","","","true","14","4","moral","812","negative","小人","","","","","","","","","","","","","","","","",""
"null","","null","html-keyboard-response","132","271936","0.0-6.0-1.0-8.0-0.12","4","4","4","4","4","4","4","4","4","4","5","5","5","5","5","5","5","5","4","5","1","1","2","1","2","2","1","1","1","0","0","1","1","0","0","0","1","0","1","1","0","1","0","1","5","1","1","3","2","5","2","2","1","5","1","598892418162491392","何","590","","","","","","","","","","","","","","","","","","","","","","","","","","","","","","","","","","","","","","","","","",""
"483","<p style=""color:rgb(150, 250, 100); font-size: 35px;"">他</p>","e","categorize-html","133","272421","0.0-6.0-1.0-8.0-1.12","4","4","4","4","4","4","4","4","4","4","5","5","5","5","5","5","5","5","4","5","1","1","2","1","2","2","1","1","1","0","0","1","1","0","0","0","1","0","1","1","0","1","0","1","5","1","1","3","2","5","2","2","1","5","1","598892418162491392","何","590","","","","","","","","","","","","","","","","","","","true","14","4","moral","483","other","他","","","","","","","","","","","","","","","","",""
"null","","null","html-keyboard-response","134","272672","0.0-6.0-1.0-8.0-0.13","4","4","4","4","4","4","4","4","4","4","5","5","5","5","5","5","5","5","4","5","1","1","2","1","2","2","1","1","1","0","0","1","1","0","0","0","1","0","1","1","0","1","0","1","5","1","1","3","2","5","2","2","1","5","1","598892418162491392","何","590","","","","","","","","","","","","","","","","","","","","","","","","","","","","","","","","","","","","","","","","","",""
"508","<p style=""color:white; font-size: 35px;"">不仁</p>","e","categorize-html","135","273180","0.0-6.0-1.0-8.0-1.13","4","4","4","4","4","4","4","4","4","4","5","5","5","5","5","5","5","5","4","5","1","1","2","1","2","2","1","1","1","0","0","1","1","0","0","0","1","0","1","1","0","1","0","1","5","1","1","3","2","5","2","2","1","5","1","598892418162491392","何","590","","","","","","","","","","","","","","","","","","","true","14","4","moral","508","negative","不仁","","","","","","","","","","","","","","","","",""
"null","","null","html-keyboard-response","136","273431","0.0-6.0-1.0-8.0-0.14","4","4","4","4","4","4","4","4","4","4","5","5","5","5","5","5","5","5","4","5","1","1","2","1","2","2","1","1","1","0","0","1","1","0","0","0","1","0","1","1","0","1","0","1","5","1","1","3","2","5","2","2","1","5","1","598892418162491392","何","590","","","","","","","","","","","","","","","","","","","","","","","","","","","","","","","","","","","","","","","","","",""
"547","<p style=""color:rgb(150, 250, 100); font-size: 35px;"">本人</p>","i","categorize-html","137","273979","0.0-6.0-1.0-8.0-1.14","4","4","4","4","4","4","4","4","4","4","5","5","5","5","5","5","5","5","4","5","1","1","2","1","2","2","1","1","1","0","0","1","1","0","0","0","1","0","1","1","0","1","0","1","5","1","1","3","2","5","2","2","1","5","1","598892418162491392","何","590","","","","","","","","","","","","","","","","","","","true","14","4","moral","547","self","本人","","","","","","","","","","","","","","","","",""
"null","","null","html-keyboard-response","138","274230","0.0-6.0-1.0-8.0-0.15","4","4","4","4","4","4","4","4","4","4","5","5","5","5","5","5","5","5","4","5","1","1","2","1","2","2","1","1","1","0","0","1","1","0","0","0","1","0","1","1","0","1","0","1","5","1","1","3","2","5","2","2","1","5","1","598892418162491392","何","590","","","","","","","","","","","","","","","","","","","","","","","","","","","","","","","","","","","","","","","","","",""
"685","<p style=""color:white; font-size: 35px;"">廉正</p>","i","categorize-html","139","274915","0.0-6.0-1.0-8.0-1.15","4","4","4","4","4","4","4","4","4","4","5","5","5","5","5","5","5","5","4","5","1","1","2","1","2","2","1","1","1","0","0","1","1","0","0","0","1","0","1","1","0","1","0","1","5","1","1","3","2","5","2","2","1","5","1","598892418162491392","何","590","","","","","","","","","","","","","","","","","","","true","14","4","moral","685","positive","廉正","","","","","","","","","","","","","","","","",""
"null","","null","html-keyboard-response","140","275167","0.0-6.0-1.0-8.0-0.16","4","4","4","4","4","4","4","4","4","4","5","5","5","5","5","5","5","5","4","5","1","1","2","1","2","2","1","1","1","0","0","1","1","0","0","0","1","0","1","1","0","1","0","1","5","1","1","3","2","5","2","2","1","5","1","598892418162491392","何","590","","","","","","","","","","","","","","","","","","","","","","","","","","","","","","","","","","","","","","","","","",""
"557","<p style=""color:rgb(150, 250, 100); font-size: 35px;"">他的</p>","e","categorize-html","141","275726","0.0-6.0-1.0-8.0-1.16","4","4","4","4","4","4","4","4","4","4","5","5","5","5","5","5","5","5","4","5","1","1","2","1","2","2","1","1","1","0","0","1","1","0","0","0","1","0","1","1","0","1","0","1","5","1","1","3","2","5","2","2","1","5","1","598892418162491392","何","590","","","","","","","","","","","","","","","","","","","true","14","4","moral","557","other","他的","","","","","","","","","","","","","","","","",""
"null","","null","html-keyboard-response","142","275978","0.0-6.0-1.0-8.0-0.17","4","4","4","4","4","4","4","4","4","4","5","5","5","5","5","5","5","5","4","5","1","1","2","1","2","2","1","1","1","0","0","1","1","0","0","0","1","0","1","1","0","1","0","1","5","1","1","3","2","5","2","2","1","5","1","598892418162491392","何","590","","","","","","","","","","","","","","","","","","","","","","","","","","","","","","","","","","","","","","","","","",""
"499","<p style=""color:white; font-size: 35px;"">不仁</p>","e","categorize-html","143","276477","0.0-6.0-1.0-8.0-1.17","4","4","4","4","4","4","4","4","4","4","5","5","5","5","5","5","5","5","4","5","1","1","2","1","2","2","1","1","1","0","0","1","1","0","0","0","1","0","1","1","0","1","0","1","5","1","1","3","2","5","2","2","1","5","1","598892418162491392","何","590","","","","","","","","","","","","","","","","","","","true","14","4","moral","499","negative","不仁","","","","","","","","","","","","","","","","",""
"null","","null","html-keyboard-response","144","276729","0.0-6.0-1.0-8.0-0.18","4","4","4","4","4","4","4","4","4","4","5","5","5","5","5","5","5","5","4","5","1","1","2","1","2","2","1","1","1","0","0","1","1","0","0","0","1","0","1","1","0","1","0","1","5","1","1","3","2","5","2","2","1","5","1","598892418162491392","何","590","","","","","","","","","","","","","","","","","","","","","","","","","","","","","","","","","","","","","","","","","",""
"634","<p style=""color:rgb(150, 250, 100); font-size: 35px;"">本人的</p>","i","categorize-html","145","277364","0.0-6.0-1.0-8.0-1.18","4","4","4","4","4","4","4","4","4","4","5","5","5","5","5","5","5","5","4","5","1","1","2","1","2","2","1","1","1","0","0","1","1","0","0","0","1","0","1","1","0","1","0","1","5","1","1","3","2","5","2","2","1","5","1","598892418162491392","何","590","","","","","","","","","","","","","","","","","","","true","14","4","moral","634","self","本人的","","","","","","","","","","","","","","","","",""
"null","","null","html-keyboard-response","146","277615","0.0-6.0-1.0-8.0-0.19","4","4","4","4","4","4","4","4","4","4","5","5","5","5","5","5","5","5","4","5","1","1","2","1","2","2","1","1","1","0","0","1","1","0","0","0","1","0","1","1","0","1","0","1","5","1","1","3","2","5","2","2","1","5","1","598892418162491392","何","590","","","","","","","","","","","","","","","","","","","","","","","","","","","","","","","","","","","","","","","","","",""
"611","<p style=""color:white; font-size: 35px;"">君子</p>","i","categorize-html","147","278227","0.0-6.0-1.0-8.0-1.19","4","4","4","4","4","4","4","4","4","4","5","5","5","5","5","5","5","5","4","5","1","1","2","1","2","2","1","1","1","0","0","1","1","0","0","0","1","0","1","1","0","1","0","1","5","1","1","3","2","5","2","2","1","5","1","598892418162491392","何","590","","","","","","","","","","","","","","","","","","","true","14","4","moral","611","positive","君子","","","","","","","","","","","","","","","","",""
"null","","null","html-keyboard-response","148","278478","0.0-6.0-1.0-8.0-0.20","4","4","4","4","4","4","4","4","4","4","5","5","5","5","5","5","5","5","4","5","1","1","2","1","2","2","1","1","1","0","0","1","1","0","0","0","1","0","1","1","0","1","0","1","5","1","1","3","2","5","2","2","1","5","1","598892418162491392","何","590","","","","","","","","","","","","","","","","","","","","","","","","","","","","","","","","","","","","","","","","","",""
"669","<p style=""color:rgb(150, 250, 100); font-size: 35px;"">别人</p>","e","categorize-html","149","279148","0.0-6.0-1.0-8.0-1.20","4","4","4","4","4","4","4","4","4","4","5","5","5","5","5","5","5","5","4","5","1","1","2","1","2","2","1","1","1","0","0","1","1","0","0","0","1","0","1","1","0","1","0","1","5","1","1","3","2","5","2","2","1","5","1","598892418162491392","何","590","","","","","","","","","","","","","","","","","","","true","14","4","moral","669","other","别人","","","","","","","","","","","","","","","","",""
"null","","null","html-keyboard-response","150","279399","0.0-6.0-1.0-8.0-0.21","4","4","4","4","4","4","4","4","4","4","5","5","5","5","5","5","5","5","4","5","1","1","2","1","2","2","1","1","1","0","0","1","1","0","0","0","1","0","1","1","0","1","0","1","5","1","1","3","2","5","2","2","1","5","1","598892418162491392","何","590","","","","","","","","","","","","","","","","","","","","","","","","","","","","","","","","","","","","","","","","","",""
"588","<p style=""color:white; font-size: 35px;"">黑心</p>","e","categorize-html","151","279988","0.0-6.0-1.0-8.0-1.21","4","4","4","4","4","4","4","4","4","4","5","5","5","5","5","5","5","5","4","5","1","1","2","1","2","2","1","1","1","0","0","1","1","0","0","0","1","0","1","1","0","1","0","1","5","1","1","3","2","5","2","2","1","5","1","598892418162491392","何","590","","","","","","","","","","","","","","","","","","","true","14","4","moral","588","negative","黑心","","","","","","","","","","","","","","","","",""
"null","","null","html-keyboard-response","152","280239","0.0-6.0-1.0-8.0-0.22","4","4","4","4","4","4","4","4","4","4","5","5","5","5","5","5","5","5","4","5","1","1","2","1","2","2","1","1","1","0","0","1","1","0","0","0","1","0","1","1","0","1","0","1","5","1","1","3","2","5","2","2","1","5","1","598892418162491392","何","590","","","","","","","","","","","","","","","","","","","","","","","","","","","","","","","","","","","","","","","","","",""
"756","<p style=""color:rgb(150, 250, 100); font-size: 35px;"">我的</p>","i","categorize-html","153","280995","0.0-6.0-1.0-8.0-1.22","4","4","4","4","4","4","4","4","4","4","5","5","5","5","5","5","5","5","4","5","1","1","2","1","2","2","1","1","1","0","0","1","1","0","0","0","1","0","1","1","0","1","0","1","5","1","1","3","2","5","2","2","1","5","1","598892418162491392","何","590","","","","","","","","","","","","","","","","","","","true","14","4","moral","756","self","我的","","","","","","","","","","","","","","","","",""
"null","","null","html-keyboard-response","154","281247","0.0-6.0-1.0-8.0-0.23","4","4","4","4","4","4","4","4","4","4","5","5","5","5","5","5","5","5","4","5","1","1","2","1","2","2","1","1","1","0","0","1","1","0","0","0","1","0","1","1","0","1","0","1","5","1","1","3","2","5","2","2","1","5","1","598892418162491392","何","590","","","","","","","","","","","","","","","","","","","","","","","","","","","","","","","","","","","","","","","","","",""
"588","<p style=""color:white; font-size: 35px;"">诚信</p>","i","categorize-html","155","281837","0.0-6.0-1.0-8.0-1.23","4","4","4","4","4","4","4","4","4","4","5","5","5","5","5","5","5","5","4","5","1","1","2","1","2","2","1","1","1","0","0","1","1","0","0","0","1","0","1","1","0","1","0","1","5","1","1","3","2","5","2","2","1","5","1","598892418162491392","何","590","","","","","","","","","","","","","","","","","","","true","14","4","moral","588","positive","诚信","","","","","","","","","","","","","","","","",""
"null","","null","html-keyboard-response","156","282088","0.0-6.0-1.0-8.0-0.24","4","4","4","4","4","4","4","4","4","4","5","5","5","5","5","5","5","5","4","5","1","1","2","1","2","2","1","1","1","0","0","1","1","0","0","0","1","0","1","1","0","1","0","1","5","1","1","3","2","5","2","2","1","5","1","598892418162491392","何","590","","","","","","","","","","","","","","","","","","","","","","","","","","","","","","","","","","","","","","","","","",""
"682","<p style=""color:rgb(150, 250, 100); font-size: 35px;"">他人</p>","i","categorize-html","157","283299","0.0-6.0-1.0-8.0-1.24","4","4","4","4","4","4","4","4","4","4","5","5","5","5","5","5","5","5","4","5","1","1","2","1","2","2","1","1","1","0","0","1","1","0","0","0","1","0","1","1","0","1","0","1","5","1","1","3","2","5","2","2","1","5","1","598892418162491392","何","590","","","","","","","","","","","","","","","","","","","false","14","4","moral","1179.8478260869565","other","他人","","","","","","","","","","","","","","","","",""
"null","","null","html-keyboard-response","158","283552","0.0-6.0-1.0-8.0-0.25","4","4","4","4","4","4","4","4","4","4","5","5","5","5","5","5","5","5","4","5","1","1","2","1","2","2","1","1","1","0","0","1","1","0","0","0","1","0","1","1","0","1","0","1","5","1","1","3","2","5","2","2","1","5","1","598892418162491392","何","590","","","","","","","","","","","","","","","","","","","","","","","","","","","","","","","","","","","","","","","","","",""
"573","<p style=""color:white; font-size: 35px;"">正直</p>","i","categorize-html","159","284126","0.0-6.0-1.0-8.0-1.25","4","4","4","4","4","4","4","4","4","4","5","5","5","5","5","5","5","5","4","5","1","1","2","1","2","2","1","1","1","0","0","1","1","0","0","0","1","0","1","1","0","1","0","1","5","1","1","3","2","5","2","2","1","5","1","598892418162491392","何","590","","","","","","","","","","","","","","","","","","","true","14","4","moral","573","positive","正直","","","","","","","","","","","","","","","","",""
"null","","null","html-keyboard-response","160","284377","0.0-6.0-1.0-8.0-0.26","4","4","4","4","4","4","4","4","4","4","5","5","5","5","5","5","5","5","4","5","1","1","2","1","2","2","1","1","1","0","0","1","1","0","0","0","1","0","1","1","0","1","0","1","5","1","1","3","2","5","2","2","1","5","1","598892418162491392","何","590","","","","","","","","","","","","","","","","","","","","","","","","","","","","","","","","","","","","","","","","","",""
"578","<p style=""color:rgb(150, 250, 100); font-size: 35px;"">本人</p>","i","categorize-html","161","284957","0.0-6.0-1.0-8.0-1.26","4","4","4","4","4","4","4","4","4","4","5","5","5","5","5","5","5","5","4","5","1","1","2","1","2","2","1","1","1","0","0","1","1","0","0","0","1","0","1","1","0","1","0","1","5","1","1","3","2","5","2","2","1","5","1","598892418162491392","何","590","","","","","","","","","","","","","","","","","","","true","14","4","moral","578","self","本人","","","","","","","","","","","","","","","","",""
"null","","null","html-keyboard-response","162","285208","0.0-6.0-1.0-8.0-0.27","4","4","4","4","4","4","4","4","4","4","5","5","5","5","5","5","5","5","4","5","1","1","2","1","2","2","1","1","1","0","0","1","1","0","0","0","1","0","1","1","0","1","0","1","5","1","1","3","2","5","2","2","1","5","1","598892418162491392","何","590","","","","","","","","","","","","","","","","","","","","","","","","","","","","","","","","","","","","","","","","","",""
"595","<p style=""color:white; font-size: 35px;"">卑鄙</p>","e","categorize-html","163","285804","0.0-6.0-1.0-8.0-1.27","4","4","4","4","4","4","4","4","4","4","5","5","5","5","5","5","5","5","4","5","1","1","2","1","2","2","1","1","1","0","0","1","1","0","0","0","1","0","1","1","0","1","0","1","5","1","1","3","2","5","2","2","1","5","1","598892418162491392","何","590","","","","","","","","","","","","","","","","","","","true","14","4","moral","595","negative","卑鄙","","","","","","","","","","","","","","","","",""
"null","","null","html-keyboard-response","164","286056","0.0-6.0-1.0-8.0-0.28","4","4","4","4","4","4","4","4","4","4","5","5","5","5","5","5","5","5","4","5","1","1","2","1","2","2","1","1","1","0","0","1","1","0","0","0","1","0","1","1","0","1","0","1","5","1","1","3","2","5","2","2","1","5","1","598892418162491392","何","590","","","","","","","","","","","","","","","","","","","","","","","","","","","","","","","","","","","","","","","","","",""
"477","<p style=""color:rgb(150, 250, 100); font-size: 35px;"">别人的</p>","e","categorize-html","165","286534","0.0-6.0-1.0-8.0-1.28","4","4","4","4","4","4","4","4","4","4","5","5","5","5","5","5","5","5","4","5","1","1","2","1","2","2","1","1","1","0","0","1","1","0","0","0","1","0","1","1","0","1","0","1","5","1","1","3","2","5","2","2","1","5","1","598892418162491392","何","590","","","","","","","","","","","","","","","","","","","true","14","4","moral","477","other","别人的","","","","","","","","","","","","","","","","",""
"null","","null","html-keyboard-response","166","286785","0.0-6.0-1.0-8.0-0.29","4","4","4","4","4","4","4","4","4","4","5","5","5","5","5","5","5","5","4","5","1","1","2","1","2","2","1","1","1","0","0","1","1","0","0","0","1","0","1","1","0","1","0","1","5","1","1","3","2","5","2","2","1","5","1","598892418162491392","何","590","","","","","","","","","","","","","","","","","","","","","","","","","","","","","","","","","","","","","","","","","",""
"689","<p style=""color:white; font-size: 35px;"">廉正</p>","i","categorize-html","167","287475","0.0-6.0-1.0-8.0-1.29","4","4","4","4","4","4","4","4","4","4","5","5","5","5","5","5","5","5","4","5","1","1","2","1","2","2","1","1","1","0","0","1","1","0","0","0","1","0","1","1","0","1","0","1","5","1","1","3","2","5","2","2","1","5","1","598892418162491392","何","590","","","","","","","","","","","","","","","","","","","true","14","4","moral","689","positive","廉正","","","","","","","","","","","","","","","","",""
"null","","null","html-keyboard-response","168","287726","0.0-6.0-1.0-8.0-0.30","4","4","4","4","4","4","4","4","4","4","5","5","5","5","5","5","5","5","4","5","1","1","2","1","2","2","1","1","1","0","0","1","1","0","0","0","1","0","1","1","0","1","0","1","5","1","1","3","2","5","2","2","1","5","1","598892418162491392","何","590","","","","","","","","","","","","","","","","","","","","","","","","","","","","","","","","","","","","","","","","","",""
"533","<p style=""color:rgb(150, 250, 100); font-size: 35px;"">自己</p>","i","categorize-html","169","288260","0.0-6.0-1.0-8.0-1.30","4","4","4","4","4","4","4","4","4","4","5","5","5","5","5","5","5","5","4","5","1","1","2","1","2","2","1","1","1","0","0","1","1","0","0","0","1","0","1","1","0","1","0","1","5","1","1","3","2","5","2","2","1","5","1","598892418162491392","何","590","","","","","","","","","","","","","","","","","","","true","14","4","moral","533","self","自己","","","","","","","","","","","","","","","","",""
"null","","null","html-keyboard-response","170","288511","0.0-6.0-1.0-8.0-0.31","4","4","4","4","4","4","4","4","4","4","5","5","5","5","5","5","5","5","4","5","1","1","2","1","2","2","1","1","1","0","0","1","1","0","0","0","1","0","1","1","0","1","0","1","5","1","1","3","2","5","2","2","1","5","1","598892418162491392","何","590","","","","","","","","","","","","","","","","","","","","","","","","","","","","","","","","","","","","","","","","","",""
"579","<p style=""color:white; font-size: 35px;"">黑心</p>","e","categorize-html","171","289092","0.0-6.0-1.0-8.0-1.31","4","4","4","4","4","4","4","4","4","4","5","5","5","5","5","5","5","5","4","5","1","1","2","1","2","2","1","1","1","0","0","1","1","0","0","0","1","0","1","1","0","1","0","1","5","1","1","3","2","5","2","2","1","5","1","598892418162491392","何","590","","","","","","","","","","","","","","","","","","","true","14","4","moral","579","negative","黑心","","","","","","","","","","","","","","","","",""
"null","","null","html-keyboard-response","172","289344","0.0-6.0-1.0-8.0-0.32","4","4","4","4","4","4","4","4","4","4","5","5","5","5","5","5","5","5","4","5","1","1","2","1","2","2","1","1","1","0","0","1","1","0","0","0","1","0","1","1","0","1","0","1","5","1","1","3","2","5","2","2","1","5","1","598892418162491392","何","590","","","","","","","","","","","","","","","","","","","","","","","","","","","","","","","","","","","","","","","","","",""
"740","<p style=""color:rgb(150, 250, 100); font-size: 35px;"">本人的</p>","i","categorize-html","173","290087","0.0-6.0-1.0-8.0-1.32","4","4","4","4","4","4","4","4","4","4","5","5","5","5","5","5","5","5","4","5","1","1","2","1","2","2","1","1","1","0","0","1","1","0","0","0","1","0","1","1","0","1","0","1","5","1","1","3","2","5","2","2","1","5","1","598892418162491392","何","590","","","","","","","","","","","","","","","","","","","true","14","4","moral","740","self","本人的","","","","","","","","","","","","","","","","",""
"null","","null","html-keyboard-response","174","290337","0.0-6.0-1.0-8.0-0.33","4","4","4","4","4","4","4","4","4","4","5","5","5","5","5","5","5","5","4","5","1","1","2","1","2","2","1","1","1","0","0","1","1","0","0","0","1","0","1","1","0","1","0","1","5","1","1","3","2","5","2","2","1","5","1","598892418162491392","何","590","","","","","","","","","","","","","","","","","","","","","","","","","","","","","","","","","","","","","","","","","",""
"700","<p style=""color:white; font-size: 35px;"">小人</p>","e","categorize-html","175","291038","0.0-6.0-1.0-8.0-1.33","4","4","4","4","4","4","4","4","4","4","5","5","5","5","5","5","5","5","4","5","1","1","2","1","2","2","1","1","1","0","0","1","1","0","0","0","1","0","1","1","0","1","0","1","5","1","1","3","2","5","2","2","1","5","1","598892418162491392","何","590","","","","","","","","","","","","","","","","","","","true","14","4","moral","700","negative","小人","","","","","","","","","","","","","","","","",""
"null","","null","html-keyboard-response","176","291289","0.0-6.0-1.0-8.0-0.34","4","4","4","4","4","4","4","4","4","4","5","5","5","5","5","5","5","5","4","5","1","1","2","1","2","2","1","1","1","0","0","1","1","0","0","0","1","0","1","1","0","1","0","1","5","1","1","3","2","5","2","2","1","5","1","598892418162491392","何","590","","","","","","","","","","","","","","","","","","","","","","","","","","","","","","","","","","","","","","","","","",""
"610","<p style=""color:rgb(150, 250, 100); font-size: 35px;"">别人</p>","e","categorize-html","177","291900","0.0-6.0-1.0-8.0-1.34","4","4","4","4","4","4","4","4","4","4","5","5","5","5","5","5","5","5","4","5","1","1","2","1","2","2","1","1","1","0","0","1","1","0","0","0","1","0","1","1","0","1","0","1","5","1","1","3","2","5","2","2","1","5","1","598892418162491392","何","590","","","","","","","","","","","","","","","","","","","true","14","4","moral","610","other","别人","","","","","","","","","","","","","","","","",""
"null","","null","html-keyboard-response","178","292151","0.0-6.0-1.0-8.0-0.35","4","4","4","4","4","4","4","4","4","4","5","5","5","5","5","5","5","5","4","5","1","1","2","1","2","2","1","1","1","0","0","1","1","0","0","0","1","0","1","1","0","1","0","1","5","1","1","3","2","5","2","2","1","5","1","598892418162491392","何","590","","","","","","","","","","","","","","","","","","","","","","","","","","","","","","","","","","","","","","","","","",""
"564","<p style=""color:white; font-size: 35px;"">诚信</p>","i","categorize-html","179","292717","0.0-6.0-1.0-8.0-1.35","4","4","4","4","4","4","4","4","4","4","5","5","5","5","5","5","5","5","4","5","1","1","2","1","2","2","1","1","1","0","0","1","1","0","0","0","1","0","1","1","0","1","0","1","5","1","1","3","2","5","2","2","1","5","1","598892418162491392","何","590","","","","","","","","","","","","","","","","","","","true","14","4","moral","564","positive","诚信","","","","","","","","","","","","","","","","",""
"null","","null","html-keyboard-response","180","292968","0.0-6.0-1.0-8.0-0.36","4","4","4","4","4","4","4","4","4","4","5","5","5","5","5","5","5","5","4","5","1","1","2","1","2","2","1","1","1","0","0","1","1","0","0","0","1","0","1","1","0","1","0","1","5","1","1","3","2","5","2","2","1","5","1","598892418162491392","何","590","","","","","","","","","","","","","","","","","","","","","","","","","","","","","","","","","","","","","","","","","",""
"547","<p style=""color:rgb(150, 250, 100); font-size: 35px;"">我的</p>","i","categorize-html","181","293516","0.0-6.0-1.0-8.0-1.36","4","4","4","4","4","4","4","4","4","4","5","5","5","5","5","5","5","5","4","5","1","1","2","1","2","2","1","1","1","0","0","1","1","0","0","0","1","0","1","1","0","1","0","1","5","1","1","3","2","5","2","2","1","5","1","598892418162491392","何","590","","","","","","","","","","","","","","","","","","","true","14","4","moral","547","self","我的","","","","","","","","","","","","","","","","",""
"null","","null","html-keyboard-response","182","293768","0.0-6.0-1.0-8.0-0.37","4","4","4","4","4","4","4","4","4","4","5","5","5","5","5","5","5","5","4","5","1","1","2","1","2","2","1","1","1","0","0","1","1","0","0","0","1","0","1","1","0","1","0","1","5","1","1","3","2","5","2","2","1","5","1","598892418162491392","何","590","","","","","","","","","","","","","","","","","","","","","","","","","","","","","","","","","","","","","","","","","",""
"667","<p style=""color:white; font-size: 35px;"">缺德</p>","e","categorize-html","183","294436","0.0-6.0-1.0-8.0-1.37","4","4","4","4","4","4","4","4","4","4","5","5","5","5","5","5","5","5","4","5","1","1","2","1","2","2","1","1","1","0","0","1","1","0","0","0","1","0","1","1","0","1","0","1","5","1","1","3","2","5","2","2","1","5","1","598892418162491392","何","590","","","","","","","","","","","","","","","","","","","true","14","4","moral","667","negative","缺德","","","","","","","","","","","","","","","","",""
"null","","null","html-keyboard-response","184","294687","0.0-6.0-1.0-8.0-0.38","4","4","4","4","4","4","4","4","4","4","5","5","5","5","5","5","5","5","4","5","1","1","2","1","2","2","1","1","1","0","0","1","1","0","0","0","1","0","1","1","0","1","0","1","5","1","1","3","2","5","2","2","1","5","1","598892418162491392","何","590","","","","","","","","","","","","","","","","","","","","","","","","","","","","","","","","","","","","","","","","","",""
"556","<p style=""color:rgb(150, 250, 100); font-size: 35px;"">他人的</p>","e","categorize-html","185","295244","0.0-6.0-1.0-8.0-1.38","4","4","4","4","4","4","4","4","4","4","5","5","5","5","5","5","5","5","4","5","1","1","2","1","2","2","1","1","1","0","0","1","1","0","0","0","1","0","1","1","0","1","0","1","5","1","1","3","2","5","2","2","1","5","1","598892418162491392","何","590","","","","","","","","","","","","","","","","","","","true","14","4","moral","556","other","他人的","","","","","","","","","","","","","","","","",""
"null","","null","html-keyboard-response","186","295495","0.0-6.0-1.0-8.0-0.39","4","4","4","4","4","4","4","4","4","4","5","5","5","5","5","5","5","5","4","5","1","1","2","1","2","2","1","1","1","0","0","1","1","0","0","0","1","0","1","1","0","1","0","1","5","1","1","3","2","5","2","2","1","5","1","598892418162491392","何","590","","","","","","","","","","","","","","","","","","","","","","","","","","","","","","","","","","","","","","","","","",""
"516","<p style=""color:white; font-size: 35px;"">正直</p>","i","categorize-html","187","296012","0.0-6.0-1.0-8.0-1.39","4","4","4","4","4","4","4","4","4","4","5","5","5","5","5","5","5","5","4","5","1","1","2","1","2","2","1","1","1","0","0","1","1","0","0","0","1","0","1","1","0","1","0","1","5","1","1","3","2","5","2","2","1","5","1","598892418162491392","何","590","","","","","","","","","","","","","","","","","","","true","14","4","moral","516","positive","正直","","","","","","","","","","","","","","","","",""
"null","","null","html-keyboard-response","188","296263","0.0-6.0-1.0-8.0-0.40","4","4","4","4","4","4","4","4","4","4","5","5","5","5","5","5","5","5","4","5","1","1","2","1","2","2","1","1","1","0","0","1","1","0","0","0","1","0","1","1","0","1","0","1","5","1","1","3","2","5","2","2","1","5","1","598892418162491392","何","590","","","","","","","","","","","","","","","","","","","","","","","","","","","","","","","","","","","","","","","","","",""
"556","<p style=""color:rgb(150, 250, 100); font-size: 35px;"">他的</p>","e","categorize-html","189","296820","0.0-6.0-1.0-8.0-1.40","4","4","4","4","4","4","4","4","4","4","5","5","5","5","5","5","5","5","4","5","1","1","2","1","2","2","1","1","1","0","0","1","1","0","0","0","1","0","1","1","0","1","0","1","5","1","1","3","2","5","2","2","1","5","1","598892418162491392","何","590","","","","","","","","","","","","","","","","","","","true","14","4","moral","556","other","他的","","","","","","","","","","","","","","","","",""
"null","","null","html-keyboard-response","190","297072","0.0-6.0-1.0-8.0-0.41","4","4","4","4","4","4","4","4","4","4","5","5","5","5","5","5","5","5","4","5","1","1","2","1","2","2","1","1","1","0","0","1","1","0","0","0","1","0","1","1","0","1","0","1","5","1","1","3","2","5","2","2","1","5","1","598892418162491392","何","590","","","","","","","","","","","","","","","","","","","","","","","","","","","","","","","","","","","","","","","","","",""
"507","<p style=""color:white; font-size: 35px;"">君子</p>","i","categorize-html","191","297579","0.0-6.0-1.0-8.0-1.41","4","4","4","4","4","4","4","4","4","4","5","5","5","5","5","5","5","5","4","5","1","1","2","1","2","2","1","1","1","0","0","1","1","0","0","0","1","0","1","1","0","1","0","1","5","1","1","3","2","5","2","2","1","5","1","598892418162491392","何","590","","","","","","","","","","","","","","","","","","","true","14","4","moral","507","positive","君子","","","","","","","","","","","","","","","","",""
"null","","null","html-keyboard-response","192","297831","0.0-6.0-1.0-8.0-0.42","4","4","4","4","4","4","4","4","4","4","5","5","5","5","5","5","5","5","4","5","1","1","2","1","2","2","1","1","1","0","0","1","1","0","0","0","1","0","1","1","0","1","0","1","5","1","1","3","2","5","2","2","1","5","1","598892418162491392","何","590","","","","","","","","","","","","","","","","","","","","","","","","","","","","","","","","","","","","","","","","","",""
