"rt","stimulus","response","trial_type","trial_index","time_elapsed","internal_node_id","ses_1","ses_2","ses_3","ses_4","ses_5","ses_6","ses_7","ses_8","ses_9","ses_10","coreself_1","coreself_2","coreself_3","coreself_4","coreself_5","coreself_6","coreself_7","coreself_8","coreself_9","coreself_10","SGPS_1","SGPS_2","SGPS_3","SGPS_4","SGPS_5","SGPS_6","SGPS_7","SGPS_8","SGPS_9","NPI1","NPI2","NPI3","NPI4","NPI5","NPI6","NPI7","NPI8","NPI9","NPI10","NPI11","NPI12","NPI13","NPI14","NPI15","hsns_1","hsns_2","hsns_3","hsns_4","hsns_5","trap1","hsns_6","hsns_7","hsns_8","hsns_9","hsns_10","subj_idx","friend_name","ParticipantID","value","success","user_agent","responses","item_order","radio_event_ids","radio_event_times","key_event_times","mouse_event_times","straightlining","zigzagging","honeypot","timeout","failed_images","failed_audio","failed_video","version_attrib2","version_target2","correct","IAT","screen_id","task_id","RT","condition","word","varname","summary","version_attrib","version_target","time_stamp","view_history","response_type","key_press","avg_frame_time","center_x","center_y","correct_response","identity","Image","question_order","correct_answer","trap1_item"
"2306","
   <p><div style = ""color: white;font-size:25px;"">您好，欢迎参加本次实验。</div> </p>
   <p><div style = ""color: white;font-size:25px;"">为充分保障您的权利，请确保您已经知晓并同意《参与实验同意书》以及《数据公开知情同意书》。</div></p>
   <p><div style = ""color: white;font-size:25px;"">如果您未见过上述内容，请咨询实验员。</div></p>
   <p><div style = ""color: white;font-size:25px;"">如果您选择继续实验，则表示您已经清楚两份知情同意书的内容并同意。</div></p>
   <p><div style = ""color: pink;font-size:30px;"">请确保您记得day0的实验编号，您将在本次实验输入该编号，若您忘记，请咨询实验员后作答。</div></p>
   <p><div style = ""color: lightblue;font-size:25px;"">请您尽可能认真地作答，我们将依据您在各问卷和按键任务中的作答质量发放报酬。</div></p>
   <p> <div style = ""color: green;font-size:25px;""><按空格键至下页></div> </p>
   "," ","html-keyboard-response","0","2308","0.0-0.0","4","4","4","4","4","4","4","4","4","4","5","5","5","5","5","5","5","5","4","5","1","1","1","1","1","1","1","1","1","0","0","0","1","0","1","0","0","0","1","1","0","0","0","0","5","1","1","1","2","3","4","2","1","4","1","602312870918619136","张","630","","","","","","","","","","","","","","","","","","","","","","","","","","","","","","","","","","","","","","","","","",""
"","","","call-function","1","2308","0.0-1.0-0.0","4","4","4","4","4","4","4","4","4","4","5","5","5","5","5","5","5","5","4","5","1","1","1","1","1","1","1","1","1","0","0","0","1","0","1","0","0","0","1","1","0","0","0","0","5","1","1","1","2","3","4","2","1","4","1","602312870918619136","张","630","","","","","","","","","","","","","","","","","","","","","","","","","","","","","","","","","","","","","","","","","",""
"23440","","{""friend_name"":""张"",""ParticipantID"":""630""}","survey-html-form","2","25749","0.0-1.0-1.0","4","4","4","4","4","4","4","4","4","4","5","5","5","5","5","5","5","5","4","5","1","1","1","1","1","1","1","1","1","0","0","0","1","0","1","0","0","0","1","1","0","0","0","0","5","1","1","1","2","3","4","2","1","4","1","602312870918619136","张","630","","","","","","","","","","","","","","","","","","","","","","","","","","","","","","","","","","","","","","","","","",""
"","","","fullscreen","3","28297","0.0-2.0","4","4","4","4","4","4","4","4","4","4","5","5","5","5","5","5","5","5","4","5","1","1","1","1","1","1","1","1","1","0","0","0","1","0","1","0","0","0","1","1","0","0","0","0","5","1","1","1","2","3","4","2","1","4","1","602312870918619136","张","630","","true","{}","","","","","","","","","","","","","","","","","","","","","","","","","","","","","","","","","","","","","","",""
"15474.39999961853","","{""Q01"":""4"",""Q02"":""4"",""Q03"":""4"",""Q04"":""4"",""Q05"":""4"",""Q06"":""4"",""Q07"":""4"",""Q08"":""4"",""Q09"":""4"",""Q10"":""4""}","survey-template","4","43774","0.0-3.0","4","4","4","4","4","4","4","4","4","4","5","5","5","5","5","5","5","5","4","5","1","1","1","1","1","1","1","1","1","0","0","0","1","0","1","0","0","0","1","1","0","0","0","0","5","1","1","1","2","3","4","2","1","4","1","602312870918619136","张","630","","","","{""Q01"":""4"",""Q02"":""4"",""Q03"":""4"",""Q04"":""4"",""Q05"":""4"",""Q06"":""4"",""Q07"":""4"",""Q08"":""4"",""Q09"":""4"",""Q10"":""4""}","[0,1,2,3,4,5,6,7,8,9]","[""Q01"",""Q02"",""Q03"",""Q04"",""Q05"",""Q06"",""Q07"",""Q08"",""Q09"",""Q10""]","[2057.1000003814697,3137.8999996185303,4225.5,7178.699998855591,8179.10000038147,9249.39999961853,11313.29999923706,12337.79999923706,12913.79999923706,13513.10000038147]","[]","[2057.1000003814697,3137.8999996185303,4225.5,7178.699998855591,8179.10000038147,9249.39999961853,10618.19999885559,11313.29999923706,12337.79999923706,12913.79999923706,13194.89999961853,13513.10000038147,15473.5]","0.5","0.5555555555555556","0","","","","","","","","","","","","","","","","","","","","","","","","","","","","","",""
"16132.400001525879","","{""Q01"":""5"",""Q02"":""5"",""Q03"":""5"",""Q04"":""5"",""Q05"":""5"",""Q06"":""5"",""Q07"":""5"",""Q08"":""5"",""Q09"":""4"",""Q10"":""5""}","survey-template","5","59910","0.0-4.0","4","4","4","4","4","4","4","4","4","4","5","5","5","5","5","5","5","5","4","5","1","1","1","1","1","1","1","1","1","0","0","0","1","0","1","0","0","0","1","1","0","0","0","0","5","1","1","1","2","3","4","2","1","4","1","602312870918619136","张","630","","","","{""Q01"":""5"",""Q02"":""5"",""Q03"":""5"",""Q04"":""5"",""Q05"":""5"",""Q06"":""5"",""Q07"":""5"",""Q08"":""5"",""Q09"":""4"",""Q10"":""5""}","[0,1,2,3,4,5,6,7,8,9]","[""Q01"",""Q02"",""Q03"",""Q04"",""Q05"",""Q06"",""Q07"",""Q08"",""Q09"",""Q10""]","[1764.8000011444092,2707.300001144409,4924,5803.200000762939,6971.5,8331.20000076294,9275.5,9763.80000114441,11804,13091.5]","[]","[1764.8000011444092,2395.300001144409,2707.300001144409,3355.6000003814697,3636.300001144409,4924,5803.200000762939,6971.5,8331.20000076294,9275.5,9763.80000114441,11804,13091.5,16131.400001525879]","0.6","0.5555555555555556","0","","","","","","","","","","","","","","","","","","","","","","","","","","","","","",""
"","","","preload","6","60138","0.0-5.0","4","4","4","4","4","4","4","4","4","4","5","5","5","5","5","5","5","5","4","5","1","1","1","1","1","1","1","1","1","0","0","0","1","0","1","0","0","0","1","1","0","0","0","0","5","1","1","1","2","3","4","2","1","4","1","602312870918619136","张","630","","true","","","","","","","","","","","false","[]","[]","[]","","","","","","","","","","","","","","","","","","","","","","","","","",""
"47275","
    <h3>词语分类任务</h3>
    <p>在接下来的任务中，你需要对一系列词语进行分类。<p/>
    请先熟悉这些词语，这有利于你完成接下来的任务。</p>
    <table align=""center"" border=1 cellpadding=3 cellspacing=0>
    <tr> <th>类别</th> <th>词语</th> </tr>
    <tr> <td>&emsp;积极&emsp;</td> <td>&emsp;高尚、诚信、善良、君子、廉正、正直&emsp;</td> </tr>
    <tr> <td>&emsp;消极&emsp;</td> <td>&emsp;缺德、卑鄙、不孝、不仁、小人、黑心&emsp;</td> </tr>
    <tr> <td>&emsp;自我&emsp;</td> <td>&emsp;我、我的、自己、自己的、本人、本人的&emsp;</td> </tr>
    <tr> <td>&emsp;他人&emsp;</td> <td>&emsp;他、他的、别人、别人的、他人、他人的&emsp;</td> </tr>
    </table><br/>","0","html-button-response","7","107413","0.0-6.0-1.0-0.0","4","4","4","4","4","4","4","4","4","4","5","5","5","5","5","5","5","5","4","5","1","1","1","1","1","1","1","1","1","0","0","0","1","0","1","0","0","0","1","1","0","0","0","0","5","1","1","1","2","3","4","2","1","4","1","602312870918619136","张","630","","","","","","","","","","","","","","","","","1","1","","","","","","","","","","","","","","","","","","","","","","","",""
"24391","
    <div class=""tag-bottom""><p>
    —— 任务1：对“自我”词和“他人”词分类 ——<p/>
    不同词语会出现在屏幕中央，类别标签将始终显示在屏幕上方<p/>   
    <span style=""color:#FFD866""><b>请根据上方标签的提示，尽可能正确并且快速地做出按键反应</b></span><p/>
    当按键错误时屏幕中会出现<span style=""color:red""> X </span>，需要按另一个键纠正才能继续<br/><p/>
    请把双手食指分别放在键盘的“E”键和“I”键上<p/>
    按<空格键>开始
    </p></div>"," ","html-keyboard-response","8","131806","0.0-6.0-1.0-1.0","4","4","4","4","4","4","4","4","4","4","5","5","5","5","5","5","5","5","4","5","1","1","1","1","1","1","1","1","1","0","0","0","1","0","1","0","0","0","1","1","0","0","0","0","5","1","1","1","2","3","4","2","1","4","1","602312870918619136","张","630","","","","","","","","","","","","","","","","","","","","","","","","","","","","","","","","","","","","","","","","","",""
"null","","null","html-keyboard-response","9","132057","0.0-6.0-1.0-2.0-0.0","4","4","4","4","4","4","4","4","4","4","5","5","5","5","5","5","5","5","4","5","1","1","1","1","1","1","1","1","1","0","0","0","1","0","1","0","0","0","1","1","0","0","0","0","5","1","1","1","2","3","4","2","1","4","1","602312870918619136","张","630","","","","","","","","","","","","","","","","","","","","","","","","","","","","","","","","","","","","","","","","","",""
"570","<p style=""color:rgb(150, 250, 100); font-size: 35px;"">他的</p>","i","categorize-html","10","132629","0.0-6.0-1.0-2.0-1.0","4","4","4","4","4","4","4","4","4","4","5","5","5","5","5","5","5","5","4","5","1","1","1","1","1","1","1","1","1","0","0","0","1","0","1","0","0","0","1","1","0","0","0","0","5","1","1","1","2","3","4","2","1","4","1","602312870918619136","张","630","","","","","","","","","","","","","","","","","","","true","11","1","moral","570","other","他的","","","","","","","","","","","","","","","","",""
"null","","null","html-keyboard-response","11","132880","0.0-6.0-1.0-2.0-0.1","4","4","4","4","4","4","4","4","4","4","5","5","5","5","5","5","5","5","4","5","1","1","1","1","1","1","1","1","1","0","0","0","1","0","1","0","0","0","1","1","0","0","0","0","5","1","1","1","2","3","4","2","1","4","1","602312870918619136","张","630","","","","","","","","","","","","","","","","","","","","","","","","","","","","","","","","","","","","","","","","","",""
"508","<p style=""color:rgb(150, 250, 100); font-size: 35px;"">别人的</p>","i","categorize-html","12","133389","0.0-6.0-1.0-2.0-1.1","4","4","4","4","4","4","4","4","4","4","5","5","5","5","5","5","5","5","4","5","1","1","1","1","1","1","1","1","1","0","0","0","1","0","1","0","0","0","1","1","0","0","0","0","5","1","1","1","2","3","4","2","1","4","1","602312870918619136","张","630","","","","","","","","","","","","","","","","","","","true","11","1","moral","508","other","别人的","","","","","","","","","","","","","","","","",""
"null","","null","html-keyboard-response","13","133641","0.0-6.0-1.0-2.0-0.2","4","4","4","4","4","4","4","4","4","4","5","5","5","5","5","5","5","5","4","5","1","1","1","1","1","1","1","1","1","0","0","0","1","0","1","0","0","0","1","1","0","0","0","0","5","1","1","1","2","3","4","2","1","4","1","602312870918619136","张","630","","","","","","","","","","","","","","","","","","","","","","","","","","","","","","","","","","","","","","","","","",""
"388","<p style=""color:rgb(150, 250, 100); font-size: 35px;"">他人</p>","i","categorize-html","14","134029","0.0-6.0-1.0-2.0-1.2","4","4","4","4","4","4","4","4","4","4","5","5","5","5","5","5","5","5","4","5","1","1","1","1","1","1","1","1","1","0","0","0","1","0","1","0","0","0","1","1","0","0","0","0","5","1","1","1","2","3","4","2","1","4","1","602312870918619136","张","630","","","","","","","","","","","","","","","","","","","true","11","1","moral","388","other","他人","","","","","","","","","","","","","","","","",""
"null","","null","html-keyboard-response","15","134281","0.0-6.0-1.0-2.0-0.3","4","4","4","4","4","4","4","4","4","4","5","5","5","5","5","5","5","5","4","5","1","1","1","1","1","1","1","1","1","0","0","0","1","0","1","0","0","0","1","1","0","0","0","0","5","1","1","1","2","3","4","2","1","4","1","602312870918619136","张","630","","","","","","","","","","","","","","","","","","","","","","","","","","","","","","","","","","","","","","","","","",""
"524","<p style=""color:rgb(150, 250, 100); font-size: 35px;"">自己</p>","e","categorize-html","16","134805","0.0-6.0-1.0-2.0-1.3","4","4","4","4","4","4","4","4","4","4","5","5","5","5","5","5","5","5","4","5","1","1","1","1","1","1","1","1","1","0","0","0","1","0","1","0","0","0","1","1","0","0","0","0","5","1","1","1","2","3","4","2","1","4","1","602312870918619136","张","630","","","","","","","","","","","","","","","","","","","true","11","1","moral","524","self","自己","","","","","","","","","","","","","","","","",""
"null","","null","html-keyboard-response","17","135056","0.0-6.0-1.0-2.0-0.4","4","4","4","4","4","4","4","4","4","4","5","5","5","5","5","5","5","5","4","5","1","1","1","1","1","1","1","1","1","0","0","0","1","0","1","0","0","0","1","1","0","0","0","0","5","1","1","1","2","3","4","2","1","4","1","602312870918619136","张","630","","","","","","","","","","","","","","","","","","","","","","","","","","","","","","","","","","","","","","","","","",""
"396","<p style=""color:rgb(150, 250, 100); font-size: 35px;"">我</p>","e","categorize-html","18","135452","0.0-6.0-1.0-2.0-1.4","4","4","4","4","4","4","4","4","4","4","5","5","5","5","5","5","5","5","4","5","1","1","1","1","1","1","1","1","1","0","0","0","1","0","1","0","0","0","1","1","0","0","0","0","5","1","1","1","2","3","4","2","1","4","1","602312870918619136","张","630","","","","","","","","","","","","","","","","","","","true","11","1","moral","396","self","我","","","","","","","","","","","","","","","","",""
"null","","null","html-keyboard-response","19","135704","0.0-6.0-1.0-2.0-0.5","4","4","4","4","4","4","4","4","4","4","5","5","5","5","5","5","5","5","4","5","1","1","1","1","1","1","1","1","1","0","0","0","1","0","1","0","0","0","1","1","0","0","0","0","5","1","1","1","2","3","4","2","1","4","1","602312870918619136","张","630","","","","","","","","","","","","","","","","","","","","","","","","","","","","","","","","","","","","","","","","","",""
"494","<p style=""color:rgb(150, 250, 100); font-size: 35px;"">别人</p>","i","categorize-html","20","136199","0.0-6.0-1.0-2.0-1.5","4","4","4","4","4","4","4","4","4","4","5","5","5","5","5","5","5","5","4","5","1","1","1","1","1","1","1","1","1","0","0","0","1","0","1","0","0","0","1","1","0","0","0","0","5","1","1","1","2","3","4","2","1","4","1","602312870918619136","张","630","","","","","","","","","","","","","","","","","","","true","11","1","moral","494","other","别人","","","","","","","","","","","","","","","","",""
"null","","null","html-keyboard-response","21","136450","0.0-6.0-1.0-2.0-0.6","4","4","4","4","4","4","4","4","4","4","5","5","5","5","5","5","5","5","4","5","1","1","1","1","1","1","1","1","1","0","0","0","1","0","1","0","0","0","1","1","0","0","0","0","5","1","1","1","2","3","4","2","1","4","1","602312870918619136","张","630","","","","","","","","","","","","","","","","","","","","","","","","","","","","","","","","","","","","","","","","","",""
"498","<p style=""color:rgb(150, 250, 100); font-size: 35px;"">本人</p>","e","categorize-html","22","136948","0.0-6.0-1.0-2.0-1.6","4","4","4","4","4","4","4","4","4","4","5","5","5","5","5","5","5","5","4","5","1","1","1","1","1","1","1","1","1","0","0","0","1","0","1","0","0","0","1","1","0","0","0","0","5","1","1","1","2","3","4","2","1","4","1","602312870918619136","张","630","","","","","","","","","","","","","","","","","","","true","11","1","moral","498","self","本人","","","","","","","","","","","","","","","","",""
"null","","null","html-keyboard-response","23","137200","0.0-6.0-1.0-2.0-0.7","4","4","4","4","4","4","4","4","4","4","5","5","5","5","5","5","5","5","4","5","1","1","1","1","1","1","1","1","1","0","0","0","1","0","1","0","0","0","1","1","0","0","0","0","5","1","1","1","2","3","4","2","1","4","1","602312870918619136","张","630","","","","","","","","","","","","","","","","","","","","","","","","","","","","","","","","","","","","","","","","","",""
"429","<p style=""color:rgb(150, 250, 100); font-size: 35px;"">我的</p>","e","categorize-html","24","137629","0.0-6.0-1.0-2.0-1.7","4","4","4","4","4","4","4","4","4","4","5","5","5","5","5","5","5","5","4","5","1","1","1","1","1","1","1","1","1","0","0","0","1","0","1","0","0","0","1","1","0","0","0","0","5","1","1","1","2","3","4","2","1","4","1","602312870918619136","张","630","","","","","","","","","","","","","","","","","","","true","11","1","moral","429","self","我的","","","","","","","","","","","","","","","","",""
"null","","null","html-keyboard-response","25","137880","0.0-6.0-1.0-2.0-0.8","4","4","4","4","4","4","4","4","4","4","5","5","5","5","5","5","5","5","4","5","1","1","1","1","1","1","1","1","1","0","0","0","1","0","1","0","0","0","1","1","0","0","0","0","5","1","1","1","2","3","4","2","1","4","1","602312870918619136","张","630","","","","","","","","","","","","","","","","","","","","","","","","","","","","","","","","","","","","","","","","","",""
"452","<p style=""color:rgb(150, 250, 100); font-size: 35px;"">自己的</p>","e","categorize-html","26","138332","0.0-6.0-1.0-2.0-1.8","4","4","4","4","4","4","4","4","4","4","5","5","5","5","5","5","5","5","4","5","1","1","1","1","1","1","1","1","1","0","0","0","1","0","1","0","0","0","1","1","0","0","0","0","5","1","1","1","2","3","4","2","1","4","1","602312870918619136","张","630","","","","","","","","","","","","","","","","","","","true","11","1","moral","452","self","自己的","","","","","","","","","","","","","","","","",""
"null","","null","html-keyboard-response","27","138583","0.0-6.0-1.0-2.0-0.9","4","4","4","4","4","4","4","4","4","4","5","5","5","5","5","5","5","5","4","5","1","1","1","1","1","1","1","1","1","0","0","0","1","0","1","0","0","0","1","1","0","0","0","0","5","1","1","1","2","3","4","2","1","4","1","602312870918619136","张","630","","","","","","","","","","","","","","","","","","","","","","","","","","","","","","","","","","","","","","","","","",""
"477","<p style=""color:rgb(150, 250, 100); font-size: 35px;"">本人的</p>","e","categorize-html","28","139061","0.0-6.0-1.0-2.0-1.9","4","4","4","4","4","4","4","4","4","4","5","5","5","5","5","5","5","5","4","5","1","1","1","1","1","1","1","1","1","0","0","0","1","0","1","0","0","0","1","1","0","0","0","0","5","1","1","1","2","3","4","2","1","4","1","602312870918619136","张","630","","","","","","","","","","","","","","","","","","","true","11","1","moral","477","self","本人的","","","","","","","","","","","","","","","","",""
"null","","null","html-keyboard-response","29","139312","0.0-6.0-1.0-2.0-0.10","4","4","4","4","4","4","4","4","4","4","5","5","5","5","5","5","5","5","4","5","1","1","1","1","1","1","1","1","1","0","0","0","1","0","1","0","0","0","1","1","0","0","0","0","5","1","1","1","2","3","4","2","1","4","1","602312870918619136","张","630","","","","","","","","","","","","","","","","","","","","","","","","","","","","","","","","","","","","","","","","","",""
"429","<p style=""color:rgb(150, 250, 100); font-size: 35px;"">他人的</p>","i","categorize-html","30","139741","0.0-6.0-1.0-2.0-1.10","4","4","4","4","4","4","4","4","4","4","5","5","5","5","5","5","5","5","4","5","1","1","1","1","1","1","1","1","1","0","0","0","1","0","1","0","0","0","1","1","0","0","0","0","5","1","1","1","2","3","4","2","1","4","1","602312870918619136","张","630","","","","","","","","","","","","","","","","","","","true","11","1","moral","429","other","他人的","","","","","","","","","","","","","","","","",""
"null","","null","html-keyboard-response","31","139991","0.0-6.0-1.0-2.0-0.11","4","4","4","4","4","4","4","4","4","4","5","5","5","5","5","5","5","5","4","5","1","1","1","1","1","1","1","1","1","0","0","0","1","0","1","0","0","0","1","1","0","0","0","0","5","1","1","1","2","3","4","2","1","4","1","602312870918619136","张","630","","","","","","","","","","","","","","","","","","","","","","","","","","","","","","","","","","","","","","","","","",""
"365","<p style=""color:rgb(150, 250, 100); font-size: 35px;"">他</p>","i","categorize-html","32","140357","0.0-6.0-1.0-2.0-1.11","4","4","4","4","4","4","4","4","4","4","5","5","5","5","5","5","5","5","4","5","1","1","1","1","1","1","1","1","1","0","0","0","1","0","1","0","0","0","1","1","0","0","0","0","5","1","1","1","2","3","4","2","1","4","1","602312870918619136","张","630","","","","","","","","","","","","","","","","","","","true","11","1","moral","365","other","他","","","","","","","","","","","","","","","","",""
"1479","
    <div class=""tag-bottom""><p>
    —— 任务2：对“积极”词和“消极”词分类 ——<p/>   
    <span style=""color:#78DCE8""><b>注意上方，类别标签和需要分类的词语都已经改变</b></span><p/>
    <span style=""color:#FFD866""><b>请根据上方标签的提示，尽可能正确并且快速地做出按键反应</b></span><p/>
    当按键错误时屏幕中会出现<span style=""color:red""> X </span>，需要按另一个键纠正才能继续<br/><p/>
    请把双手食指分别放在键盘的“E”键和“I”键上<p/>
    按<空格键>开始
    </p></div>"," ","html-keyboard-response","33","141837","0.0-6.0-1.0-3.0","4","4","4","4","4","4","4","4","4","4","5","5","5","5","5","5","5","5","4","5","1","1","1","1","1","1","1","1","1","0","0","0","1","0","1","0","0","0","1","1","0","0","0","0","5","1","1","1","2","3","4","2","1","4","1","602312870918619136","张","630","","","","","","","","","","","","","","","","","","","","","","","","","","","","","","","","","","","","","","","","","",""
"null","","null","html-keyboard-response","34","142088","0.0-6.0-1.0-4.0-0.0","4","4","4","4","4","4","4","4","4","4","5","5","5","5","5","5","5","5","4","5","1","1","1","1","1","1","1","1","1","0","0","0","1","0","1","0","0","0","1","1","0","0","0","0","5","1","1","1","2","3","4","2","1","4","1","602312870918619136","张","630","","","","","","","","","","","","","","","","","","","","","","","","","","","","","","","","","","","","","","","","","",""
"611","<p style=""color:white; font-size: 35px;"">诚信</p>","e","categorize-html","35","142700","0.0-6.0-1.0-4.0-1.0","4","4","4","4","4","4","4","4","4","4","5","5","5","5","5","5","5","5","4","5","1","1","1","1","1","1","1","1","1","0","0","0","1","0","1","0","0","0","1","1","0","0","0","0","5","1","1","1","2","3","4","2","1","4","1","602312870918619136","张","630","","","","","","","","","","","","","","","","","","","true","12","2","moral","611","positive","诚信","","","","","","","","","","","","","","","","",""
"null","","null","html-keyboard-response","36","142952","0.0-6.0-1.0-4.0-0.1","4","4","4","4","4","4","4","4","4","4","5","5","5","5","5","5","5","5","4","5","1","1","1","1","1","1","1","1","1","0","0","0","1","0","1","0","0","0","1","1","0","0","0","0","5","1","1","1","2","3","4","2","1","4","1","602312870918619136","张","630","","","","","","","","","","","","","","","","","","","","","","","","","","","","","","","","","","","","","","","","","",""
"525","<p style=""color:white; font-size: 35px;"">高尚</p>","e","categorize-html","37","143478","0.0-6.0-1.0-4.0-1.1","4","4","4","4","4","4","4","4","4","4","5","5","5","5","5","5","5","5","4","5","1","1","1","1","1","1","1","1","1","0","0","0","1","0","1","0","0","0","1","1","0","0","0","0","5","1","1","1","2","3","4","2","1","4","1","602312870918619136","张","630","","","","","","","","","","","","","","","","","","","true","12","2","moral","525","positive","高尚","","","","","","","","","","","","","","","","",""
"null","","null","html-keyboard-response","38","143729","0.0-6.0-1.0-4.0-0.2","4","4","4","4","4","4","4","4","4","4","5","5","5","5","5","5","5","5","4","5","1","1","1","1","1","1","1","1","1","0","0","0","1","0","1","0","0","0","1","1","0","0","0","0","5","1","1","1","2","3","4","2","1","4","1","602312870918619136","张","630","","","","","","","","","","","","","","","","","","","","","","","","","","","","","","","","","","","","","","","","","",""
"491","<p style=""color:white; font-size: 35px;"">正直</p>","e","categorize-html","39","144222","0.0-6.0-1.0-4.0-1.2","4","4","4","4","4","4","4","4","4","4","5","5","5","5","5","5","5","5","4","5","1","1","1","1","1","1","1","1","1","0","0","0","1","0","1","0","0","0","1","1","0","0","0","0","5","1","1","1","2","3","4","2","1","4","1","602312870918619136","张","630","","","","","","","","","","","","","","","","","","","true","12","2","moral","491","positive","正直","","","","","","","","","","","","","","","","",""
"null","","null","html-keyboard-response","40","144472","0.0-6.0-1.0-4.0-0.3","4","4","4","4","4","4","4","4","4","4","5","5","5","5","5","5","5","5","4","5","1","1","1","1","1","1","1","1","1","0","0","0","1","0","1","0","0","0","1","1","0","0","0","0","5","1","1","1","2","3","4","2","1","4","1","602312870918619136","张","630","","","","","","","","","","","","","","","","","","","","","","","","","","","","","","","","","","","","","","","","","",""
"468","<p style=""color:white; font-size: 35px;"">善良</p>","e","categorize-html","41","144941","0.0-6.0-1.0-4.0-1.3","4","4","4","4","4","4","4","4","4","4","5","5","5","5","5","5","5","5","4","5","1","1","1","1","1","1","1","1","1","0","0","0","1","0","1","0","0","0","1","1","0","0","0","0","5","1","1","1","2","3","4","2","1","4","1","602312870918619136","张","630","","","","","","","","","","","","","","","","","","","true","12","2","moral","468","positive","善良","","","","","","","","","","","","","","","","",""
"null","","null","html-keyboard-response","42","145191","0.0-6.0-1.0-4.0-0.4","4","4","4","4","4","4","4","4","4","4","5","5","5","5","5","5","5","5","4","5","1","1","1","1","1","1","1","1","1","0","0","0","1","0","1","0","0","0","1","1","0","0","0","0","5","1","1","1","2","3","4","2","1","4","1","602312870918619136","张","630","","","","","","","","","","","","","","","","","","","","","","","","","","","","","","","","","","","","","","","","","",""
"509","<p style=""color:white; font-size: 35px;"">缺德</p>","i","categorize-html","43","145700","0.0-6.0-1.0-4.0-1.4","4","4","4","4","4","4","4","4","4","4","5","5","5","5","5","5","5","5","4","5","1","1","1","1","1","1","1","1","1","0","0","0","1","0","1","0","0","0","1","1","0","0","0","0","5","1","1","1","2","3","4","2","1","4","1","602312870918619136","张","630","","","","","","","","","","","","","","","","","","","true","12","2","moral","509","negative","缺德","","","","","","","","","","","","","","","","",""
"null","","null","html-keyboard-response","44","145951","0.0-6.0-1.0-4.0-0.5","4","4","4","4","4","4","4","4","4","4","5","5","5","5","5","5","5","5","4","5","1","1","1","1","1","1","1","1","1","0","0","0","1","0","1","0","0","0","1","1","0","0","0","0","5","1","1","1","2","3","4","2","1","4","1","602312870918619136","张","630","","","","","","","","","","","","","","","","","","","","","","","","","","","","","","","","","","","","","","","","","",""
"413","<p style=""color:white; font-size: 35px;"">不仁</p>","i","categorize-html","45","146366","0.0-6.0-1.0-4.0-1.5","4","4","4","4","4","4","4","4","4","4","5","5","5","5","5","5","5","5","4","5","1","1","1","1","1","1","1","1","1","0","0","0","1","0","1","0","0","0","1","1","0","0","0","0","5","1","1","1","2","3","4","2","1","4","1","602312870918619136","张","630","","","","","","","","","","","","","","","","","","","true","12","2","moral","413","negative","不仁","","","","","","","","","","","","","","","","",""
"null","","null","html-keyboard-response","46","146617","0.0-6.0-1.0-4.0-0.6","4","4","4","4","4","4","4","4","4","4","5","5","5","5","5","5","5","5","4","5","1","1","1","1","1","1","1","1","1","0","0","0","1","0","1","0","0","0","1","1","0","0","0","0","5","1","1","1","2","3","4","2","1","4","1","602312870918619136","张","630","","","","","","","","","","","","","","","","","","","","","","","","","","","","","","","","","","","","","","","","","",""
"510","<p style=""color:white; font-size: 35px;"">黑心</p>","i","categorize-html","47","147128","0.0-6.0-1.0-4.0-1.6","4","4","4","4","4","4","4","4","4","4","5","5","5","5","5","5","5","5","4","5","1","1","1","1","1","1","1","1","1","0","0","0","1","0","1","0","0","0","1","1","0","0","0","0","5","1","1","1","2","3","4","2","1","4","1","602312870918619136","张","630","","","","","","","","","","","","","","","","","","","true","12","2","moral","510","negative","黑心","","","","","","","","","","","","","","","","",""
"null","","null","html-keyboard-response","48","147378","0.0-6.0-1.0-4.0-0.7","4","4","4","4","4","4","4","4","4","4","5","5","5","5","5","5","5","5","4","5","1","1","1","1","1","1","1","1","1","0","0","0","1","0","1","0","0","0","1","1","0","0","0","0","5","1","1","1","2","3","4","2","1","4","1","602312870918619136","张","630","","","","","","","","","","","","","","","","","","","","","","","","","","","","","","","","","","","","","","","","","",""
"514","<p style=""color:white; font-size: 35px;"">君子</p>","e","categorize-html","49","147893","0.0-6.0-1.0-4.0-1.7","4","4","4","4","4","4","4","4","4","4","5","5","5","5","5","5","5","5","4","5","1","1","1","1","1","1","1","1","1","0","0","0","1","0","1","0","0","0","1","1","0","0","0","0","5","1","1","1","2","3","4","2","1","4","1","602312870918619136","张","630","","","","","","","","","","","","","","","","","","","true","12","2","moral","514","positive","君子","","","","","","","","","","","","","","","","",""
"null","","null","html-keyboard-response","50","148144","0.0-6.0-1.0-4.0-0.8","4","4","4","4","4","4","4","4","4","4","5","5","5","5","5","5","5","5","4","5","1","1","1","1","1","1","1","1","1","0","0","0","1","0","1","0","0","0","1","1","0","0","0","0","5","1","1","1","2","3","4","2","1","4","1","602312870918619136","张","630","","","","","","","","","","","","","","","","","","","","","","","","","","","","","","","","","","","","","","","","","",""
"558","<p style=""color:white; font-size: 35px;"">廉正</p>","e","categorize-html","51","148702","0.0-6.0-1.0-4.0-1.8","4","4","4","4","4","4","4","4","4","4","5","5","5","5","5","5","5","5","4","5","1","1","1","1","1","1","1","1","1","0","0","0","1","0","1","0","0","0","1","1","0","0","0","0","5","1","1","1","2","3","4","2","1","4","1","602312870918619136","张","630","","","","","","","","","","","","","","","","","","","true","12","2","moral","558","positive","廉正","","","","","","","","","","","","","","","","",""
"null","","null","html-keyboard-response","52","148954","0.0-6.0-1.0-4.0-0.9","4","4","4","4","4","4","4","4","4","4","5","5","5","5","5","5","5","5","4","5","1","1","1","1","1","1","1","1","1","0","0","0","1","0","1","0","0","0","1","1","0","0","0","0","5","1","1","1","2","3","4","2","1","4","1","602312870918619136","张","630","","","","","","","","","","","","","","","","","","","","","","","","","","","","","","","","","","","","","","","","","",""
"611","<p style=""color:white; font-size: 35px;"">卑鄙</p>","i","categorize-html","53","149565","0.0-6.0-1.0-4.0-1.9","4","4","4","4","4","4","4","4","4","4","5","5","5","5","5","5","5","5","4","5","1","1","1","1","1","1","1","1","1","0","0","0","1","0","1","0","0","0","1","1","0","0","0","0","5","1","1","1","2","3","4","2","1","4","1","602312870918619136","张","630","","","","","","","","","","","","","","","","","","","true","12","2","moral","611","negative","卑鄙","","","","","","","","","","","","","","","","",""
"null","","null","html-keyboard-response","54","149817","0.0-6.0-1.0-4.0-0.10","4","4","4","4","4","4","4","4","4","4","5","5","5","5","5","5","5","5","4","5","1","1","1","1","1","1","1","1","1","0","0","0","1","0","1","0","0","0","1","1","0","0","0","0","5","1","1","1","2","3","4","2","1","4","1","602312870918619136","张","630","","","","","","","","","","","","","","","","","","","","","","","","","","","","","","","","","","","","","","","","","",""
"597","<p style=""color:white; font-size: 35px;"">不孝</p>","i","categorize-html","55","150416","0.0-6.0-1.0-4.0-1.10","4","4","4","4","4","4","4","4","4","4","5","5","5","5","5","5","5","5","4","5","1","1","1","1","1","1","1","1","1","0","0","0","1","0","1","0","0","0","1","1","0","0","0","0","5","1","1","1","2","3","4","2","1","4","1","602312870918619136","张","630","","","","","","","","","","","","","","","","","","","true","12","2","moral","597","negative","不孝","","","","","","","","","","","","","","","","",""
"null","","null","html-keyboard-response","56","150666","0.0-6.0-1.0-4.0-0.11","4","4","4","4","4","4","4","4","4","4","5","5","5","5","5","5","5","5","4","5","1","1","1","1","1","1","1","1","1","0","0","0","1","0","1","0","0","0","1","1","0","0","0","0","5","1","1","1","2","3","4","2","1","4","1","602312870918619136","张","630","","","","","","","","","","","","","","","","","","","","","","","","","","","","","","","","","","","","","","","","","",""
"673","<p style=""color:white; font-size: 35px;"">小人</p>","e","categorize-html","57","152149","0.0-6.0-1.0-4.0-1.11","4","4","4","4","4","4","4","4","4","4","5","5","5","5","5","5","5","5","4","5","1","1","1","1","1","1","1","1","1","0","0","0","1","0","1","0","0","0","1","1","0","0","0","0","5","1","1","1","2","3","4","2","1","4","1","602312870918619136","张","630","","","","","","","","","","","","","","","","","","","false","12","2","moral","673","negative","小人","","","","","","","","","","","","","","","","",""
"35976","
    <div class=""tag-bottom""><p>
    —— 任务3：对“自我/积极”词和“他人/消极”词分类 ——<p/>
    <span style=""color:#78DCE8""><b>注意上方，之前的四类词语将混合在一起交替呈现</b></span><p/>
    <span style=""color:#FFD866""><b>请根据上方标签的提示，尽可能正确并且快速地做出按键反应</b></span><p/>
    当按键错误时屏幕中会出现<span style=""color:red""> X </span>，需要按另一个键纠正才能继续<br/><p/>
    请把双手食指分别放在键盘的“E”键和“I”键上<p/>
    按<空格键>开始
    </p></div>"," ","html-keyboard-response","58","188126","0.0-6.0-1.0-5.0","4","4","4","4","4","4","4","4","4","4","5","5","5","5","5","5","5","5","4","5","1","1","1","1","1","1","1","1","1","0","0","0","1","0","1","0","0","0","1","1","0","0","0","0","5","1","1","1","2","3","4","2","1","4","1","602312870918619136","张","630","","","","","","","","","","","","","","","","","","","","","","","","","","","","","","","","","","","","","","","","","",""
"null","","null","html-keyboard-response","59","188376","0.0-6.0-1.0-6.0-0.0","4","4","4","4","4","4","4","4","4","4","5","5","5","5","5","5","5","5","4","5","1","1","1","1","1","1","1","1","1","0","0","0","1","0","1","0","0","0","1","1","0","0","0","0","5","1","1","1","2","3","4","2","1","4","1","602312870918619136","张","630","","","","","","","","","","","","","","","","","","","","","","","","","","","","","","","","","","","","","","","","","",""
"556","<p style=""color:rgb(150, 250, 100); font-size: 35px;"">本人</p>","e","categorize-html","60","188934","0.0-6.0-1.0-6.0-1.0","4","4","4","4","4","4","4","4","4","4","5","5","5","5","5","5","5","5","4","5","1","1","1","1","1","1","1","1","1","0","0","0","1","0","1","0","0","0","1","1","0","0","0","0","5","1","1","1","2","3","4","2","1","4","1","602312870918619136","张","630","","","","","","","","","","","","","","","","","","","true","13","3","moral","556","self","本人","","","","","","","","","","","","","","","","",""
"null","","null","html-keyboard-response","61","189185","0.0-6.0-1.0-6.0-0.1","4","4","4","4","4","4","4","4","4","4","5","5","5","5","5","5","5","5","4","5","1","1","1","1","1","1","1","1","1","0","0","0","1","0","1","0","0","0","1","1","0","0","0","0","5","1","1","1","2","3","4","2","1","4","1","602312870918619136","张","630","","","","","","","","","","","","","","","","","","","","","","","","","","","","","","","","","","","","","","","","","",""
"667","<p style=""color:white; font-size: 35px;"">卑鄙</p>","i","categorize-html","62","189854","0.0-6.0-1.0-6.0-1.1","4","4","4","4","4","4","4","4","4","4","5","5","5","5","5","5","5","5","4","5","1","1","1","1","1","1","1","1","1","0","0","0","1","0","1","0","0","0","1","1","0","0","0","0","5","1","1","1","2","3","4","2","1","4","1","602312870918619136","张","630","","","","","","","","","","","","","","","","","","","true","13","3","moral","667","negative","卑鄙","","","","","","","","","","","","","","","","",""
"null","","null","html-keyboard-response","63","190106","0.0-6.0-1.0-6.0-0.2","4","4","4","4","4","4","4","4","4","4","5","5","5","5","5","5","5","5","4","5","1","1","1","1","1","1","1","1","1","0","0","0","1","0","1","0","0","0","1","1","0","0","0","0","5","1","1","1","2","3","4","2","1","4","1","602312870918619136","张","630","","","","","","","","","","","","","","","","","","","","","","","","","","","","","","","","","","","","","","","","","",""
"467","<p style=""color:rgb(150, 250, 100); font-size: 35px;"">他</p>","i","categorize-html","64","190573","0.0-6.0-1.0-6.0-1.2","4","4","4","4","4","4","4","4","4","4","5","5","5","5","5","5","5","5","4","5","1","1","1","1","1","1","1","1","1","0","0","0","1","0","1","0","0","0","1","1","0","0","0","0","5","1","1","1","2","3","4","2","1","4","1","602312870918619136","张","630","","","","","","","","","","","","","","","","","","","true","13","3","moral","467","other","他","","","","","","","","","","","","","","","","",""
"null","","null","html-keyboard-response","65","190824","0.0-6.0-1.0-6.0-0.3","4","4","4","4","4","4","4","4","4","4","5","5","5","5","5","5","5","5","4","5","1","1","1","1","1","1","1","1","1","0","0","0","1","0","1","0","0","0","1","1","0","0","0","0","5","1","1","1","2","3","4","2","1","4","1","602312870918619136","张","630","","","","","","","","","","","","","","","","","","","","","","","","","","","","","","","","","","","","","","","","","",""
"516","<p style=""color:white; font-size: 35px;"">诚信</p>","e","categorize-html","66","191341","0.0-6.0-1.0-6.0-1.3","4","4","4","4","4","4","4","4","4","4","5","5","5","5","5","5","5","5","4","5","1","1","1","1","1","1","1","1","1","0","0","0","1","0","1","0","0","0","1","1","0","0","0","0","5","1","1","1","2","3","4","2","1","4","1","602312870918619136","张","630","","","","","","","","","","","","","","","","","","","true","13","3","moral","516","positive","诚信","","","","","","","","","","","","","","","","",""
"null","","null","html-keyboard-response","67","191592","0.0-6.0-1.0-6.0-0.4","4","4","4","4","4","4","4","4","4","4","5","5","5","5","5","5","5","5","4","5","1","1","1","1","1","1","1","1","1","0","0","0","1","0","1","0","0","0","1","1","0","0","0","0","5","1","1","1","2","3","4","2","1","4","1","602312870918619136","张","630","","","","","","","","","","","","","","","","","","","","","","","","","","","","","","","","","","","","","","","","","",""
"628","<p style=""color:rgb(150, 250, 100); font-size: 35px;"">别人的</p>","i","categorize-html","68","192221","0.0-6.0-1.0-6.0-1.4","4","4","4","4","4","4","4","4","4","4","5","5","5","5","5","5","5","5","4","5","1","1","1","1","1","1","1","1","1","0","0","0","1","0","1","0","0","0","1","1","0","0","0","0","5","1","1","1","2","3","4","2","1","4","1","602312870918619136","张","630","","","","","","","","","","","","","","","","","","","true","13","3","moral","628","other","别人的","","","","","","","","","","","","","","","","",""
"null","","null","html-keyboard-response","69","192472","0.0-6.0-1.0-6.0-0.5","4","4","4","4","4","4","4","4","4","4","5","5","5","5","5","5","5","5","4","5","1","1","1","1","1","1","1","1","1","0","0","0","1","0","1","0","0","0","1","1","0","0","0","0","5","1","1","1","2","3","4","2","1","4","1","602312870918619136","张","630","","","","","","","","","","","","","","","","","","","","","","","","","","","","","","","","","","","","","","","","","",""
"668","<p style=""color:white; font-size: 35px;"">高尚</p>","e","categorize-html","70","193140","0.0-6.0-1.0-6.0-1.5","4","4","4","4","4","4","4","4","4","4","5","5","5","5","5","5","5","5","4","5","1","1","1","1","1","1","1","1","1","0","0","0","1","0","1","0","0","0","1","1","0","0","0","0","5","1","1","1","2","3","4","2","1","4","1","602312870918619136","张","630","","","","","","","","","","","","","","","","","","","true","13","3","moral","668","positive","高尚","","","","","","","","","","","","","","","","",""
"null","","null","html-keyboard-response","71","193392","0.0-6.0-1.0-6.0-0.6","4","4","4","4","4","4","4","4","4","4","5","5","5","5","5","5","5","5","4","5","1","1","1","1","1","1","1","1","1","0","0","0","1","0","1","0","0","0","1","1","0","0","0","0","5","1","1","1","2","3","4","2","1","4","1","602312870918619136","张","630","","","","","","","","","","","","","","","","","","","","","","","","","","","","","","","","","","","","","","","","","",""
"573","<p style=""color:rgb(150, 250, 100); font-size: 35px;"">本人的</p>","e","categorize-html","72","193965","0.0-6.0-1.0-6.0-1.6","4","4","4","4","4","4","4","4","4","4","5","5","5","5","5","5","5","5","4","5","1","1","1","1","1","1","1","1","1","0","0","0","1","0","1","0","0","0","1","1","0","0","0","0","5","1","1","1","2","3","4","2","1","4","1","602312870918619136","张","630","","","","","","","","","","","","","","","","","","","true","13","3","moral","573","self","本人的","","","","","","","","","","","","","","","","",""
"null","","null","html-keyboard-response","73","194217","0.0-6.0-1.0-6.0-0.7","4","4","4","4","4","4","4","4","4","4","5","5","5","5","5","5","5","5","4","5","1","1","1","1","1","1","1","1","1","0","0","0","1","0","1","0","0","0","1","1","0","0","0","0","5","1","1","1","2","3","4","2","1","4","1","602312870918619136","张","630","","","","","","","","","","","","","","","","","","","","","","","","","","","","","","","","","","","","","","","","","",""
"500","<p style=""color:white; font-size: 35px;"">黑心</p>","i","categorize-html","74","194718","0.0-6.0-1.0-6.0-1.7","4","4","4","4","4","4","4","4","4","4","5","5","5","5","5","5","5","5","4","5","1","1","1","1","1","1","1","1","1","0","0","0","1","0","1","0","0","0","1","1","0","0","0","0","5","1","1","1","2","3","4","2","1","4","1","602312870918619136","张","630","","","","","","","","","","","","","","","","","","","true","13","3","moral","500","negative","黑心","","","","","","","","","","","","","","","","",""
"null","","null","html-keyboard-response","75","194970","0.0-6.0-1.0-6.0-0.8","4","4","4","4","4","4","4","4","4","4","5","5","5","5","5","5","5","5","4","5","1","1","1","1","1","1","1","1","1","0","0","0","1","0","1","0","0","0","1","1","0","0","0","0","5","1","1","1","2","3","4","2","1","4","1","602312870918619136","张","630","","","","","","","","","","","","","","","","","","","","","","","","","","","","","","","","","","","","","","","","","",""
"515","<p style=""color:rgb(150, 250, 100); font-size: 35px;"">我</p>","e","categorize-html","76","195485","0.0-6.0-1.0-6.0-1.8","4","4","4","4","4","4","4","4","4","4","5","5","5","5","5","5","5","5","4","5","1","1","1","1","1","1","1","1","1","0","0","0","1","0","1","0","0","0","1","1","0","0","0","0","5","1","1","1","2","3","4","2","1","4","1","602312870918619136","张","630","","","","","","","","","","","","","","","","","","","true","13","3","moral","515","self","我","","","","","","","","","","","","","","","","",""
"null","","null","html-keyboard-response","77","195736","0.0-6.0-1.0-6.0-0.9","4","4","4","4","4","4","4","4","4","4","5","5","5","5","5","5","5","5","4","5","1","1","1","1","1","1","1","1","1","0","0","0","1","0","1","0","0","0","1","1","0","0","0","0","5","1","1","1","2","3","4","2","1","4","1","602312870918619136","张","630","","","","","","","","","","","","","","","","","","","","","","","","","","","","","","","","","","","","","","","","","",""
"564","<p style=""color:white; font-size: 35px;"">廉正</p>","e","categorize-html","78","196301","0.0-6.0-1.0-6.0-1.9","4","4","4","4","4","4","4","4","4","4","5","5","5","5","5","5","5","5","4","5","1","1","1","1","1","1","1","1","1","0","0","0","1","0","1","0","0","0","1","1","0","0","0","0","5","1","1","1","2","3","4","2","1","4","1","602312870918619136","张","630","","","","","","","","","","","","","","","","","","","true","13","3","moral","564","positive","廉正","","","","","","","","","","","","","","","","",""
"null","","null","html-keyboard-response","79","196552","0.0-6.0-1.0-6.0-0.10","4","4","4","4","4","4","4","4","4","4","5","5","5","5","5","5","5","5","4","5","1","1","1","1","1","1","1","1","1","0","0","0","1","0","1","0","0","0","1","1","0","0","0","0","5","1","1","1","2","3","4","2","1","4","1","602312870918619136","张","630","","","","","","","","","","","","","","","","","","","","","","","","","","","","","","","","","","","","","","","","","",""
"476","<p style=""color:rgb(150, 250, 100); font-size: 35px;"">他人</p>","i","categorize-html","80","197029","0.0-6.0-1.0-6.0-1.10","4","4","4","4","4","4","4","4","4","4","5","5","5","5","5","5","5","5","4","5","1","1","1","1","1","1","1","1","1","0","0","0","1","0","1","0","0","0","1","1","0","0","0","0","5","1","1","1","2","3","4","2","1","4","1","602312870918619136","张","630","","","","","","","","","","","","","","","","","","","true","13","3","moral","476","other","他人","","","","","","","","","","","","","","","","",""
"null","","null","html-keyboard-response","81","197279","0.0-6.0-1.0-6.0-0.11","4","4","4","4","4","4","4","4","4","4","5","5","5","5","5","5","5","5","4","5","1","1","1","1","1","1","1","1","1","0","0","0","1","0","1","0","0","0","1","1","0","0","0","0","5","1","1","1","2","3","4","2","1","4","1","602312870918619136","张","630","","","","","","","","","","","","","","","","","","","","","","","","","","","","","","","","","","","","","","","","","",""
"453","<p style=""color:white; font-size: 35px;"">不仁</p>","i","categorize-html","82","197733","0.0-6.0-1.0-6.0-1.11","4","4","4","4","4","4","4","4","4","4","5","5","5","5","5","5","5","5","4","5","1","1","1","1","1","1","1","1","1","0","0","0","1","0","1","0","0","0","1","1","0","0","0","0","5","1","1","1","2","3","4","2","1","4","1","602312870918619136","张","630","","","","","","","","","","","","","","","","","","","true","13","3","moral","453","negative","不仁","","","","","","","","","","","","","","","","",""
"null","","null","html-keyboard-response","83","197984","0.0-6.0-1.0-6.0-0.12","4","4","4","4","4","4","4","4","4","4","5","5","5","5","5","5","5","5","4","5","1","1","1","1","1","1","1","1","1","0","0","0","1","0","1","0","0","0","1","1","0","0","0","0","5","1","1","1","2","3","4","2","1","4","1","602312870918619136","张","630","","","","","","","","","","","","","","","","","","","","","","","","","","","","","","","","","","","","","","","","","",""
"372","<p style=""color:rgb(150, 250, 100); font-size: 35px;"">他的</p>","i","categorize-html","84","198357","0.0-6.0-1.0-6.0-1.12","4","4","4","4","4","4","4","4","4","4","5","5","5","5","5","5","5","5","4","5","1","1","1","1","1","1","1","1","1","0","0","0","1","0","1","0","0","0","1","1","0","0","0","0","5","1","1","1","2","3","4","2","1","4","1","602312870918619136","张","630","","","","","","","","","","","","","","","","","","","true","13","3","moral","372","other","他的","","","","","","","","","","","","","","","","",""
"null","","null","html-keyboard-response","85","198608","0.0-6.0-1.0-6.0-0.13","4","4","4","4","4","4","4","4","4","4","5","5","5","5","5","5","5","5","4","5","1","1","1","1","1","1","1","1","1","0","0","0","1","0","1","0","0","0","1","1","0","0","0","0","5","1","1","1","2","3","4","2","1","4","1","602312870918619136","张","630","","","","","","","","","","","","","","","","","","","","","","","","","","","","","","","","","","","","","","","","","",""
"500","<p style=""color:white; font-size: 35px;"">君子</p>","e","categorize-html","86","199109","0.0-6.0-1.0-6.0-1.13","4","4","4","4","4","4","4","4","4","4","5","5","5","5","5","5","5","5","4","5","1","1","1","1","1","1","1","1","1","0","0","0","1","0","1","0","0","0","1","1","0","0","0","0","5","1","1","1","2","3","4","2","1","4","1","602312870918619136","张","630","","","","","","","","","","","","","","","","","","","true","13","3","moral","500","positive","君子","","","","","","","","","","","","","","","","",""
"null","","null","html-keyboard-response","87","199360","0.0-6.0-1.0-6.0-0.14","4","4","4","4","4","4","4","4","4","4","5","5","5","5","5","5","5","5","4","5","1","1","1","1","1","1","1","1","1","0","0","0","1","0","1","0","0","0","1","1","0","0","0","0","5","1","1","1","2","3","4","2","1","4","1","602312870918619136","张","630","","","","","","","","","","","","","","","","","","","","","","","","","","","","","","","","","","","","","","","","","",""
"637","<p style=""color:rgb(150, 250, 100); font-size: 35px;"">自己的</p>","e","categorize-html","88","199997","0.0-6.0-1.0-6.0-1.14","4","4","4","4","4","4","4","4","4","4","5","5","5","5","5","5","5","5","4","5","1","1","1","1","1","1","1","1","1","0","0","0","1","0","1","0","0","0","1","1","0","0","0","0","5","1","1","1","2","3","4","2","1","4","1","602312870918619136","张","630","","","","","","","","","","","","","","","","","","","true","13","3","moral","637","self","自己的","","","","","","","","","","","","","","","","",""
"null","","null","html-keyboard-response","89","200248","0.0-6.0-1.0-6.0-0.15","4","4","4","4","4","4","4","4","4","4","5","5","5","5","5","5","5","5","4","5","1","1","1","1","1","1","1","1","1","0","0","0","1","0","1","0","0","0","1","1","0","0","0","0","5","1","1","1","2","3","4","2","1","4","1","602312870918619136","张","630","","","","","","","","","","","","","","","","","","","","","","","","","","","","","","","","","","","","","","","","","",""
"654","<p style=""color:white; font-size: 35px;"">缺德</p>","i","categorize-html","90","200902","0.0-6.0-1.0-6.0-1.15","4","4","4","4","4","4","4","4","4","4","5","5","5","5","5","5","5","5","4","5","1","1","1","1","1","1","1","1","1","0","0","0","1","0","1","0","0","0","1","1","0","0","0","0","5","1","1","1","2","3","4","2","1","4","1","602312870918619136","张","630","","","","","","","","","","","","","","","","","","","true","13","3","moral","654","negative","缺德","","","","","","","","","","","","","","","","",""
"null","","null","html-keyboard-response","91","201154","0.0-6.0-1.0-6.0-0.16","4","4","4","4","4","4","4","4","4","4","5","5","5","5","5","5","5","5","4","5","1","1","1","1","1","1","1","1","1","0","0","0","1","0","1","0","0","0","1","1","0","0","0","0","5","1","1","1","2","3","4","2","1","4","1","602312870918619136","张","630","","","","","","","","","","","","","","","","","","","","","","","","","","","","","","","","","","","","","","","","","",""
"610","<p style=""color:rgb(150, 250, 100); font-size: 35px;"">别人</p>","i","categorize-html","92","201764","0.0-6.0-1.0-6.0-1.16","4","4","4","4","4","4","4","4","4","4","5","5","5","5","5","5","5","5","4","5","1","1","1","1","1","1","1","1","1","0","0","0","1","0","1","0","0","0","1","1","0","0","0","0","5","1","1","1","2","3","4","2","1","4","1","602312870918619136","张","630","","","","","","","","","","","","","","","","","","","true","13","3","moral","610","other","别人","","","","","","","","","","","","","","","","",""
"null","","null","html-keyboard-response","93","202015","0.0-6.0-1.0-6.0-0.17","4","4","4","4","4","4","4","4","4","4","5","5","5","5","5","5","5","5","4","5","1","1","1","1","1","1","1","1","1","0","0","0","1","0","1","0","0","0","1","1","0","0","0","0","5","1","1","1","2","3","4","2","1","4","1","602312870918619136","张","630","","","","","","","","","","","","","","","","","","","","","","","","","","","","","","","","","","","","","","","","","",""
"510","<p style=""color:white; font-size: 35px;"">善良</p>","e","categorize-html","94","202526","0.0-6.0-1.0-6.0-1.17","4","4","4","4","4","4","4","4","4","4","5","5","5","5","5","5","5","5","4","5","1","1","1","1","1","1","1","1","1","0","0","0","1","0","1","0","0","0","1","1","0","0","0","0","5","1","1","1","2","3","4","2","1","4","1","602312870918619136","张","630","","","","","","","","","","","","","","","","","","","true","13","3","moral","510","positive","善良","","","","","","","","","","","","","","","","",""
"null","","null","html-keyboard-response","95","202778","0.0-6.0-1.0-6.0-0.18","4","4","4","4","4","4","4","4","4","4","5","5","5","5","5","5","5","5","4","5","1","1","1","1","1","1","1","1","1","0","0","0","1","0","1","0","0","0","1","1","0","0","0","0","5","1","1","1","2","3","4","2","1","4","1","602312870918619136","张","630","","","","","","","","","","","","","","","","","","","","","","","","","","","","","","","","","","","","","","","","","",""
"578","<p style=""color:rgb(150, 250, 100); font-size: 35px;"">自己</p>","e","categorize-html","96","203356","0.0-6.0-1.0-6.0-1.18","4","4","4","4","4","4","4","4","4","4","5","5","5","5","5","5","5","5","4","5","1","1","1","1","1","1","1","1","1","0","0","0","1","0","1","0","0","0","1","1","0","0","0","0","5","1","1","1","2","3","4","2","1","4","1","602312870918619136","张","630","","","","","","","","","","","","","","","","","","","true","13","3","moral","578","self","自己","","","","","","","","","","","","","","","","",""
"null","","null","html-keyboard-response","97","203608","0.0-6.0-1.0-6.0-0.19","4","4","4","4","4","4","4","4","4","4","5","5","5","5","5","5","5","5","4","5","1","1","1","1","1","1","1","1","1","0","0","0","1","0","1","0","0","0","1","1","0","0","0","0","5","1","1","1","2","3","4","2","1","4","1","602312870918619136","张","630","","","","","","","","","","","","","","","","","","","","","","","","","","","","","","","","","","","","","","","","","",""
"525","<p style=""color:white; font-size: 35px;"">小人</p>","i","categorize-html","98","204133","0.0-6.0-1.0-6.0-1.19","4","4","4","4","4","4","4","4","4","4","5","5","5","5","5","5","5","5","4","5","1","1","1","1","1","1","1","1","1","0","0","0","1","0","1","0","0","0","1","1","0","0","0","0","5","1","1","1","2","3","4","2","1","4","1","602312870918619136","张","630","","","","","","","","","","","","","","","","","","","true","13","3","moral","525","negative","小人","","","","","","","","","","","","","","","","",""
"null","","null","html-keyboard-response","99","204384","0.0-6.0-1.0-6.0-0.20","4","4","4","4","4","4","4","4","4","4","5","5","5","5","5","5","5","5","4","5","1","1","1","1","1","1","1","1","1","0","0","0","1","0","1","0","0","0","1","1","0","0","0","0","5","1","1","1","2","3","4","2","1","4","1","602312870918619136","张","630","","","","","","","","","","","","","","","","","","","","","","","","","","","","","","","","","","","","","","","","","",""
"573","<p style=""color:rgb(150, 250, 100); font-size: 35px;"">我的</p>","e","categorize-html","100","204957","0.0-6.0-1.0-6.0-1.20","4","4","4","4","4","4","4","4","4","4","5","5","5","5","5","5","5","5","4","5","1","1","1","1","1","1","1","1","1","0","0","0","1","0","1","0","0","0","1","1","0","0","0","0","5","1","1","1","2","3","4","2","1","4","1","602312870918619136","张","630","","","","","","","","","","","","","","","","","","","true","13","3","moral","573","self","我的","","","","","","","","","","","","","","","","",""
"null","","null","html-keyboard-response","101","205207","0.0-6.0-1.0-6.0-0.21","4","4","4","4","4","4","4","4","4","4","5","5","5","5","5","5","5","5","4","5","1","1","1","1","1","1","1","1","1","0","0","0","1","0","1","0","0","0","1","1","0","0","0","0","5","1","1","1","2","3","4","2","1","4","1","602312870918619136","张","630","","","","","","","","","","","","","","","","","","","","","","","","","","","","","","","","","","","","","","","","","",""
"445","<p style=""color:white; font-size: 35px;"">正直</p>","e","categorize-html","102","205653","0.0-6.0-1.0-6.0-1.21","4","4","4","4","4","4","4","4","4","4","5","5","5","5","5","5","5","5","4","5","1","1","1","1","1","1","1","1","1","0","0","0","1","0","1","0","0","0","1","1","0","0","0","0","5","1","1","1","2","3","4","2","1","4","1","602312870918619136","张","630","","","","","","","","","","","","","","","","","","","true","13","3","moral","445","positive","正直","","","","","","","","","","","","","","","","",""
"null","","null","html-keyboard-response","103","205904","0.0-6.0-1.0-6.0-0.22","4","4","4","4","4","4","4","4","4","4","5","5","5","5","5","5","5","5","4","5","1","1","1","1","1","1","1","1","1","0","0","0","1","0","1","0","0","0","1","1","0","0","0","0","5","1","1","1","2","3","4","2","1","4","1","602312870918619136","张","630","","","","","","","","","","","","","","","","","","","","","","","","","","","","","","","","","","","","","","","","","",""
"573","<p style=""color:rgb(150, 250, 100); font-size: 35px;"">他人的</p>","i","categorize-html","104","206478","0.0-6.0-1.0-6.0-1.22","4","4","4","4","4","4","4","4","4","4","5","5","5","5","5","5","5","5","4","5","1","1","1","1","1","1","1","1","1","0","0","0","1","0","1","0","0","0","1","1","0","0","0","0","5","1","1","1","2","3","4","2","1","4","1","602312870918619136","张","630","","","","","","","","","","","","","","","","","","","true","13","3","moral","573","other","他人的","","","","","","","","","","","","","","","","",""
"null","","null","html-keyboard-response","105","206729","0.0-6.0-1.0-6.0-0.23","4","4","4","4","4","4","4","4","4","4","5","5","5","5","5","5","5","5","4","5","1","1","1","1","1","1","1","1","1","0","0","0","1","0","1","0","0","0","1","1","0","0","0","0","5","1","1","1","2","3","4","2","1","4","1","602312870918619136","张","630","","","","","","","","","","","","","","","","","","","","","","","","","","","","","","","","","","","","","","","","","",""
"883","<p style=""color:white; font-size: 35px;"">不孝</p>","i","categorize-html","106","207612","0.0-6.0-1.0-6.0-1.23","4","4","4","4","4","4","4","4","4","4","5","5","5","5","5","5","5","5","4","5","1","1","1","1","1","1","1","1","1","0","0","0","1","0","1","0","0","0","1","1","0","0","0","0","5","1","1","1","2","3","4","2","1","4","1","602312870918619136","张","630","","","","","","","","","","","","","","","","","","","true","13","3","moral","883","negative","不孝","","","","","","","","","","","","","","","","",""
"6600","
    <div class=""tag-bottom""><p>
    —— 任务4：对“自我/积极”词和“他人/消极”词分类 ——<p/>
    <span style=""color:#78DCE8""><b>与刚才的任务完全相同，请再次对这四类词语分类</b></span><p/>
    <span style=""color:#FFD866""><b>请根据上方标签的提示，尽可能正确并且快速地做出按键反应</b></span><p/>
    当按键错误时屏幕中会出现<span style=""color:red""> X </span>，需要按另一个键纠正才能继续<br/><p/>
    请把双手食指分别放在键盘的“E”键和“I”键上<p/>
    按<空格键>开始
    </p></div>"," ","html-keyboard-response","107","214213","0.0-6.0-1.0-7.0","4","4","4","4","4","4","4","4","4","4","5","5","5","5","5","5","5","5","4","5","1","1","1","1","1","1","1","1","1","0","0","0","1","0","1","0","0","0","1","1","0","0","0","0","5","1","1","1","2","3","4","2","1","4","1","602312870918619136","张","630","","","","","","","","","","","","","","","","","","","","","","","","","","","","","","","","","","","","","","","","","",""
"null","","null","html-keyboard-response","108","214463","0.0-6.0-1.0-8.0-0.0","4","4","4","4","4","4","4","4","4","4","5","5","5","5","5","5","5","5","4","5","1","1","1","1","1","1","1","1","1","0","0","0","1","0","1","0","0","0","1","1","0","0","0","0","5","1","1","1","2","3","4","2","1","4","1","602312870918619136","张","630","","","","","","","","","","","","","","","","","","","","","","","","","","","","","","","","","","","","","","","","","",""
"501","<p style=""color:rgb(150, 250, 100); font-size: 35px;"">别人</p>","i","categorize-html","109","214965","0.0-6.0-1.0-8.0-1.0","4","4","4","4","4","4","4","4","4","4","5","5","5","5","5","5","5","5","4","5","1","1","1","1","1","1","1","1","1","0","0","0","1","0","1","0","0","0","1","1","0","0","0","0","5","1","1","1","2","3","4","2","1","4","1","602312870918619136","张","630","","","","","","","","","","","","","","","","","","","true","14","4","moral","501","other","别人","","","","","","","","","","","","","","","","",""
"null","","null","html-keyboard-response","110","215217","0.0-6.0-1.0-8.0-0.1","4","4","4","4","4","4","4","4","4","4","5","5","5","5","5","5","5","5","4","5","1","1","1","1","1","1","1","1","1","0","0","0","1","0","1","0","0","0","1","1","0","0","0","0","5","1","1","1","2","3","4","2","1","4","1","602312870918619136","张","630","","","","","","","","","","","","","","","","","","","","","","","","","","","","","","","","","","","","","","","","","",""
"500","<p style=""color:white; font-size: 35px;"">诚信</p>","e","categorize-html","111","215717","0.0-6.0-1.0-8.0-1.1","4","4","4","4","4","4","4","4","4","4","5","5","5","5","5","5","5","5","4","5","1","1","1","1","1","1","1","1","1","0","0","0","1","0","1","0","0","0","1","1","0","0","0","0","5","1","1","1","2","3","4","2","1","4","1","602312870918619136","张","630","","","","","","","","","","","","","","","","","","","true","14","4","moral","500","positive","诚信","","","","","","","","","","","","","","","","",""
"null","","null","html-keyboard-response","112","215968","0.0-6.0-1.0-8.0-0.2","4","4","4","4","4","4","4","4","4","4","5","5","5","5","5","5","5","5","4","5","1","1","1","1","1","1","1","1","1","0","0","0","1","0","1","0","0","0","1","1","0","0","0","0","5","1","1","1","2","3","4","2","1","4","1","602312870918619136","张","630","","","","","","","","","","","","","","","","","","","","","","","","","","","","","","","","","","","","","","","","","",""
"700","<p style=""color:rgb(150, 250, 100); font-size: 35px;"">我</p>","e","categorize-html","113","216669","0.0-6.0-1.0-8.0-1.2","4","4","4","4","4","4","4","4","4","4","5","5","5","5","5","5","5","5","4","5","1","1","1","1","1","1","1","1","1","0","0","0","1","0","1","0","0","0","1","1","0","0","0","0","5","1","1","1","2","3","4","2","1","4","1","602312870918619136","张","630","","","","","","","","","","","","","","","","","","","true","14","4","moral","700","self","我","","","","","","","","","","","","","","","","",""
"null","","null","html-keyboard-response","114","216920","0.0-6.0-1.0-8.0-0.3","4","4","4","4","4","4","4","4","4","4","5","5","5","5","5","5","5","5","4","5","1","1","1","1","1","1","1","1","1","0","0","0","1","0","1","0","0","0","1","1","0","0","0","0","5","1","1","1","2","3","4","2","1","4","1","602312870918619136","张","630","","","","","","","","","","","","","","","","","","","","","","","","","","","","","","","","","","","","","","","","","",""
"532","<p style=""color:white; font-size: 35px;"">不孝</p>","i","categorize-html","115","217453","0.0-6.0-1.0-8.0-1.3","4","4","4","4","4","4","4","4","4","4","5","5","5","5","5","5","5","5","4","5","1","1","1","1","1","1","1","1","1","0","0","0","1","0","1","0","0","0","1","1","0","0","0","0","5","1","1","1","2","3","4","2","1","4","1","602312870918619136","张","630","","","","","","","","","","","","","","","","","","","true","14","4","moral","532","negative","不孝","","","","","","","","","","","","","","","","",""
"null","","null","html-keyboard-response","116","217704","0.0-6.0-1.0-8.0-0.4","4","4","4","4","4","4","4","4","4","4","5","5","5","5","5","5","5","5","4","5","1","1","1","1","1","1","1","1","1","0","0","0","1","0","1","0","0","0","1","1","0","0","0","0","5","1","1","1","2","3","4","2","1","4","1","602312870918619136","张","630","","","","","","","","","","","","","","","","","","","","","","","","","","","","","","","","","","","","","","","","","",""
"572","<p style=""color:rgb(150, 250, 100); font-size: 35px;"">本人的</p>","e","categorize-html","117","218277","0.0-6.0-1.0-8.0-1.4","4","4","4","4","4","4","4","4","4","4","5","5","5","5","5","5","5","5","4","5","1","1","1","1","1","1","1","1","1","0","0","0","1","0","1","0","0","0","1","1","0","0","0","0","5","1","1","1","2","3","4","2","1","4","1","602312870918619136","张","630","","","","","","","","","","","","","","","","","","","true","14","4","moral","572","self","本人的","","","","","","","","","","","","","","","","",""
"null","","null","html-keyboard-response","118","218528","0.0-6.0-1.0-8.0-0.5","4","4","4","4","4","4","4","4","4","4","5","5","5","5","5","5","5","5","4","5","1","1","1","1","1","1","1","1","1","0","0","0","1","0","1","0","0","0","1","1","0","0","0","0","5","1","1","1","2","3","4","2","1","4","1","602312870918619136","张","630","","","","","","","","","","","","","","","","","","","","","","","","","","","","","","","","","","","","","","","","","",""
"469","<p style=""color:white; font-size: 35px;"">正直</p>","e","categorize-html","119","218998","0.0-6.0-1.0-8.0-1.5","4","4","4","4","4","4","4","4","4","4","5","5","5","5","5","5","5","5","4","5","1","1","1","1","1","1","1","1","1","0","0","0","1","0","1","0","0","0","1","1","0","0","0","0","5","1","1","1","2","3","4","2","1","4","1","602312870918619136","张","630","","","","","","","","","","","","","","","","","","","true","14","4","moral","469","positive","正直","","","","","","","","","","","","","","","","",""
"null","","null","html-keyboard-response","120","219250","0.0-6.0-1.0-8.0-0.6","4","4","4","4","4","4","4","4","4","4","5","5","5","5","5","5","5","5","4","5","1","1","1","1","1","1","1","1","1","0","0","0","1","0","1","0","0","0","1","1","0","0","0","0","5","1","1","1","2","3","4","2","1","4","1","602312870918619136","张","630","","","","","","","","","","","","","","","","","","","","","","","","","","","","","","","","","","","","","","","","","",""
"499","<p style=""color:rgb(150, 250, 100); font-size: 35px;"">他人的</p>","i","categorize-html","121","219749","0.0-6.0-1.0-8.0-1.6","4","4","4","4","4","4","4","4","4","4","5","5","5","5","5","5","5","5","4","5","1","1","1","1","1","1","1","1","1","0","0","0","1","0","1","0","0","0","1","1","0","0","0","0","5","1","1","1","2","3","4","2","1","4","1","602312870918619136","张","630","","","","","","","","","","","","","","","","","","","true","14","4","moral","499","other","他人的","","","","","","","","","","","","","","","","",""
"null","","null","html-keyboard-response","122","220001","0.0-6.0-1.0-8.0-0.7","4","4","4","4","4","4","4","4","4","4","5","5","5","5","5","5","5","5","4","5","1","1","1","1","1","1","1","1","1","0","0","0","1","0","1","0","0","0","1","1","0","0","0","0","5","1","1","1","2","3","4","2","1","4","1","602312870918619136","张","630","","","","","","","","","","","","","","","","","","","","","","","","","","","","","","","","","","","","","","","","","",""
"731","<p style=""color:white; font-size: 35px;"">黑心</p>","i","categorize-html","123","220733","0.0-6.0-1.0-8.0-1.7","4","4","4","4","4","4","4","4","4","4","5","5","5","5","5","5","5","5","4","5","1","1","1","1","1","1","1","1","1","0","0","0","1","0","1","0","0","0","1","1","0","0","0","0","5","1","1","1","2","3","4","2","1","4","1","602312870918619136","张","630","","","","","","","","","","","","","","","","","","","true","14","4","moral","731","negative","黑心","","","","","","","","","","","","","","","","",""
"null","","null","html-keyboard-response","124","220984","0.0-6.0-1.0-8.0-0.8","4","4","4","4","4","4","4","4","4","4","5","5","5","5","5","5","5","5","4","5","1","1","1","1","1","1","1","1","1","0","0","0","1","0","1","0","0","0","1","1","0","0","0","0","5","1","1","1","2","3","4","2","1","4","1","602312870918619136","张","630","","","","","","","","","","","","","","","","","","","","","","","","","","","","","","","","","","","","","","","","","",""
"476","<p style=""color:rgb(150, 250, 100); font-size: 35px;"">别人的</p>","i","categorize-html","125","221461","0.0-6.0-1.0-8.0-1.8","4","4","4","4","4","4","4","4","4","4","5","5","5","5","5","5","5","5","4","5","1","1","1","1","1","1","1","1","1","0","0","0","1","0","1","0","0","0","1","1","0","0","0","0","5","1","1","1","2","3","4","2","1","4","1","602312870918619136","张","630","","","","","","","","","","","","","","","","","","","true","14","4","moral","476","other","别人的","","","","","","","","","","","","","","","","",""
"null","","null","html-keyboard-response","126","221711","0.0-6.0-1.0-8.0-0.9","4","4","4","4","4","4","4","4","4","4","5","5","5","5","5","5","5","5","4","5","1","1","1","1","1","1","1","1","1","0","0","0","1","0","1","0","0","0","1","1","0","0","0","0","5","1","1","1","2","3","4","2","1","4","1","602312870918619136","张","630","","","","","","","","","","","","","","","","","","","","","","","","","","","","","","","","","","","","","","","","","",""
"421","<p style=""color:white; font-size: 35px;"">不孝</p>","i","categorize-html","127","222133","0.0-6.0-1.0-8.0-1.9","4","4","4","4","4","4","4","4","4","4","5","5","5","5","5","5","5","5","4","5","1","1","1","1","1","1","1","1","1","0","0","0","1","0","1","0","0","0","1","1","0","0","0","0","5","1","1","1","2","3","4","2","1","4","1","602312870918619136","张","630","","","","","","","","","","","","","","","","","","","true","14","4","moral","421","negative","不孝","","","","","","","","","","","","","","","","",""
"null","","null","html-keyboard-response","128","222385","0.0-6.0-1.0-8.0-0.10","4","4","4","4","4","4","4","4","4","4","5","5","5","5","5","5","5","5","4","5","1","1","1","1","1","1","1","1","1","0","0","0","1","0","1","0","0","0","1","1","0","0","0","0","5","1","1","1","2","3","4","2","1","4","1","602312870918619136","张","630","","","","","","","","","","","","","","","","","","","","","","","","","","","","","","","","","","","","","","","","","",""
"499","<p style=""color:rgb(150, 250, 100); font-size: 35px;"">本人</p>","e","categorize-html","129","222885","0.0-6.0-1.0-8.0-1.10","4","4","4","4","4","4","4","4","4","4","5","5","5","5","5","5","5","5","4","5","1","1","1","1","1","1","1","1","1","0","0","0","1","0","1","0","0","0","1","1","0","0","0","0","5","1","1","1","2","3","4","2","1","4","1","602312870918619136","张","630","","","","","","","","","","","","","","","","","","","true","14","4","moral","499","self","本人","","","","","","","","","","","","","","","","",""
"null","","null","html-keyboard-response","130","223136","0.0-6.0-1.0-8.0-0.11","4","4","4","4","4","4","4","4","4","4","5","5","5","5","5","5","5","5","4","5","1","1","1","1","1","1","1","1","1","0","0","0","1","0","1","0","0","0","1","1","0","0","0","0","5","1","1","1","2","3","4","2","1","4","1","602312870918619136","张","630","","","","","","","","","","","","","","","","","","","","","","","","","","","","","","","","","","","","","","","","","",""
"429","<p style=""color:white; font-size: 35px;"">君子</p>","e","categorize-html","131","223565","0.0-6.0-1.0-8.0-1.11","4","4","4","4","4","4","4","4","4","4","5","5","5","5","5","5","5","5","4","5","1","1","1","1","1","1","1","1","1","0","0","0","1","0","1","0","0","0","1","1","0","0","0","0","5","1","1","1","2","3","4","2","1","4","1","602312870918619136","张","630","","","","","","","","","","","","","","","","","","","true","14","4","moral","429","positive","君子","","","","","","","","","","","","","","","","",""
"null","","null","html-keyboard-response","132","223816","0.0-6.0-1.0-8.0-0.12","4","4","4","4","4","4","4","4","4","4","5","5","5","5","5","5","5","5","4","5","1","1","1","1","1","1","1","1","1","0","0","0","1","0","1","0","0","0","1","1","0","0","0","0","5","1","1","1","2","3","4","2","1","4","1","602312870918619136","张","630","","","","","","","","","","","","","","","","","","","","","","","","","","","","","","","","","","","","","","","","","",""
"460","<p style=""color:rgb(150, 250, 100); font-size: 35px;"">他人的</p>","e","categorize-html","133","224606","0.0-6.0-1.0-8.0-1.12","4","4","4","4","4","4","4","4","4","4","5","5","5","5","5","5","5","5","4","5","1","1","1","1","1","1","1","1","1","0","0","0","1","0","1","0","0","0","1","1","0","0","0","0","5","1","1","1","2","3","4","2","1","4","1","602312870918619136","张","630","","","","","","","","","","","","","","","","","","","false","14","4","moral","1125.7906976744187","other","他人的","","","","","","","","","","","","","","","","",""
"null","","null","html-keyboard-response","134","224857","0.0-6.0-1.0-8.0-0.13","4","4","4","4","4","4","4","4","4","4","5","5","5","5","5","5","5","5","4","5","1","1","1","1","1","1","1","1","1","0","0","0","1","0","1","0","0","0","1","1","0","0","0","0","5","1","1","1","2","3","4","2","1","4","1","602312870918619136","张","630","","","","","","","","","","","","","","","","","","","","","","","","","","","","","","","","","","","","","","","","","",""
"460","<p style=""color:white; font-size: 35px;"">卑鄙</p>","i","categorize-html","135","225317","0.0-6.0-1.0-8.0-1.13","4","4","4","4","4","4","4","4","4","4","5","5","5","5","5","5","5","5","4","5","1","1","1","1","1","1","1","1","1","0","0","0","1","0","1","0","0","0","1","1","0","0","0","0","5","1","1","1","2","3","4","2","1","4","1","602312870918619136","张","630","","","","","","","","","","","","","","","","","","","true","14","4","moral","460","negative","卑鄙","","","","","","","","","","","","","","","","",""
"null","","null","html-keyboard-response","136","225568","0.0-6.0-1.0-8.0-0.14","4","4","4","4","4","4","4","4","4","4","5","5","5","5","5","5","5","5","4","5","1","1","1","1","1","1","1","1","1","0","0","0","1","0","1","0","0","0","1","1","0","0","0","0","5","1","1","1","2","3","4","2","1","4","1","602312870918619136","张","630","","","","","","","","","","","","","","","","","","","","","","","","","","","","","","","","","","","","","","","","","",""
"453","<p style=""color:rgb(150, 250, 100); font-size: 35px;"">自己</p>","e","categorize-html","137","226021","0.0-6.0-1.0-8.0-1.14","4","4","4","4","4","4","4","4","4","4","5","5","5","5","5","5","5","5","4","5","1","1","1","1","1","1","1","1","1","0","0","0","1","0","1","0","0","0","1","1","0","0","0","0","5","1","1","1","2","3","4","2","1","4","1","602312870918619136","张","630","","","","","","","","","","","","","","","","","","","true","14","4","moral","453","self","自己","","","","","","","","","","","","","","","","",""
"null","","null","html-keyboard-response","138","226273","0.0-6.0-1.0-8.0-0.15","4","4","4","4","4","4","4","4","4","4","5","5","5","5","5","5","5","5","4","5","1","1","1","1","1","1","1","1","1","0","0","0","1","0","1","0","0","0","1","1","0","0","0","0","5","1","1","1","2","3","4","2","1","4","1","602312870918619136","张","630","","","","","","","","","","","","","","","","","","","","","","","","","","","","","","","","","","","","","","","","","",""
"852","<p style=""color:white; font-size: 35px;"">君子</p>","e","categorize-html","139","227126","0.0-6.0-1.0-8.0-1.15","4","4","4","4","4","4","4","4","4","4","5","5","5","5","5","5","5","5","4","5","1","1","1","1","1","1","1","1","1","0","0","0","1","0","1","0","0","0","1","1","0","0","0","0","5","1","1","1","2","3","4","2","1","4","1","602312870918619136","张","630","","","","","","","","","","","","","","","","","","","true","14","4","moral","852","positive","君子","","","","","","","","","","","","","","","","",""
"null","","null","html-keyboard-response","140","227378","0.0-6.0-1.0-8.0-0.16","4","4","4","4","4","4","4","4","4","4","5","5","5","5","5","5","5","5","4","5","1","1","1","1","1","1","1","1","1","0","0","0","1","0","1","0","0","0","1","1","0","0","0","0","5","1","1","1","2","3","4","2","1","4","1","602312870918619136","张","630","","","","","","","","","","","","","","","","","","","","","","","","","","","","","","","","","","","","","","","","","",""
"403","<p style=""color:rgb(150, 250, 100); font-size: 35px;"">自己的</p>","e","categorize-html","141","227781","0.0-6.0-1.0-8.0-1.16","4","4","4","4","4","4","4","4","4","4","5","5","5","5","5","5","5","5","4","5","1","1","1","1","1","1","1","1","1","0","0","0","1","0","1","0","0","0","1","1","0","0","0","0","5","1","1","1","2","3","4","2","1","4","1","602312870918619136","张","630","","","","","","","","","","","","","","","","","","","true","14","4","moral","403","self","自己的","","","","","","","","","","","","","","","","",""
"null","","null","html-keyboard-response","142","228032","0.0-6.0-1.0-8.0-0.17","4","4","4","4","4","4","4","4","4","4","5","5","5","5","5","5","5","5","4","5","1","1","1","1","1","1","1","1","1","0","0","0","1","0","1","0","0","0","1","1","0","0","0","0","5","1","1","1","2","3","4","2","1","4","1","602312870918619136","张","630","","","","","","","","","","","","","","","","","","","","","","","","","","","","","","","","","","","","","","","","","",""
"557","<p style=""color:white; font-size: 35px;"">正直</p>","e","categorize-html","143","228589","0.0-6.0-1.0-8.0-1.17","4","4","4","4","4","4","4","4","4","4","5","5","5","5","5","5","5","5","4","5","1","1","1","1","1","1","1","1","1","0","0","0","1","0","1","0","0","0","1","1","0","0","0","0","5","1","1","1","2","3","4","2","1","4","1","602312870918619136","张","630","","","","","","","","","","","","","","","","","","","true","14","4","moral","557","positive","正直","","","","","","","","","","","","","","","","",""
"null","","null","html-keyboard-response","144","228840","0.0-6.0-1.0-8.0-0.18","4","4","4","4","4","4","4","4","4","4","5","5","5","5","5","5","5","5","4","5","1","1","1","1","1","1","1","1","1","0","0","0","1","0","1","0","0","0","1","1","0","0","0","0","5","1","1","1","2","3","4","2","1","4","1","602312870918619136","张","630","","","","","","","","","","","","","","","","","","","","","","","","","","","","","","","","","","","","","","","","","",""
"429","<p style=""color:rgb(150, 250, 100); font-size: 35px;"">别人的</p>","e","categorize-html","145","229725","0.0-6.0-1.0-8.0-1.18","4","4","4","4","4","4","4","4","4","4","5","5","5","5","5","5","5","5","4","5","1","1","1","1","1","1","1","1","1","0","0","0","1","0","1","0","0","0","1","1","0","0","0","0","5","1","1","1","2","3","4","2","1","4","1","602312870918619136","张","630","","","","","","","","","","","","","","","","","","","false","14","4","moral","1125.7906976744187","other","别人的","","","","","","","","","","","","","","","","",""
"null","","null","html-keyboard-response","146","229977","0.0-6.0-1.0-8.0-0.19","4","4","4","4","4","4","4","4","4","4","5","5","5","5","5","5","5","5","4","5","1","1","1","1","1","1","1","1","1","0","0","0","1","0","1","0","0","0","1","1","0","0","0","0","5","1","1","1","2","3","4","2","1","4","1","602312870918619136","张","630","","","","","","","","","","","","","","","","","","","","","","","","","","","","","","","","","","","","","","","","","",""
"532","<p style=""color:white; font-size: 35px;"">卑鄙</p>","i","categorize-html","147","230509","0.0-6.0-1.0-8.0-1.19","4","4","4","4","4","4","4","4","4","4","5","5","5","5","5","5","5","5","4","5","1","1","1","1","1","1","1","1","1","0","0","0","1","0","1","0","0","0","1","1","0","0","0","0","5","1","1","1","2","3","4","2","1","4","1","602312870918619136","张","630","","","","","","","","","","","","","","","","","","","true","14","4","moral","532","negative","卑鄙","","","","","","","","","","","","","","","","",""
"null","","null","html-keyboard-response","148","230759","0.0-6.0-1.0-8.0-0.20","4","4","4","4","4","4","4","4","4","4","5","5","5","5","5","5","5","5","4","5","1","1","1","1","1","1","1","1","1","0","0","0","1","0","1","0","0","0","1","1","0","0","0","0","5","1","1","1","2","3","4","2","1","4","1","602312870918619136","张","630","","","","","","","","","","","","","","","","","","","","","","","","","","","","","","","","","","","","","","","","","",""
"816","<p style=""color:rgb(150, 250, 100); font-size: 35px;"">他</p>","i","categorize-html","149","231576","0.0-6.0-1.0-8.0-1.20","4","4","4","4","4","4","4","4","4","4","5","5","5","5","5","5","5","5","4","5","1","1","1","1","1","1","1","1","1","0","0","0","1","0","1","0","0","0","1","1","0","0","0","0","5","1","1","1","2","3","4","2","1","4","1","602312870918619136","张","630","","","","","","","","","","","","","","","","","","","true","14","4","moral","816","other","他","","","","","","","","","","","","","","","","",""
"null","","null","html-keyboard-response","150","231827","0.0-6.0-1.0-8.0-0.21","4","4","4","4","4","4","4","4","4","4","5","5","5","5","5","5","5","5","4","5","1","1","1","1","1","1","1","1","1","0","0","0","1","0","1","0","0","0","1","1","0","0","0","0","5","1","1","1","2","3","4","2","1","4","1","602312870918619136","张","630","","","","","","","","","","","","","","","","","","","","","","","","","","","","","","","","","","","","","","","","","",""
"561","<p style=""color:white; font-size: 35px;"">廉正</p>","e","categorize-html","151","232389","0.0-6.0-1.0-8.0-1.21","4","4","4","4","4","4","4","4","4","4","5","5","5","5","5","5","5","5","4","5","1","1","1","1","1","1","1","1","1","0","0","0","1","0","1","0","0","0","1","1","0","0","0","0","5","1","1","1","2","3","4","2","1","4","1","602312870918619136","张","630","","","","","","","","","","","","","","","","","","","true","14","4","moral","561","positive","廉正","","","","","","","","","","","","","","","","",""
"null","","null","html-keyboard-response","152","232641","0.0-6.0-1.0-8.0-0.22","4","4","4","4","4","4","4","4","4","4","5","5","5","5","5","5","5","5","4","5","1","1","1","1","1","1","1","1","1","0","0","0","1","0","1","0","0","0","1","1","0","0","0","0","5","1","1","1","2","3","4","2","1","4","1","602312870918619136","张","630","","","","","","","","","","","","","","","","","","","","","","","","","","","","","","","","","","","","","","","","","",""
"571","<p style=""color:rgb(150, 250, 100); font-size: 35px;"">本人</p>","e","categorize-html","153","233213","0.0-6.0-1.0-8.0-1.22","4","4","4","4","4","4","4","4","4","4","5","5","5","5","5","5","5","5","4","5","1","1","1","1","1","1","1","1","1","0","0","0","1","0","1","0","0","0","1","1","0","0","0","0","5","1","1","1","2","3","4","2","1","4","1","602312870918619136","张","630","","","","","","","","","","","","","","","","","","","true","14","4","moral","571","self","本人","","","","","","","","","","","","","","","","",""
"null","","null","html-keyboard-response","154","233464","0.0-6.0-1.0-8.0-0.23","4","4","4","4","4","4","4","4","4","4","5","5","5","5","5","5","5","5","4","5","1","1","1","1","1","1","1","1","1","0","0","0","1","0","1","0","0","0","1","1","0","0","0","0","5","1","1","1","2","3","4","2","1","4","1","602312870918619136","张","630","","","","","","","","","","","","","","","","","","","","","","","","","","","","","","","","","","","","","","","","","",""
"508","<p style=""color:white; font-size: 35px;"">小人</p>","i","categorize-html","155","233973","0.0-6.0-1.0-8.0-1.23","4","4","4","4","4","4","4","4","4","4","5","5","5","5","5","5","5","5","4","5","1","1","1","1","1","1","1","1","1","0","0","0","1","0","1","0","0","0","1","1","0","0","0","0","5","1","1","1","2","3","4","2","1","4","1","602312870918619136","张","630","","","","","","","","","","","","","","","","","","","true","14","4","moral","508","negative","小人","","","","","","","","","","","","","","","","",""
"null","","null","html-keyboard-response","156","234225","0.0-6.0-1.0-8.0-0.24","4","4","4","4","4","4","4","4","4","4","5","5","5","5","5","5","5","5","4","5","1","1","1","1","1","1","1","1","1","0","0","0","1","0","1","0","0","0","1","1","0","0","0","0","5","1","1","1","2","3","4","2","1","4","1","602312870918619136","张","630","","","","","","","","","","","","","","","","","","","","","","","","","","","","","","","","","","","","","","","","","",""
"427","<p style=""color:rgb(150, 250, 100); font-size: 35px;"">他的</p>","i","categorize-html","157","234653","0.0-6.0-1.0-8.0-1.24","4","4","4","4","4","4","4","4","4","4","5","5","5","5","5","5","5","5","4","5","1","1","1","1","1","1","1","1","1","0","0","0","1","0","1","0","0","0","1","1","0","0","0","0","5","1","1","1","2","3","4","2","1","4","1","602312870918619136","张","630","","","","","","","","","","","","","","","","","","","true","14","4","moral","427","other","他的","","","","","","","","","","","","","","","","",""
"null","","null","html-keyboard-response","158","234904","0.0-6.0-1.0-8.0-0.25","4","4","4","4","4","4","4","4","4","4","5","5","5","5","5","5","5","5","4","5","1","1","1","1","1","1","1","1","1","0","0","0","1","0","1","0","0","0","1","1","0","0","0","0","5","1","1","1","2","3","4","2","1","4","1","602312870918619136","张","630","","","","","","","","","","","","","","","","","","","","","","","","","","","","","","","","","","","","","","","","","",""
"412","<p style=""color:white; font-size: 35px;"">不仁</p>","i","categorize-html","159","235317","0.0-6.0-1.0-8.0-1.25","4","4","4","4","4","4","4","4","4","4","5","5","5","5","5","5","5","5","4","5","1","1","1","1","1","1","1","1","1","0","0","0","1","0","1","0","0","0","1","1","0","0","0","0","5","1","1","1","2","3","4","2","1","4","1","602312870918619136","张","630","","","","","","","","","","","","","","","","","","","true","14","4","moral","412","negative","不仁","","","","","","","","","","","","","","","","",""
"null","","null","html-keyboard-response","160","235568","0.0-6.0-1.0-8.0-0.26","4","4","4","4","4","4","4","4","4","4","5","5","5","5","5","5","5","5","4","5","1","1","1","1","1","1","1","1","1","0","0","0","1","0","1","0","0","0","1","1","0","0","0","0","5","1","1","1","2","3","4","2","1","4","1","602312870918619136","张","630","","","","","","","","","","","","","","","","","","","","","","","","","","","","","","","","","","","","","","","","","",""
"476","<p style=""color:rgb(150, 250, 100); font-size: 35px;"">我</p>","e","categorize-html","161","236045","0.0-6.0-1.0-8.0-1.26","4","4","4","4","4","4","4","4","4","4","5","5","5","5","5","5","5","5","4","5","1","1","1","1","1","1","1","1","1","0","0","0","1","0","1","0","0","0","1","1","0","0","0","0","5","1","1","1","2","3","4","2","1","4","1","602312870918619136","张","630","","","","","","","","","","","","","","","","","","","true","14","4","moral","476","self","我","","","","","","","","","","","","","","","","",""
"null","","null","html-keyboard-response","162","236296","0.0-6.0-1.0-8.0-0.27","4","4","4","4","4","4","4","4","4","4","5","5","5","5","5","5","5","5","4","5","1","1","1","1","1","1","1","1","1","0","0","0","1","0","1","0","0","0","1","1","0","0","0","0","5","1","1","1","2","3","4","2","1","4","1","602312870918619136","张","630","","","","","","","","","","","","","","","","","","","","","","","","","","","","","","","","","","","","","","","","","",""
"436","<p style=""color:white; font-size: 35px;"">高尚</p>","e","categorize-html","163","236733","0.0-6.0-1.0-8.0-1.27","4","4","4","4","4","4","4","4","4","4","5","5","5","5","5","5","5","5","4","5","1","1","1","1","1","1","1","1","1","0","0","0","1","0","1","0","0","0","1","1","0","0","0","0","5","1","1","1","2","3","4","2","1","4","1","602312870918619136","张","630","","","","","","","","","","","","","","","","","","","true","14","4","moral","436","positive","高尚","","","","","","","","","","","","","","","","",""
"null","","null","html-keyboard-response","164","236984","0.0-6.0-1.0-8.0-0.28","4","4","4","4","4","4","4","4","4","4","5","5","5","5","5","5","5","5","4","5","1","1","1","1","1","1","1","1","1","0","0","0","1","0","1","0","0","0","1","1","0","0","0","0","5","1","1","1","2","3","4","2","1","4","1","602312870918619136","张","630","","","","","","","","","","","","","","","","","","","","","","","","","","","","","","","","","","","","","","","","","",""
"437","<p style=""color:rgb(150, 250, 100); font-size: 35px;"">自己</p>","e","categorize-html","165","237421","0.0-6.0-1.0-8.0-1.28","4","4","4","4","4","4","4","4","4","4","5","5","5","5","5","5","5","5","4","5","1","1","1","1","1","1","1","1","1","0","0","0","1","0","1","0","0","0","1","1","0","0","0","0","5","1","1","1","2","3","4","2","1","4","1","602312870918619136","张","630","","","","","","","","","","","","","","","","","","","true","14","4","moral","437","self","自己","","","","","","","","","","","","","","","","",""
"null","","null","html-keyboard-response","166","237672","0.0-6.0-1.0-8.0-0.29","4","4","4","4","4","4","4","4","4","4","5","5","5","5","5","5","5","5","4","5","1","1","1","1","1","1","1","1","1","0","0","0","1","0","1","0","0","0","1","1","0","0","0","0","5","1","1","1","2","3","4","2","1","4","1","602312870918619136","张","630","","","","","","","","","","","","","","","","","","","","","","","","","","","","","","","","","","","","","","","","","",""
"454","<p style=""color:white; font-size: 35px;"">缺德</p>","i","categorize-html","167","238126","0.0-6.0-1.0-8.0-1.29","4","4","4","4","4","4","4","4","4","4","5","5","5","5","5","5","5","5","4","5","1","1","1","1","1","1","1","1","1","0","0","0","1","0","1","0","0","0","1","1","0","0","0","0","5","1","1","1","2","3","4","2","1","4","1","602312870918619136","张","630","","","","","","","","","","","","","","","","","","","true","14","4","moral","454","negative","缺德","","","","","","","","","","","","","","","","",""
"null","","null","html-keyboard-response","168","238378","0.0-6.0-1.0-8.0-0.30","4","4","4","4","4","4","4","4","4","4","5","5","5","5","5","5","5","5","4","5","1","1","1","1","1","1","1","1","1","0","0","0","1","0","1","0","0","0","1","1","0","0","0","0","5","1","1","1","2","3","4","2","1","4","1","602312870918619136","张","630","","","","","","","","","","","","","","","","","","","","","","","","","","","","","","","","","","","","","","","","","",""
"530","<p style=""color:rgb(150, 250, 100); font-size: 35px;"">别人</p>","i","categorize-html","169","238909","0.0-6.0-1.0-8.0-1.30","4","4","4","4","4","4","4","4","4","4","5","5","5","5","5","5","5","5","4","5","1","1","1","1","1","1","1","1","1","0","0","0","1","0","1","0","0","0","1","1","0","0","0","0","5","1","1","1","2","3","4","2","1","4","1","602312870918619136","张","630","","","","","","","","","","","","","","","","","","","true","14","4","moral","530","other","别人","","","","","","","","","","","","","","","","",""
"null","","null","html-keyboard-response","170","239160","0.0-6.0-1.0-8.0-0.31","4","4","4","4","4","4","4","4","4","4","5","5","5","5","5","5","5","5","4","5","1","1","1","1","1","1","1","1","1","0","0","0","1","0","1","0","0","0","1","1","0","0","0","0","5","1","1","1","2","3","4","2","1","4","1","602312870918619136","张","630","","","","","","","","","","","","","","","","","","","","","","","","","","","","","","","","","","","","","","","","","",""
"444","<p style=""color:white; font-size: 35px;"">廉正</p>","i","categorize-html","171","239892","0.0-6.0-1.0-8.0-1.31","4","4","4","4","4","4","4","4","4","4","5","5","5","5","5","5","5","5","4","5","1","1","1","1","1","1","1","1","1","0","0","0","1","0","1","0","0","0","1","1","0","0","0","0","5","1","1","1","2","3","4","2","1","4","1","602312870918619136","张","630","","","","","","","","","","","","","","","","","","","false","14","4","moral","1125.7906976744187","positive","廉正","","","","","","","","","","","","","","","","",""
"null","","null","html-keyboard-response","172","240143","0.0-6.0-1.0-8.0-0.32","4","4","4","4","4","4","4","4","4","4","5","5","5","5","5","5","5","5","4","5","1","1","1","1","1","1","1","1","1","0","0","0","1","0","1","0","0","0","1","1","0","0","0","0","5","1","1","1","2","3","4","2","1","4","1","602312870918619136","张","630","","","","","","","","","","","","","","","","","","","","","","","","","","","","","","","","","","","","","","","","","",""
"582","<p style=""color:rgb(150, 250, 100); font-size: 35px;"">自己的</p>","i","categorize-html","173","241093","0.0-6.0-1.0-8.0-1.32","4","4","4","4","4","4","4","4","4","4","5","5","5","5","5","5","5","5","4","5","1","1","1","1","1","1","1","1","1","0","0","0","1","0","1","0","0","0","1","1","0","0","0","0","5","1","1","1","2","3","4","2","1","4","1","602312870918619136","张","630","","","","","","","","","","","","","","","","","","","false","14","4","moral","1125.7906976744187","self","自己的","","","","","","","","","","","","","","","","",""
"null","","null","html-keyboard-response","174","241344","0.0-6.0-1.0-8.0-0.33","4","4","4","4","4","4","4","4","4","4","5","5","5","5","5","5","5","5","4","5","1","1","1","1","1","1","1","1","1","0","0","0","1","0","1","0","0","0","1","1","0","0","0","0","5","1","1","1","2","3","4","2","1","4","1","602312870918619136","张","630","","","","","","","","","","","","","","","","","","","","","","","","","","","","","","","","","","","","","","","","","",""
"580","<p style=""color:white; font-size: 35px;"">诚信</p>","i","categorize-html","175","242253","0.0-6.0-1.0-8.0-1.33","4","4","4","4","4","4","4","4","4","4","5","5","5","5","5","5","5","5","4","5","1","1","1","1","1","1","1","1","1","0","0","0","1","0","1","0","0","0","1","1","0","0","0","0","5","1","1","1","2","3","4","2","1","4","1","602312870918619136","张","630","","","","","","","","","","","","","","","","","","","false","14","4","moral","1125.7906976744187","positive","诚信","","","","","","","","","","","","","","","","",""
"null","","null","html-keyboard-response","176","242504","0.0-6.0-1.0-8.0-0.34","4","4","4","4","4","4","4","4","4","4","5","5","5","5","5","5","5","5","4","5","1","1","1","1","1","1","1","1","1","0","0","0","1","0","1","0","0","0","1","1","0","0","0","0","5","1","1","1","2","3","4","2","1","4","1","602312870918619136","张","630","","","","","","","","","","","","","","","","","","","","","","","","","","","","","","","","","","","","","","","","","",""
"508","<p style=""color:rgb(150, 250, 100); font-size: 35px;"">他人</p>","i","categorize-html","177","243013","0.0-6.0-1.0-8.0-1.34","4","4","4","4","4","4","4","4","4","4","5","5","5","5","5","5","5","5","4","5","1","1","1","1","1","1","1","1","1","0","0","0","1","0","1","0","0","0","1","1","0","0","0","0","5","1","1","1","2","3","4","2","1","4","1","602312870918619136","张","630","","","","","","","","","","","","","","","","","","","true","14","4","moral","508","other","他人","","","","","","","","","","","","","","","","",""
"null","","null","html-keyboard-response","178","243264","0.0-6.0-1.0-8.0-0.35","4","4","4","4","4","4","4","4","4","4","5","5","5","5","5","5","5","5","4","5","1","1","1","1","1","1","1","1","1","0","0","0","1","0","1","0","0","0","1","1","0","0","0","0","5","1","1","1","2","3","4","2","1","4","1","602312870918619136","张","630","","","","","","","","","","","","","","","","","","","","","","","","","","","","","","","","","","","","","","","","","",""
"396","<p style=""color:white; font-size: 35px;"">小人</p>","i","categorize-html","179","243661","0.0-6.0-1.0-8.0-1.35","4","4","4","4","4","4","4","4","4","4","5","5","5","5","5","5","5","5","4","5","1","1","1","1","1","1","1","1","1","0","0","0","1","0","1","0","0","0","1","1","0","0","0","0","5","1","1","1","2","3","4","2","1","4","1","602312870918619136","张","630","","","","","","","","","","","","","","","","","","","true","14","4","moral","396","negative","小人","","","","","","","","","","","","","","","","",""
"null","","null","html-keyboard-response","180","243911","0.0-6.0-1.0-8.0-0.36","4","4","4","4","4","4","4","4","4","4","5","5","5","5","5","5","5","5","4","5","1","1","1","1","1","1","1","1","1","0","0","0","1","0","1","0","0","0","1","1","0","0","0","0","5","1","1","1","2","3","4","2","1","4","1","602312870918619136","张","630","","","","","","","","","","","","","","","","","","","","","","","","","","","","","","","","","","","","","","","","","",""
"541","<p style=""color:rgb(150, 250, 100); font-size: 35px;"">我的</p>","e","categorize-html","181","244453","0.0-6.0-1.0-8.0-1.36","4","4","4","4","4","4","4","4","4","4","5","5","5","5","5","5","5","5","4","5","1","1","1","1","1","1","1","1","1","0","0","0","1","0","1","0","0","0","1","1","0","0","0","0","5","1","1","1","2","3","4","2","1","4","1","602312870918619136","张","630","","","","","","","","","","","","","","","","","","","true","14","4","moral","541","self","我的","","","","","","","","","","","","","","","","",""
"null","","null","html-keyboard-response","182","244705","0.0-6.0-1.0-8.0-0.37","4","4","4","4","4","4","4","4","4","4","5","5","5","5","5","5","5","5","4","5","1","1","1","1","1","1","1","1","1","0","0","0","1","0","1","0","0","0","1","1","0","0","0","0","5","1","1","1","2","3","4","2","1","4","1","602312870918619136","张","630","","","","","","","","","","","","","","","","","","","","","","","","","","","","","","","","","","","","","","","","","",""
"403","<p style=""color:white; font-size: 35px;"">高尚</p>","e","categorize-html","183","245109","0.0-6.0-1.0-8.0-1.37","4","4","4","4","4","4","4","4","4","4","5","5","5","5","5","5","5","5","4","5","1","1","1","1","1","1","1","1","1","0","0","0","1","0","1","0","0","0","1","1","0","0","0","0","5","1","1","1","2","3","4","2","1","4","1","602312870918619136","张","630","","","","","","","","","","","","","","","","","","","true","14","4","moral","403","positive","高尚","","","","","","","","","","","","","","","","",""
"null","","null","html-keyboard-response","184","245360","0.0-6.0-1.0-8.0-0.38","4","4","4","4","4","4","4","4","4","4","5","5","5","5","5","5","5","5","4","5","1","1","1","1","1","1","1","1","1","0","0","0","1","0","1","0","0","0","1","1","0","0","0","0","5","1","1","1","2","3","4","2","1","4","1","602312870918619136","张","630","","","","","","","","","","","","","","","","","","","","","","","","","","","","","","","","","","","","","","","","","",""
"725","<p style=""color:rgb(150, 250, 100); font-size: 35px;"">他人</p>","i","categorize-html","185","246085","0.0-6.0-1.0-8.0-1.38","4","4","4","4","4","4","4","4","4","4","5","5","5","5","5","5","5","5","4","5","1","1","1","1","1","1","1","1","1","0","0","0","1","0","1","0","0","0","1","1","0","0","0","0","5","1","1","1","2","3","4","2","1","4","1","602312870918619136","张","630","","","","","","","","","","","","","","","","","","","true","14","4","moral","725","other","他人","","","","","","","","","","","","","","","","",""
"null","","null","html-keyboard-response","186","246337","0.0-6.0-1.0-8.0-0.39","4","4","4","4","4","4","4","4","4","4","5","5","5","5","5","5","5","5","4","5","1","1","1","1","1","1","1","1","1","0","0","0","1","0","1","0","0","0","1","1","0","0","0","0","5","1","1","1","2","3","4","2","1","4","1","602312870918619136","张","630","","","","","","","","","","","","","","","","","","","","","","","","","","","","","","","","","","","","","","","","","",""
"435","<p style=""color:white; font-size: 35px;"">缺德</p>","i","categorize-html","187","246773","0.0-6.0-1.0-8.0-1.39","4","4","4","4","4","4","4","4","4","4","5","5","5","5","5","5","5","5","4","5","1","1","1","1","1","1","1","1","1","0","0","0","1","0","1","0","0","0","1","1","0","0","0","0","5","1","1","1","2","3","4","2","1","4","1","602312870918619136","张","630","","","","","","","","","","","","","","","","","","","true","14","4","moral","435","negative","缺德","","","","","","","","","","","","","","","","",""
"null","","null","html-keyboard-response","188","247024","0.0-6.0-1.0-8.0-0.40","4","4","4","4","4","4","4","4","4","4","5","5","5","5","5","5","5","5","4","5","1","1","1","1","1","1","1","1","1","0","0","0","1","0","1","0","0","0","1","1","0","0","0","0","5","1","1","1","2","3","4","2","1","4","1","602312870918619136","张","630","","","","","","","","","","","","","","","","","","","","","","","","","","","","","","","","","","","","","","","","","",""
"524","<p style=""color:rgb(150, 250, 100); font-size: 35px;"">他的</p>","i","categorize-html","189","247549","0.0-6.0-1.0-8.0-1.40","4","4","4","4","4","4","4","4","4","4","5","5","5","5","5","5","5","5","4","5","1","1","1","1","1","1","1","1","1","0","0","0","1","0","1","0","0","0","1","1","0","0","0","0","5","1","1","1","2","3","4","2","1","4","1","602312870918619136","张","630","","","","","","","","","","","","","","","","","","","true","14","4","moral","524","other","他的","","","","","","","","","","","","","","","","",""
"null","","null","html-keyboard-response","190","247800","0.0-6.0-1.0-8.0-0.41","4","4","4","4","4","4","4","4","4","4","5","5","5","5","5","5","5","5","4","5","1","1","1","1","1","1","1","1","1","0","0","0","1","0","1","0","0","0","1","1","0","0","0","0","5","1","1","1","2","3","4","2","1","4","1","602312870918619136","张","630","","","","","","","","","","","","","","","","","","","","","","","","","","","","","","","","","","","","","","","","","",""
"540","<p style=""color:white; font-size: 35px;"">善良</p>","e","categorize-html","191","248341","0.0-6.0-1.0-8.0-1.41","4","4","4","4","4","4","4","4","4","4","5","5","5","5","5","5","5","5","4","5","1","1","1","1","1","1","1","1","1","0","0","0","1","0","1","0","0","0","1","1","0","0","0","0","5","1","1","1","2","3","4","2","1","4","1","602312870918619136","张","630","","","","","","","","","","","","","","","","","","","true","14","4","moral","540","positive","善良","","","","","","","","","","","","","","","","",""
"null","","null","html-keyboard-response","192","248592","0.0-6.0-1.0-8.0-0.42","4","4","4","4","4","4","4","4","4","4","5","5","5","5","5","5","5","5","4","5","1","1","1","1","1","1","1","1","1","0","0","0","1","0","1","0","0","0","1","1","0","0","0","0","5","1","1","1","2","3","4","2","1","4","1","602312870918619136","张","630","","","","","","","","","","","","","","","","","","","","","","","","","","","","","","","","","","","","","","","","","",""
"444","<p style=""color:rgb(150, 250, 100); font-size: 35px;"">本人的</p>","e","categorize-html","193","249037","0.0-6.0-1.0-8.0-1.42","4","4","4","4","4","4","4","4","4","4","5","5","5","5","5","5","5","5","4","5","1","1","1","1","1","1","1","1","1","0","0","0","1","0","1","0","0","0","1","1","0","0","0","0","5","1","1","1","2","3","4","2","1","4","1","602312870918619136","张","630","","","","","","","","","","","","","","","","","","","true","14","4","moral","444","self","本人的","","","","","","","","","","","","","","","","",""
