"rt","stimulus","response","trial_type","trial_index","time_elapsed","internal_node_id","ses_1","ses_2","ses_3","ses_4","ses_5","ses_6","ses_7","ses_8","ses_9","ses_10","coreself_1","coreself_2","coreself_3","coreself_4","coreself_5","coreself_6","coreself_7","coreself_8","coreself_9","coreself_10","SGPS_1","SGPS_2","SGPS_3","SGPS_4","SGPS_5","SGPS_6","SGPS_7","SGPS_8","SGPS_9","NPI1","NPI2","NPI3","NPI4","NPI5","NPI6","NPI7","NPI8","NPI9","NPI10","NPI11","NPI12","NPI13","NPI14","NPI15","hsns_1","hsns_2","hsns_3","hsns_4","hsns_5","trap1","hsns_6","hsns_7","hsns_8","hsns_9","hsns_10","subj_idx","friend_name","ParticipantID","value","success","user_agent","responses","item_order","radio_event_ids","radio_event_times","key_event_times","mouse_event_times","straightlining","zigzagging","honeypot","timeout","failed_images","failed_audio","failed_video","view_history","response_type","key_press","avg_frame_time","center_x","center_y","correct_response","correct","identity","Image","word","condition","task_id","screen_id","time_stamp","version_attrib2","version_target2","IAT","RT","varname","summary","version_attrib","version_target","question_order","correct_answer","trap1_item"
"36387","
   <p><div style = ""color: white;font-size:25px;"">您好，欢迎参加本次实验。</div> </p>
   <p><div style = ""color: white;font-size:25px;"">为充分保障您的权利，请确保您已经知晓并同意《参与实验同意书》以及《数据公开知情同意书》。</div></p>
   <p><div style = ""color: white;font-size:25px;"">如果您未见过上述内容，请咨询实验员。</div></p>
   <p><div style = ""color: white;font-size:25px;"">如果您选择继续实验，则表示您已经清楚两份知情同意书的内容并同意。</div></p>
   <p><div style = ""color: pink;font-size:30px;"">请确保您记得day0的实验编号，您将在本次实验输入该编号，若您忘记，请咨询实验员后作答。</div></p>
   <p><div style = ""color: lightblue;font-size:25px;"">请您尽可能认真地作答，我们将依据您在各问卷和按键任务中的作答质量发放报酬。</div></p>
   <p> <div style = ""color: green;font-size:25px;""><按空格键至下页></div> </p>
   "," ","html-keyboard-response","0","36393","0.0-0.0","4","4","4","4","3","4","4","3","4","4","5","4","3","4","4","5","4","4","5","5","2","3","2","2","3","2","2","2","1","0","1","0","0","1","1","0","0","0","0","1","0","0","1","0","5","2","4","2","4","4","4","4","3","4","4","773271155669995521","陈","176","","","","","","","","","","","","","","","","","","","","","","","","","","","","","","","","","","","","","","","","","",""
"","","","call-function","1","36395","0.0-1.0-0.0","4","4","4","4","3","4","4","3","4","4","5","4","3","4","4","5","4","4","5","5","2","3","2","2","3","2","2","2","1","0","1","0","0","1","1","0","0","0","0","1","0","0","1","0","5","2","4","2","4","4","4","4","3","4","4","773271155669995521","陈","176","","","","","","","","","","","","","","","","","","","","","","","","","","","","","","","","","","","","","","","","","",""
"17483","","{""friend_name"":""陈"",""ParticipantID"":""176""}","survey-html-form","2","53878","0.0-1.0-1.0","4","4","4","4","3","4","4","3","4","4","5","4","3","4","4","5","4","4","5","5","2","3","2","2","3","2","2","2","1","0","1","0","0","1","1","0","0","0","0","1","0","0","1","0","5","2","4","2","4","4","4","4","3","4","4","773271155669995521","陈","176","","","","","","","","","","","","","","","","","","","","","","","","","","","","","","","","","","","","","","","","","",""
"","","","fullscreen","3","78797","0.0-2.0","4","4","4","4","3","4","4","3","4","4","5","4","3","4","4","5","4","4","5","5","2","3","2","2","3","2","2","2","1","0","1","0","0","1","1","0","0","0","0","1","0","0","1","0","5","2","4","2","4","4","4","4","3","4","4","773271155669995521","陈","176","","true","{}","","","","","","","","","","","","","","","","","","","","","","","","","","","","","","","","","","","","","","",""
"33468","","{""Q01"":""4"",""Q02"":""4"",""Q03"":""4"",""Q04"":""4"",""Q05"":""3"",""Q06"":""4"",""Q07"":""4"",""Q08"":""3"",""Q09"":""4"",""Q10"":""4""}","survey-template","4","112269","0.0-3.0","4","4","4","4","3","4","4","3","4","4","5","4","3","4","4","5","4","4","5","5","2","3","2","2","3","2","2","2","1","0","1","0","0","1","1","0","0","0","0","1","0","0","1","0","5","2","4","2","4","4","4","4","3","4","4","773271155669995521","陈","176","","","","{""Q01"":""4"",""Q02"":""4"",""Q03"":""4"",""Q04"":""4"",""Q05"":""3"",""Q06"":""4"",""Q07"":""4"",""Q08"":""3"",""Q09"":""4"",""Q10"":""4""}","[0,1,2,3,4,5,6,7,8,9]","[""Q01"",""Q02"",""Q03"",""Q04"",""Q05"",""Q06"",""Q07"",""Q08"",""Q09"",""Q10""]","[8134,9355.799999952316,11116.700000047684,12795.700000047684,15123.799999952316,16860.900000095367,18121.5,22058.900000095367,24027.700000047684,25075.599999904633]","[]","[8134,9355.799999952316,11116.700000047684,12795.700000047684,15123.799999952316,16860.900000095367,18121.5,21529.700000047684,22058.900000095367,24027.700000047684,25075.599999904633,33466]","0.5","0.3333333333333333","0","","","","","","","","","","","","","","","","","","","","","","","","","","","","","",""
"38227.59999990463","","{""Q01"":""5"",""Q02"":""4"",""Q03"":""3"",""Q04"":""4"",""Q05"":""4"",""Q06"":""5"",""Q07"":""4"",""Q08"":""4"",""Q09"":""5"",""Q10"":""5""}","survey-template","5","150507","0.0-4.0","4","4","4","4","3","4","4","3","4","4","5","4","3","4","4","5","4","4","5","5","2","3","2","2","3","2","2","2","1","0","1","0","0","1","1","0","0","0","0","1","0","0","1","0","5","2","4","2","4","4","4","4","3","4","4","773271155669995521","陈","176","","","","{""Q01"":""5"",""Q02"":""4"",""Q03"":""3"",""Q04"":""4"",""Q05"":""4"",""Q06"":""5"",""Q07"":""4"",""Q08"":""4"",""Q09"":""5"",""Q10"":""5""}","[0,1,2,3,4,5,6,7,8,9]","[""Q01"",""Q02"",""Q03"",""Q04"",""Q05"",""Q06"",""Q07"",""Q08"",""Q09"",""Q10""]","[4426.299999952316,6017.200000047684,14591,17423.900000095367,21381.200000047684,23085.200000047684,24617.299999952316,28115.200000047684,30083.400000095367,32382.900000095367]","[]","[4426.299999952316,6017.200000047684,14591,17423.900000095367,21381.200000047684,23085.200000047684,24617.299999952316,28115.200000047684,30083.400000095367,31779.400000095367,32382.900000095367,38225.5]","0.4","0.3333333333333333","0","","","","","","","","","","","","","","","","","","","","","","","","","","","","","",""
"","","","preload","6","150827","0.0-5.0","4","4","4","4","3","4","4","3","4","4","5","4","3","4","4","5","4","4","5","5","2","3","2","2","3","2","2","2","1","0","1","0","0","1","1","0","0","0","0","1","0","0","1","0","5","2","4","2","4","4","4","4","3","4","4","773271155669995521","陈","176","","true","","","","","","","","","","","false","[]","[]","[]","","","","","","","","","","","","","","","","","","","","","","","","","",""
"32087","","","instructions","7","182915","0.0-6.0","4","4","4","4","3","4","4","3","4","4","5","4","3","4","4","5","4","4","5","5","2","3","2","2","3","2","2","2","1","0","1","0","0","1","1","0","0","0","0","1","0","0","1","0","5","2","4","2","4","4","4","4","3","4","4","773271155669995521","陈","176","","","","","","","","","","","","","","","","","[{""page_index"":0,""viewing_time"":32087}]","","","","","","","","","","","","","","","","","","","","","","","","",""
"50087","","","instructions","8","233004","0.0-7.0-1.0-0.0","4","4","4","4","3","4","4","3","4","4","5","4","3","4","4","5","4","4","5","5","2","3","2","2","3","2","2","2","1","0","1","0","0","1","1","0","0","0","0","1","0","0","1","0","5","2","4","2","4","4","4","4","3","4","4","773271155669995521","陈","176","","","","","","","","","","","","","","","","","[{""page_index"":0,""viewing_time"":35810},{""page_index"":1,""viewing_time"":11645},{""page_index"":2,""viewing_time"":2632}]","","","","","","","","","","","","","","","","","","","","","","","","",""
"944","","j","psychophysics","9","234961","0.0-7.0-1.0-1.0-0.0-0.0","4","4","4","4","3","4","4","3","4","4","5","4","3","4","4","5","4","4","5","5","2","3","2","2","3","2","2","2","1","0","1","0","0","1","1","0","0","0","0","1","0","0","1","0","5","2","4","2","4","4","4","4","3","4","4","773271155669995521","陈","176","","","","nonmatch","","","","","","","","","","","","","","key","j","16.650862068965516","768","428","j","true","nonmatch","img/square.png","五边","方形","ALT1_2","prac_ALT1_2","","","","","","","","","","","",""
"null","<span style='color:GreenYellow; font-size: 70px;'>正确! </span>","null","html-keyboard-response","10","235464","0.0-7.0-1.0-1.0-0.0-1.0","4","4","4","4","3","4","4","3","4","4","5","4","3","4","4","5","4","4","5","5","2","3","2","2","3","2","2","2","1","0","1","0","0","1","1","0","0","0","0","1","0","0","1","0","5","2","4","2","4","4","4","4","3","4","4","773271155669995521","陈","176","","","","","","","","","","","","","","","","","","","","","","","","","","","","","","feedback_test","","","","","","","","","","","",""
"749","","j","psychophysics","11","237217","0.0-7.0-1.0-1.0-0.0-0.1","4","4","4","4","3","4","4","3","4","4","5","4","3","4","4","5","4","4","5","5","2","3","2","2","3","2","2","2","1","0","1","0","0","1","1","0","0","0","0","1","0","0","1","0","5","2","4","2","4","4","4","4","3","4","4","773271155669995521","陈","176","","","","nonmatch","","","","","","","","","","","","","","key","j","16.537500000000225","768","428","j","true","nonmatch","img/ellipse.png","方形","椭圆","ALT1_2","prac_ALT1_2","","","","","","","","","","","",""
"null","<span style='color:GreenYellow; font-size: 70px;'>正确! </span>","null","html-keyboard-response","12","237719","0.0-7.0-1.0-1.0-0.0-1.1","4","4","4","4","3","4","4","3","4","4","5","4","3","4","4","5","4","4","5","5","2","3","2","2","3","2","2","2","1","0","1","0","0","1","1","0","0","0","0","1","0","0","1","0","5","2","4","2","4","4","4","4","3","4","4","773271155669995521","陈","176","","","","","","","","","","","","","","","","","","","","","","","","","","","","","","feedback_test","","","","","","","","","","","",""
"698","","j","psychophysics","13","239421","0.0-7.0-1.0-1.0-0.0-0.2","4","4","4","4","3","4","4","3","4","4","5","4","3","4","4","5","4","4","5","5","2","3","2","2","3","2","2","2","1","0","1","0","0","1","1","0","0","0","0","1","0","0","1","0","5","2","4","2","4","4","4","4","3","4","4","773271155669995521","陈","176","","","","nonmatch","","","","","","","","","","","","","","key","j","16.662376237623704","768","428","j","true","nonmatch","img/ellipse.png","五边","椭圆","ALT1_2","prac_ALT1_2","","","","","","","","","","","",""
"null","<span style='color:GreenYellow; font-size: 70px;'>正确! </span>","null","html-keyboard-response","14","239925","0.0-7.0-1.0-1.0-0.0-1.2","4","4","4","4","3","4","4","3","4","4","5","4","3","4","4","5","4","4","5","5","2","3","2","2","3","2","2","2","1","0","1","0","0","1","1","0","0","0","0","1","0","0","1","0","5","2","4","2","4","4","4","4","3","4","4","773271155669995521","陈","176","","","","","","","","","","","","","","","","","","","","","","","","","","","","","","feedback_test","","","","","","","","","","","",""
"719","","f","psychophysics","15","241646","0.0-7.0-1.0-1.0-0.0-0.3","4","4","4","4","3","4","4","3","4","4","5","4","3","4","4","5","4","4","5","5","2","3","2","2","3","2","2","2","1","0","1","0","0","1","1","0","0","0","0","1","0","0","1","0","5","2","4","2","4","4","4","4","3","4","4","773271155669995521","陈","176","","","","match","","","","","","","","","","","","","","key","f","16.65436893203878","768","428","f","true","match","img/triangle.png","三角","三角","ALT1_2","prac_ALT1_2","","","","","","","","","","","",""
"null","<span style='color:GreenYellow; font-size: 70px;'>正确! </span>","null","html-keyboard-response","16","242150","0.0-7.0-1.0-1.0-0.0-1.3","4","4","4","4","3","4","4","3","4","4","5","4","3","4","4","5","4","4","5","5","2","3","2","2","3","2","2","2","1","0","1","0","0","1","1","0","0","0","0","1","0","0","1","0","5","2","4","2","4","4","4","4","3","4","4","773271155669995521","陈","176","","","","","","","","","","","","","","","","","","","","","","","","","","","","","","feedback_test","","","","","","","","","","","",""
"875","","f","psychophysics","17","244029","0.0-7.0-1.0-1.0-0.0-0.4","4","4","4","4","3","4","4","3","4","4","5","4","3","4","4","5","4","4","5","5","2","3","2","2","3","2","2","2","1","0","1","0","0","1","1","0","0","0","0","1","0","0","1","0","5","2","4","2","4","4","4","4","3","4","4","773271155669995521","陈","176","","","","match","","","","","","","","","","","","","","key","f","16.669369369369264","768","428","f","true","match","img/pentagon.png","五边","五边","ALT1_2","prac_ALT1_2","","","","","","","","","","","",""
"null","<span style='color:GreenYellow; font-size: 70px;'>正确! </span>","null","html-keyboard-response","18","244532","0.0-7.0-1.0-1.0-0.0-1.4","4","4","4","4","3","4","4","3","4","4","5","4","3","4","4","5","4","4","5","5","2","3","2","2","3","2","2","2","1","0","1","0","0","1","1","0","0","0","0","1","0","0","1","0","5","2","4","2","4","4","4","4","3","4","4","773271155669995521","陈","176","","","","","","","","","","","","","","","","","","","","","","","","","","","","","","feedback_test","","","","","","","","","","","",""
"924","","j","psychophysics","19","246460","0.0-7.0-1.0-1.0-0.0-0.5","4","4","4","4","3","4","4","3","4","4","5","4","3","4","4","5","4","4","5","5","2","3","2","2","3","2","2","2","1","0","1","0","0","1","1","0","0","0","0","1","0","0","1","0","5","2","4","2","4","4","4","4","3","4","4","773271155669995521","陈","176","","","","nonmatch","","","","","","","","","","","","","","key","j","16.658260869565318","768","428","j","true","nonmatch","img/triangle.png","方形","三角","ALT1_2","prac_ALT1_2","","","","","","","","","","","",""
"null","<span style='color:GreenYellow; font-size: 70px;'>正确! </span>","null","html-keyboard-response","20","246961","0.0-7.0-1.0-1.0-0.0-1.5","4","4","4","4","3","4","4","3","4","4","5","4","3","4","4","5","4","4","5","5","2","3","2","2","3","2","2","2","1","0","1","0","0","1","1","0","0","0","0","1","0","0","1","0","5","2","4","2","4","4","4","4","3","4","4","773271155669995521","陈","176","","","","","","","","","","","","","","","","","","","","","","","","","","","","","","feedback_test","","","","","","","","","","","",""
"935","","f","psychophysics","21","248900","0.0-7.0-1.0-1.0-0.0-0.6","4","4","4","4","3","4","4","3","4","4","5","4","3","4","4","5","4","4","5","5","2","3","2","2","3","2","2","2","1","0","1","0","0","1","1","0","0","0","0","1","0","0","1","0","5","2","4","2","4","4","4","4","3","4","4","773271155669995521","陈","176","","","","match","","","","","","","","","","","","","","key","f","16.625217391304297","768","428","f","true","match","img/pentagon.png","五边","五边","ALT1_2","prac_ALT1_2","","","","","","","","","","","",""
"null","<span style='color:GreenYellow; font-size: 70px;'>正确! </span>","null","html-keyboard-response","22","249403","0.0-7.0-1.0-1.0-0.0-1.6","4","4","4","4","3","4","4","3","4","4","5","4","3","4","4","5","4","4","5","5","2","3","2","2","3","2","2","2","1","0","1","0","0","1","1","0","0","0","0","1","0","0","1","0","5","2","4","2","4","4","4","4","3","4","4","773271155669995521","陈","176","","","","","","","","","","","","","","","","","","","","","","","","","","","","","","feedback_test","","","","","","","","","","","",""
"846","","j","psychophysics","23","251252","0.0-7.0-1.0-1.0-0.0-0.7","4","4","4","4","3","4","4","3","4","4","5","4","3","4","4","5","4","4","5","5","2","3","2","2","3","2","2","2","1","0","1","0","0","1","1","0","0","0","0","1","0","0","1","0","5","2","4","2","4","4","4","4","3","4","4","773271155669995521","陈","176","","","","nonmatch","","","","","","","","","","","","","","key","j","16.67155963302763","768","428","j","true","nonmatch","img/triangle.png","椭圆","三角","ALT1_2","prac_ALT1_2","","","","","","","","","","","",""
"null","<span style='color:GreenYellow; font-size: 70px;'>正确! </span>","null","html-keyboard-response","24","251756","0.0-7.0-1.0-1.0-0.0-1.7","4","4","4","4","3","4","4","3","4","4","5","4","3","4","4","5","4","4","5","5","2","3","2","2","3","2","2","2","1","0","1","0","0","1","1","0","0","0","0","1","0","0","1","0","5","2","4","2","4","4","4","4","3","4","4","773271155669995521","陈","176","","","","","","","","","","","","","","","","","","","","","","","","","","","","","","feedback_test","","","","","","","","","","","",""
"761","","f","psychophysics","25","253520","0.0-7.0-1.0-1.0-0.0-0.8","4","4","4","4","3","4","4","3","4","4","5","4","3","4","4","5","4","4","5","5","2","3","2","2","3","2","2","2","1","0","1","0","0","1","1","0","0","0","0","1","0","0","1","0","5","2","4","2","4","4","4","4","3","4","4","773271155669995521","陈","176","","","","match","","","","","","","","","","","","","","key","f","16.660576923077034","768","428","f","true","match","img/square.png","方形","方形","ALT1_2","prac_ALT1_2","","","","","","","","","","","",""
"null","<span style='color:GreenYellow; font-size: 70px;'>正确! </span>","null","html-keyboard-response","26","254021","0.0-7.0-1.0-1.0-0.0-1.8","4","4","4","4","3","4","4","3","4","4","5","4","3","4","4","5","4","4","5","5","2","3","2","2","3","2","2","2","1","0","1","0","0","1","1","0","0","0","0","1","0","0","1","0","5","2","4","2","4","4","4","4","3","4","4","773271155669995521","陈","176","","","","","","","","","","","","","","","","","","","","","","","","","","","","","","feedback_test","","","","","","","","","","","",""
"834","","j","psychophysics","27","255859","0.0-7.0-1.0-1.0-0.0-0.9","4","4","4","4","3","4","4","3","4","4","5","4","3","4","4","5","4","4","5","5","2","3","2","2","3","2","2","2","1","0","1","0","0","1","1","0","0","0","0","1","0","0","1","0","5","2","4","2","4","4","4","4","3","4","4","773271155669995521","陈","176","","","","nonmatch","","","","","","","","","","","","","","key","j","16.660550458715598","768","428","j","true","nonmatch","img/pentagon.png","椭圆","五边","ALT1_2","prac_ALT1_2","","","","","","","","","","","",""
"null","<span style='color:GreenYellow; font-size: 70px;'>正确! </span>","null","html-keyboard-response","28","256362","0.0-7.0-1.0-1.0-0.0-1.9","4","4","4","4","3","4","4","3","4","4","5","4","3","4","4","5","4","4","5","5","2","3","2","2","3","2","2","2","1","0","1","0","0","1","1","0","0","0","0","1","0","0","1","0","5","2","4","2","4","4","4","4","3","4","4","773271155669995521","陈","176","","","","","","","","","","","","","","","","","","","","","","","","","","","","","","feedback_test","","","","","","","","","","","",""
"788","","j","psychophysics","29","258155","0.0-7.0-1.0-1.0-0.0-0.10","4","4","4","4","3","4","4","3","4","4","5","4","3","4","4","5","4","4","5","5","2","3","2","2","3","2","2","2","1","0","1","0","0","1","1","0","0","0","0","1","0","0","1","0","5","2","4","2","4","4","4","4","3","4","4","773271155669995521","陈","176","","","","nonmatch","","","","","","","","","","","","","","key","j","16.661320754717035","768","428","j","true","nonmatch","img/square.png","三角","方形","ALT1_2","prac_ALT1_2","","","","","","","","","","","",""
"null","<span style='color:GreenYellow; font-size: 70px;'>正确! </span>","null","html-keyboard-response","30","258658","0.0-7.0-1.0-1.0-0.0-1.10","4","4","4","4","3","4","4","3","4","4","5","4","3","4","4","5","4","4","5","5","2","3","2","2","3","2","2","2","1","0","1","0","0","1","1","0","0","0","0","1","0","0","1","0","5","2","4","2","4","4","4","4","3","4","4","773271155669995521","陈","176","","","","","","","","","","","","","","","","","","","","","","","","","","","","","","feedback_test","","","","","","","","","","","",""
"703","","j","psychophysics","31","260365","0.0-7.0-1.0-1.0-0.0-0.11","4","4","4","4","3","4","4","3","4","4","5","4","3","4","4","5","4","4","5","5","2","3","2","2","3","2","2","2","1","0","1","0","0","1","1","0","0","0","0","1","0","0","1","0","5","2","4","2","4","4","4","4","3","4","4","773271155669995521","陈","176","","","","nonmatch","","","","","","","","","","","","","","key","j","16.66237623762399","768","428","j","true","nonmatch","img/triangle.png","五边","三角","ALT1_2","prac_ALT1_2","","","","","","","","","","","",""
"null","<span style='color:GreenYellow; font-size: 70px;'>正确! </span>","null","html-keyboard-response","32","260868","0.0-7.0-1.0-1.0-0.0-1.11","4","4","4","4","3","4","4","3","4","4","5","4","3","4","4","5","4","4","5","5","2","3","2","2","3","2","2","2","1","0","1","0","0","1","1","0","0","0","0","1","0","0","1","0","5","2","4","2","4","4","4","4","3","4","4","773271155669995521","陈","176","","","","","","","","","","","","","","","","","","","","","","","","","","","","","","feedback_test","","","","","","","","","","","",""
"738","","f","psychophysics","33","262610","0.0-7.0-1.0-1.0-0.0-0.12","4","4","4","4","3","4","4","3","4","4","5","4","3","4","4","5","4","4","5","5","2","3","2","2","3","2","2","2","1","0","1","0","0","1","1","0","0","0","0","1","0","0","1","0","5","2","4","2","4","4","4","4","3","4","4","773271155669995521","陈","176","","","","match","","","","","","","","","","","","","","key","f","16.6592233009711","768","428","f","true","match","img/triangle.png","三角","三角","ALT1_2","prac_ALT1_2","","","","","","","","","","","",""
"null","<span style='color:GreenYellow; font-size: 70px;'>正确! </span>","null","html-keyboard-response","34","263111","0.0-7.0-1.0-1.0-0.0-1.12","4","4","4","4","3","4","4","3","4","4","5","4","3","4","4","5","4","4","5","5","2","3","2","2","3","2","2","2","1","0","1","0","0","1","1","0","0","0","0","1","0","0","1","0","5","2","4","2","4","4","4","4","3","4","4","773271155669995521","陈","176","","","","","","","","","","","","","","","","","","","","","","","","","","","","","","feedback_test","","","","","","","","","","","",""
"849","","f","psychophysics","35","264965","0.0-7.0-1.0-1.0-0.0-0.13","4","4","4","4","3","4","4","3","4","4","5","4","3","4","4","5","4","4","5","5","2","3","2","2","3","2","2","2","1","0","1","0","0","1","1","0","0","0","0","1","0","0","1","0","5","2","4","2","4","4","4","4","3","4","4","773271155669995521","陈","176","","","","match","","","","","","","","","","","","","","key","f","16.661818181818077","768","428","f","true","match","img/ellipse.png","椭圆","椭圆","ALT1_2","prac_ALT1_2","","","","","","","","","","","",""
"null","<span style='color:GreenYellow; font-size: 70px;'>正确! </span>","null","html-keyboard-response","36","265469","0.0-7.0-1.0-1.0-0.0-1.13","4","4","4","4","3","4","4","3","4","4","5","4","3","4","4","5","4","4","5","5","2","3","2","2","3","2","2","2","1","0","1","0","0","1","1","0","0","0","0","1","0","0","1","0","5","2","4","2","4","4","4","4","3","4","4","773271155669995521","陈","176","","","","","","","","","","","","","","","","","","","","","","","","","","","","","","feedback_test","","","","","","","","","","","",""
"710","","f","psychophysics","37","267183","0.0-7.0-1.0-1.0-0.0-0.14","4","4","4","4","3","4","4","3","4","4","5","4","3","4","4","5","4","4","5","5","2","3","2","2","3","2","2","2","1","0","1","0","0","1","1","0","0","0","0","1","0","0","1","0","5","2","4","2","4","4","4","4","3","4","4","773271155669995521","陈","176","","","","match","","","","","","","","","","","","","","key","f","16.556435643564473","768","428","f","true","match","img/ellipse.png","椭圆","椭圆","ALT1_2","prac_ALT1_2","","","","","","","","","","","",""
"null","<span style='color:GreenYellow; font-size: 70px;'>正确! </span>","null","html-keyboard-response","38","267688","0.0-7.0-1.0-1.0-0.0-1.14","4","4","4","4","3","4","4","3","4","4","5","4","3","4","4","5","4","4","5","5","2","3","2","2","3","2","2","2","1","0","1","0","0","1","1","0","0","0","0","1","0","0","1","0","5","2","4","2","4","4","4","4","3","4","4","773271155669995521","陈","176","","","","","","","","","","","","","","","","","","","","","","","","","","","","","","feedback_test","","","","","","","","","","","",""
"596","","j","psychophysics","39","269287","0.0-7.0-1.0-1.0-0.0-0.15","4","4","4","4","3","4","4","3","4","4","5","4","3","4","4","5","4","4","5","5","2","3","2","2","3","2","2","2","1","0","1","0","0","1","1","0","0","0","0","1","0","0","1","0","5","2","4","2","4","4","4","4","3","4","4","773271155669995521","陈","176","","","","nonmatch","","","","","","","","","","","","","","key","j","16.657894736842106","768","428","j","true","nonmatch","img/ellipse.png","三角","椭圆","ALT1_2","prac_ALT1_2","","","","","","","","","","","",""
"null","<span style='color:GreenYellow; font-size: 70px;'>正确! </span>","null","html-keyboard-response","40","269789","0.0-7.0-1.0-1.0-0.0-1.15","4","4","4","4","3","4","4","3","4","4","5","4","3","4","4","5","4","4","5","5","2","3","2","2","3","2","2","2","1","0","1","0","0","1","1","0","0","0","0","1","0","0","1","0","5","2","4","2","4","4","4","4","3","4","4","773271155669995521","陈","176","","","","","","","","","","","","","","","","","","","","","","","","","","","","","","feedback_test","","","","","","","","","","","",""
"718","","f","psychophysics","41","271510","0.0-7.0-1.0-1.0-0.0-0.16","4","4","4","4","3","4","4","3","4","4","5","4","3","4","4","5","4","4","5","5","2","3","2","2","3","2","2","2","1","0","1","0","0","1","1","0","0","0","0","1","0","0","1","0","5","2","4","2","4","4","4","4","3","4","4","773271155669995521","陈","176","","","","match","","","","","","","","","","","","","","key","f","16.646078431372207","768","428","j","false","nonmatch","img/square.png","椭圆","方形","ALT1_2","prac_ALT1_2","","","","","","","","","","","",""
"null","<span style='color:red; font-size: 70px;'>错误! </span>","null","html-keyboard-response","42","272012","0.0-7.0-1.0-1.0-0.0-1.16","4","4","4","4","3","4","4","3","4","4","5","4","3","4","4","5","4","4","5","5","2","3","2","2","3","2","2","2","1","0","1","0","0","1","1","0","0","0","0","1","0","0","1","0","5","2","4","2","4","4","4","4","3","4","4","773271155669995521","陈","176","","","","","","","","","","","","","","","","","","","","","","","","","","","","","","feedback_test","","","","","","","","","","","",""
"739","","f","psychophysics","43","273754","0.0-7.0-1.0-1.0-0.0-0.17","4","4","4","4","3","4","4","3","4","4","5","4","3","4","4","5","4","4","5","5","2","3","2","2","3","2","2","2","1","0","1","0","0","1","1","0","0","0","0","1","0","0","1","0","5","2","4","2","4","4","4","4","3","4","4","773271155669995521","陈","176","","","","match","","","","","","","","","","","","","","key","f","16.651456310679386","768","428","f","true","match","img/triangle.png","三角","三角","ALT1_2","prac_ALT1_2","","","","","","","","","","","",""
"null","<span style='color:GreenYellow; font-size: 70px;'>正确! </span>","null","html-keyboard-response","44","274259","0.0-7.0-1.0-1.0-0.0-1.17","4","4","4","4","3","4","4","3","4","4","5","4","3","4","4","5","4","4","5","5","2","3","2","2","3","2","2","2","1","0","1","0","0","1","1","0","0","0","0","1","0","0","1","0","5","2","4","2","4","4","4","4","3","4","4","773271155669995521","陈","176","","","","","","","","","","","","","","","","","","","","","","","","","","","","","","feedback_test","","","","","","","","","","","",""
"677","","f","psychophysics","45","275940","0.0-7.0-1.0-1.0-0.0-0.18","4","4","4","4","3","4","4","3","4","4","5","4","3","4","4","5","4","4","5","5","2","3","2","2","3","2","2","2","1","0","1","0","0","1","1","0","0","0","0","1","0","0","1","0","5","2","4","2","4","4","4","4","3","4","4","773271155669995521","陈","176","","","","match","","","","","","","","","","","","","","key","f","16.659000000000233","768","428","f","true","match","img/square.png","方形","方形","ALT1_2","prac_ALT1_2","","","","","","","","","","","",""
"null","<span style='color:GreenYellow; font-size: 70px;'>正确! </span>","null","html-keyboard-response","46","276443","0.0-7.0-1.0-1.0-0.0-1.18","4","4","4","4","3","4","4","3","4","4","5","4","3","4","4","5","4","4","5","5","2","3","2","2","3","2","2","2","1","0","1","0","0","1","1","0","0","0","0","1","0","0","1","0","5","2","4","2","4","4","4","4","3","4","4","773271155669995521","陈","176","","","","","","","","","","","","","","","","","","","","","","","","","","","","","","feedback_test","","","","","","","","","","","",""
"598","","f","psychophysics","47","278044","0.0-7.0-1.0-1.0-0.0-0.19","4","4","4","4","3","4","4","3","4","4","5","4","3","4","4","5","4","4","5","5","2","3","2","2","3","2","2","2","1","0","1","0","0","1","1","0","0","0","0","1","0","0","1","0","5","2","4","2","4","4","4","4","3","4","4","773271155669995521","陈","176","","","","match","","","","","","","","","","","","","","key","f","16.656842105263404","768","428","f","true","match","img/square.png","方形","方形","ALT1_2","prac_ALT1_2","","","","","","","","","","","",""
"null","<span style='color:GreenYellow; font-size: 70px;'>正确! </span>","null","html-keyboard-response","48","278547","0.0-7.0-1.0-1.0-0.0-1.19","4","4","4","4","3","4","4","3","4","4","5","4","3","4","4","5","4","4","5","5","2","3","2","2","3","2","2","2","1","0","1","0","0","1","1","0","0","0","0","1","0","0","1","0","5","2","4","2","4","4","4","4","3","4","4","773271155669995521","陈","176","","","","","","","","","","","","","","","","","","","","","","","","","","","","","","feedback_test","","","","","","","","","","","",""
"838","","j","psychophysics","49","280389","0.0-7.0-1.0-1.0-0.0-0.20","4","4","4","4","3","4","4","3","4","4","5","4","3","4","4","5","4","4","5","5","2","3","2","2","3","2","2","2","1","0","1","0","0","1","1","0","0","0","0","1","0","0","1","0","5","2","4","2","4","4","4","4","3","4","4","773271155669995521","陈","176","","","","nonmatch","","","","","","","","","","","","","","key","j","16.5394495412843","768","428","j","true","nonmatch","img/pentagon.png","方形","五边","ALT1_2","prac_ALT1_2","","","","","","","","","","","",""
"null","<span style='color:GreenYellow; font-size: 70px;'>正确! </span>","null","html-keyboard-response","50","280890","0.0-7.0-1.0-1.0-0.0-1.20","4","4","4","4","3","4","4","3","4","4","5","4","3","4","4","5","4","4","5","5","2","3","2","2","3","2","2","2","1","0","1","0","0","1","1","0","0","0","0","1","0","0","1","0","5","2","4","2","4","4","4","4","3","4","4","773271155669995521","陈","176","","","","","","","","","","","","","","","","","","","","","","","","","","","","","","feedback_test","","","","","","","","","","","",""
"939","","f","psychophysics","51","282831","0.0-7.0-1.0-1.0-0.0-0.21","4","4","4","4","3","4","4","3","4","4","5","4","3","4","4","5","4","4","5","5","2","3","2","2","3","2","2","2","1","0","1","0","0","1","1","0","0","0","0","1","0","0","1","0","5","2","4","2","4","4","4","4","3","4","4","773271155669995521","陈","176","","","","match","","","","","","","","","","","","","","key","f","16.65948275862069","768","428","f","true","match","img/pentagon.png","五边","五边","ALT1_2","prac_ALT1_2","","","","","","","","","","","",""
"null","<span style='color:GreenYellow; font-size: 70px;'>正确! </span>","null","html-keyboard-response","52","283333","0.0-7.0-1.0-1.0-0.0-1.21","4","4","4","4","3","4","4","3","4","4","5","4","3","4","4","5","4","4","5","5","2","3","2","2","3","2","2","2","1","0","1","0","0","1","1","0","0","0","0","1","0","0","1","0","5","2","4","2","4","4","4","4","3","4","4","773271155669995521","陈","176","","","","","","","","","","","","","","","","","","","","","","","","","","","","","","feedback_test","","","","","","","","","","","",""
"728","","f","psychophysics","53","285064","0.0-7.0-1.0-1.0-0.0-0.22","4","4","4","4","3","4","4","3","4","4","5","4","3","4","4","5","4","4","5","5","2","3","2","2","3","2","2","2","1","0","1","0","0","1","1","0","0","0","0","1","0","0","1","0","5","2","4","2","4","4","4","4","3","4","4","773271155669995521","陈","176","","","","match","","","","","","","","","","","","","","key","f","16.647058823529413","768","428","f","true","match","img/ellipse.png","椭圆","椭圆","ALT1_2","prac_ALT1_2","","","","","","","","","","","",""
"null","<span style='color:GreenYellow; font-size: 70px;'>正确! </span>","null","html-keyboard-response","54","285566","0.0-7.0-1.0-1.0-0.0-1.22","4","4","4","4","3","4","4","3","4","4","5","4","3","4","4","5","4","4","5","5","2","3","2","2","3","2","2","2","1","0","1","0","0","1","1","0","0","0","0","1","0","0","1","0","5","2","4","2","4","4","4","4","3","4","4","773271155669995521","陈","176","","","","","","","","","","","","","","","","","","","","","","","","","","","","","","feedback_test","","","","","","","","","","","",""
"653","","j","psychophysics","55","287223","0.0-7.0-1.0-1.0-0.0-0.23","4","4","4","4","3","4","4","3","4","4","5","4","3","4","4","5","4","4","5","5","2","3","2","2","3","2","2","2","1","0","1","0","0","1","1","0","0","0","0","1","0","0","1","0","5","2","4","2","4","4","4","4","3","4","4","773271155669995521","陈","176","","","","nonmatch","","","","","","","","","","","","","","key","j","16.663265306122447","768","428","j","true","nonmatch","img/pentagon.png","三角","五边","ALT1_2","prac_ALT1_2","","","","","","","","","","","",""
"null","<span style='color:GreenYellow; font-size: 70px;'>正确! </span>","null","html-keyboard-response","56","287726","0.0-7.0-1.0-1.0-0.0-1.23","4","4","4","4","3","4","4","3","4","4","5","4","3","4","4","5","4","4","5","5","2","3","2","2","3","2","2","2","1","0","1","0","0","1","1","0","0","0","0","1","0","0","1","0","5","2","4","2","4","4","4","4","3","4","4","773271155669995521","陈","176","","","","","","","","","","","","","","","","","","","","","","","","","","","","","","feedback_test","","","","","","","","","","","",""
"692","","j","psychophysics","57","289428","0.0-7.0-1.0-1.0-0.0-0.24","4","4","4","4","3","4","4","3","4","4","5","4","3","4","4","5","4","4","5","5","2","3","2","2","3","2","2","2","1","0","1","0","0","1","1","0","0","0","0","1","0","0","1","0","5","2","4","2","4","4","4","4","3","4","4","773271155669995521","陈","176","","","","nonmatch","","","","","","","","","","","","","","key","j","16.659405940593828","768","428","j","true","nonmatch","img/square.png","五边","方形","ALT1_2","prac_ALT1_2","","","","","","","","","","","",""
"null","<span style='color:GreenYellow; font-size: 70px;'>正确! </span>","null","html-keyboard-response","58","289931","0.0-7.0-1.0-1.0-0.0-1.24","4","4","4","4","3","4","4","3","4","4","5","4","3","4","4","5","4","4","5","5","2","3","2","2","3","2","2","2","1","0","1","0","0","1","1","0","0","0","0","1","0","0","1","0","5","2","4","2","4","4","4","4","3","4","4","773271155669995521","陈","176","","","","","","","","","","","","","","","","","","","","","","","","","","","","","","feedback_test","","","","","","","","","","","",""
"627","","j","psychophysics","59","291561","0.0-7.0-1.0-1.0-0.0-0.25","4","4","4","4","3","4","4","3","4","4","5","4","3","4","4","5","4","4","5","5","2","3","2","2","3","2","2","2","1","0","1","0","0","1","1","0","0","0","0","1","0","0","1","0","5","2","4","2","4","4","4","4","3","4","4","773271155669995521","陈","176","","","","nonmatch","","","","","","","","","","","","","","key","j","16.657731958763367","768","428","j","true","nonmatch","img/ellipse.png","五边","椭圆","ALT1_2","prac_ALT1_2","","","","","","","","","","","",""
"null","<span style='color:GreenYellow; font-size: 70px;'>正确! </span>","null","html-keyboard-response","60","292062","0.0-7.0-1.0-1.0-0.0-1.25","4","4","4","4","3","4","4","3","4","4","5","4","3","4","4","5","4","4","5","5","2","3","2","2","3","2","2","2","1","0","1","0","0","1","1","0","0","0","0","1","0","0","1","0","5","2","4","2","4","4","4","4","3","4","4","773271155669995521","陈","176","","","","","","","","","","","","","","","","","","","","","","","","","","","","","","feedback_test","","","","","","","","","","","",""
"767","","f","psychophysics","61","293833","0.0-7.0-1.0-1.0-0.0-0.26","4","4","4","4","3","4","4","3","4","4","5","4","3","4","4","5","4","4","5","5","2","3","2","2","3","2","2","2","1","0","1","0","0","1","1","0","0","0","0","1","0","0","1","0","5","2","4","2","4","4","4","4","3","4","4","773271155669995521","陈","176","","","","match","","","","","","","","","","","","","","key","f","16.50095238095216","768","428","f","true","match","img/ellipse.png","椭圆","椭圆","ALT1_2","prac_ALT1_2","","","","","","","","","","","",""
"null","<span style='color:GreenYellow; font-size: 70px;'>正确! </span>","null","html-keyboard-response","62","294335","0.0-7.0-1.0-1.0-0.0-1.26","4","4","4","4","3","4","4","3","4","4","5","4","3","4","4","5","4","4","5","5","2","3","2","2","3","2","2","2","1","0","1","0","0","1","1","0","0","0","0","1","0","0","1","0","5","2","4","2","4","4","4","4","3","4","4","773271155669995521","陈","176","","","","","","","","","","","","","","","","","","","","","","","","","","","","","","feedback_test","","","","","","","","","","","",""
"691","","j","psychophysics","63","296029","0.0-7.0-1.0-1.0-0.0-0.27","4","4","4","4","3","4","4","3","4","4","5","4","3","4","4","5","4","4","5","5","2","3","2","2","3","2","2","2","1","0","1","0","0","1","1","0","0","0","0","1","0","0","1","0","5","2","4","2","4","4","4","4","3","4","4","773271155669995521","陈","176","","","","nonmatch","","","","","","","","","","","","","","key","j","16.655","768","428","j","true","nonmatch","img/pentagon.png","椭圆","五边","ALT1_2","prac_ALT1_2","","","","","","","","","","","",""
"null","<span style='color:GreenYellow; font-size: 70px;'>正确! </span>","null","html-keyboard-response","64","296530","0.0-7.0-1.0-1.0-0.0-1.27","4","4","4","4","3","4","4","3","4","4","5","4","3","4","4","5","4","4","5","5","2","3","2","2","3","2","2","2","1","0","1","0","0","1","1","0","0","0","0","1","0","0","1","0","5","2","4","2","4","4","4","4","3","4","4","773271155669995521","陈","176","","","","","","","","","","","","","","","","","","","","","","","","","","","","","","feedback_test","","","","","","","","","","","",""
"891","","f","psychophysics","65","298424","0.0-7.0-1.0-1.0-0.0-0.28","4","4","4","4","3","4","4","3","4","4","5","4","3","4","4","5","4","4","5","5","2","3","2","2","3","2","2","2","1","0","1","0","0","1","1","0","0","0","0","1","0","0","1","0","5","2","4","2","4","4","4","4","3","4","4","773271155669995521","陈","176","","","","match","","","","","","","","","","","","","","key","f","16.63008849557481","768","428","f","true","match","img/pentagon.png","五边","五边","ALT1_2","prac_ALT1_2","","","","","","","","","","","",""
"null","<span style='color:GreenYellow; font-size: 70px;'>正确! </span>","null","html-keyboard-response","66","298926","0.0-7.0-1.0-1.0-0.0-1.28","4","4","4","4","3","4","4","3","4","4","5","4","3","4","4","5","4","4","5","5","2","3","2","2","3","2","2","2","1","0","1","0","0","1","1","0","0","0","0","1","0","0","1","0","5","2","4","2","4","4","4","4","3","4","4","773271155669995521","陈","176","","","","","","","","","","","","","","","","","","","","","","","","","","","","","","feedback_test","","","","","","","","","","","",""
"724","","j","psychophysics","67","300652","0.0-7.0-1.0-1.0-0.0-0.29","4","4","4","4","3","4","4","3","4","4","5","4","3","4","4","5","4","4","5","5","2","3","2","2","3","2","2","2","1","0","1","0","0","1","1","0","0","0","0","1","0","0","1","0","5","2","4","2","4","4","4","4","3","4","4","773271155669995521","陈","176","","","","nonmatch","","","","","","","","","","","","","","key","j","16.644660194174417","768","428","j","true","nonmatch","img/triangle.png","五边","三角","ALT1_2","prac_ALT1_2","","","","","","","","","","","",""
"null","<span style='color:GreenYellow; font-size: 70px;'>正确! </span>","null","html-keyboard-response","68","301154","0.0-7.0-1.0-1.0-0.0-1.29","4","4","4","4","3","4","4","3","4","4","5","4","3","4","4","5","4","4","5","5","2","3","2","2","3","2","2","2","1","0","1","0","0","1","1","0","0","0","0","1","0","0","1","0","5","2","4","2","4","4","4","4","3","4","4","773271155669995521","陈","176","","","","","","","","","","","","","","","","","","","","","","","","","","","","","","feedback_test","","","","","","","","","","","",""
"631","","j","psychophysics","69","302788","0.0-7.0-1.0-1.0-0.0-0.30","4","4","4","4","3","4","4","3","4","4","5","4","3","4","4","5","4","4","5","5","2","3","2","2","3","2","2","2","1","0","1","0","0","1","1","0","0","0","0","1","0","0","1","0","5","2","4","2","4","4","4","4","3","4","4","773271155669995521","陈","176","","","","nonmatch","","","","","","","","","","","","","","key","j","16.655670103092543","768","428","j","true","nonmatch","img/ellipse.png","三角","椭圆","ALT1_2","prac_ALT1_2","","","","","","","","","","","",""
"null","<span style='color:GreenYellow; font-size: 70px;'>正确! </span>","null","html-keyboard-response","70","303289","0.0-7.0-1.0-1.0-0.0-1.30","4","4","4","4","3","4","4","3","4","4","5","4","3","4","4","5","4","4","5","5","2","3","2","2","3","2","2","2","1","0","1","0","0","1","1","0","0","0","0","1","0","0","1","0","5","2","4","2","4","4","4","4","3","4","4","773271155669995521","陈","176","","","","","","","","","","","","","","","","","","","","","","","","","","","","","","feedback_test","","","","","","","","","","","",""
"616","","f","psychophysics","71","304908","0.0-7.0-1.0-1.0-0.0-0.31","4","4","4","4","3","4","4","3","4","4","5","4","3","4","4","5","4","4","5","5","2","3","2","2","3","2","2","2","1","0","1","0","0","1","1","0","0","0","0","1","0","0","1","0","5","2","4","2","4","4","4","4","3","4","4","773271155669995521","陈","176","","","","match","","","","","","","","","","","","","","key","f","16.660416666666908","768","428","f","true","match","img/triangle.png","三角","三角","ALT1_2","prac_ALT1_2","","","","","","","","","","","",""
"null","<span style='color:GreenYellow; font-size: 70px;'>正确! </span>","null","html-keyboard-response","72","305411","0.0-7.0-1.0-1.0-0.0-1.31","4","4","4","4","3","4","4","3","4","4","5","4","3","4","4","5","4","4","5","5","2","3","2","2","3","2","2","2","1","0","1","0","0","1","1","0","0","0","0","1","0","0","1","0","5","2","4","2","4","4","4","4","3","4","4","773271155669995521","陈","176","","","","","","","","","","","","","","","","","","","","","","","","","","","","","","feedback_test","","","","","","","","","","","",""
"507","","j","psychophysics","73","306923","0.0-7.0-1.0-1.0-0.0-0.32","4","4","4","4","3","4","4","3","4","4","5","4","3","4","4","5","4","4","5","5","2","3","2","2","3","2","2","2","1","0","1","0","0","1","1","0","0","0","0","1","0","0","1","0","5","2","4","2","4","4","4","4","3","4","4","773271155669995521","陈","176","","","","nonmatch","","","","","","","","","","","","","","key","j","16.657777777777905","768","428","f","false","match","img/pentagon.png","五边","五边","ALT1_2","prac_ALT1_2","","","","","","","","","","","",""
"null","<span style='color:red; font-size: 70px;'>错误! </span>","null","html-keyboard-response","74","307424","0.0-7.0-1.0-1.0-0.0-1.32","4","4","4","4","3","4","4","3","4","4","5","4","3","4","4","5","4","4","5","5","2","3","2","2","3","2","2","2","1","0","1","0","0","1","1","0","0","0","0","1","0","0","1","0","5","2","4","2","4","4","4","4","3","4","4","773271155669995521","陈","176","","","","","","","","","","","","","","","","","","","","","","","","","","","","","","feedback_test","","","","","","","","","","","",""
"758","","j","psychophysics","75","309186","0.0-7.0-1.0-1.0-0.0-0.33","4","4","4","4","3","4","4","3","4","4","5","4","3","4","4","5","4","4","5","5","2","3","2","2","3","2","2","2","1","0","1","0","0","1","1","0","0","0","0","1","0","0","1","0","5","2","4","2","4","4","4","4","3","4","4","773271155669995521","陈","176","","","","nonmatch","","","","","","","","","","","","","","key","j","16.660000000000444","768","428","f","false","match","img/ellipse.png","椭圆","椭圆","ALT1_2","prac_ALT1_2","","","","","","","","","","","",""
"null","<span style='color:red; font-size: 70px;'>错误! </span>","null","html-keyboard-response","76","309688","0.0-7.0-1.0-1.0-0.0-1.33","4","4","4","4","3","4","4","3","4","4","5","4","3","4","4","5","4","4","5","5","2","3","2","2","3","2","2","2","1","0","1","0","0","1","1","0","0","0","0","1","0","0","1","0","5","2","4","2","4","4","4","4","3","4","4","773271155669995521","陈","176","","","","","","","","","","","","","","","","","","","","","","","","","","","","","","feedback_test","","","","","","","","","","","",""
"708","","f","psychophysics","77","311398","0.0-7.0-1.0-1.0-0.0-0.34","4","4","4","4","3","4","4","3","4","4","5","4","3","4","4","5","4","4","5","5","2","3","2","2","3","2","2","2","1","0","1","0","0","1","1","0","0","0","0","1","0","0","1","0","5","2","4","2","4","4","4","4","3","4","4","773271155669995521","陈","176","","","","match","","","","","","","","","","","","","","key","f","16.65742574257449","768","428","f","true","match","img/square.png","方形","方形","ALT1_2","prac_ALT1_2","","","","","","","","","","","",""
"null","<span style='color:GreenYellow; font-size: 70px;'>正确! </span>","null","html-keyboard-response","78","311899","0.0-7.0-1.0-1.0-0.0-1.34","4","4","4","4","3","4","4","3","4","4","5","4","3","4","4","5","4","4","5","5","2","3","2","2","3","2","2","2","1","0","1","0","0","1","1","0","0","0","0","1","0","0","1","0","5","2","4","2","4","4","4","4","3","4","4","773271155669995521","陈","176","","","","","","","","","","","","","","","","","","","","","","","","","","","","","","feedback_test","","","","","","","","","","","",""
"664","","f","psychophysics","79","313566","0.0-7.0-1.0-1.0-0.0-0.35","4","4","4","4","3","4","4","3","4","4","5","4","3","4","4","5","4","4","5","5","2","3","2","2","3","2","2","2","1","0","1","0","0","1","1","0","0","0","0","1","0","0","1","0","5","2","4","2","4","4","4","4","3","4","4","773271155669995521","陈","176","","","","match","","","","","","","","","","","","","","key","f","16.53232323232335","768","428","f","true","match","img/pentagon.png","五边","五边","ALT1_2","prac_ALT1_2","","","","","","","","","","","",""
"null","<span style='color:GreenYellow; font-size: 70px;'>正确! </span>","null","html-keyboard-response","80","314078","0.0-7.0-1.0-1.0-0.0-1.35","4","4","4","4","3","4","4","3","4","4","5","4","3","4","4","5","4","4","5","5","2","3","2","2","3","2","2","2","1","0","1","0","0","1","1","0","0","0","0","1","0","0","1","0","5","2","4","2","4","4","4","4","3","4","4","773271155669995521","陈","176","","","","","","","","","","","","","","","","","","","","","","","","","","","","","","feedback_test","","","","","","","","","","","",""
"570","","f","psychophysics","81","315650","0.0-7.0-1.0-1.0-0.0-0.36","4","4","4","4","3","4","4","3","4","4","5","4","3","4","4","5","4","4","5","5","2","3","2","2","3","2","2","2","1","0","1","0","0","1","1","0","0","0","0","1","0","0","1","0","5","2","4","2","4","4","4","4","3","4","4","773271155669995521","陈","176","","","","match","","","","","","","","","","","","","","key","f","16.6623655913976","768","428","f","true","match","img/triangle.png","三角","三角","ALT1_2","prac_ALT1_2","","","","","","","","","","","",""
"null","<span style='color:GreenYellow; font-size: 70px;'>正确! </span>","null","html-keyboard-response","82","316151","0.0-7.0-1.0-1.0-0.0-1.36","4","4","4","4","3","4","4","3","4","4","5","4","3","4","4","5","4","4","5","5","2","3","2","2","3","2","2","2","1","0","1","0","0","1","1","0","0","0","0","1","0","0","1","0","5","2","4","2","4","4","4","4","3","4","4","773271155669995521","陈","176","","","","","","","","","","","","","","","","","","","","","","","","","","","","","","feedback_test","","","","","","","","","","","",""
"670","","f","psychophysics","83","317825","0.0-7.0-1.0-1.0-0.0-0.37","4","4","4","4","3","4","4","3","4","4","5","4","3","4","4","5","4","4","5","5","2","3","2","2","3","2","2","2","1","0","1","0","0","1","1","0","0","0","0","1","0","0","1","0","5","2","4","2","4","4","4","4","3","4","4","773271155669995521","陈","176","","","","match","","","","","","","","","","","","","","key","f","16.660606060606295","768","428","j","false","nonmatch","img/ellipse.png","方形","椭圆","ALT1_2","prac_ALT1_2","","","","","","","","","","","",""
"null","<span style='color:red; font-size: 70px;'>错误! </span>","null","html-keyboard-response","84","318327","0.0-7.0-1.0-1.0-0.0-1.37","4","4","4","4","3","4","4","3","4","4","5","4","3","4","4","5","4","4","5","5","2","3","2","2","3","2","2","2","1","0","1","0","0","1","1","0","0","0","0","1","0","0","1","0","5","2","4","2","4","4","4","4","3","4","4","773271155669995521","陈","176","","","","","","","","","","","","","","","","","","","","","","","","","","","","","","feedback_test","","","","","","","","","","","",""
"690","","f","psychophysics","85","320020","0.0-7.0-1.0-1.0-0.0-0.38","4","4","4","4","3","4","4","3","4","4","5","4","3","4","4","5","4","4","5","5","2","3","2","2","3","2","2","2","1","0","1","0","0","1","1","0","0","0","0","1","0","0","1","0","5","2","4","2","4","4","4","4","3","4","4","773271155669995521","陈","176","","","","match","","","","","","","","","","","","","","key","f","16.660999999999767","768","428","f","true","match","img/square.png","方形","方形","ALT1_2","prac_ALT1_2","","","","","","","","","","","",""
"null","<span style='color:GreenYellow; font-size: 70px;'>正确! </span>","null","html-keyboard-response","86","320521","0.0-7.0-1.0-1.0-0.0-1.38","4","4","4","4","3","4","4","3","4","4","5","4","3","4","4","5","4","4","5","5","2","3","2","2","3","2","2","2","1","0","1","0","0","1","1","0","0","0","0","1","0","0","1","0","5","2","4","2","4","4","4","4","3","4","4","773271155669995521","陈","176","","","","","","","","","","","","","","","","","","","","","","","","","","","","","","feedback_test","","","","","","","","","","","",""
"659","","j","psychophysics","87","322183","0.0-7.0-1.0-1.0-0.0-0.39","4","4","4","4","3","4","4","3","4","4","5","4","3","4","4","5","4","4","5","5","2","3","2","2","3","2","2","2","1","0","1","0","0","1","1","0","0","0","0","1","0","0","1","0","5","2","4","2","4","4","4","4","3","4","4","773271155669995521","陈","176","","","","nonmatch","","","","","","","","","","","","","","key","j","16.654545454545335","768","428","j","true","nonmatch","img/pentagon.png","三角","五边","ALT1_2","prac_ALT1_2","","","","","","","","","","","",""
"null","<span style='color:GreenYellow; font-size: 70px;'>正确! </span>","null","html-keyboard-response","88","322684","0.0-7.0-1.0-1.0-0.0-1.39","4","4","4","4","3","4","4","3","4","4","5","4","3","4","4","5","4","4","5","5","2","3","2","2","3","2","2","2","1","0","1","0","0","1","1","0","0","0","0","1","0","0","1","0","5","2","4","2","4","4","4","4","3","4","4","773271155669995521","陈","176","","","","","","","","","","","","","","","","","","","","","","","","","","","","","","feedback_test","","","","","","","","","","","",""
"685","","j","psychophysics","89","324374","0.0-7.0-1.0-1.0-0.0-0.40","4","4","4","4","3","4","4","3","4","4","5","4","3","4","4","5","4","4","5","5","2","3","2","2","3","2","2","2","1","0","1","0","0","1","1","0","0","0","0","1","0","0","1","0","5","2","4","2","4","4","4","4","3","4","4","773271155669995521","陈","176","","","","nonmatch","","","","","","","","","","","","","","key","j","16.662000000000116","768","428","j","true","nonmatch","img/square.png","三角","方形","ALT1_2","prac_ALT1_2","","","","","","","","","","","",""
"null","<span style='color:GreenYellow; font-size: 70px;'>正确! </span>","null","html-keyboard-response","90","324877","0.0-7.0-1.0-1.0-0.0-1.40","4","4","4","4","3","4","4","3","4","4","5","4","3","4","4","5","4","4","5","5","2","3","2","2","3","2","2","2","1","0","1","0","0","1","1","0","0","0","0","1","0","0","1","0","5","2","4","2","4","4","4","4","3","4","4","773271155669995521","陈","176","","","","","","","","","","","","","","","","","","","","","","","","","","","","","","feedback_test","","","","","","","","","","","",""
"896","","j","psychophysics","91","326777","0.0-7.0-1.0-1.0-0.0-0.41","4","4","4","4","3","4","4","3","4","4","5","4","3","4","4","5","4","4","5","5","2","3","2","2","3","2","2","2","1","0","1","0","0","1","1","0","0","0","0","1","0","0","1","0","5","2","4","2","4","4","4","4","3","4","4","773271155669995521","陈","176","","","","nonmatch","","","","","","","","","","","","","","key","j","16.551327433628217","768","428","j","true","nonmatch","img/square.png","椭圆","方形","ALT1_2","prac_ALT1_2","","","","","","","","","","","",""
"null","<span style='color:GreenYellow; font-size: 70px;'>正确! </span>","null","html-keyboard-response","92","327293","0.0-7.0-1.0-1.0-0.0-1.41","4","4","4","4","3","4","4","3","4","4","5","4","3","4","4","5","4","4","5","5","2","3","2","2","3","2","2","2","1","0","1","0","0","1","1","0","0","0","0","1","0","0","1","0","5","2","4","2","4","4","4","4","3","4","4","773271155669995521","陈","176","","","","","","","","","","","","","","","","","","","","","","","","","","","","","","feedback_test","","","","","","","","","","","",""
"802","","j","psychophysics","93","329099","0.0-7.0-1.0-1.0-0.0-0.42","4","4","4","4","3","4","4","3","4","4","5","4","3","4","4","5","4","4","5","5","2","3","2","2","3","2","2","2","1","0","1","0","0","1","1","0","0","0","0","1","0","0","1","0","5","2","4","2","4","4","4","4","3","4","4","773271155669995521","陈","176","","","","nonmatch","","","","","","","","","","","","","","key","j","16.657943925233862","768","428","j","true","nonmatch","img/pentagon.png","方形","五边","ALT1_2","prac_ALT1_2","","","","","","","","","","","",""
"null","<span style='color:GreenYellow; font-size: 70px;'>正确! </span>","null","html-keyboard-response","94","329600","0.0-7.0-1.0-1.0-0.0-1.42","4","4","4","4","3","4","4","3","4","4","5","4","3","4","4","5","4","4","5","5","2","3","2","2","3","2","2","2","1","0","1","0","0","1","1","0","0","0","0","1","0","0","1","0","5","2","4","2","4","4","4","4","3","4","4","773271155669995521","陈","176","","","","","","","","","","","","","","","","","","","","","","","","","","","","","","feedback_test","","","","","","","","","","","",""
"615","","f","psychophysics","95","331217","0.0-7.0-1.0-1.0-0.0-0.43","4","4","4","4","3","4","4","3","4","4","5","4","3","4","4","5","4","4","5","5","2","3","2","2","3","2","2","2","1","0","1","0","0","1","1","0","0","0","0","1","0","0","1","0","5","2","4","2","4","4","4","4","3","4","4","773271155669995521","陈","176","","","","match","","","","","","","","","","","","","","key","f","16.634375000000244","768","428","f","true","match","img/triangle.png","三角","三角","ALT1_2","prac_ALT1_2","","","","","","","","","","","",""
"null","<span style='color:GreenYellow; font-size: 70px;'>正确! </span>","null","html-keyboard-response","96","331719","0.0-7.0-1.0-1.0-0.0-1.43","4","4","4","4","3","4","4","3","4","4","5","4","3","4","4","5","4","4","5","5","2","3","2","2","3","2","2","2","1","0","1","0","0","1","1","0","0","0","0","1","0","0","1","0","5","2","4","2","4","4","4","4","3","4","4","773271155669995521","陈","176","","","","","","","","","","","","","","","","","","","","","","","","","","","","","","feedback_test","","","","","","","","","","","",""
"742","","f","psychophysics","97","333465","0.0-7.0-1.0-1.0-0.0-0.44","4","4","4","4","3","4","4","3","4","4","5","4","3","4","4","5","4","4","5","5","2","3","2","2","3","2","2","2","1","0","1","0","0","1","1","0","0","0","0","1","0","0","1","0","5","2","4","2","4","4","4","4","3","4","4","773271155669995521","陈","176","","","","match","","","","","","","","","","","","","","key","f","16.653398058252314","768","428","f","true","match","img/ellipse.png","椭圆","椭圆","ALT1_2","prac_ALT1_2","","","","","","","","","","","",""
"null","<span style='color:GreenYellow; font-size: 70px;'>正确! </span>","null","html-keyboard-response","98","333975","0.0-7.0-1.0-1.0-0.0-1.44","4","4","4","4","3","4","4","3","4","4","5","4","3","4","4","5","4","4","5","5","2","3","2","2","3","2","2","2","1","0","1","0","0","1","1","0","0","0","0","1","0","0","1","0","5","2","4","2","4","4","4","4","3","4","4","773271155669995521","陈","176","","","","","","","","","","","","","","","","","","","","","","","","","","","","","","feedback_test","","","","","","","","","","","",""
"665","","f","psychophysics","99","335644","0.0-7.0-1.0-1.0-0.0-0.45","4","4","4","4","3","4","4","3","4","4","5","4","3","4","4","5","4","4","5","5","2","3","2","2","3","2","2","2","1","0","1","0","0","1","1","0","0","0","0","1","0","0","1","0","5","2","4","2","4","4","4","4","3","4","4","773271155669995521","陈","176","","","","match","","","","","","","","","","","","","","key","f","16.521212121211885","768","428","f","true","match","img/square.png","方形","方形","ALT1_2","prac_ALT1_2","","","","","","","","","","","",""
"null","<span style='color:GreenYellow; font-size: 70px;'>正确! </span>","null","html-keyboard-response","100","336146","0.0-7.0-1.0-1.0-0.0-1.45","4","4","4","4","3","4","4","3","4","4","5","4","3","4","4","5","4","4","5","5","2","3","2","2","3","2","2","2","1","0","1","0","0","1","1","0","0","0","0","1","0","0","1","0","5","2","4","2","4","4","4","4","3","4","4","773271155669995521","陈","176","","","","","","","","","","","","","","","","","","","","","","","","","","","","","","feedback_test","","","","","","","","","","","",""
"884","","j","psychophysics","101","338033","0.0-7.0-1.0-1.0-0.0-0.46","4","4","4","4","3","4","4","3","4","4","5","4","3","4","4","5","4","4","5","5","2","3","2","2","3","2","2","2","1","0","1","0","0","1","1","0","0","0","0","1","0","0","1","0","5","2","4","2","4","4","4","4","3","4","4","773271155669995521","陈","176","","","","nonmatch","","","","","","","","","","","","","","key","j","16.636936936936518","768","428","j","true","nonmatch","img/triangle.png","椭圆","三角","ALT1_2","prac_ALT1_2","","","","","","","","","","","",""
"null","<span style='color:GreenYellow; font-size: 70px;'>正确! </span>","null","html-keyboard-response","102","338534","0.0-7.0-1.0-1.0-0.0-1.46","4","4","4","4","3","4","4","3","4","4","5","4","3","4","4","5","4","4","5","5","2","3","2","2","3","2","2","2","1","0","1","0","0","1","1","0","0","0","0","1","0","0","1","0","5","2","4","2","4","4","4","4","3","4","4","773271155669995521","陈","176","","","","","","","","","","","","","","","","","","","","","","","","","","","","","","feedback_test","","","","","","","","","","","",""
"760","","j","psychophysics","103","340298","0.0-7.0-1.0-1.0-0.0-0.47","4","4","4","4","3","4","4","3","4","4","5","4","3","4","4","5","4","4","5","5","2","3","2","2","3","2","2","2","1","0","1","0","0","1","1","0","0","0","0","1","0","0","1","0","5","2","4","2","4","4","4","4","3","4","4","773271155669995521","陈","176","","","","nonmatch","","","","","","","","","","","","","","key","j","16.624038461538127","768","428","j","true","nonmatch","img/triangle.png","方形","三角","ALT1_2","prac_ALT1_2","","","","","","","","","","","",""
"null","<span style='color:GreenYellow; font-size: 70px;'>正确! </span>","null","html-keyboard-response","104","340813","0.0-7.0-1.0-1.0-0.0-1.47","4","4","4","4","3","4","4","3","4","4","5","4","3","4","4","5","4","4","5","5","2","3","2","2","3","2","2","2","1","0","1","0","0","1","1","0","0","0","0","1","0","0","1","0","5","2","4","2","4","4","4","4","3","4","4","773271155669995521","陈","176","","","","","","","","","","","","","","","","","","","","","","","","","","","","","","feedback_test","","","","","","","","","","","",""
"20670","<style>.context{color:white; font-size: 35px; line-height:40px}</style>                          <div><p class='context'>您正确回答了92% 的试次。</p><p class='context'>您的平均反应时为746毫秒。</p><p class='context'>恭喜您完成练习。按空格键进入正式实验。</p><p class='footer' style='font-size: 35px; line-height:40px;'>请在进入正式实验实验之前将您的<span style='color: lightgreen;'>食指</span>放在电脑键盘的相应键位上进行按键。</p>"," ","html-keyboard-response","105","361492","0.0-7.0-1.0-2.0","4","4","4","4","3","4","4","3","4","4","5","4","3","4","4","5","4","4","5","5","2","3","2","2","3","2","2","2","1","0","1","0","0","1","1","0","0","0","0","1","0","0","1","0","5","2","4","2","4","4","4","4","3","4","4","773271155669995521","陈","176","","","","","","","","","","","","","","","","","","","","","","","","","","","","","","","","","","","","","","","","","",""
"3418","
  <p style='color: white; font-size: 22px'>请您将手指放在按键上，准备进入正式的匹配任务。</p>
  <p> <div style = ""color: green""><按空格键进入下一阶段的匹配任务></div></p>
  "," ","html-keyboard-response","106","364917","0.0-7.0-1.0-3.0","4","4","4","4","3","4","4","3","4","4","5","4","3","4","4","5","4","4","5","5","2","3","2","2","3","2","2","2","1","0","1","0","0","1","1","0","0","0","0","1","0","0","1","0","5","2","4","2","4","4","4","4","3","4","4","773271155669995521","陈","176","","","","","","","","","","","","","","","","","","","","","","","","","","","","","","","","","","","","","","","","","",""
"851","","f","psychophysics","107","366771","0.0-7.0-1.0-4.0-0.0-0.0","4","4","4","4","3","4","4","3","4","4","5","4","3","4","4","5","4","4","5","5","2","3","2","2","3","2","2","2","1","0","1","0","0","1","1","0","0","0","0","1","0","0","1","0","5","2","4","2","4","4","4","4","3","4","4","773271155669995521","陈","176","","","","match","","","","","","","","","","","","","","key","f","16.656363636363743","768","428","f","true","match","img/pentagon.png","五边","五边","ALT1","formal_ALT1_2","","","","","","","","","","","",""
"null","<span style='color:GreenYellow; font-size: 70px;'>正确! </span>","null","html-keyboard-response","108","367273","0.0-7.0-1.0-4.0-0.0-1.0","4","4","4","4","3","4","4","3","4","4","5","4","3","4","4","5","4","4","5","5","2","3","2","2","3","2","2","2","1","0","1","0","0","1","1","0","0","0","0","1","0","0","1","0","5","2","4","2","4","4","4","4","3","4","4","773271155669995521","陈","176","","","","","","","","","","","","","","","","","","","","","","","","","","","","","","feedback_test","","","","","","","","","","","",""
"629","","j","psychophysics","109","368905","0.0-7.0-1.0-4.0-0.0-0.1","4","4","4","4","3","4","4","3","4","4","5","4","3","4","4","5","4","4","5","5","2","3","2","2","3","2","2","2","1","0","1","0","0","1","1","0","0","0","0","1","0","0","1","0","5","2","4","2","4","4","4","4","3","4","4","773271155669995521","陈","176","","","","nonmatch","","","","","","","","","","","","","","key","j","16.578125","768","428","j","true","nonmatch","img/triangle.png","椭圆","三角","ALT1","formal_ALT1_2","","","","","","","","","","","",""
"null","<span style='color:GreenYellow; font-size: 70px;'>正确! </span>","null","html-keyboard-response","110","369408","0.0-7.0-1.0-4.0-0.0-1.1","4","4","4","4","3","4","4","3","4","4","5","4","3","4","4","5","4","4","5","5","2","3","2","2","3","2","2","2","1","0","1","0","0","1","1","0","0","0","0","1","0","0","1","0","5","2","4","2","4","4","4","4","3","4","4","773271155669995521","陈","176","","","","","","","","","","","","","","","","","","","","","","","","","","","","","","feedback_test","","","","","","","","","","","",""
"617","","f","psychophysics","111","371028","0.0-7.0-1.0-4.0-0.0-0.2","4","4","4","4","3","4","4","3","4","4","5","4","3","4","4","5","4","4","5","5","2","3","2","2","3","2","2","2","1","0","1","0","0","1","1","0","0","0","0","1","0","0","1","0","5","2","4","2","4","4","4","4","3","4","4","773271155669995521","陈","176","","","","match","","","","","","","","","","","","","","key","f","16.558333333333092","768","428","f","true","match","img/square.png","方形","方形","ALT1","formal_ALT1_2","","","","","","","","","","","",""
"null","<span style='color:GreenYellow; font-size: 70px;'>正确! </span>","null","html-keyboard-response","112","371529","0.0-7.0-1.0-4.0-0.0-1.2","4","4","4","4","3","4","4","3","4","4","5","4","3","4","4","5","4","4","5","5","2","3","2","2","3","2","2","2","1","0","1","0","0","1","1","0","0","0","0","1","0","0","1","0","5","2","4","2","4","4","4","4","3","4","4","773271155669995521","陈","176","","","","","","","","","","","","","","","","","","","","","","","","","","","","","","feedback_test","","","","","","","","","","","",""
"498","","f","psychophysics","113","373030","0.0-7.0-1.0-4.0-0.0-0.3","4","4","4","4","3","4","4","3","4","4","5","4","3","4","4","5","4","4","5","5","2","3","2","2","3","2","2","2","1","0","1","0","0","1","1","0","0","0","0","1","0","0","1","0","5","2","4","2","4","4","4","4","3","4","4","773271155669995521","陈","176","","","","match","","","","","","","","","","","","","","key","f","16.530337078651815","768","428","f","true","match","img/ellipse.png","椭圆","椭圆","ALT1","formal_ALT1_2","","","","","","","","","","","",""
"null","<span style='color:GreenYellow; font-size: 70px;'>正确! </span>","null","html-keyboard-response","114","373532","0.0-7.0-1.0-4.0-0.0-1.3","4","4","4","4","3","4","4","3","4","4","5","4","3","4","4","5","4","4","5","5","2","3","2","2","3","2","2","2","1","0","1","0","0","1","1","0","0","0","0","1","0","0","1","0","5","2","4","2","4","4","4","4","3","4","4","773271155669995521","陈","176","","","","","","","","","","","","","","","","","","","","","","","","","","","","","","feedback_test","","","","","","","","","","","",""
"520","","f","psychophysics","115","375055","0.0-7.0-1.0-4.0-0.0-0.4","4","4","4","4","3","4","4","3","4","4","5","4","3","4","4","5","4","4","5","5","2","3","2","2","3","2","2","2","1","0","1","0","0","1","1","0","0","0","0","1","0","0","1","0","5","2","4","2","4","4","4","4","3","4","4","773271155669995521","陈","176","","","","match","","","","","","","","","","","","","","key","f","16.65934065934066","768","428","f","true","match","img/triangle.png","三角","三角","ALT1","formal_ALT1_2","","","","","","","","","","","",""
"null","<span style='color:GreenYellow; font-size: 70px;'>正确! </span>","null","html-keyboard-response","116","375556","0.0-7.0-1.0-4.0-0.0-1.4","4","4","4","4","3","4","4","3","4","4","5","4","3","4","4","5","4","4","5","5","2","3","2","2","3","2","2","2","1","0","1","0","0","1","1","0","0","0","0","1","0","0","1","0","5","2","4","2","4","4","4","4","3","4","4","773271155669995521","陈","176","","","","","","","","","","","","","","","","","","","","","","","","","","","","","","feedback_test","","","","","","","","","","","",""
"528","","f","psychophysics","117","377087","0.0-7.0-1.0-4.0-0.0-0.5","4","4","4","4","3","4","4","3","4","4","5","4","3","4","4","5","4","4","5","5","2","3","2","2","3","2","2","2","1","0","1","0","0","1","1","0","0","0","0","1","0","0","1","0","5","2","4","2","4","4","4","4","3","4","4","773271155669995521","陈","176","","","","match","","","","","","","","","","","","","","key","f","16.575824175823794","768","428","f","true","match","img/square.png","方形","方形","ALT1","formal_ALT1_2","","","","","","","","","","","",""
"null","<span style='color:GreenYellow; font-size: 70px;'>正确! </span>","null","html-keyboard-response","118","377588","0.0-7.0-1.0-4.0-0.0-1.5","4","4","4","4","3","4","4","3","4","4","5","4","3","4","4","5","4","4","5","5","2","3","2","2","3","2","2","2","1","0","1","0","0","1","1","0","0","0","0","1","0","0","1","0","5","2","4","2","4","4","4","4","3","4","4","773271155669995521","陈","176","","","","","","","","","","","","","","","","","","","","","","","","","","","","","","feedback_test","","","","","","","","","","","",""
"597","","j","psychophysics","119","379187","0.0-7.0-1.0-4.0-0.0-0.6","4","4","4","4","3","4","4","3","4","4","5","4","3","4","4","5","4","4","5","5","2","3","2","2","3","2","2","2","1","0","1","0","0","1","1","0","0","0","0","1","0","0","1","0","5","2","4","2","4","4","4","4","3","4","4","773271155669995521","陈","176","","","","nonmatch","","","","","","","","","","","","","","key","j","16.593684210525947","768","428","j","true","nonmatch","img/ellipse.png","三角","椭圆","ALT1","formal_ALT1_2","","","","","","","","","","","",""
"null","<span style='color:GreenYellow; font-size: 70px;'>正确! </span>","null","html-keyboard-response","120","379689","0.0-7.0-1.0-4.0-0.0-1.6","4","4","4","4","3","4","4","3","4","4","5","4","3","4","4","5","4","4","5","5","2","3","2","2","3","2","2","2","1","0","1","0","0","1","1","0","0","0","0","1","0","0","1","0","5","2","4","2","4","4","4","4","3","4","4","773271155669995521","陈","176","","","","","","","","","","","","","","","","","","","","","","","","","","","","","","feedback_test","","","","","","","","","","","",""
"777","","f","psychophysics","121","381469","0.0-7.0-1.0-4.0-0.0-0.7","4","4","4","4","3","4","4","3","4","4","5","4","3","4","4","5","4","4","5","5","2","3","2","2","3","2","2","2","1","0","1","0","0","1","1","0","0","0","0","1","0","0","1","0","5","2","4","2","4","4","4","4","3","4","4","773271155669995521","陈","176","","","","match","","","","","","","","","","","","","","key","f","16.65943396226437","768","428","f","true","match","img/pentagon.png","五边","五边","ALT1","formal_ALT1_2","","","","","","","","","","","",""
"null","<span style='color:GreenYellow; font-size: 70px;'>正确! </span>","null","html-keyboard-response","122","381971","0.0-7.0-1.0-4.0-0.0-1.7","4","4","4","4","3","4","4","3","4","4","5","4","3","4","4","5","4","4","5","5","2","3","2","2","3","2","2","2","1","0","1","0","0","1","1","0","0","0","0","1","0","0","1","0","5","2","4","2","4","4","4","4","3","4","4","773271155669995521","陈","176","","","","","","","","","","","","","","","","","","","","","","","","","","","","","","feedback_test","","","","","","","","","","","",""
"737","","f","psychophysics","123","383712","0.0-7.0-1.0-4.0-0.0-0.8","4","4","4","4","3","4","4","3","4","4","5","4","3","4","4","5","4","4","5","5","2","3","2","2","3","2","2","2","1","0","1","0","0","1","1","0","0","0","0","1","0","0","1","0","5","2","4","2","4","4","4","4","3","4","4","773271155669995521","陈","176","","","","match","","","","","","","","","","","","","","key","f","16.660194174757283","768","428","f","true","match","img/ellipse.png","椭圆","椭圆","ALT1","formal_ALT1_2","","","","","","","","","","","",""
"null","<span style='color:GreenYellow; font-size: 70px;'>正确! </span>","null","html-keyboard-response","124","384213","0.0-7.0-1.0-4.0-0.0-1.8","4","4","4","4","3","4","4","3","4","4","5","4","3","4","4","5","4","4","5","5","2","3","2","2","3","2","2","2","1","0","1","0","0","1","1","0","0","0","0","1","0","0","1","0","5","2","4","2","4","4","4","4","3","4","4","773271155669995521","陈","176","","","","","","","","","","","","","","","","","","","","","","","","","","","","","","feedback_test","","","","","","","","","","","",""
"740","","j","psychophysics","125","385957","0.0-7.0-1.0-4.0-0.0-0.9","4","4","4","4","3","4","4","3","4","4","5","4","3","4","4","5","4","4","5","5","2","3","2","2","3","2","2","2","1","0","1","0","0","1","1","0","0","0","0","1","0","0","1","0","5","2","4","2","4","4","4","4","3","4","4","773271155669995521","陈","176","","","","nonmatch","","","","","","","","","","","","","","key","j","16.642718446602053","768","428","j","true","nonmatch","img/pentagon.png","方形","五边","ALT1","formal_ALT1_2","","","","","","","","","","","",""
"null","<span style='color:GreenYellow; font-size: 70px;'>正确! </span>","null","html-keyboard-response","126","386459","0.0-7.0-1.0-4.0-0.0-1.9","4","4","4","4","3","4","4","3","4","4","5","4","3","4","4","5","4","4","5","5","2","3","2","2","3","2","2","2","1","0","1","0","0","1","1","0","0","0","0","1","0","0","1","0","5","2","4","2","4","4","4","4","3","4","4","773271155669995521","陈","176","","","","","","","","","","","","","","","","","","","","","","","","","","","","","","feedback_test","","","","","","","","","","","",""
"599","","f","psychophysics","127","388061","0.0-7.0-1.0-4.0-0.0-0.10","4","4","4","4","3","4","4","3","4","4","5","4","3","4","4","5","4","4","5","5","2","3","2","2","3","2","2","2","1","0","1","0","0","1","1","0","0","0","0","1","0","0","1","0","5","2","4","2","4","4","4","4","3","4","4","773271155669995521","陈","176","","","","match","","","","","","","","","","","","","","key","f","16.596842105262667","768","428","f","true","match","img/ellipse.png","椭圆","椭圆","ALT1","formal_ALT1_2","","","","","","","","","","","",""
"null","<span style='color:GreenYellow; font-size: 70px;'>正确! </span>","null","html-keyboard-response","128","388563","0.0-7.0-1.0-4.0-0.0-1.10","4","4","4","4","3","4","4","3","4","4","5","4","3","4","4","5","4","4","5","5","2","3","2","2","3","2","2","2","1","0","1","0","0","1","1","0","0","0","0","1","0","0","1","0","5","2","4","2","4","4","4","4","3","4","4","773271155669995521","陈","176","","","","","","","","","","","","","","","","","","","","","","","","","","","","","","feedback_test","","","","","","","","","","","",""
"600","","j","psychophysics","129","390166","0.0-7.0-1.0-4.0-0.0-0.11","4","4","4","4","3","4","4","3","4","4","5","4","3","4","4","5","4","4","5","5","2","3","2","2","3","2","2","2","1","0","1","0","0","1","1","0","0","0","0","1","0","0","1","0","5","2","4","2","4","4","4","4","3","4","4","773271155669995521","陈","176","","","","nonmatch","","","","","","","","","","","","","","key","j","16.66210526315814","768","428","j","true","nonmatch","img/ellipse.png","方形","椭圆","ALT1","formal_ALT1_2","","","","","","","","","","","",""
"null","<span style='color:GreenYellow; font-size: 70px;'>正确! </span>","null","html-keyboard-response","130","390673","0.0-7.0-1.0-4.0-0.0-1.11","4","4","4","4","3","4","4","3","4","4","5","4","3","4","4","5","4","4","5","5","2","3","2","2","3","2","2","2","1","0","1","0","0","1","1","0","0","0","0","1","0","0","1","0","5","2","4","2","4","4","4","4","3","4","4","773271155669995521","陈","176","","","","","","","","","","","","","","","","","","","","","","","","","","","","","","feedback_test","","","","","","","","","","","",""
"592","","j","psychophysics","131","392268","0.0-7.0-1.0-4.0-0.0-0.12","4","4","4","4","3","4","4","3","4","4","5","4","3","4","4","5","4","4","5","5","2","3","2","2","3","2","2","2","1","0","1","0","0","1","1","0","0","0","0","1","0","0","1","0","5","2","4","2","4","4","4","4","3","4","4","773271155669995521","陈","176","","","","nonmatch","","","","","","","","","","","","","","key","j","16.662105263157528","768","428","j","true","nonmatch","img/pentagon.png","椭圆","五边","ALT1","formal_ALT1_2","","","","","","","","","","","",""
"null","<span style='color:GreenYellow; font-size: 70px;'>正确! </span>","null","html-keyboard-response","132","392771","0.0-7.0-1.0-4.0-0.0-1.12","4","4","4","4","3","4","4","3","4","4","5","4","3","4","4","5","4","4","5","5","2","3","2","2","3","2","2","2","1","0","1","0","0","1","1","0","0","0","0","1","0","0","1","0","5","2","4","2","4","4","4","4","3","4","4","773271155669995521","陈","176","","","","","","","","","","","","","","","","","","","","","","","","","","","","","","feedback_test","","","","","","","","","","","",""
"606","","j","psychophysics","133","394379","0.0-7.0-1.0-4.0-0.0-0.13","4","4","4","4","3","4","4","3","4","4","5","4","3","4","4","5","4","4","5","5","2","3","2","2","3","2","2","2","1","0","1","0","0","1","1","0","0","0","0","1","0","0","1","0","5","2","4","2","4","4","4","4","3","4","4","773271155669995521","陈","176","","","","nonmatch","","","","","","","","","","","","","","key","j","16.644210526315913","768","428","j","true","nonmatch","img/square.png","椭圆","方形","ALT1","formal_ALT1_2","","","","","","","","","","","",""
"null","<span style='color:GreenYellow; font-size: 70px;'>正确! </span>","null","html-keyboard-response","134","394882","0.0-7.0-1.0-4.0-0.0-1.13","4","4","4","4","3","4","4","3","4","4","5","4","3","4","4","5","4","4","5","5","2","3","2","2","3","2","2","2","1","0","1","0","0","1","1","0","0","0","0","1","0","0","1","0","5","2","4","2","4","4","4","4","3","4","4","773271155669995521","陈","176","","","","","","","","","","","","","","","","","","","","","","","","","","","","","","feedback_test","","","","","","","","","","","",""
"580","","f","psychophysics","135","396465","0.0-7.0-1.0-4.0-0.0-0.14","4","4","4","4","3","4","4","3","4","4","5","4","3","4","4","5","4","4","5","5","2","3","2","2","3","2","2","2","1","0","1","0","0","1","1","0","0","0","0","1","0","0","1","0","5","2","4","2","4","4","4","4","3","4","4","773271155669995521","陈","176","","","","match","","","","","","","","","","","","","","key","f","16.50212765957459","768","428","f","true","match","img/triangle.png","三角","三角","ALT1","formal_ALT1_2","","","","","","","","","","","",""
"null","<span style='color:GreenYellow; font-size: 70px;'>正确! </span>","null","html-keyboard-response","136","396969","0.0-7.0-1.0-4.0-0.0-1.14","4","4","4","4","3","4","4","3","4","4","5","4","3","4","4","5","4","4","5","5","2","3","2","2","3","2","2","2","1","0","1","0","0","1","1","0","0","0","0","1","0","0","1","0","5","2","4","2","4","4","4","4","3","4","4","773271155669995521","陈","176","","","","","","","","","","","","","","","","","","","","","","","","","","","","","","feedback_test","","","","","","","","","","","",""
"672","","j","psychophysics","137","398645","0.0-7.0-1.0-4.0-0.0-0.15","4","4","4","4","3","4","4","3","4","4","5","4","3","4","4","5","4","4","5","5","2","3","2","2","3","2","2","2","1","0","1","0","0","1","1","0","0","0","0","1","0","0","1","0","5","2","4","2","4","4","4","4","3","4","4","773271155669995521","陈","176","","","","nonmatch","","","","","","","","","","","","","","key","j","16.629292929292813","768","428","f","false","match","img/pentagon.png","五边","五边","ALT1","formal_ALT1_2","","","","","","","","","","","",""
"null","<span style='color:red; font-size: 70px;'>错误! </span>","null","html-keyboard-response","138","399149","0.0-7.0-1.0-4.0-0.0-1.15","4","4","4","4","3","4","4","3","4","4","5","4","3","4","4","5","4","4","5","5","2","3","2","2","3","2","2","2","1","0","1","0","0","1","1","0","0","0","0","1","0","0","1","0","5","2","4","2","4","4","4","4","3","4","4","773271155669995521","陈","176","","","","","","","","","","","","","","","","","","","","","","","","","","","","","","feedback_test","","","","","","","","","","","",""
"677","","j","psychophysics","139","400829","0.0-7.0-1.0-4.0-0.0-0.16","4","4","4","4","3","4","4","3","4","4","5","4","3","4","4","5","4","4","5","5","2","3","2","2","3","2","2","2","1","0","1","0","0","1","1","0","0","0","0","1","0","0","1","0","5","2","4","2","4","4","4","4","3","4","4","773271155669995521","陈","176","","","","nonmatch","","","","","","","","","","","","","","key","j","16.65","768","428","j","true","nonmatch","img/ellipse.png","五边","椭圆","ALT1","formal_ALT1_2","","","","","","","","","","","",""
"null","<span style='color:GreenYellow; font-size: 70px;'>正确! </span>","null","html-keyboard-response","140","401330","0.0-7.0-1.0-4.0-0.0-1.16","4","4","4","4","3","4","4","3","4","4","5","4","3","4","4","5","4","4","5","5","2","3","2","2","3","2","2","2","1","0","1","0","0","1","1","0","0","0","0","1","0","0","1","0","5","2","4","2","4","4","4","4","3","4","4","773271155669995521","陈","176","","","","","","","","","","","","","","","","","","","","","","","","","","","","","","feedback_test","","","","","","","","","","","",""
"598","","f","psychophysics","141","402931","0.0-7.0-1.0-4.0-0.0-0.17","4","4","4","4","3","4","4","3","4","4","5","4","3","4","4","5","4","4","5","5","2","3","2","2","3","2","2","2","1","0","1","0","0","1","1","0","0","0","0","1","0","0","1","0","5","2","4","2","4","4","4","4","3","4","4","773271155669995521","陈","176","","","","match","","","","","","","","","","","","","","key","f","16.65052631578935","768","428","f","true","match","img/square.png","方形","方形","ALT1","formal_ALT1_2","","","","","","","","","","","",""
"null","<span style='color:GreenYellow; font-size: 70px;'>正确! </span>","null","html-keyboard-response","142","403432","0.0-7.0-1.0-4.0-0.0-1.17","4","4","4","4","3","4","4","3","4","4","5","4","3","4","4","5","4","4","5","5","2","3","2","2","3","2","2","2","1","0","1","0","0","1","1","0","0","0","0","1","0","0","1","0","5","2","4","2","4","4","4","4","3","4","4","773271155669995521","陈","176","","","","","","","","","","","","","","","","","","","","","","","","","","","","","","feedback_test","","","","","","","","","","","",""
"603","","f","psychophysics","143","405039","0.0-7.0-1.0-4.0-0.0-0.18","4","4","4","4","3","4","4","3","4","4","5","4","3","4","4","5","4","4","5","5","2","3","2","2","3","2","2","2","1","0","1","0","0","1","1","0","0","0","0","1","0","0","1","0","5","2","4","2","4","4","4","4","3","4","4","773271155669995521","陈","176","","","","match","","","","","","","","","","","","","","key","f","16.66000000000012","768","428","f","true","match","img/triangle.png","三角","三角","ALT1","formal_ALT1_2","","","","","","","","","","","",""
"null","<span style='color:GreenYellow; font-size: 70px;'>正确! </span>","null","html-keyboard-response","144","405542","0.0-7.0-1.0-4.0-0.0-1.18","4","4","4","4","3","4","4","3","4","4","5","4","3","4","4","5","4","4","5","5","2","3","2","2","3","2","2","2","1","0","1","0","0","1","1","0","0","0","0","1","0","0","1","0","5","2","4","2","4","4","4","4","3","4","4","773271155669995521","陈","176","","","","","","","","","","","","","","","","","","","","","","","","","","","","","","feedback_test","","","","","","","","","","","",""
"597","","j","psychophysics","145","407142","0.0-7.0-1.0-4.0-0.0-0.19","4","4","4","4","3","4","4","3","4","4","5","4","3","4","4","5","4","4","5","5","2","3","2","2","3","2","2","2","1","0","1","0","0","1","1","0","0","0","0","1","0","0","1","0","5","2","4","2","4","4","4","4","3","4","4","773271155669995521","陈","176","","","","nonmatch","","","","","","","","","","","","","","key","j","16.656842105263404","768","428","j","true","nonmatch","img/triangle.png","五边","三角","ALT1","formal_ALT1_2","","","","","","","","","","","",""
"null","<span style='color:GreenYellow; font-size: 70px;'>正确! </span>","null","html-keyboard-response","146","407643","0.0-7.0-1.0-4.0-0.0-1.19","4","4","4","4","3","4","4","3","4","4","5","4","3","4","4","5","4","4","5","5","2","3","2","2","3","2","2","2","1","0","1","0","0","1","1","0","0","0","0","1","0","0","1","0","5","2","4","2","4","4","4","4","3","4","4","773271155669995521","陈","176","","","","","","","","","","","","","","","","","","","","","","","","","","","","","","feedback_test","","","","","","","","","","","",""
"797","","j","psychophysics","147","409444","0.0-7.0-1.0-4.0-0.0-0.20","4","4","4","4","3","4","4","3","4","4","5","4","3","4","4","5","4","4","5","5","2","3","2","2","3","2","2","2","1","0","1","0","0","1","1","0","0","0","0","1","0","0","1","0","5","2","4","2","4","4","4","4","3","4","4","773271155669995521","陈","176","","","","nonmatch","","","","","","","","","","","","","","key","j","16.65794392523332","768","428","j","true","nonmatch","img/pentagon.png","三角","五边","ALT1","formal_ALT1_2","","","","","","","","","","","",""
"null","<span style='color:GreenYellow; font-size: 70px;'>正确! </span>","null","html-keyboard-response","148","409946","0.0-7.0-1.0-4.0-0.0-1.20","4","4","4","4","3","4","4","3","4","4","5","4","3","4","4","5","4","4","5","5","2","3","2","2","3","2","2","2","1","0","1","0","0","1","1","0","0","0","0","1","0","0","1","0","5","2","4","2","4","4","4","4","3","4","4","773271155669995521","陈","176","","","","","","","","","","","","","","","","","","","","","","","","","","","","","","feedback_test","","","","","","","","","","","",""
"640","","j","psychophysics","149","411589","0.0-7.0-1.0-4.0-0.0-0.21","4","4","4","4","3","4","4","3","4","4","5","4","3","4","4","5","4","4","5","5","2","3","2","2","3","2","2","2","1","0","1","0","0","1","1","0","0","0","0","1","0","0","1","0","5","2","4","2","4","4","4","4","3","4","4","773271155669995521","陈","176","","","","nonmatch","","","","","","","","","","","","","","key","j","16.52755102040769","768","428","j","true","nonmatch","img/triangle.png","方形","三角","ALT1","formal_ALT1_2","","","","","","","","","","","",""
"null","<span style='color:GreenYellow; font-size: 70px;'>正确! </span>","null","html-keyboard-response","150","412091","0.0-7.0-1.0-4.0-0.0-1.21","4","4","4","4","3","4","4","3","4","4","5","4","3","4","4","5","4","4","5","5","2","3","2","2","3","2","2","2","1","0","1","0","0","1","1","0","0","0","0","1","0","0","1","0","5","2","4","2","4","4","4","4","3","4","4","773271155669995521","陈","176","","","","","","","","","","","","","","","","","","","","","","","","","","","","","","feedback_test","","","","","","","","","","","",""
"690","","j","psychophysics","151","413784","0.0-7.0-1.0-4.0-0.0-0.22","4","4","4","4","3","4","4","3","4","4","5","4","3","4","4","5","4","4","5","5","2","3","2","2","3","2","2","2","1","0","1","0","0","1","1","0","0","0","0","1","0","0","1","0","5","2","4","2","4","4","4","4","3","4","4","773271155669995521","陈","176","","","","nonmatch","","","","","","","","","","","","","","key","j","16.660999999999767","768","428","j","true","nonmatch","img/square.png","五边","方形","ALT1","formal_ALT1_2","","","","","","","","","","","",""
"null","<span style='color:GreenYellow; font-size: 70px;'>正确! </span>","null","html-keyboard-response","152","414286","0.0-7.0-1.0-4.0-0.0-1.22","4","4","4","4","3","4","4","3","4","4","5","4","3","4","4","5","4","4","5","5","2","3","2","2","3","2","2","2","1","0","1","0","0","1","1","0","0","0","0","1","0","0","1","0","5","2","4","2","4","4","4","4","3","4","4","773271155669995521","陈","176","","","","","","","","","","","","","","","","","","","","","","","","","","","","","","feedback_test","","","","","","","","","","","",""
"582","","f","psychophysics","153","415870","0.0-7.0-1.0-4.0-0.0-0.23","4","4","4","4","3","4","4","3","4","4","5","4","3","4","4","5","4","4","5","5","2","3","2","2","3","2","2","2","1","0","1","0","0","1","1","0","0","0","0","1","0","0","1","0","5","2","4","2","4","4","4","4","3","4","4","773271155669995521","陈","176","","","","match","","","","","","","","","","","","","","key","f","16.659574468085108","768","428","j","false","nonmatch","img/square.png","三角","方形","ALT1","formal_ALT1_2","","","","","","","","","","","",""
"null","<span style='color:red; font-size: 70px;'>错误! </span>","null","html-keyboard-response","154","416372","0.0-7.0-1.0-4.0-0.0-1.23","4","4","4","4","3","4","4","3","4","4","5","4","3","4","4","5","4","4","5","5","2","3","2","2","3","2","2","2","1","0","1","0","0","1","1","0","0","0","0","1","0","0","1","0","5","2","4","2","4","4","4","4","3","4","4","773271155669995521","陈","176","","","","","","","","","","","","","","","","","","","","","","","","","","","","","","feedback_test","","","","","","","","","","","",""
"762","","f","psychophysics","155","418143","0.0-7.0-1.0-4.0-0.0-0.24","4","4","4","4","3","4","4","3","4","4","5","4","3","4","4","5","4","4","5","5","2","3","2","2","3","2","2","2","1","0","1","0","0","1","1","0","0","0","0","1","0","0","1","0","5","2","4","2","4","4","4","4","3","4","4","773271155669995521","陈","176","","","","match","","","","","","","","","","","","","","key","f","16.633333333333333","768","428","f","true","match","img/pentagon.png","五边","五边","ALT1","formal_ALT1_2","","","","","","","","","","","",""
"null","<span style='color:GreenYellow; font-size: 70px;'>正确! </span>","null","html-keyboard-response","156","418645","0.0-7.0-1.0-4.0-0.0-1.24","4","4","4","4","3","4","4","3","4","4","5","4","3","4","4","5","4","4","5","5","2","3","2","2","3","2","2","2","1","0","1","0","0","1","1","0","0","0","0","1","0","0","1","0","5","2","4","2","4","4","4","4","3","4","4","773271155669995521","陈","176","","","","","","","","","","","","","","","","","","","","","","","","","","","","","","feedback_test","","","","","","","","","","","",""
"595","","j","psychophysics","157","420244","0.0-7.0-1.0-4.0-0.0-0.25","4","4","4","4","3","4","4","3","4","4","5","4","3","4","4","5","4","4","5","5","2","3","2","2","3","2","2","2","1","0","1","0","0","1","1","0","0","0","0","1","0","0","1","0","5","2","4","2","4","4","4","4","3","4","4","773271155669995521","陈","176","","","","nonmatch","","","","","","","","","","","","","","key","j","16.646315789473928","768","428","j","true","nonmatch","img/pentagon.png","椭圆","五边","ALT1","formal_ALT1_2","","","","","","","","","","","",""
"null","<span style='color:GreenYellow; font-size: 70px;'>正确! </span>","null","html-keyboard-response","158","420747","0.0-7.0-1.0-4.0-0.0-1.25","4","4","4","4","3","4","4","3","4","4","5","4","3","4","4","5","4","4","5","5","2","3","2","2","3","2","2","2","1","0","1","0","0","1","1","0","0","0","0","1","0","0","1","0","5","2","4","2","4","4","4","4","3","4","4","773271155669995521","陈","176","","","","","","","","","","","","","","","","","","","","","","","","","","","","","","feedback_test","","","","","","","","","","","",""
"651","","f","psychophysics","159","422401","0.0-7.0-1.0-4.0-0.0-0.26","4","4","4","4","3","4","4","3","4","4","5","4","3","4","4","5","4","4","5","5","2","3","2","2","3","2","2","2","1","0","1","0","0","1","1","0","0","0","0","1","0","0","1","0","5","2","4","2","4","4","4","4","3","4","4","773271155669995521","陈","176","","","","match","","","","","","","","","","","","","","key","f","16.6612244897958","768","428","f","true","match","img/ellipse.png","椭圆","椭圆","ALT1","formal_ALT1_2","","","","","","","","","","","",""
"null","<span style='color:GreenYellow; font-size: 70px;'>正确! </span>","null","html-keyboard-response","160","422903","0.0-7.0-1.0-4.0-0.0-1.26","4","4","4","4","3","4","4","3","4","4","5","4","3","4","4","5","4","4","5","5","2","3","2","2","3","2","2","2","1","0","1","0","0","1","1","0","0","0","0","1","0","0","1","0","5","2","4","2","4","4","4","4","3","4","4","773271155669995521","陈","176","","","","","","","","","","","","","","","","","","","","","","","","","","","","","","feedback_test","","","","","","","","","","","",""
"568","","j","psychophysics","161","424475","0.0-7.0-1.0-4.0-0.0-0.27","4","4","4","4","3","4","4","3","4","4","5","4","3","4","4","5","4","4","5","5","2","3","2","2","3","2","2","2","1","0","1","0","0","1","1","0","0","0","0","1","0","0","1","0","5","2","4","2","4","4","4","4","3","4","4","773271155669995521","陈","176","","","","nonmatch","","","","","","","","","","","","","","key","j","16.66344086021518","768","428","j","true","nonmatch","img/triangle.png","五边","三角","ALT1","formal_ALT1_2","","","","","","","","","","","",""
"null","<span style='color:GreenYellow; font-size: 70px;'>正确! </span>","null","html-keyboard-response","162","424978","0.0-7.0-1.0-4.0-0.0-1.27","4","4","4","4","3","4","4","3","4","4","5","4","3","4","4","5","4","4","5","5","2","3","2","2","3","2","2","2","1","0","1","0","0","1","1","0","0","0","0","1","0","0","1","0","5","2","4","2","4","4","4","4","3","4","4","773271155669995521","陈","176","","","","","","","","","","","","","","","","","","","","","","","","","","","","","","feedback_test","","","","","","","","","","","",""
"610","","j","psychophysics","163","426593","0.0-7.0-1.0-4.0-0.0-0.28","4","4","4","4","3","4","4","3","4","4","5","4","3","4","4","5","4","4","5","5","2","3","2","2","3","2","2","2","1","0","1","0","0","1","1","0","0","0","0","1","0","0","1","0","5","2","4","2","4","4","4","4","3","4","4","773271155669995521","陈","176","","","","nonmatch","","","","","","","","","","","","","","key","j","16.568421052631578","768","428","j","true","nonmatch","img/square.png","五边","方形","ALT1","formal_ALT1_2","","","","","","","","","","","",""
"null","<span style='color:GreenYellow; font-size: 70px;'>正确! </span>","null","html-keyboard-response","164","427095","0.0-7.0-1.0-4.0-0.0-1.28","4","4","4","4","3","4","4","3","4","4","5","4","3","4","4","5","4","4","5","5","2","3","2","2","3","2","2","2","1","0","1","0","0","1","1","0","0","0","0","1","0","0","1","0","5","2","4","2","4","4","4","4","3","4","4","773271155669995521","陈","176","","","","","","","","","","","","","","","","","","","","","","","","","","","","","","feedback_test","","","","","","","","","","","",""
"640","","j","psychophysics","165","428739","0.0-7.0-1.0-4.0-0.0-0.29","4","4","4","4","3","4","4","3","4","4","5","4","3","4","4","5","4","4","5","5","2","3","2","2","3","2","2","2","1","0","1","0","0","1","1","0","0","0","0","1","0","0","1","0","5","2","4","2","4","4","4","4","3","4","4","773271155669995521","陈","176","","","","nonmatch","","","","","","","","","","","","","","key","j","16.572164948453608","768","428","f","false","match","img/pentagon.png","五边","五边","ALT1","formal_ALT1_2","","","","","","","","","","","",""
"null","<span style='color:red; font-size: 70px;'>错误! </span>","null","html-keyboard-response","166","429240","0.0-7.0-1.0-4.0-0.0-1.29","4","4","4","4","3","4","4","3","4","4","5","4","3","4","4","5","4","4","5","5","2","3","2","2","3","2","2","2","1","0","1","0","0","1","1","0","0","0","0","1","0","0","1","0","5","2","4","2","4","4","4","4","3","4","4","773271155669995521","陈","176","","","","","","","","","","","","","","","","","","","","","","","","","","","","","","feedback_test","","","","","","","","","","","",""
"748","","f","psychophysics","167","430992","0.0-7.0-1.0-4.0-0.0-0.30","4","4","4","4","3","4","4","3","4","4","5","4","3","4","4","5","4","4","5","5","2","3","2","2","3","2","2","2","1","0","1","0","0","1","1","0","0","0","0","1","0","0","1","0","5","2","4","2","4","4","4","4","3","4","4","773271155669995521","陈","176","","","","match","","","","","","","","","","","","","","key","f","16.65961538461516","768","428","f","true","match","img/square.png","方形","方形","ALT1","formal_ALT1_2","","","","","","","","","","","",""
"null","<span style='color:GreenYellow; font-size: 70px;'>正确! </span>","null","html-keyboard-response","168","431494","0.0-7.0-1.0-4.0-0.0-1.30","4","4","4","4","3","4","4","3","4","4","5","4","3","4","4","5","4","4","5","5","2","3","2","2","3","2","2","2","1","0","1","0","0","1","1","0","0","0","0","1","0","0","1","0","5","2","4","2","4","4","4","4","3","4","4","773271155669995521","陈","176","","","","","","","","","","","","","","","","","","","","","","","","","","","","","","feedback_test","","","","","","","","","","","",""
"727","","j","psychophysics","169","433224","0.0-7.0-1.0-4.0-0.0-0.31","4","4","4","4","3","4","4","3","4","4","5","4","3","4","4","5","4","4","5","5","2","3","2","2","3","2","2","2","1","0","1","0","0","1","1","0","0","0","0","1","0","0","1","0","5","2","4","2","4","4","4","4","3","4","4","773271155669995521","陈","176","","","","nonmatch","","","","","","","","","","","","","","key","j","16.663725490196192","768","428","j","true","nonmatch","img/pentagon.png","方形","五边","ALT1","formal_ALT1_2","","","","","","","","","","","",""
"null","<span style='color:GreenYellow; font-size: 70px;'>正确! </span>","null","html-keyboard-response","170","433728","0.0-7.0-1.0-4.0-0.0-1.31","4","4","4","4","3","4","4","3","4","4","5","4","3","4","4","5","4","4","5","5","2","3","2","2","3","2","2","2","1","0","1","0","0","1","1","0","0","0","0","1","0","0","1","0","5","2","4","2","4","4","4","4","3","4","4","773271155669995521","陈","176","","","","","","","","","","","","","","","","","","","","","","","","","","","","","","feedback_test","","","","","","","","","","","",""
"776","","j","psychophysics","171","435518","0.0-7.0-1.0-4.0-0.0-0.32","4","4","4","4","3","4","4","3","4","4","5","4","3","4","4","5","4","4","5","5","2","3","2","2","3","2","2","2","1","0","1","0","0","1","1","0","0","0","0","1","0","0","1","0","5","2","4","2","4","4","4","4","3","4","4","773271155669995521","陈","176","","","","nonmatch","","","","","","","","","","","","","","key","j","16.660377358490567","768","428","j","true","nonmatch","img/ellipse.png","五边","椭圆","ALT1","formal_ALT1_2","","","","","","","","","","","",""
"null","<span style='color:GreenYellow; font-size: 70px;'>正确! </span>","null","html-keyboard-response","172","436020","0.0-7.0-1.0-4.0-0.0-1.32","4","4","4","4","3","4","4","3","4","4","5","4","3","4","4","5","4","4","5","5","2","3","2","2","3","2","2","2","1","0","1","0","0","1","1","0","0","0","0","1","0","0","1","0","5","2","4","2","4","4","4","4","3","4","4","773271155669995521","陈","176","","","","","","","","","","","","","","","","","","","","","","","","","","","","","","feedback_test","","","","","","","","","","","",""
"660","","f","psychophysics","173","437684","0.0-7.0-1.0-4.0-0.0-0.33","4","4","4","4","3","4","4","3","4","4","5","4","3","4","4","5","4","4","5","5","2","3","2","2","3","2","2","2","1","0","1","0","0","1","1","0","0","0","0","1","0","0","1","0","5","2","4","2","4","4","4","4","3","4","4","773271155669995521","陈","176","","","","match","","","","","","","","","","","","","","key","f","16.65959595959584","768","428","f","true","match","img/square.png","方形","方形","ALT1","formal_ALT1_2","","","","","","","","","","","",""
"null","<span style='color:GreenYellow; font-size: 70px;'>正确! </span>","null","html-keyboard-response","174","438187","0.0-7.0-1.0-4.0-0.0-1.33","4","4","4","4","3","4","4","3","4","4","5","4","3","4","4","5","4","4","5","5","2","3","2","2","3","2","2","2","1","0","1","0","0","1","1","0","0","0","0","1","0","0","1","0","5","2","4","2","4","4","4","4","3","4","4","773271155669995521","陈","176","","","","","","","","","","","","","","","","","","","","","","","","","","","","","","feedback_test","","","","","","","","","","","",""
"550","","f","psychophysics","175","439740","0.0-7.0-1.0-4.0-0.0-0.34","4","4","4","4","3","4","4","3","4","4","5","4","3","4","4","5","4","4","5","5","2","3","2","2","3","2","2","2","1","0","1","0","0","1","1","0","0","0","0","1","0","0","1","0","5","2","4","2","4","4","4","4","3","4","4","773271155669995521","陈","176","","","","match","","","","","","","","","","","","","","key","f","16.596739130435036","768","428","f","true","match","img/triangle.png","三角","三角","ALT1","formal_ALT1_2","","","","","","","","","","","",""
"null","<span style='color:GreenYellow; font-size: 70px;'>正确! </span>","null","html-keyboard-response","176","440242","0.0-7.0-1.0-4.0-0.0-1.34","4","4","4","4","3","4","4","3","4","4","5","4","3","4","4","5","4","4","5","5","2","3","2","2","3","2","2","2","1","0","1","0","0","1","1","0","0","0","0","1","0","0","1","0","5","2","4","2","4","4","4","4","3","4","4","773271155669995521","陈","176","","","","","","","","","","","","","","","","","","","","","","","","","","","","","","feedback_test","","","","","","","","","","","",""
"596","","f","psychophysics","177","441841","0.0-7.0-1.0-4.0-0.0-0.35","4","4","4","4","3","4","4","3","4","4","5","4","3","4","4","5","4","4","5","5","2","3","2","2","3","2","2","2","1","0","1","0","0","1","1","0","0","0","0","1","0","0","1","0","5","2","4","2","4","4","4","4","3","4","4","773271155669995521","陈","176","","","","match","","","","","","","","","","","","","","key","f","16.54105263157919","768","428","f","true","match","img/square.png","方形","方形","ALT1","formal_ALT1_2","","","","","","","","","","","",""
"null","<span style='color:GreenYellow; font-size: 70px;'>正确! </span>","null","html-keyboard-response","178","442342","0.0-7.0-1.0-4.0-0.0-1.35","4","4","4","4","3","4","4","3","4","4","5","4","3","4","4","5","4","4","5","5","2","3","2","2","3","2","2","2","1","0","1","0","0","1","1","0","0","0","0","1","0","0","1","0","5","2","4","2","4","4","4","4","3","4","4","773271155669995521","陈","176","","","","","","","","","","","","","","","","","","","","","","","","","","","","","","feedback_test","","","","","","","","","","","",""
"592","","f","psychophysics","179","443937","0.0-7.0-1.0-4.0-0.0-0.36","4","4","4","4","3","4","4","3","4","4","5","4","3","4","4","5","4","4","5","5","2","3","2","2","3","2","2","2","1","0","1","0","0","1","1","0","0","0","0","1","0","0","1","0","5","2","4","2","4","4","4","4","3","4","4","773271155669995521","陈","176","","","","match","","","","","","","","","","","","","","key","f","16.675268817204802","768","428","f","true","match","img/ellipse.png","椭圆","椭圆","ALT1","formal_ALT1_2","","","","","","","","","","","",""
"null","<span style='color:GreenYellow; font-size: 70px;'>正确! </span>","null","html-keyboard-response","180","444439","0.0-7.0-1.0-4.0-0.0-1.36","4","4","4","4","3","4","4","3","4","4","5","4","3","4","4","5","4","4","5","5","2","3","2","2","3","2","2","2","1","0","1","0","0","1","1","0","0","0","0","1","0","0","1","0","5","2","4","2","4","4","4","4","3","4","4","773271155669995521","陈","176","","","","","","","","","","","","","","","","","","","","","","","","","","","","","","feedback_test","","","","","","","","","","","",""
"568","","j","psychophysics","181","446010","0.0-7.0-1.0-4.0-0.0-0.37","4","4","4","4","3","4","4","3","4","4","5","4","3","4","4","5","4","4","5","5","2","3","2","2","3","2","2","2","1","0","1","0","0","1","1","0","0","0","0","1","0","0","1","0","5","2","4","2","4","4","4","4","3","4","4","773271155669995521","陈","176","","","","nonmatch","","","","","","","","","","","","","","key","j","16.661290322580644","768","428","j","true","nonmatch","img/ellipse.png","三角","椭圆","ALT1","formal_ALT1_2","","","","","","","","","","","",""
