"rt","stimulus","response","trial_type","trial_index","time_elapsed","internal_node_id","ses_1","ses_2","ses_3","ses_4","ses_5","ses_6","ses_7","ses_8","ses_9","ses_10","coreself_1","coreself_2","coreself_3","coreself_4","coreself_5","coreself_6","coreself_7","coreself_8","coreself_9","coreself_10","SGPS_1","SGPS_2","SGPS_3","SGPS_4","SGPS_5","SGPS_6","SGPS_7","SGPS_8","SGPS_9","NPI1","NPI2","NPI3","NPI4","NPI5","NPI6","NPI7","NPI8","NPI9","NPI10","NPI11","NPI12","NPI13","NPI14","NPI15","hsns_1","hsns_2","hsns_3","hsns_4","hsns_5","trap1","hsns_6","hsns_7","hsns_8","hsns_9","hsns_10","subj_idx","friend_name","ParticipantID","value","success","user_agent","responses","item_order","radio_event_ids","radio_event_times","key_event_times","mouse_event_times","straightlining","zigzagging","honeypot","timeout","failed_images","failed_audio","failed_video","view_history","response_type","key_press","avg_frame_time","center_x","center_y","correct_response","correct","identity","Image","word","condition","task_id","screen_id","time_stamp","version_attrib2","version_target2","IAT","RT","varname","summary","version_attrib","version_target","question_order","correct_answer","trap1_item"
"6543","
   <p><div style = ""color: white;font-size:25px;"">您好，欢迎参加本次实验。</div> </p>
   <p><div style = ""color: white;font-size:25px;"">为充分保障您的权利，请确保您已经知晓并同意《参与实验同意书》以及《数据公开知情同意书》。</div></p>
   <p><div style = ""color: white;font-size:25px;"">如果您未见过上述内容，请咨询实验员。</div></p>
   <p><div style = ""color: white;font-size:25px;"">如果您选择继续实验，则表示您已经清楚两份知情同意书的内容并同意。</div></p>
   <p><div style = ""color: pink;font-size:30px;"">请确保您记得day0的实验编号，您将在本次实验输入该编号，若您忘记，请咨询实验员后作答。</div></p>
   <p><div style = ""color: lightblue;font-size:25px;"">请您尽可能认真地作答，我们将依据您在各问卷和按键任务中的作答质量发放报酬。</div></p>
   <p> <div style = ""color: green;font-size:25px;""><按空格键至下页></div> </p>
   "," ","html-keyboard-response","0","6544","0.0-0.0","4","4","4","4","4","4","4","3","4","4","5","5","5","4","5","5","5","5","4","5","1","1","1","1","1","1","1","1","1","0","1","0","1","0","0","0","1","0","0","0","1","0","0","0","5","1","2","2","1","2","3","4","1","4","1","738081261448597505","周","405","","","","","","","","","","","","","","","","","","","","","","","","","","","","","","","","","","","","","","","","","",""
"","","","call-function","1","6545","0.0-1.0-0.0","4","4","4","4","4","4","4","3","4","4","5","5","5","4","5","5","5","5","4","5","1","1","1","1","1","1","1","1","1","0","1","0","1","0","0","0","1","0","0","0","1","0","0","0","5","1","2","2","1","2","3","4","1","4","1","738081261448597505","周","405","","","","","","","","","","","","","","","","","","","","","","","","","","","","","","","","","","","","","","","","","",""
"32247","","{""friend_name"":""周"",""ParticipantID"":""405""}","survey-html-form","2","38793","0.0-1.0-1.0","4","4","4","4","4","4","4","3","4","4","5","5","5","4","5","5","5","5","4","5","1","1","1","1","1","1","1","1","1","0","1","0","1","0","0","0","1","0","0","0","1","0","0","0","5","1","2","2","1","2","3","4","1","4","1","738081261448597505","周","405","","","","","","","","","","","","","","","","","","","","","","","","","","","","","","","","","","","","","","","","","",""
"","","","fullscreen","3","40189","0.0-2.0","4","4","4","4","4","4","4","3","4","4","5","5","5","4","5","5","5","5","4","5","1","1","1","1","1","1","1","1","1","0","1","0","1","0","0","0","1","0","0","0","1","0","0","0","5","1","2","2","1","2","3","4","1","4","1","738081261448597505","周","405","","true","{}","","","","","","","","","","","","","","","","","","","","","","","","","","","","","","","","","","","","","","",""
"27266.29999923706","","{""Q01"":""4"",""Q02"":""4"",""Q03"":""4"",""Q04"":""4"",""Q05"":""4"",""Q06"":""4"",""Q07"":""4"",""Q08"":""3"",""Q09"":""4"",""Q10"":""4""}","survey-template","4","67457","0.0-3.0","4","4","4","4","4","4","4","3","4","4","5","5","5","4","5","5","5","5","4","5","1","1","1","1","1","1","1","1","1","0","1","0","1","0","0","0","1","0","0","0","1","0","0","0","5","1","2","2","1","2","3","4","1","4","1","738081261448597505","周","405","","","","{""Q01"":""4"",""Q02"":""4"",""Q03"":""4"",""Q04"":""4"",""Q05"":""4"",""Q06"":""4"",""Q07"":""4"",""Q08"":""3"",""Q09"":""4"",""Q10"":""4""}","[0,1,2,3,4,5,6,7,8,9]","[""Q02"",""Q01"",""Q03"",""Q04"",""Q06"",""Q05"",""Q07"",""Q09"",""Q08"",""Q10""]","[2457.6000003814697,3409.7000007629395,7010.299999237061,7881.5,9137.39999961853,10337.60000038147,12561.60000038147,14314,15641.60000038147,16529.70000076294]","[]","[2457.6000003814697,3409.7000007629395,7010.299999237061,7881.5,9137.39999961853,10337.60000038147,12561.60000038147,13233.5,14314,14818,15641.60000038147,16529.70000076294,27265.5]","0.5","0.5555555555555556","0","","","","","","","","","","","","","","","","","","","","","","","","","","","","","",""
"38116.39999961853","","{""Q01"":""5"",""Q02"":""5"",""Q03"":""5"",""Q04"":""4"",""Q05"":""5"",""Q06"":""5"",""Q07"":""5"",""Q08"":""5"",""Q09"":""4"",""Q10"":""5""}","survey-template","5","105577","0.0-4.0","4","4","4","4","4","4","4","3","4","4","5","5","5","4","5","5","5","5","4","5","1","1","1","1","1","1","1","1","1","0","1","0","1","0","0","0","1","0","0","0","1","0","0","0","5","1","2","2","1","2","3","4","1","4","1","738081261448597505","周","405","","","","{""Q01"":""5"",""Q02"":""5"",""Q03"":""5"",""Q04"":""4"",""Q05"":""5"",""Q06"":""5"",""Q07"":""5"",""Q08"":""5"",""Q09"":""4"",""Q10"":""5""}","[0,1,2,3,4,5,6,7,8,9]","[""Q06"",""Q07"",""Q08"",""Q09"",""Q10"",""Q10"",""Q03"",""Q04"",""Q05"",""Q01"",""Q02"",""Q04"",""Q09""]","[5539.39999961853,7187.39999961853,7635.39999961853,8899.60000038147,10228.29999923706,10427.39999961853,11603.39999961853,12747.79999923706,14003.39999961853,15124.29999923706,16275.5,30379.69999885559,31844.79999923706]","[]","[5539.39999961853,6635.299999237061,7187.39999961853,7635.39999961853,8899.60000038147,10228.29999923706,10427.39999961853,11603.39999961853,12747.79999923706,14003.39999961853,15124.29999923706,16275.5,30379.69999885559,31844.79999923706,38115.5]","0.6","0.3333333333333333","0","","","","","","","","","","","","","","","","","","","","","","","","","","","","","",""
"","","","preload","6","105856","0.0-5.0","4","4","4","4","4","4","4","3","4","4","5","5","5","4","5","5","5","5","4","5","1","1","1","1","1","1","1","1","1","0","1","0","1","0","0","0","1","0","0","0","1","0","0","0","5","1","2","2","1","2","3","4","1","4","1","738081261448597505","周","405","","true","","","","","","","","","","","false","[]","[]","[]","","","","","","","","","","","","","","","","","","","","","","","","","",""
"1416","","","instructions","7","107273","0.0-6.0","4","4","4","4","4","4","4","3","4","4","5","5","5","4","5","5","5","5","4","5","1","1","1","1","1","1","1","1","1","0","1","0","1","0","0","0","1","0","0","0","1","0","0","0","5","1","2","2","1","2","3","4","1","4","1","738081261448597505","周","405","","","","","","","","","","","","","","","","","[{""page_index"":0,""viewing_time"":1416}]","","","","","","","","","","","","","","","","","","","","","","","","",""
"122007","","","instructions","8","229280","0.0-7.0-0.0-0.0","4","4","4","4","4","4","4","3","4","4","5","5","5","4","5","5","5","5","4","5","1","1","1","1","1","1","1","1","1","0","1","0","1","0","0","0","1","0","0","0","1","0","0","0","5","1","2","2","1","2","3","4","1","4","1","738081261448597505","周","405","","","","","","","","","","","","","","","","","[{""page_index"":0,""viewing_time"":107174},{""page_index"":1,""viewing_time"":12176},{""page_index"":2,""viewing_time"":2656}]","","","","","","","","","","","","","","","","","","","","","","","","",""
"836","","j","psychophysics","9","231120","0.0-7.0-0.0-1.0-0.0-0.0","4","4","4","4","4","4","4","3","4","4","5","5","5","4","5","5","5","5","4","5","1","1","1","1","1","1","1","1","1","0","1","0","1","0","0","0","1","0","0","0","1","0","0","0","5","1","2","2","1","2","3","4","1","4","1","738081261448597505","周","405","","","","match","","","","","","","","","","","","","","key","j","16.6492844036697","768","428","j","true","match","img/hexagon.png","六边","六边","ALT1_1","prac_ALT1_1","","","","","","","","","","","",""
"null","<span style='color:GreenYellow; font-size: 70px;'>正确! </span>","null","html-keyboard-response","10","231622","0.0-7.0-0.0-1.0-0.0-1.0","4","4","4","4","4","4","4","3","4","4","5","5","5","4","5","5","5","5","4","5","1","1","1","1","1","1","1","1","1","0","1","0","1","0","0","0","1","0","0","0","1","0","0","0","5","1","2","2","1","2","3","4","1","4","1","738081261448597505","周","405","","","","","","","","","","","","","","","","","","","","","","","","","","","","","","feedback_test","","","","","","","","","","","",""
"720","","f","psychophysics","11","233344","0.0-7.0-0.0-1.0-0.0-0.1","4","4","4","4","4","4","4","3","4","4","5","5","5","4","5","5","5","5","4","5","1","1","1","1","1","1","1","1","1","0","1","0","1","0","0","0","1","0","0","0","1","0","0","0","5","1","2","2","1","2","3","4","1","4","1","738081261448597505","周","405","","","","nonmatch","","","","","","","","","","","","","","key","f","16.651194174757318","768","428","f","true","nonmatch","img/triangle.png","梯形","三角","ALT1_1","prac_ALT1_1","","","","","","","","","","","",""
"null","<span style='color:GreenYellow; font-size: 70px;'>正确! </span>","null","html-keyboard-response","12","233845","0.0-7.0-0.0-1.0-0.0-1.1","4","4","4","4","4","4","4","3","4","4","5","5","5","4","5","5","5","5","4","5","1","1","1","1","1","1","1","1","1","0","1","0","1","0","0","0","1","0","0","0","1","0","0","0","5","1","2","2","1","2","3","4","1","4","1","738081261448597505","周","405","","","","","","","","","","","","","","","","","","","","","","","","","","","","","","feedback_test","","","","","","","","","","","",""
"777","","j","psychophysics","13","235624","0.0-7.0-0.0-1.0-0.0-0.2","4","4","4","4","4","4","4","3","4","4","5","5","5","4","5","5","5","5","4","5","1","1","1","1","1","1","1","1","1","0","1","0","1","0","0","0","1","0","0","0","1","0","0","0","5","1","2","2","1","2","3","4","1","4","1","738081261448597505","周","405","","","","match","","","","","","","","","","","","","","key","j","16.651415094339512","768","428","j","true","match","img/circle.png","圆形","圆形","ALT1_1","prac_ALT1_1","","","","","","","","","","","",""
"null","<span style='color:GreenYellow; font-size: 70px;'>正确! </span>","null","html-keyboard-response","14","236125","0.0-7.0-0.0-1.0-0.0-1.2","4","4","4","4","4","4","4","3","4","4","5","5","5","4","5","5","5","5","4","5","1","1","1","1","1","1","1","1","1","0","1","0","1","0","0","0","1","0","0","0","1","0","0","0","5","1","2","2","1","2","3","4","1","4","1","738081261448597505","周","405","","","","","","","","","","","","","","","","","","","","","","","","","","","","","","feedback_test","","","","","","","","","","","",""
"729","","f","psychophysics","15","237856","0.0-7.0-0.0-1.0-0.0-0.3","4","4","4","4","4","4","4","3","4","4","5","5","5","4","5","5","5","5","4","5","1","1","1","1","1","1","1","1","1","0","1","0","1","0","0","0","1","0","0","0","1","0","0","0","5","1","2","2","1","2","3","4","1","4","1","738081261448597505","周","405","","","","nonmatch","","","","","","","","","","","","","","key","f","16.648417475728262","768","428","f","true","nonmatch","img/circle.png","梯形","圆形","ALT1_1","prac_ALT1_1","","","","","","","","","","","",""
"null","<span style='color:GreenYellow; font-size: 70px;'>正确! </span>","null","html-keyboard-response","16","238357","0.0-7.0-0.0-1.0-0.0-1.3","4","4","4","4","4","4","4","3","4","4","5","5","5","4","5","5","5","5","4","5","1","1","1","1","1","1","1","1","1","0","1","0","1","0","0","0","1","0","0","0","1","0","0","0","5","1","2","2","1","2","3","4","1","4","1","738081261448597505","周","405","","","","","","","","","","","","","","","","","","","","","","","","","","","","","","feedback_test","","","","","","","","","","","",""
"634","","j","psychophysics","17","239992","0.0-7.0-0.0-1.0-0.0-0.4","4","4","4","4","4","4","4","3","4","4","5","5","5","4","5","5","5","5","4","5","1","1","1","1","1","1","1","1","1","0","1","0","1","0","0","0","1","0","0","0","1","0","0","0","5","1","2","2","1","2","3","4","1","4","1","738081261448597505","周","405","","","","match","","","","","","","","","","","","","","key","j","16.65078350515483","768","428","j","true","match","img/hexagon.png","六边","六边","ALT1_1","prac_ALT1_1","","","","","","","","","","","",""
"null","<span style='color:GreenYellow; font-size: 70px;'>正确! </span>","null","html-keyboard-response","18","240494","0.0-7.0-0.0-1.0-0.0-1.4","4","4","4","4","4","4","4","3","4","4","5","5","5","4","5","5","5","5","4","5","1","1","1","1","1","1","1","1","1","0","1","0","1","0","0","0","1","0","0","0","1","0","0","0","5","1","2","2","1","2","3","4","1","4","1","738081261448597505","周","405","","","","","","","","","","","","","","","","","","","","","","","","","","","","","","feedback_test","","","","","","","","","","","",""
"623","","j","psychophysics","19","242120","0.0-7.0-0.0-1.0-0.0-0.5","4","4","4","4","4","4","4","3","4","4","5","5","5","4","5","5","5","5","4","5","1","1","1","1","1","1","1","1","1","0","1","0","1","0","0","0","1","0","0","0","1","0","0","0","5","1","2","2","1","2","3","4","1","4","1","738081261448597505","周","405","","","","match","","","","","","","","","","","","","","key","j","16.650412371133985","768","428","j","true","match","img/circle.png","圆形","圆形","ALT1_1","prac_ALT1_1","","","","","","","","","","","",""
"null","<span style='color:GreenYellow; font-size: 70px;'>正确! </span>","null","html-keyboard-response","20","242621","0.0-7.0-0.0-1.0-0.0-1.5","4","4","4","4","4","4","4","3","4","4","5","5","5","4","5","5","5","5","4","5","1","1","1","1","1","1","1","1","1","0","1","0","1","0","0","0","1","0","0","0","1","0","0","0","5","1","2","2","1","2","3","4","1","4","1","738081261448597505","周","405","","","","","","","","","","","","","","","","","","","","","","","","","","","","","","feedback_test","","","","","","","","","","","",""
"600","","j","psychophysics","21","244224","0.0-7.0-0.0-1.0-0.0-0.6","4","4","4","4","4","4","4","3","4","4","5","5","5","4","5","5","5","5","4","5","1","1","1","1","1","1","1","1","1","0","1","0","1","0","0","0","1","0","0","0","1","0","0","0","5","1","2","2","1","2","3","4","1","4","1","738081261448597505","周","405","","","","match","","","","","","","","","","","","","","key","j","16.649789473684322","768","428","j","true","match","img/triangle.png","三角","三角","ALT1_1","prac_ALT1_1","","","","","","","","","","","",""
"null","<span style='color:GreenYellow; font-size: 70px;'>正确! </span>","null","html-keyboard-response","22","244726","0.0-7.0-0.0-1.0-0.0-1.6","4","4","4","4","4","4","4","3","4","4","5","5","5","4","5","5","5","5","4","5","1","1","1","1","1","1","1","1","1","0","1","0","1","0","0","0","1","0","0","0","1","0","0","0","5","1","2","2","1","2","3","4","1","4","1","738081261448597505","周","405","","","","","","","","","","","","","","","","","","","","","","","","","","","","","","feedback_test","","","","","","","","","","","",""
"600","","f","psychophysics","23","246328","0.0-7.0-0.0-1.0-0.0-0.7","4","4","4","4","4","4","4","3","4","4","5","5","5","4","5","5","5","5","4","5","1","1","1","1","1","1","1","1","1","0","1","0","1","0","0","0","1","0","0","0","1","0","0","0","5","1","2","2","1","2","3","4","1","4","1","738081261448597505","周","405","","","","nonmatch","","","","","","","","","","","","","","key","f","16.651010526315996","768","428","f","true","nonmatch","img/hexagon.png","三角","六边","ALT1_1","prac_ALT1_1","","","","","","","","","","","",""
"null","<span style='color:GreenYellow; font-size: 70px;'>正确! </span>","null","html-keyboard-response","24","246829","0.0-7.0-0.0-1.0-0.0-1.7","4","4","4","4","4","4","4","3","4","4","5","5","5","4","5","5","5","5","4","5","1","1","1","1","1","1","1","1","1","0","1","0","1","0","0","0","1","0","0","0","1","0","0","0","5","1","2","2","1","2","3","4","1","4","1","738081261448597505","周","405","","","","","","","","","","","","","","","","","","","","","","","","","","","","","","feedback_test","","","","","","","","","","","",""
"610","","j","psychophysics","25","248440","0.0-7.0-0.0-1.0-0.0-0.8","4","4","4","4","4","4","4","3","4","4","5","5","5","4","5","5","5","5","4","5","1","1","1","1","1","1","1","1","1","0","1","0","1","0","0","0","1","0","0","0","1","0","0","0","5","1","2","2","1","2","3","4","1","4","1","738081261448597505","周","405","","","","match","","","","","","","","","","","","","","key","j","16.642947368420916","768","428","j","true","match","img/hexagon.png","六边","六边","ALT1_1","prac_ALT1_1","","","","","","","","","","","",""
"null","<span style='color:GreenYellow; font-size: 70px;'>正确! </span>","null","html-keyboard-response","26","248941","0.0-7.0-0.0-1.0-0.0-1.8","4","4","4","4","4","4","4","3","4","4","5","5","5","4","5","5","5","5","4","5","1","1","1","1","1","1","1","1","1","0","1","0","1","0","0","0","1","0","0","0","1","0","0","0","5","1","2","2","1","2","3","4","1","4","1","738081261448597505","周","405","","","","","","","","","","","","","","","","","","","","","","","","","","","","","","feedback_test","","","","","","","","","","","",""
"592","","j","psychophysics","27","250536","0.0-7.0-0.0-1.0-0.0-0.9","4","4","4","4","4","4","4","3","4","4","5","5","5","4","5","5","5","5","4","5","1","1","1","1","1","1","1","1","1","0","1","0","1","0","0","0","1","0","0","0","1","0","0","0","5","1","2","2","1","2","3","4","1","4","1","738081261448597505","周","405","","","","match","","","","","","","","","","","","","","key","j","16.65261052631571","768","428","j","true","match","img/circle.png","圆形","圆形","ALT1_1","prac_ALT1_1","","","","","","","","","","","",""
"null","<span style='color:GreenYellow; font-size: 70px;'>正确! </span>","null","html-keyboard-response","28","251037","0.0-7.0-0.0-1.0-0.0-1.9","4","4","4","4","4","4","4","3","4","4","5","5","5","4","5","5","5","5","4","5","1","1","1","1","1","1","1","1","1","0","1","0","1","0","0","0","1","0","0","0","1","0","0","0","5","1","2","2","1","2","3","4","1","4","1","738081261448597505","周","405","","","","","","","","","","","","","","","","","","","","","","","","","","","","","","feedback_test","","","","","","","","","","","",""
"650","","j","psychophysics","29","252688","0.0-7.0-0.0-1.0-0.0-0.10","4","4","4","4","4","4","4","3","4","4","5","5","5","4","5","5","5","5","4","5","1","1","1","1","1","1","1","1","1","0","1","0","1","0","0","0","1","0","0","0","1","0","0","0","5","1","2","2","1","2","3","4","1","4","1","738081261448597505","周","405","","","","match","","","","","","","","","","","","","","key","j","16.651816326530582","768","428","j","true","match","img/trapezoid.png","梯形","梯形","ALT1_1","prac_ALT1_1","","","","","","","","","","","",""
"null","<span style='color:GreenYellow; font-size: 70px;'>正确! </span>","null","html-keyboard-response","30","253189","0.0-7.0-0.0-1.0-0.0-1.10","4","4","4","4","4","4","4","3","4","4","5","5","5","4","5","5","5","5","4","5","1","1","1","1","1","1","1","1","1","0","1","0","1","0","0","0","1","0","0","0","1","0","0","0","5","1","2","2","1","2","3","4","1","4","1","738081261448597505","周","405","","","","","","","","","","","","","","","","","","","","","","","","","","","","","","feedback_test","","","","","","","","","","","",""
"627","","f","psychophysics","31","254817","0.0-7.0-0.0-1.0-0.0-0.11","4","4","4","4","4","4","4","3","4","4","5","5","5","4","5","5","5","5","4","5","1","1","1","1","1","1","1","1","1","0","1","0","1","0","0","0","1","0","0","0","1","0","0","0","5","1","2","2","1","2","3","4","1","4","1","738081261448597505","周","405","","","","nonmatch","","","","","","","","","","","","","","key","f","16.65171134020634","768","428","f","true","nonmatch","img/triangle.png","六边","三角","ALT1_1","prac_ALT1_1","","","","","","","","","","","",""
"null","<span style='color:GreenYellow; font-size: 70px;'>正确! </span>","null","html-keyboard-response","32","255318","0.0-7.0-0.0-1.0-0.0-1.11","4","4","4","4","4","4","4","3","4","4","5","5","5","4","5","5","5","5","4","5","1","1","1","1","1","1","1","1","1","0","1","0","1","0","0","0","1","0","0","0","1","0","0","0","5","1","2","2","1","2","3","4","1","4","1","738081261448597505","周","405","","","","","","","","","","","","","","","","","","","","","","","","","","","","","","feedback_test","","","","","","","","","","","",""
"553","","f","psychophysics","33","256872","0.0-7.0-0.0-1.0-0.0-0.12","4","4","4","4","4","4","4","3","4","4","5","5","5","4","5","5","5","5","4","5","1","1","1","1","1","1","1","1","1","0","1","0","1","0","0","0","1","0","0","0","1","0","0","0","5","1","2","2","1","2","3","4","1","4","1","738081261448597505","周","405","","","","nonmatch","","","","","","","","","","","","","","key","f","16.653473118279425","768","428","f","true","nonmatch","img/circle.png","六边","圆形","ALT1_1","prac_ALT1_1","","","","","","","","","","","",""
"null","<span style='color:GreenYellow; font-size: 70px;'>正确! </span>","null","html-keyboard-response","34","257373","0.0-7.0-0.0-1.0-0.0-1.12","4","4","4","4","4","4","4","3","4","4","5","5","5","4","5","5","5","5","4","5","1","1","1","1","1","1","1","1","1","0","1","0","1","0","0","0","1","0","0","0","1","0","0","0","5","1","2","2","1","2","3","4","1","4","1","738081261448597505","周","405","","","","","","","","","","","","","","","","","","","","","","","","","","","","","","feedback_test","","","","","","","","","","","",""
"521","","f","psychophysics","35","258896","0.0-7.0-0.0-1.0-0.0-0.13","4","4","4","4","4","4","4","3","4","4","5","5","5","4","5","5","5","5","4","5","1","1","1","1","1","1","1","1","1","0","1","0","1","0","0","0","1","0","0","0","1","0","0","0","5","1","2","2","1","2","3","4","1","4","1","738081261448597505","周","405","","","","nonmatch","","","","","","","","","","","","","","key","f","16.650944444444352","768","428","f","true","nonmatch","img/trapezoid.png","圆形","梯形","ALT1_1","prac_ALT1_1","","","","","","","","","","","",""
"null","<span style='color:GreenYellow; font-size: 70px;'>正确! </span>","null","html-keyboard-response","36","259398","0.0-7.0-0.0-1.0-0.0-1.13","4","4","4","4","4","4","4","3","4","4","5","5","5","4","5","5","5","5","4","5","1","1","1","1","1","1","1","1","1","0","1","0","1","0","0","0","1","0","0","0","1","0","0","0","5","1","2","2","1","2","3","4","1","4","1","738081261448597505","周","405","","","","","","","","","","","","","","","","","","","","","","","","","","","","","","feedback_test","","","","","","","","","","","",""
"289","","f","psychophysics","37","260688","0.0-7.0-0.0-1.0-0.0-0.14","4","4","4","4","4","4","4","3","4","4","5","5","5","4","5","5","5","5","4","5","1","1","1","1","1","1","1","1","1","0","1","0","1","0","0","0","1","0","0","0","1","0","0","0","5","1","2","2","1","2","3","4","1","4","1","738081261448597505","周","405","","","","nonmatch","","","","","","","","","","","","","","key","f","16.652168831168886","768","428","f","true","nonmatch","img/triangle.png","圆形","三角","ALT1_1","prac_ALT1_1","","","","","","","","","","","",""
"null","<span style='color:GreenYellow; font-size: 70px;'>正确! </span>","null","html-keyboard-response","38","261189","0.0-7.0-0.0-1.0-0.0-1.14","4","4","4","4","4","4","4","3","4","4","5","5","5","4","5","5","5","5","4","5","1","1","1","1","1","1","1","1","1","0","1","0","1","0","0","0","1","0","0","0","1","0","0","0","5","1","2","2","1","2","3","4","1","4","1","738081261448597505","周","405","","","","","","","","","","","","","","","","","","","","","","","","","","","","","","feedback_test","","","","","","","","","","","",""
"681","","j","psychophysics","39","262872","0.0-7.0-0.0-1.0-0.0-0.15","4","4","4","4","4","4","4","3","4","4","5","5","5","4","5","5","5","5","4","5","1","1","1","1","1","1","1","1","1","0","1","0","1","0","0","0","1","0","0","0","1","0","0","0","5","1","2","2","1","2","3","4","1","4","1","738081261448597505","周","405","","","","match","","","","","","","","","","","","","","key","j","16.651130000000123","768","428","f","false","nonmatch","img/circle.png","三角","圆形","ALT1_1","prac_ALT1_1","","","","","","","","","","","",""
"null","<span style='color:red; font-size: 70px;'>错误! </span>","null","html-keyboard-response","40","263373","0.0-7.0-0.0-1.0-0.0-1.15","4","4","4","4","4","4","4","3","4","4","5","5","5","4","5","5","5","5","4","5","1","1","1","1","1","1","1","1","1","0","1","0","1","0","0","0","1","0","0","0","1","0","0","0","5","1","2","2","1","2","3","4","1","4","1","738081261448597505","周","405","","","","","","","","","","","","","","","","","","","","","","","","","","","","","","feedback_test","","","","","","","","","","","",""
"762","","f","psychophysics","41","265136","0.0-7.0-0.0-1.0-0.0-0.16","4","4","4","4","4","4","4","3","4","4","5","5","5","4","5","5","5","5","4","5","1","1","1","1","1","1","1","1","1","0","1","0","1","0","0","0","1","0","0","0","1","0","0","0","5","1","2","2","1","2","3","4","1","4","1","738081261448597505","周","405","","","","nonmatch","","","","","","","","","","","","","","key","f","16.649323809523846","768","428","f","true","nonmatch","img/trapezoid.png","六边","梯形","ALT1_1","prac_ALT1_1","","","","","","","","","","","",""
"null","<span style='color:GreenYellow; font-size: 70px;'>正确! </span>","null","html-keyboard-response","42","265637","0.0-7.0-0.0-1.0-0.0-1.16","4","4","4","4","4","4","4","3","4","4","5","5","5","4","5","5","5","5","4","5","1","1","1","1","1","1","1","1","1","0","1","0","1","0","0","0","1","0","0","0","1","0","0","0","5","1","2","2","1","2","3","4","1","4","1","738081261448597505","周","405","","","","","","","","","","","","","","","","","","","","","","","","","","","","","","feedback_test","","","","","","","","","","","",""
"633","","j","psychophysics","43","267272","0.0-7.0-0.0-1.0-0.0-0.17","4","4","4","4","4","4","4","3","4","4","5","5","5","4","5","5","5","5","4","5","1","1","1","1","1","1","1","1","1","0","1","0","1","0","0","0","1","0","0","0","1","0","0","0","5","1","2","2","1","2","3","4","1","4","1","738081261448597505","周","405","","","","match","","","","","","","","","","","","","","key","j","16.65102061855705","768","428","j","true","match","img/triangle.png","三角","三角","ALT1_1","prac_ALT1_1","","","","","","","","","","","",""
"null","<span style='color:GreenYellow; font-size: 70px;'>正确! </span>","null","html-keyboard-response","44","267772","0.0-7.0-0.0-1.0-0.0-1.17","4","4","4","4","4","4","4","3","4","4","5","5","5","4","5","5","5","5","4","5","1","1","1","1","1","1","1","1","1","0","1","0","1","0","0","0","1","0","0","0","1","0","0","0","5","1","2","2","1","2","3","4","1","4","1","738081261448597505","周","405","","","","","","","","","","","","","","","","","","","","","","","","","","","","","","feedback_test","","","","","","","","","","","",""
"633","","j","psychophysics","45","269408","0.0-7.0-0.0-1.0-0.0-0.18","4","4","4","4","4","4","4","3","4","4","5","5","5","4","5","5","5","5","4","5","1","1","1","1","1","1","1","1","1","0","1","0","1","0","0","0","1","0","0","0","1","0","0","0","5","1","2","2","1","2","3","4","1","4","1","738081261448597505","周","405","","","","match","","","","","","","","","","","","","","key","j","16.65199999999946","768","428","j","true","match","img/trapezoid.png","梯形","梯形","ALT1_1","prac_ALT1_1","","","","","","","","","","","",""
"null","<span style='color:GreenYellow; font-size: 70px;'>正确! </span>","null","html-keyboard-response","46","269909","0.0-7.0-0.0-1.0-0.0-1.18","4","4","4","4","4","4","4","3","4","4","5","5","5","4","5","5","5","5","4","5","1","1","1","1","1","1","1","1","1","0","1","0","1","0","0","0","1","0","0","0","1","0","0","0","5","1","2","2","1","2","3","4","1","4","1","738081261448597505","周","405","","","","","","","","","","","","","","","","","","","","","","","","","","","","","","feedback_test","","","","","","","","","","","",""
"578","","j","psychophysics","47","271488","0.0-7.0-0.0-1.0-0.0-0.19","4","4","4","4","4","4","4","3","4","4","5","5","5","4","5","5","5","5","4","5","1","1","1","1","1","1","1","1","1","0","1","0","1","0","0","0","1","0","0","0","1","0","0","0","5","1","2","2","1","2","3","4","1","4","1","738081261448597505","周","405","","","","match","","","","","","","","","","","","","","key","j","16.654999999999774","768","428","j","true","match","img/trapezoid.png","梯形","梯形","ALT1_1","prac_ALT1_1","","","","","","","","","","","",""
"null","<span style='color:GreenYellow; font-size: 70px;'>正确! </span>","null","html-keyboard-response","48","271990","0.0-7.0-0.0-1.0-0.0-1.19","4","4","4","4","4","4","4","3","4","4","5","5","5","4","5","5","5","5","4","5","1","1","1","1","1","1","1","1","1","0","1","0","1","0","0","0","1","0","0","0","1","0","0","0","5","1","2","2","1","2","3","4","1","4","1","738081261448597505","周","405","","","","","","","","","","","","","","","","","","","","","","","","","","","","","","feedback_test","","","","","","","","","","","",""
"602","","j","psychophysics","49","273592","0.0-7.0-0.0-1.0-0.0-0.20","4","4","4","4","4","4","4","3","4","4","5","5","5","4","5","5","5","5","4","5","1","1","1","1","1","1","1","1","1","0","1","0","1","0","0","0","1","0","0","0","1","0","0","0","5","1","2","2","1","2","3","4","1","4","1","738081261448597505","周","405","","","","match","","","","","","","","","","","","","","key","j","16.650557894736995","768","428","j","true","match","img/triangle.png","三角","三角","ALT1_1","prac_ALT1_1","","","","","","","","","","","",""
"null","<span style='color:GreenYellow; font-size: 70px;'>正确! </span>","null","html-keyboard-response","50","274094","0.0-7.0-0.0-1.0-0.0-1.20","4","4","4","4","4","4","4","3","4","4","5","5","5","4","5","5","5","5","4","5","1","1","1","1","1","1","1","1","1","0","1","0","1","0","0","0","1","0","0","0","1","0","0","0","5","1","2","2","1","2","3","4","1","4","1","738081261448597505","周","405","","","","","","","","","","","","","","","","","","","","","","","","","","","","","","feedback_test","","","","","","","","","","","",""
"544","","f","psychophysics","51","275640","0.0-7.0-0.0-1.0-0.0-0.21","4","4","4","4","4","4","4","3","4","4","5","5","5","4","5","5","5","5","4","5","1","1","1","1","1","1","1","1","1","0","1","0","1","0","0","0","1","0","0","0","1","0","0","0","5","1","2","2","1","2","3","4","1","4","1","738081261448597505","周","405","","","","nonmatch","","","","","","","","","","","","","","key","f","16.651695652173974","768","428","f","true","nonmatch","img/hexagon.png","圆形","六边","ALT1_1","prac_ALT1_1","","","","","","","","","","","",""
"null","<span style='color:GreenYellow; font-size: 70px;'>正确! </span>","null","html-keyboard-response","52","276141","0.0-7.0-0.0-1.0-0.0-1.21","4","4","4","4","4","4","4","3","4","4","5","5","5","4","5","5","5","5","4","5","1","1","1","1","1","1","1","1","1","0","1","0","1","0","0","0","1","0","0","0","1","0","0","0","5","1","2","2","1","2","3","4","1","4","1","738081261448597505","周","405","","","","","","","","","","","","","","","","","","","","","","","","","","","","","","feedback_test","","","","","","","","","","","",""
"745","","f","psychophysics","53","277888","0.0-7.0-0.0-1.0-0.0-0.22","4","4","4","4","4","4","4","3","4","4","5","5","5","4","5","5","5","5","4","5","1","1","1","1","1","1","1","1","1","0","1","0","1","0","0","0","1","0","0","0","1","0","0","0","5","1","2","2","1","2","3","4","1","4","1","738081261448597505","周","405","","","","nonmatch","","","","","","","","","","","","","","key","f","16.650596153846262","768","428","f","true","nonmatch","img/hexagon.png","梯形","六边","ALT1_1","prac_ALT1_1","","","","","","","","","","","",""
"null","<span style='color:GreenYellow; font-size: 70px;'>正确! </span>","null","html-keyboard-response","54","278389","0.0-7.0-0.0-1.0-0.0-1.22","4","4","4","4","4","4","4","3","4","4","5","5","5","4","5","5","5","5","4","5","1","1","1","1","1","1","1","1","1","0","1","0","1","0","0","0","1","0","0","0","1","0","0","0","5","1","2","2","1","2","3","4","1","4","1","738081261448597505","周","405","","","","","","","","","","","","","","","","","","","","","","","","","","","","","","feedback_test","","","","","","","","","","","",""
"602","","f","psychophysics","55","279993","0.0-7.0-0.0-1.0-0.0-0.23","4","4","4","4","4","4","4","3","4","4","5","5","5","4","5","5","5","5","4","5","1","1","1","1","1","1","1","1","1","0","1","0","1","0","0","0","1","0","0","0","1","0","0","0","5","1","2","2","1","2","3","4","1","4","1","738081261448597505","周","405","","","","nonmatch","","","","","","","","","","","","","","key","f","16.65145263157932","768","428","f","true","nonmatch","img/trapezoid.png","三角","梯形","ALT1_1","prac_ALT1_1","","","","","","","","","","","",""
"null","<span style='color:GreenYellow; font-size: 70px;'>正确! </span>","null","html-keyboard-response","56","280494","0.0-7.0-0.0-1.0-0.0-1.23","4","4","4","4","4","4","4","3","4","4","5","5","5","4","5","5","5","5","4","5","1","1","1","1","1","1","1","1","1","0","1","0","1","0","0","0","1","0","0","0","1","0","0","0","5","1","2","2","1","2","3","4","1","4","1","738081261448597505","周","405","","","","","","","","","","","","","","","","","","","","","","","","","","","","","","feedback_test","","","","","","","","","","","",""
"584","","f","psychophysics","57","282080","0.0-7.0-0.0-1.0-0.0-0.24","4","4","4","4","4","4","4","3","4","4","5","5","5","4","5","5","5","5","4","5","1","1","1","1","1","1","1","1","1","0","1","0","1","0","0","0","1","0","0","0","1","0","0","0","5","1","2","2","1","2","3","4","1","4","1","738081261448597505","周","405","","","","nonmatch","","","","","","","","","","","","","","key","f","16.65092553191464","768","428","f","true","nonmatch","img/circle.png","六边","圆形","ALT1_1","prac_ALT1_1","","","","","","","","","","","",""
"null","<span style='color:GreenYellow; font-size: 70px;'>正确! </span>","null","html-keyboard-response","58","282582","0.0-7.0-0.0-1.0-0.0-1.24","4","4","4","4","4","4","4","3","4","4","5","5","5","4","5","5","5","5","4","5","1","1","1","1","1","1","1","1","1","0","1","0","1","0","0","0","1","0","0","0","1","0","0","0","5","1","2","2","1","2","3","4","1","4","1","738081261448597505","周","405","","","","","","","","","","","","","","","","","","","","","","","","","","","","","","feedback_test","","","","","","","","","","","",""
"592","","f","psychophysics","59","284176","0.0-7.0-0.0-1.0-0.0-0.25","4","4","4","4","4","4","4","3","4","4","5","5","5","4","5","5","5","5","4","5","1","1","1","1","1","1","1","1","1","0","1","0","1","0","0","0","1","0","0","0","1","0","0","0","5","1","2","2","1","2","3","4","1","4","1","738081261448597505","周","405","","","","nonmatch","","","","","","","","","","","","","","key","f","16.652755319148902","768","428","f","true","nonmatch","img/trapezoid.png","六边","梯形","ALT1_1","prac_ALT1_1","","","","","","","","","","","",""
"null","<span style='color:GreenYellow; font-size: 70px;'>正确! </span>","null","html-keyboard-response","60","284677","0.0-7.0-0.0-1.0-0.0-1.25","4","4","4","4","4","4","4","3","4","4","5","5","5","4","5","5","5","5","4","5","1","1","1","1","1","1","1","1","1","0","1","0","1","0","0","0","1","0","0","0","1","0","0","0","5","1","2","2","1","2","3","4","1","4","1","738081261448597505","周","405","","","","","","","","","","","","","","","","","","","","","","","","","","","","","","feedback_test","","","","","","","","","","","",""
"515","","j","psychophysics","61","286192","0.0-7.0-0.0-1.0-0.0-0.26","4","4","4","4","4","4","4","3","4","4","5","5","5","4","5","5","5","5","4","5","1","1","1","1","1","1","1","1","1","0","1","0","1","0","0","0","1","0","0","0","1","0","0","0","5","1","2","2","1","2","3","4","1","4","1","738081261448597505","周","405","","","","match","","","","","","","","","","","","","","key","j","16.651544444444717","768","428","j","true","match","img/triangle.png","三角","三角","ALT1_1","prac_ALT1_1","","","","","","","","","","","",""
"null","<span style='color:GreenYellow; font-size: 70px;'>正确! </span>","null","html-keyboard-response","62","286694","0.0-7.0-0.0-1.0-0.0-1.26","4","4","4","4","4","4","4","3","4","4","5","5","5","4","5","5","5","5","4","5","1","1","1","1","1","1","1","1","1","0","1","0","1","0","0","0","1","0","0","0","1","0","0","0","5","1","2","2","1","2","3","4","1","4","1","738081261448597505","周","405","","","","","","","","","","","","","","","","","","","","","","","","","","","","","","feedback_test","","","","","","","","","","","",""
"625","","f","psychophysics","63","288320","0.0-7.0-0.0-1.0-0.0-0.27","4","4","4","4","4","4","4","3","4","4","5","5","5","4","5","5","5","5","4","5","1","1","1","1","1","1","1","1","1","0","1","0","1","0","0","0","1","0","0","0","1","0","0","0","5","1","2","2","1","2","3","4","1","4","1","738081261448597505","周","405","","","","nonmatch","","","","","","","","","","","","","","key","f","16.651239583333034","768","428","f","true","nonmatch","img/circle.png","梯形","圆形","ALT1_1","prac_ALT1_1","","","","","","","","","","","",""
"null","<span style='color:GreenYellow; font-size: 70px;'>正确! </span>","null","html-keyboard-response","64","288821","0.0-7.0-0.0-1.0-0.0-1.27","4","4","4","4","4","4","4","3","4","4","5","5","5","4","5","5","5","5","4","5","1","1","1","1","1","1","1","1","1","0","1","0","1","0","0","0","1","0","0","0","1","0","0","0","5","1","2","2","1","2","3","4","1","4","1","738081261448597505","周","405","","","","","","","","","","","","","","","","","","","","","","","","","","","","","","feedback_test","","","","","","","","","","","",""
"561","","f","psychophysics","65","290384","0.0-7.0-0.0-1.0-0.0-0.28","4","4","4","4","4","4","4","3","4","4","5","5","5","4","5","5","5","5","4","5","1","1","1","1","1","1","1","1","1","0","1","0","1","0","0","0","1","0","0","0","1","0","0","0","5","1","2","2","1","2","3","4","1","4","1","738081261448597505","周","405","","","","nonmatch","","","","","","","","","","","","","","key","f","16.655010752687833","768","428","f","true","nonmatch","img/circle.png","三角","圆形","ALT1_1","prac_ALT1_1","","","","","","","","","","","",""
"null","<span style='color:GreenYellow; font-size: 70px;'>正确! </span>","null","html-keyboard-response","66","290886","0.0-7.0-0.0-1.0-0.0-1.28","4","4","4","4","4","4","4","3","4","4","5","5","5","4","5","5","5","5","4","5","1","1","1","1","1","1","1","1","1","0","1","0","1","0","0","0","1","0","0","0","1","0","0","0","5","1","2","2","1","2","3","4","1","4","1","738081261448597505","周","405","","","","","","","","","","","","","","","","","","","","","","","","","","","","","","feedback_test","","","","","","","","","","","",""
"688","","j","psychophysics","67","292576","0.0-7.0-0.0-1.0-0.0-0.29","4","4","4","4","4","4","4","3","4","4","5","5","5","4","5","5","5","5","4","5","1","1","1","1","1","1","1","1","1","0","1","0","1","0","0","0","1","0","0","0","1","0","0","0","5","1","2","2","1","2","3","4","1","4","1","738081261448597505","周","405","","","","match","","","","","","","","","","","","","","key","j","16.651257425742017","768","428","j","true","match","img/hexagon.png","六边","六边","ALT1_1","prac_ALT1_1","","","","","","","","","","","",""
"null","<span style='color:GreenYellow; font-size: 70px;'>正确! </span>","null","html-keyboard-response","68","293077","0.0-7.0-0.0-1.0-0.0-1.29","4","4","4","4","4","4","4","3","4","4","5","5","5","4","5","5","5","5","4","5","1","1","1","1","1","1","1","1","1","0","1","0","1","0","0","0","1","0","0","0","1","0","0","0","5","1","2","2","1","2","3","4","1","4","1","738081261448597505","周","405","","","","","","","","","","","","","","","","","","","","","","","","","","","","","","feedback_test","","","","","","","","","","","",""
"642","","j","psychophysics","69","294720","0.0-7.0-0.0-1.0-0.0-0.30","4","4","4","4","4","4","4","3","4","4","5","5","5","4","5","5","5","5","4","5","1","1","1","1","1","1","1","1","1","0","1","0","1","0","0","0","1","0","0","0","1","0","0","0","5","1","2","2","1","2","3","4","1","4","1","738081261448597505","周","405","","","","match","","","","","","","","","","","","","","key","j","16.65130612244877","768","428","j","true","match","img/trapezoid.png","梯形","梯形","ALT1_1","prac_ALT1_1","","","","","","","","","","","",""
"null","<span style='color:GreenYellow; font-size: 70px;'>正确! </span>","null","html-keyboard-response","70","295221","0.0-7.0-0.0-1.0-0.0-1.30","4","4","4","4","4","4","4","3","4","4","5","5","5","4","5","5","5","5","4","5","1","1","1","1","1","1","1","1","1","0","1","0","1","0","0","0","1","0","0","0","1","0","0","0","5","1","2","2","1","2","3","4","1","4","1","738081261448597505","周","405","","","","","","","","","","","","","","","","","","","","","","","","","","","","","","feedback_test","","","","","","","","","","","",""
"600","","f","psychophysics","71","296824","0.0-7.0-0.0-1.0-0.0-0.31","4","4","4","4","4","4","4","3","4","4","5","5","5","4","5","5","5","5","4","5","1","1","1","1","1","1","1","1","1","0","1","0","1","0","0","0","1","0","0","0","1","0","0","0","5","1","2","2","1","2","3","4","1","4","1","738081261448597505","周","405","","","","nonmatch","","","","","","","","","","","","","","key","f","16.648063157894647","768","428","f","true","nonmatch","img/trapezoid.png","圆形","梯形","ALT1_1","prac_ALT1_1","","","","","","","","","","","",""
"null","<span style='color:GreenYellow; font-size: 70px;'>正确! </span>","null","html-keyboard-response","72","297325","0.0-7.0-0.0-1.0-0.0-1.31","4","4","4","4","4","4","4","3","4","4","5","5","5","4","5","5","5","5","4","5","1","1","1","1","1","1","1","1","1","0","1","0","1","0","0","0","1","0","0","0","1","0","0","0","5","1","2","2","1","2","3","4","1","4","1","738081261448597505","周","405","","","","","","","","","","","","","","","","","","","","","","","","","","","","","","feedback_test","","","","","","","","","","","",""
"698","","j","psychophysics","73","299024","0.0-7.0-0.0-1.0-0.0-0.32","4","4","4","4","4","4","4","3","4","4","5","5","5","4","5","5","5","5","4","5","1","1","1","1","1","1","1","1","1","0","1","0","1","0","0","0","1","0","0","0","1","0","0","0","5","1","2","2","1","2","3","4","1","4","1","738081261448597505","周","405","","","","match","","","","","","","","","","","","","","key","j","16.65267326732715","768","428","f","false","nonmatch","img/hexagon.png","梯形","六边","ALT1_1","prac_ALT1_1","","","","","","","","","","","",""
"null","<span style='color:red; font-size: 70px;'>错误! </span>","null","html-keyboard-response","74","299525","0.0-7.0-0.0-1.0-0.0-1.32","4","4","4","4","4","4","4","3","4","4","5","5","5","4","5","5","5","5","4","5","1","1","1","1","1","1","1","1","1","0","1","0","1","0","0","0","1","0","0","0","1","0","0","0","5","1","2","2","1","2","3","4","1","4","1","738081261448597505","周","405","","","","","","","","","","","","","","","","","","","","","","","","","","","","","","feedback_test","","","","","","","","","","","",""
"528","","j","psychophysics","75","301056","0.0-7.0-0.0-1.0-0.0-0.33","4","4","4","4","4","4","4","3","4","4","5","5","5","4","5","5","5","5","4","5","1","1","1","1","1","1","1","1","1","0","1","0","1","0","0","0","1","0","0","0","1","0","0","0","5","1","2","2","1","2","3","4","1","4","1","738081261448597505","周","405","","","","match","","","","","","","","","","","","","","key","j","16.654978021978053","768","428","j","true","match","img/triangle.png","三角","三角","ALT1_1","prac_ALT1_1","","","","","","","","","","","",""
"null","<span style='color:GreenYellow; font-size: 70px;'>正确! </span>","null","html-keyboard-response","76","301557","0.0-7.0-0.0-1.0-0.0-1.33","4","4","4","4","4","4","4","3","4","4","5","5","5","4","5","5","5","5","4","5","1","1","1","1","1","1","1","1","1","0","1","0","1","0","0","0","1","0","0","0","1","0","0","0","5","1","2","2","1","2","3","4","1","4","1","738081261448597505","周","405","","","","","","","","","","","","","","","","","","","","","","","","","","","","","","feedback_test","","","","","","","","","","","",""
"594","","j","psychophysics","77","303152","0.0-7.0-0.0-1.0-0.0-0.34","4","4","4","4","4","4","4","3","4","4","5","5","5","4","5","5","5","5","4","5","1","1","1","1","1","1","1","1","1","0","1","0","1","0","0","0","1","0","0","0","1","0","0","0","5","1","2","2","1","2","3","4","1","4","1","738081261448597505","周","405","","","","match","","","","","","","","","","","","","","key","j","16.651810526316005","768","428","j","true","match","img/hexagon.png","六边","六边","ALT1_1","prac_ALT1_1","","","","","","","","","","","",""
"null","<span style='color:GreenYellow; font-size: 70px;'>正确! </span>","null","html-keyboard-response","78","303654","0.0-7.0-0.0-1.0-0.0-1.34","4","4","4","4","4","4","4","3","4","4","5","5","5","4","5","5","5","5","4","5","1","1","1","1","1","1","1","1","1","0","1","0","1","0","0","0","1","0","0","0","1","0","0","0","5","1","2","2","1","2","3","4","1","4","1","738081261448597505","周","405","","","","","","","","","","","","","","","","","","","","","","","","","","","","","","feedback_test","","","","","","","","","","","",""
"624","","j","psychophysics","79","305281","0.0-7.0-0.0-1.0-0.0-0.35","4","4","4","4","4","4","4","3","4","4","5","5","5","4","5","5","5","5","4","5","1","1","1","1","1","1","1","1","1","0","1","0","1","0","0","0","1","0","0","0","1","0","0","0","5","1","2","2","1","2","3","4","1","4","1","738081261448597505","周","405","","","","match","","","","","","","","","","","","","","key","j","16.655917525773305","768","428","j","true","match","img/circle.png","圆形","圆形","ALT1_1","prac_ALT1_1","","","","","","","","","","","",""
"null","<span style='color:GreenYellow; font-size: 70px;'>正确! </span>","null","html-keyboard-response","80","305781","0.0-7.0-0.0-1.0-0.0-1.35","4","4","4","4","4","4","4","3","4","4","5","5","5","4","5","5","5","5","4","5","1","1","1","1","1","1","1","1","1","0","1","0","1","0","0","0","1","0","0","0","1","0","0","0","5","1","2","2","1","2","3","4","1","4","1","738081261448597505","周","405","","","","","","","","","","","","","","","","","","","","","","","","","","","","","","feedback_test","","","","","","","","","","","",""
"657","","f","psychophysics","81","307440","0.0-7.0-0.0-1.0-0.0-0.36","4","4","4","4","4","4","4","3","4","4","5","5","5","4","5","5","5","5","4","5","1","1","1","1","1","1","1","1","1","0","1","0","1","0","0","0","1","0","0","0","1","0","0","0","5","1","2","2","1","2","3","4","1","4","1","738081261448597505","周","405","","","","nonmatch","","","","","","","","","","","","","","key","f","16.649693877550853","768","428","f","true","nonmatch","img/triangle.png","圆形","三角","ALT1_1","prac_ALT1_1","","","","","","","","","","","",""
"null","<span style='color:GreenYellow; font-size: 70px;'>正确! </span>","null","html-keyboard-response","82","307942","0.0-7.0-0.0-1.0-0.0-1.36","4","4","4","4","4","4","4","3","4","4","5","5","5","4","5","5","5","5","4","5","1","1","1","1","1","1","1","1","1","0","1","0","1","0","0","0","1","0","0","0","1","0","0","0","5","1","2","2","1","2","3","4","1","4","1","738081261448597505","周","405","","","","","","","","","","","","","","","","","","","","","","","","","","","","","","feedback_test","","","","","","","","","","","",""
"699","","j","psychophysics","83","309642","0.0-7.0-0.0-1.0-0.0-0.37","4","4","4","4","4","4","4","3","4","4","5","5","5","4","5","5","5","5","4","5","1","1","1","1","1","1","1","1","1","0","1","0","1","0","0","0","1","0","0","0","1","0","0","0","5","1","2","2","1","2","3","4","1","4","1","738081261448597505","周","405","","","","match","","","","","","","","","","","","","","key","j","16.652653465346585","768","428","j","true","match","img/circle.png","圆形","圆形","ALT1_1","prac_ALT1_1","","","","","","","","","","","",""
"null","<span style='color:GreenYellow; font-size: 70px;'>正确! </span>","null","html-keyboard-response","84","310143","0.0-7.0-0.0-1.0-0.0-1.37","4","4","4","4","4","4","4","3","4","4","5","5","5","4","5","5","5","5","4","5","1","1","1","1","1","1","1","1","1","0","1","0","1","0","0","0","1","0","0","0","1","0","0","0","5","1","2","2","1","2","3","4","1","4","1","738081261448597505","周","405","","","","","","","","","","","","","","","","","","","","","","","","","","","","","","feedback_test","","","","","","","","","","","",""
"584","","f","psychophysics","85","311728","0.0-7.0-0.0-1.0-0.0-0.38","4","4","4","4","4","4","4","3","4","4","5","5","5","4","5","5","5","5","4","5","1","1","1","1","1","1","1","1","1","0","1","0","1","0","0","0","1","0","0","0","1","0","0","0","5","1","2","2","1","2","3","4","1","4","1","738081261448597505","周","405","","","","nonmatch","","","","","","","","","","","","","","key","f","16.652042553191038","768","428","f","true","nonmatch","img/triangle.png","梯形","三角","ALT1_1","prac_ALT1_1","","","","","","","","","","","",""
"null","<span style='color:GreenYellow; font-size: 70px;'>正确! </span>","null","html-keyboard-response","86","312229","0.0-7.0-0.0-1.0-0.0-1.38","4","4","4","4","4","4","4","3","4","4","5","5","5","4","5","5","5","5","4","5","1","1","1","1","1","1","1","1","1","0","1","0","1","0","0","0","1","0","0","0","1","0","0","0","5","1","2","2","1","2","3","4","1","4","1","738081261448597505","周","405","","","","","","","","","","","","","","","","","","","","","","","","","","","","","","feedback_test","","","","","","","","","","","",""
"682","","j","psychophysics","87","313912","0.0-7.0-0.0-1.0-0.0-0.39","4","4","4","4","4","4","4","3","4","4","5","5","5","4","5","5","5","5","4","5","1","1","1","1","1","1","1","1","1","0","1","0","1","0","0","0","1","0","0","0","1","0","0","0","5","1","2","2","1","2","3","4","1","4","1","738081261448597505","周","405","","","","match","","","","","","","","","","","","","","key","j","16.650769999999902","768","428","j","true","match","img/trapezoid.png","梯形","梯形","ALT1_1","prac_ALT1_1","","","","","","","","","","","",""
"null","<span style='color:GreenYellow; font-size: 70px;'>正确! </span>","null","html-keyboard-response","88","314414","0.0-7.0-0.0-1.0-0.0-1.39","4","4","4","4","4","4","4","3","4","4","5","5","5","4","5","5","5","5","4","5","1","1","1","1","1","1","1","1","1","0","1","0","1","0","0","0","1","0","0","0","1","0","0","0","5","1","2","2","1","2","3","4","1","4","1","738081261448597505","周","405","","","","","","","","","","","","","","","","","","","","","","","","","","","","","","feedback_test","","","","","","","","","","","",""
"537","","j","psychophysics","89","315952","0.0-7.0-0.0-1.0-0.0-0.40","4","4","4","4","4","4","4","3","4","4","5","5","5","4","5","5","5","5","4","5","1","1","1","1","1","1","1","1","1","0","1","0","1","0","0","0","1","0","0","0","1","0","0","0","5","1","2","2","1","2","3","4","1","4","1","738081261448597505","周","405","","","","match","","","","","","","","","","","","","","key","j","16.65572826087009","768","428","j","true","match","img/circle.png","圆形","圆形","ALT1_1","prac_ALT1_1","","","","","","","","","","","",""
"null","<span style='color:GreenYellow; font-size: 70px;'>正确! </span>","null","html-keyboard-response","90","316453","0.0-7.0-0.0-1.0-0.0-1.40","4","4","4","4","4","4","4","3","4","4","5","5","5","4","5","5","5","5","4","5","1","1","1","1","1","1","1","1","1","0","1","0","1","0","0","0","1","0","0","0","1","0","0","0","5","1","2","2","1","2","3","4","1","4","1","738081261448597505","周","405","","","","","","","","","","","","","","","","","","","","","","","","","","","","","","feedback_test","","","","","","","","","","","",""
"722","","f","psychophysics","91","318176","0.0-7.0-0.0-1.0-0.0-0.41","4","4","4","4","4","4","4","3","4","4","5","5","5","4","5","5","5","5","4","5","1","1","1","1","1","1","1","1","1","0","1","0","1","0","0","0","1","0","0","0","1","0","0","0","5","1","2","2","1","2","3","4","1","4","1","738081261448597505","周","405","","","","nonmatch","","","","","","","","","","","","","","key","f","16.6512156862745","768","428","f","true","nonmatch","img/triangle.png","六边","三角","ALT1_1","prac_ALT1_1","","","","","","","","","","","",""
"null","<span style='color:GreenYellow; font-size: 70px;'>正确! </span>","null","html-keyboard-response","92","318678","0.0-7.0-0.0-1.0-0.0-1.41","4","4","4","4","4","4","4","3","4","4","5","5","5","4","5","5","5","5","4","5","1","1","1","1","1","1","1","1","1","0","1","0","1","0","0","0","1","0","0","0","1","0","0","0","5","1","2","2","1","2","3","4","1","4","1","738081261448597505","周","405","","","","","","","","","","","","","","","","","","","","","","","","","","","","","","feedback_test","","","","","","","","","","","",""
"649","","f","psychophysics","93","320328","0.0-7.0-0.0-1.0-0.0-0.42","4","4","4","4","4","4","4","3","4","4","5","5","5","4","5","5","5","5","4","5","1","1","1","1","1","1","1","1","1","0","1","0","1","0","0","0","1","0","0","0","1","0","0","0","5","1","2","2","1","2","3","4","1","4","1","738081261448597505","周","405","","","","nonmatch","","","","","","","","","","","","","","key","f","16.65120408163235","768","428","f","true","nonmatch","img/hexagon.png","圆形","六边","ALT1_1","prac_ALT1_1","","","","","","","","","","","",""
"null","<span style='color:GreenYellow; font-size: 70px;'>正确! </span>","null","html-keyboard-response","94","320830","0.0-7.0-0.0-1.0-0.0-1.42","4","4","4","4","4","4","4","3","4","4","5","5","5","4","5","5","5","5","4","5","1","1","1","1","1","1","1","1","1","0","1","0","1","0","0","0","1","0","0","0","1","0","0","0","5","1","2","2","1","2","3","4","1","4","1","738081261448597505","周","405","","","","","","","","","","","","","","","","","","","","","","","","","","","","","","feedback_test","","","","","","","","","","","",""
"585","","j","psychophysics","95","322416","0.0-7.0-0.0-1.0-0.0-0.43","4","4","4","4","4","4","4","3","4","4","5","5","5","4","5","5","5","5","4","5","1","1","1","1","1","1","1","1","1","0","1","0","1","0","0","0","1","0","0","0","1","0","0","0","5","1","2","2","1","2","3","4","1","4","1","738081261448597505","周","405","","","","match","","","","","","","","","","","","","","key","j","16.651446808510375","768","428","j","true","match","img/triangle.png","三角","三角","ALT1_1","prac_ALT1_1","","","","","","","","","","","",""
"null","<span style='color:GreenYellow; font-size: 70px;'>正确! </span>","null","html-keyboard-response","96","322917","0.0-7.0-0.0-1.0-0.0-1.43","4","4","4","4","4","4","4","3","4","4","5","5","5","4","5","5","5","5","4","5","1","1","1","1","1","1","1","1","1","0","1","0","1","0","0","0","1","0","0","0","1","0","0","0","5","1","2","2","1","2","3","4","1","4","1","738081261448597505","周","405","","","","","","","","","","","","","","","","","","","","","","","","","","","","","","feedback_test","","","","","","","","","","","",""
"721","","j","psychophysics","97","324640","0.0-7.0-0.0-1.0-0.0-0.44","4","4","4","4","4","4","4","3","4","4","5","5","5","4","5","5","5","5","4","5","1","1","1","1","1","1","1","1","1","0","1","0","1","0","0","0","1","0","0","0","1","0","0","0","5","1","2","2","1","2","3","4","1","4","1","738081261448597505","周","405","","","","match","","","","","","","","","","","","","","key","j","16.650441176470313","768","428","j","true","match","img/hexagon.png","六边","六边","ALT1_1","prac_ALT1_1","","","","","","","","","","","",""
"null","<span style='color:GreenYellow; font-size: 70px;'>正确! </span>","null","html-keyboard-response","98","325141","0.0-7.0-0.0-1.0-0.0-1.44","4","4","4","4","4","4","4","3","4","4","5","5","5","4","5","5","5","5","4","5","1","1","1","1","1","1","1","1","1","0","1","0","1","0","0","0","1","0","0","0","1","0","0","0","5","1","2","2","1","2","3","4","1","4","1","738081261448597505","周","405","","","","","","","","","","","","","","","","","","","","","","","","","","","","","","feedback_test","","","","","","","","","","","",""
"577","","f","psychophysics","99","326720","0.0-7.0-0.0-1.0-0.0-0.45","4","4","4","4","4","4","4","3","4","4","5","5","5","4","5","5","5","5","4","5","1","1","1","1","1","1","1","1","1","0","1","0","1","0","0","0","1","0","0","0","1","0","0","0","5","1","2","2","1","2","3","4","1","4","1","738081261448597505","周","405","","","","nonmatch","","","","","","","","","","","","","","key","f","16.651021505376796","768","428","f","true","nonmatch","img/trapezoid.png","三角","梯形","ALT1_1","prac_ALT1_1","","","","","","","","","","","",""
"null","<span style='color:GreenYellow; font-size: 70px;'>正确! </span>","null","html-keyboard-response","100","327221","0.0-7.0-0.0-1.0-0.0-1.45","4","4","4","4","4","4","4","3","4","4","5","5","5","4","5","5","5","5","4","5","1","1","1","1","1","1","1","1","1","0","1","0","1","0","0","0","1","0","0","0","1","0","0","0","5","1","2","2","1","2","3","4","1","4","1","738081261448597505","周","405","","","","","","","","","","","","","","","","","","","","","","","","","","","","","","feedback_test","","","","","","","","","","","",""
"571","","f","psychophysics","101","328792","0.0-7.0-0.0-1.0-0.0-0.46","4","4","4","4","4","4","4","3","4","4","5","5","5","4","5","5","5","5","4","5","1","1","1","1","1","1","1","1","1","0","1","0","1","0","0","0","1","0","0","0","1","0","0","0","5","1","2","2","1","2","3","4","1","4","1","738081261448597505","周","405","","","","nonmatch","","","","","","","","","","","","","","key","f","16.64744086021505","768","428","f","true","nonmatch","img/hexagon.png","三角","六边","ALT1_1","prac_ALT1_1","","","","","","","","","","","",""
"null","<span style='color:GreenYellow; font-size: 70px;'>正确! </span>","null","html-keyboard-response","102","329293","0.0-7.0-0.0-1.0-0.0-1.46","4","4","4","4","4","4","4","3","4","4","5","5","5","4","5","5","5","5","4","5","1","1","1","1","1","1","1","1","1","0","1","0","1","0","0","0","1","0","0","0","1","0","0","0","5","1","2","2","1","2","3","4","1","4","1","738081261448597505","周","405","","","","","","","","","","","","","","","","","","","","","","","","","","","","","","feedback_test","","","","","","","","","","","",""
"641","","j","psychophysics","103","330936","0.0-7.0-0.0-1.0-0.0-0.47","4","4","4","4","4","4","4","3","4","4","5","5","5","4","5","5","5","5","4","5","1","1","1","1","1","1","1","1","1","0","1","0","1","0","0","0","1","0","0","0","1","0","0","0","5","1","2","2","1","2","3","4","1","4","1","738081261448597505","周","405","","","","match","","","","","","","","","","","","","","key","j","16.650816326530304","768","428","j","true","match","img/trapezoid.png","梯形","梯形","ALT1_1","prac_ALT1_1","","","","","","","","","","","",""
"null","<span style='color:GreenYellow; font-size: 70px;'>正确! </span>","null","html-keyboard-response","104","331438","0.0-7.0-0.0-1.0-0.0-1.47","4","4","4","4","4","4","4","3","4","4","5","5","5","4","5","5","5","5","4","5","1","1","1","1","1","1","1","1","1","0","1","0","1","0","0","0","1","0","0","0","1","0","0","0","5","1","2","2","1","2","3","4","1","4","1","738081261448597505","周","405","","","","","","","","","","","","","","","","","","","","","","","","","","","","","","feedback_test","","","","","","","","","","","",""
"27849","<style>.context{color:white; font-size: 35px; line-height:40px}</style>                            <div><p class='context'>您正确回答了96% 的试次。</p><p class='context'>您的平均反应时为623毫秒。</p><p class='context'>恭喜您完成练习。按空格键进入正式实验。</p><p class='footer' style='font-size: 35px; line-height:40px;'>请在进入正式实验之前将您的<span style='color: lightgreen;'>食指</span>放在电脑键盘的相应键位上进行按键。</p>"," ","html-keyboard-response","105","359288","0.0-7.0-0.0-2.0","4","4","4","4","4","4","4","3","4","4","5","5","5","4","5","5","5","5","4","5","1","1","1","1","1","1","1","1","1","0","1","0","1","0","0","0","1","0","0","0","1","0","0","0","5","1","2","2","1","2","3","4","1","4","1","738081261448597505","周","405","","","","","","","","","","","","","","","","","","","","","","","","","","","","","","","","","","","","","","","","","",""
"702","
    <p style='color: white; font-size: 22px'>请您将手指放在按键上，准备进入正式的匹配任务。</p>
    <p> <div style = ""color: green""><按空格键进入下一阶段的匹配任务></div></p>
    "," ","html-keyboard-response","106","359992","0.0-7.0-0.0-3.0","4","4","4","4","4","4","4","3","4","4","5","5","5","4","5","5","5","5","4","5","1","1","1","1","1","1","1","1","1","0","1","0","1","0","0","0","1","0","0","0","1","0","0","0","5","1","2","2","1","2","3","4","1","4","1","738081261448597505","周","405","","","","","","","","","","","","","","","","","","","","","","","","","","","","","","","","","","","","","","","","","",""
"622","","j","psychophysics","107","361616","0.0-7.0-0.0-4.0-0.0-0.0","4","4","4","4","4","4","4","3","4","4","5","5","5","4","5","5","5","5","4","5","1","1","1","1","1","1","1","1","1","0","1","0","1","0","0","0","1","0","0","0","1","0","0","0","5","1","2","2","1","2","3","4","1","4","1","738081261448597505","周","405","","","","match","","","","","","","","","","","","","","key","j","16.655833333332946","768","428","j","true","match","img/triangle.png","三角","三角","ALT1","formal_ALT1_1","","","","","","","","","","","",""
"null","<span style='color:GreenYellow; font-size: 70px;'>正确! </span>","null","html-keyboard-response","108","362118","0.0-7.0-0.0-4.0-0.0-1.0","4","4","4","4","4","4","4","3","4","4","5","5","5","4","5","5","5","5","4","5","1","1","1","1","1","1","1","1","1","0","1","0","1","0","0","0","1","0","0","0","1","0","0","0","5","1","2","2","1","2","3","4","1","4","1","738081261448597505","周","405","","","","","","","","","","","","","","","","","","","","","","","","","","","","","","feedback_test","","","","","","","","","","","",""
"648","","f","psychophysics","109","363768","0.0-7.0-0.0-4.0-0.0-0.1","4","4","4","4","4","4","4","3","4","4","5","5","5","4","5","5","5","5","4","5","1","1","1","1","1","1","1","1","1","0","1","0","1","0","0","0","1","0","0","0","1","0","0","0","5","1","2","2","1","2","3","4","1","4","1","738081261448597505","周","405","","","","nonmatch","","","","","","","","","","","","","","key","f","16.651908163265183","768","428","f","true","nonmatch","img/circle.png","三角","圆形","ALT1","formal_ALT1_1","","","","","","","","","","","",""
"null","<span style='color:GreenYellow; font-size: 70px;'>正确! </span>","null","html-keyboard-response","110","364269","0.0-7.0-0.0-4.0-0.0-1.1","4","4","4","4","4","4","4","3","4","4","5","5","5","4","5","5","5","5","4","5","1","1","1","1","1","1","1","1","1","0","1","0","1","0","0","0","1","0","0","0","1","0","0","0","5","1","2","2","1","2","3","4","1","4","1","738081261448597505","周","405","","","","","","","","","","","","","","","","","","","","","","","","","","","","","","feedback_test","","","","","","","","","","","",""
"578","","j","psychophysics","111","365848","0.0-7.0-0.0-4.0-0.0-0.2","4","4","4","4","4","4","4","3","4","4","5","5","5","4","5","5","5","5","4","5","1","1","1","1","1","1","1","1","1","0","1","0","1","0","0","0","1","0","0","0","1","0","0","0","5","1","2","2","1","2","3","4","1","4","1","738081261448597505","周","405","","","","match","","","","","","","","","","","","","","key","j","16.654531914893752","768","428","j","true","match","img/circle.png","圆形","圆形","ALT1","formal_ALT1_1","","","","","","","","","","","",""
"null","<span style='color:GreenYellow; font-size: 70px;'>正确! </span>","null","html-keyboard-response","112","366350","0.0-7.0-0.0-4.0-0.0-1.2","4","4","4","4","4","4","4","3","4","4","5","5","5","4","5","5","5","5","4","5","1","1","1","1","1","1","1","1","1","0","1","0","1","0","0","0","1","0","0","0","1","0","0","0","5","1","2","2","1","2","3","4","1","4","1","738081261448597505","周","405","","","","","","","","","","","","","","","","","","","","","","","","","","","","","","feedback_test","","","","","","","","","","","",""
"521","","j","psychophysics","113","367873","0.0-7.0-0.0-4.0-0.0-0.3","4","4","4","4","4","4","4","3","4","4","5","5","5","4","5","5","5","5","4","5","1","1","1","1","1","1","1","1","1","0","1","0","1","0","0","0","1","0","0","0","1","0","0","0","5","1","2","2","1","2","3","4","1","4","1","738081261448597505","周","405","","","","match","","","","","","","","","","","","","","key","j","16.65572527472498","768","428","j","true","match","img/triangle.png","三角","三角","ALT1","formal_ALT1_1","","","","","","","","","","","",""
"null","<span style='color:GreenYellow; font-size: 70px;'>正确! </span>","null","html-keyboard-response","114","368373","0.0-7.0-0.0-4.0-0.0-1.3","4","4","4","4","4","4","4","3","4","4","5","5","5","4","5","5","5","5","4","5","1","1","1","1","1","1","1","1","1","0","1","0","1","0","0","0","1","0","0","0","1","0","0","0","5","1","2","2","1","2","3","4","1","4","1","738081261448597505","周","405","","","","","","","","","","","","","","","","","","","","","","","","","","","","","","feedback_test","","","","","","","","","","","",""
"585","","f","psychophysics","115","369960","0.0-7.0-0.0-4.0-0.0-0.4","4","4","4","4","4","4","4","3","4","4","5","5","5","4","5","5","5","5","4","5","1","1","1","1","1","1","1","1","1","0","1","0","1","0","0","0","1","0","0","0","1","0","0","0","5","1","2","2","1","2","3","4","1","4","1","738081261448597505","周","405","","","","nonmatch","","","","","","","","","","","","","","key","f","16.651436170212616","768","428","f","true","nonmatch","img/trapezoid.png","三角","梯形","ALT1","formal_ALT1_1","","","","","","","","","","","",""
"null","<span style='color:GreenYellow; font-size: 70px;'>正确! </span>","null","html-keyboard-response","116","370460","0.0-7.0-0.0-4.0-0.0-1.4","4","4","4","4","4","4","4","3","4","4","5","5","5","4","5","5","5","5","4","5","1","1","1","1","1","1","1","1","1","0","1","0","1","0","0","0","1","0","0","0","1","0","0","0","5","1","2","2","1","2","3","4","1","4","1","738081261448597505","周","405","","","","","","","","","","","","","","","","","","","","","","","","","","","","","","feedback_test","","","","","","","","","","","",""
"618","","f","psychophysics","117","372080","0.0-7.0-0.0-4.0-0.0-0.5","4","4","4","4","4","4","4","3","4","4","5","5","5","4","5","5","5","5","4","5","1","1","1","1","1","1","1","1","1","0","1","0","1","0","0","0","1","0","0","0","1","0","0","0","5","1","2","2","1","2","3","4","1","4","1","738081261448597505","周","405","","","","nonmatch","","","","","","","","","","","","","","key","f","16.65137500000007","768","428","f","true","nonmatch","img/hexagon.png","圆形","六边","ALT1","formal_ALT1_1","","","","","","","","","","","",""
"null","<span style='color:GreenYellow; font-size: 70px;'>正确! </span>","null","html-keyboard-response","118","372581","0.0-7.0-0.0-4.0-0.0-1.5","4","4","4","4","4","4","4","3","4","4","5","5","5","4","5","5","5","5","4","5","1","1","1","1","1","1","1","1","1","0","1","0","1","0","0","0","1","0","0","0","1","0","0","0","5","1","2","2","1","2","3","4","1","4","1","738081261448597505","周","405","","","","","","","","","","","","","","","","","","","","","","","","","","","","","","feedback_test","","","","","","","","","","","",""
"610","","f","psychophysics","119","374192","0.0-7.0-0.0-4.0-0.0-0.6","4","4","4","4","4","4","4","3","4","4","5","5","5","4","5","5","5","5","4","5","1","1","1","1","1","1","1","1","1","0","1","0","1","0","0","0","1","0","0","0","1","0","0","0","5","1","2","2","1","2","3","4","1","4","1","738081261448597505","周","405","","","","nonmatch","","","","","","","","","","","","","","key","f","16.652673684210686","768","428","f","true","nonmatch","img/circle.png","梯形","圆形","ALT1","formal_ALT1_1","","","","","","","","","","","",""
"null","<span style='color:GreenYellow; font-size: 70px;'>正确! </span>","null","html-keyboard-response","120","374693","0.0-7.0-0.0-4.0-0.0-1.6","4","4","4","4","4","4","4","3","4","4","5","5","5","4","5","5","5","5","4","5","1","1","1","1","1","1","1","1","1","0","1","0","1","0","0","0","1","0","0","0","1","0","0","0","5","1","2","2","1","2","3","4","1","4","1","738081261448597505","周","405","","","","","","","","","","","","","","","","","","","","","","","","","","","","","","feedback_test","","","","","","","","","","","",""
"611","","f","psychophysics","121","376305","0.0-7.0-0.0-4.0-0.0-0.7","4","4","4","4","4","4","4","3","4","4","5","5","5","4","5","5","5","5","4","5","1","1","1","1","1","1","1","1","1","0","1","0","1","0","0","0","1","0","0","0","1","0","0","0","5","1","2","2","1","2","3","4","1","4","1","738081261448597505","周","405","","","","nonmatch","","","","","","","","","","","","","","key","f","16.656270833333718","768","428","f","true","nonmatch","img/triangle.png","圆形","三角","ALT1","formal_ALT1_1","","","","","","","","","","","",""
"null","<span style='color:GreenYellow; font-size: 70px;'>正确! </span>","null","html-keyboard-response","122","376806","0.0-7.0-0.0-4.0-0.0-1.7","4","4","4","4","4","4","4","3","4","4","5","5","5","4","5","5","5","5","4","5","1","1","1","1","1","1","1","1","1","0","1","0","1","0","0","0","1","0","0","0","1","0","0","0","5","1","2","2","1","2","3","4","1","4","1","738081261448597505","周","405","","","","","","","","","","","","","","","","","","","","","","","","","","","","","","feedback_test","","","","","","","","","","","",""
"592","","f","psychophysics","123","378400","0.0-7.0-0.0-4.0-0.0-0.8","4","4","4","4","4","4","4","3","4","4","5","5","5","4","5","5","5","5","4","5","1","1","1","1","1","1","1","1","1","0","1","0","1","0","0","0","1","0","0","0","1","0","0","0","5","1","2","2","1","2","3","4","1","4","1","738081261448597505","周","405","","","","nonmatch","","","","","","","","","","","","","","key","f","16.655263157894737","768","428","j","false","match","img/trapezoid.png","梯形","梯形","ALT1","formal_ALT1_1","","","","","","","","","","","",""
"null","<span style='color:red; font-size: 70px;'>错误! </span>","null","html-keyboard-response","124","378900","0.0-7.0-0.0-4.0-0.0-1.8","4","4","4","4","4","4","4","3","4","4","5","5","5","4","5","5","5","5","4","5","1","1","1","1","1","1","1","1","1","0","1","0","1","0","0","0","1","0","0","0","1","0","0","0","5","1","2","2","1","2","3","4","1","4","1","738081261448597505","周","405","","","","","","","","","","","","","","","","","","","","","","","","","","","","","","feedback_test","","","","","","","","","","","",""
"683","","f","psychophysics","125","380584","0.0-7.0-0.0-4.0-0.0-0.9","4","4","4","4","4","4","4","3","4","4","5","5","5","4","5","5","5","5","4","5","1","1","1","1","1","1","1","1","1","0","1","0","1","0","0","0","1","0","0","0","1","0","0","0","5","1","2","2","1","2","3","4","1","4","1","738081261448597505","周","405","","","","nonmatch","","","","","","","","","","","","","","key","f","16.651359999999986","768","428","f","true","nonmatch","img/hexagon.png","三角","六边","ALT1","formal_ALT1_1","","","","","","","","","","","",""
"null","<span style='color:GreenYellow; font-size: 70px;'>正确! </span>","null","html-keyboard-response","126","381087","0.0-7.0-0.0-4.0-0.0-1.9","4","4","4","4","4","4","4","3","4","4","5","5","5","4","5","5","5","5","4","5","1","1","1","1","1","1","1","1","1","0","1","0","1","0","0","0","1","0","0","0","1","0","0","0","5","1","2","2","1","2","3","4","1","4","1","738081261448597505","周","405","","","","","","","","","","","","","","","","","","","","","","","","","","","","","","feedback_test","","","","","","","","","","","",""
"737","","j","psychophysics","127","382825","0.0-7.0-0.0-4.0-0.0-0.10","4","4","4","4","4","4","4","3","4","4","5","5","5","4","5","5","5","5","4","5","1","1","1","1","1","1","1","1","1","0","1","0","1","0","0","0","1","0","0","0","1","0","0","0","5","1","2","2","1","2","3","4","1","4","1","738081261448597505","周","405","","","","match","","","","","","","","","","","","","","key","j","16.651499999999942","768","428","j","true","match","img/hexagon.png","六边","六边","ALT1","formal_ALT1_1","","","","","","","","","","","",""
"null","<span style='color:GreenYellow; font-size: 70px;'>正确! </span>","null","html-keyboard-response","128","383327","0.0-7.0-0.0-4.0-0.0-1.10","4","4","4","4","4","4","4","3","4","4","5","5","5","4","5","5","5","5","4","5","1","1","1","1","1","1","1","1","1","0","1","0","1","0","0","0","1","0","0","0","1","0","0","0","5","1","2","2","1","2","3","4","1","4","1","738081261448597505","周","405","","","","","","","","","","","","","","","","","","","","","","","","","","","","","","feedback_test","","","","","","","","","","","",""
"664","","j","psychophysics","129","384992","0.0-7.0-0.0-4.0-0.0-0.11","4","4","4","4","4","4","4","3","4","4","5","5","5","4","5","5","5","5","4","5","1","1","1","1","1","1","1","1","1","0","1","0","1","0","0","0","1","0","0","0","1","0","0","0","5","1","2","2","1","2","3","4","1","4","1","738081261448597505","周","405","","","","match","","","","","","","","","","","","","","key","j","16.65097979797965","768","428","j","true","match","img/trapezoid.png","梯形","梯形","ALT1","formal_ALT1_1","","","","","","","","","","","",""
"null","<span style='color:GreenYellow; font-size: 70px;'>正确! </span>","null","html-keyboard-response","130","385493","0.0-7.0-0.0-4.0-0.0-1.11","4","4","4","4","4","4","4","3","4","4","5","5","5","4","5","5","5","5","4","5","1","1","1","1","1","1","1","1","1","0","1","0","1","0","0","0","1","0","0","0","1","0","0","0","5","1","2","2","1","2","3","4","1","4","1","738081261448597505","周","405","","","","","","","","","","","","","","","","","","","","","","","","","","","","","","feedback_test","","","","","","","","","","","",""
"657","","f","psychophysics","131","387152","0.0-7.0-0.0-4.0-0.0-0.12","4","4","4","4","4","4","4","3","4","4","5","5","5","4","5","5","5","5","4","5","1","1","1","1","1","1","1","1","1","0","1","0","1","0","0","0","1","0","0","0","1","0","0","0","5","1","2","2","1","2","3","4","1","4","1","738081261448597505","周","405","","","","nonmatch","","","","","","","","","","","","","","key","f","16.64928282828322","768","428","f","true","nonmatch","img/circle.png","六边","圆形","ALT1","formal_ALT1_1","","","","","","","","","","","",""
"null","<span style='color:GreenYellow; font-size: 70px;'>正确! </span>","null","html-keyboard-response","132","387654","0.0-7.0-0.0-4.0-0.0-1.12","4","4","4","4","4","4","4","3","4","4","5","5","5","4","5","5","5","5","4","5","1","1","1","1","1","1","1","1","1","0","1","0","1","0","0","0","1","0","0","0","1","0","0","0","5","1","2","2","1","2","3","4","1","4","1","738081261448597505","周","405","","","","","","","","","","","","","","","","","","","","","","","","","","","","","","feedback_test","","","","","","","","","","","",""
"616","","j","psychophysics","133","389272","0.0-7.0-0.0-4.0-0.0-0.13","4","4","4","4","4","4","4","3","4","4","5","5","5","4","5","5","5","5","4","5","1","1","1","1","1","1","1","1","1","0","1","0","1","0","0","0","1","0","0","0","1","0","0","0","5","1","2","2","1","2","3","4","1","4","1","738081261448597505","周","405","","","","match","","","","","","","","","","","","","","key","j","16.652916666666595","768","428","j","true","match","img/triangle.png","三角","三角","ALT1","formal_ALT1_1","","","","","","","","","","","",""
"null","<span style='color:GreenYellow; font-size: 70px;'>正确! </span>","null","html-keyboard-response","134","389773","0.0-7.0-0.0-4.0-0.0-1.13","4","4","4","4","4","4","4","3","4","4","5","5","5","4","5","5","5","5","4","5","1","1","1","1","1","1","1","1","1","0","1","0","1","0","0","0","1","0","0","0","1","0","0","0","5","1","2","2","1","2","3","4","1","4","1","738081261448597505","周","405","","","","","","","","","","","","","","","","","","","","","","","","","","","","","","feedback_test","","","","","","","","","","","",""
"658","","j","psychophysics","135","391432","0.0-7.0-0.0-4.0-0.0-0.14","4","4","4","4","4","4","4","3","4","4","5","5","5","4","5","5","5","5","4","5","1","1","1","1","1","1","1","1","1","0","1","0","1","0","0","0","1","0","0","0","1","0","0","0","5","1","2","2","1","2","3","4","1","4","1","738081261448597505","周","405","","","","match","","","","","","","","","","","","","","key","j","16.6511414141413","768","428","j","true","match","img/hexagon.png","六边","六边","ALT1","formal_ALT1_1","","","","","","","","","","","",""
"null","<span style='color:GreenYellow; font-size: 70px;'>正确! </span>","null","html-keyboard-response","136","391935","0.0-7.0-0.0-4.0-0.0-1.14","4","4","4","4","4","4","4","3","4","4","5","5","5","4","5","5","5","5","4","5","1","1","1","1","1","1","1","1","1","0","1","0","1","0","0","0","1","0","0","0","1","0","0","0","5","1","2","2","1","2","3","4","1","4","1","738081261448597505","周","405","","","","","","","","","","","","","","","","","","","","","","","","","","","","","","feedback_test","","","","","","","","","","","",""
"578","","j","psychophysics","137","393514","0.0-7.0-0.0-4.0-0.0-0.15","4","4","4","4","4","4","4","3","4","4","5","5","5","4","5","5","5","5","4","5","1","1","1","1","1","1","1","1","1","0","1","0","1","0","0","0","1","0","0","0","1","0","0","0","5","1","2","2","1","2","3","4","1","4","1","738081261448597505","周","405","","","","match","","","","","","","","","","","","","","key","j","16.65172340425519","768","428","j","true","match","img/hexagon.png","六边","六边","ALT1","formal_ALT1_1","","","","","","","","","","","",""
"null","<span style='color:GreenYellow; font-size: 70px;'>正确! </span>","null","html-keyboard-response","138","394015","0.0-7.0-0.0-4.0-0.0-1.15","4","4","4","4","4","4","4","3","4","4","5","5","5","4","5","5","5","5","4","5","1","1","1","1","1","1","1","1","1","0","1","0","1","0","0","0","1","0","0","0","1","0","0","0","5","1","2","2","1","2","3","4","1","4","1","738081261448597505","周","405","","","","","","","","","","","","","","","","","","","","","","","","","","","","","","feedback_test","","","","","","","","","","","",""
"696","","f","psychophysics","139","395713","0.0-7.0-0.0-4.0-0.0-0.16","4","4","4","4","4","4","4","3","4","4","5","5","5","4","5","5","5","5","4","5","1","1","1","1","1","1","1","1","1","0","1","0","1","0","0","0","1","0","0","0","1","0","0","0","5","1","2","2","1","2","3","4","1","4","1","738081261448597505","周","405","","","","nonmatch","","","","","","","","","","","","","","key","f","16.650990099009903","768","428","f","true","nonmatch","img/trapezoid.png","六边","梯形","ALT1","formal_ALT1_1","","","","","","","","","","","",""
"null","<span style='color:GreenYellow; font-size: 70px;'>正确! </span>","null","html-keyboard-response","140","396214","0.0-7.0-0.0-4.0-0.0-1.16","4","4","4","4","4","4","4","3","4","4","5","5","5","4","5","5","5","5","4","5","1","1","1","1","1","1","1","1","1","0","1","0","1","0","0","0","1","0","0","0","1","0","0","0","5","1","2","2","1","2","3","4","1","4","1","738081261448597505","周","405","","","","","","","","","","","","","","","","","","","","","","","","","","","","","","feedback_test","","","","","","","","","","","",""
"849","","f","psychophysics","141","398064","0.0-7.0-0.0-4.0-0.0-0.17","4","4","4","4","4","4","4","3","4","4","5","5","5","4","5","5","5","5","4","5","1","1","1","1","1","1","1","1","1","0","1","0","1","0","0","0","1","0","0","0","1","0","0","0","5","1","2","2","1","2","3","4","1","4","1","738081261448597505","周","405","","","","nonmatch","","","","","","","","","","","","","","key","f","16.65109090909087","768","428","f","true","nonmatch","img/triangle.png","梯形","三角","ALT1","formal_ALT1_1","","","","","","","","","","","",""
"null","<span style='color:GreenYellow; font-size: 70px;'>正确! </span>","null","html-keyboard-response","142","398565","0.0-7.0-0.0-4.0-0.0-1.17","4","4","4","4","4","4","4","3","4","4","5","5","5","4","5","5","5","5","4","5","1","1","1","1","1","1","1","1","1","0","1","0","1","0","0","0","1","0","0","0","1","0","0","0","5","1","2","2","1","2","3","4","1","4","1","738081261448597505","周","405","","","","","","","","","","","","","","","","","","","","","","","","","","","","","","feedback_test","","","","","","","","","","","",""
"641","","j","psychophysics","143","400208","0.0-7.0-0.0-4.0-0.0-0.18","4","4","4","4","4","4","4","3","4","4","5","5","5","4","5","5","5","5","4","5","1","1","1","1","1","1","1","1","1","0","1","0","1","0","0","0","1","0","0","0","1","0","0","0","5","1","2","2","1","2","3","4","1","4","1","738081261448597505","周","405","","","","match","","","","","","","","","","","","","","key","j","16.651489795918568","768","428","j","true","match","img/circle.png","圆形","圆形","ALT1","formal_ALT1_1","","","","","","","","","","","",""
"null","<span style='color:GreenYellow; font-size: 70px;'>正确! </span>","null","html-keyboard-response","144","400709","0.0-7.0-0.0-4.0-0.0-1.18","4","4","4","4","4","4","4","3","4","4","5","5","5","4","5","5","5","5","4","5","1","1","1","1","1","1","1","1","1","0","1","0","1","0","0","0","1","0","0","0","1","0","0","0","5","1","2","2","1","2","3","4","1","4","1","738081261448597505","周","405","","","","","","","","","","","","","","","","","","","","","","","","","","","","","","feedback_test","","","","","","","","","","","",""
"658","","f","psychophysics","145","402368","0.0-7.0-0.0-4.0-0.0-0.19","4","4","4","4","4","4","4","3","4","4","5","5","5","4","5","5","5","5","4","5","1","1","1","1","1","1","1","1","1","0","1","0","1","0","0","0","1","0","0","0","1","0","0","0","5","1","2","2","1","2","3","4","1","4","1","738081261448597505","周","405","","","","nonmatch","","","","","","","","","","","","","","key","f","16.650459183674016","768","428","f","true","nonmatch","img/trapezoid.png","圆形","梯形","ALT1","formal_ALT1_1","","","","","","","","","","","",""
"null","<span style='color:GreenYellow; font-size: 70px;'>正确! </span>","null","html-keyboard-response","146","402870","0.0-7.0-0.0-4.0-0.0-1.19","4","4","4","4","4","4","4","3","4","4","5","5","5","4","5","5","5","5","4","5","1","1","1","1","1","1","1","1","1","0","1","0","1","0","0","0","1","0","0","0","1","0","0","0","5","1","2","2","1","2","3","4","1","4","1","738081261448597505","周","405","","","","","","","","","","","","","","","","","","","","","","","","","","","","","","feedback_test","","","","","","","","","","","",""
"849","","j","psychophysics","147","404721","0.0-7.0-0.0-4.0-0.0-0.20","4","4","4","4","4","4","4","3","4","4","5","5","5","4","5","5","5","5","4","5","1","1","1","1","1","1","1","1","1","0","1","0","1","0","0","0","1","0","0","0","1","0","0","0","5","1","2","2","1","2","3","4","1","4","1","738081261448597505","周","405","","","","match","","","","","","","","","","","","","","key","j","16.65228181818172","768","428","j","true","match","img/trapezoid.png","梯形","梯形","ALT1","formal_ALT1_1","","","","","","","","","","","",""
"null","<span style='color:GreenYellow; font-size: 70px;'>正确! </span>","null","html-keyboard-response","148","405222","0.0-7.0-0.0-4.0-0.0-1.20","4","4","4","4","4","4","4","3","4","4","5","5","5","4","5","5","5","5","4","5","1","1","1","1","1","1","1","1","1","0","1","0","1","0","0","0","1","0","0","0","1","0","0","0","5","1","2","2","1","2","3","4","1","4","1","738081261448597505","周","405","","","","","","","","","","","","","","","","","","","","","","","","","","","","","","feedback_test","","","","","","","","","","","",""
"665","","j","psychophysics","149","406888","0.0-7.0-0.0-4.0-0.0-0.21","4","4","4","4","4","4","4","3","4","4","5","5","5","4","5","5","5","5","4","5","1","1","1","1","1","1","1","1","1","0","1","0","1","0","0","0","1","0","0","0","1","0","0","0","5","1","2","2","1","2","3","4","1","4","1","738081261448597505","周","405","","","","match","","","","","","","","","","","","","","key","j","16.650747474747465","768","428","j","true","match","img/circle.png","圆形","圆形","ALT1","formal_ALT1_1","","","","","","","","","","","",""
"null","<span style='color:GreenYellow; font-size: 70px;'>正确! </span>","null","html-keyboard-response","150","407389","0.0-7.0-0.0-4.0-0.0-1.21","4","4","4","4","4","4","4","3","4","4","5","5","5","4","5","5","5","5","4","5","1","1","1","1","1","1","1","1","1","0","1","0","1","0","0","0","1","0","0","0","1","0","0","0","5","1","2","2","1","2","3","4","1","4","1","738081261448597505","周","405","","","","","","","","","","","","","","","","","","","","","","","","","","","","","","feedback_test","","","","","","","","","","","",""
"746","","f","psychophysics","151","409136","0.0-7.0-0.0-4.0-0.0-0.22","4","4","4","4","4","4","4","3","4","4","5","5","5","4","5","5","5","5","4","5","1","1","1","1","1","1","1","1","1","0","1","0","1","0","0","0","1","0","0","0","1","0","0","0","5","1","2","2","1","2","3","4","1","4","1","738081261448597505","周","405","","","","nonmatch","","","","","","","","","","","","","","key","f","16.650403846153775","768","428","f","true","nonmatch","img/hexagon.png","梯形","六边","ALT1","formal_ALT1_1","","","","","","","","","","","",""
"null","<span style='color:GreenYellow; font-size: 70px;'>正确! </span>","null","html-keyboard-response","152","409637","0.0-7.0-0.0-4.0-0.0-1.22","4","4","4","4","4","4","4","3","4","4","5","5","5","4","5","5","5","5","4","5","1","1","1","1","1","1","1","1","1","0","1","0","1","0","0","0","1","0","0","0","1","0","0","0","5","1","2","2","1","2","3","4","1","4","1","738081261448597505","周","405","","","","","","","","","","","","","","","","","","","","","","","","","","","","","","feedback_test","","","","","","","","","","","",""
"675","","f","psychophysics","153","411314","0.0-7.0-0.0-4.0-0.0-0.23","4","4","4","4","4","4","4","3","4","4","5","5","5","4","5","5","5","5","4","5","1","1","1","1","1","1","1","1","1","0","1","0","1","0","0","0","1","0","0","0","1","0","0","0","5","1","2","2","1","2","3","4","1","4","1","738081261448597505","周","405","","","","nonmatch","","","","","","","","","","","","","","key","f","16.65429999999993","768","428","f","true","nonmatch","img/triangle.png","六边","三角","ALT1","formal_ALT1_1","","","","","","","","","","","",""
"null","<span style='color:GreenYellow; font-size: 70px;'>正确! </span>","null","html-keyboard-response","154","411815","0.0-7.0-0.0-4.0-0.0-1.23","4","4","4","4","4","4","4","3","4","4","5","5","5","4","5","5","5","5","4","5","1","1","1","1","1","1","1","1","1","0","1","0","1","0","0","0","1","0","0","0","1","0","0","0","5","1","2","2","1","2","3","4","1","4","1","738081261448597505","周","405","","","","","","","","","","","","","","","","","","","","","","","","","","","","","","feedback_test","","","","","","","","","","","",""
"671","","f","psychophysics","155","413488","0.0-7.0-0.0-4.0-0.0-0.24","4","4","4","4","4","4","4","3","4","4","5","5","5","4","5","5","5","5","4","5","1","1","1","1","1","1","1","1","1","0","1","0","1","0","0","0","1","0","0","0","1","0","0","0","5","1","2","2","1","2","3","4","1","4","1","738081261448597505","周","405","","","","nonmatch","","","","","","","","","","","","","","key","f","16.6512525252524","768","428","f","true","nonmatch","img/hexagon.png","三角","六边","ALT1","formal_ALT1_1","","","","","","","","","","","",""
"null","<span style='color:GreenYellow; font-size: 70px;'>正确! </span>","null","html-keyboard-response","156","413989","0.0-7.0-0.0-4.0-0.0-1.24","4","4","4","4","4","4","4","3","4","4","5","5","5","4","5","5","5","5","4","5","1","1","1","1","1","1","1","1","1","0","1","0","1","0","0","0","1","0","0","0","1","0","0","0","5","1","2","2","1","2","3","4","1","4","1","738081261448597505","周","405","","","","","","","","","","","","","","","","","","","","","","","","","","","","","","feedback_test","","","","","","","","","","","",""
"666","","f","psychophysics","157","415656","0.0-7.0-0.0-4.0-0.0-0.25","4","4","4","4","4","4","4","3","4","4","5","5","5","4","5","5","5","5","4","5","1","1","1","1","1","1","1","1","1","0","1","0","1","0","0","0","1","0","0","0","1","0","0","0","5","1","2","2","1","2","3","4","1","4","1","738081261448597505","周","405","","","","nonmatch","","","","","","","","","","","","","","key","f","16.65097979797965","768","428","f","true","nonmatch","img/hexagon.png","圆形","六边","ALT1","formal_ALT1_1","","","","","","","","","","","",""
"null","<span style='color:GreenYellow; font-size: 70px;'>正确! </span>","null","html-keyboard-response","158","416158","0.0-7.0-0.0-4.0-0.0-1.25","4","4","4","4","4","4","4","3","4","4","5","5","5","4","5","5","5","5","4","5","1","1","1","1","1","1","1","1","1","0","1","0","1","0","0","0","1","0","0","0","1","0","0","0","5","1","2","2","1","2","3","4","1","4","1","738081261448597505","周","405","","","","","","","","","","","","","","","","","","","","","","","","","","","","","","feedback_test","","","","","","","","","","","",""
"617","","f","psychophysics","159","417776","0.0-7.0-0.0-4.0-0.0-0.26","4","4","4","4","4","4","4","3","4","4","5","5","5","4","5","5","5","5","4","5","1","1","1","1","1","1","1","1","1","0","1","0","1","0","0","0","1","0","0","0","1","0","0","0","5","1","2","2","1","2","3","4","1","4","1","738081261448597505","周","405","","","","nonmatch","","","","","","","","","","","","","","key","f","16.650802083333474","768","428","f","true","nonmatch","img/triangle.png","圆形","三角","ALT1","formal_ALT1_1","","","","","","","","","","","",""
"null","<span style='color:GreenYellow; font-size: 70px;'>正确! </span>","null","html-keyboard-response","160","418277","0.0-7.0-0.0-4.0-0.0-1.26","4","4","4","4","4","4","4","3","4","4","5","5","5","4","5","5","5","5","4","5","1","1","1","1","1","1","1","1","1","0","1","0","1","0","0","0","1","0","0","0","1","0","0","0","5","1","2","2","1","2","3","4","1","4","1","738081261448597505","周","405","","","","","","","","","","","","","","","","","","","","","","","","","","","","","","feedback_test","","","","","","","","","","","",""
"625","","j","psychophysics","161","419905","0.0-7.0-0.0-4.0-0.0-0.27","4","4","4","4","4","4","4","3","4","4","5","5","5","4","5","5","5","5","4","5","1","1","1","1","1","1","1","1","1","0","1","0","1","0","0","0","1","0","0","0","1","0","0","0","5","1","2","2","1","2","3","4","1","4","1","738081261448597505","周","405","","","","match","","","","","","","","","","","","","","key","j","16.64980412371152","768","428","j","true","match","img/hexagon.png","六边","六边","ALT1","formal_ALT1_1","","","","","","","","","","","",""
"null","<span style='color:GreenYellow; font-size: 70px;'>正确! </span>","null","html-keyboard-response","162","420406","0.0-7.0-0.0-4.0-0.0-1.27","4","4","4","4","4","4","4","3","4","4","5","5","5","4","5","5","5","5","4","5","1","1","1","1","1","1","1","1","1","0","1","0","1","0","0","0","1","0","0","0","1","0","0","0","5","1","2","2","1","2","3","4","1","4","1","738081261448597505","周","405","","","","","","","","","","","","","","","","","","","","","","","","","","","","","","feedback_test","","","","","","","","","","","",""
"553","","j","psychophysics","163","421960","0.0-7.0-0.0-4.0-0.0-0.28","4","4","4","4","4","4","4","3","4","4","5","5","5","4","5","5","5","5","4","5","1","1","1","1","1","1","1","1","1","0","1","0","1","0","0","0","1","0","0","0","1","0","0","0","5","1","2","2","1","2","3","4","1","4","1","738081261448597505","周","405","","","","match","","","","","","","","","","","","","","key","j","16.65082608695704","768","428","j","true","match","img/triangle.png","三角","三角","ALT1","formal_ALT1_1","","","","","","","","","","","",""
"null","<span style='color:GreenYellow; font-size: 70px;'>正确! </span>","null","html-keyboard-response","164","422461","0.0-7.0-0.0-4.0-0.0-1.28","4","4","4","4","4","4","4","3","4","4","5","5","5","4","5","5","5","5","4","5","1","1","1","1","1","1","1","1","1","0","1","0","1","0","0","0","1","0","0","0","1","0","0","0","5","1","2","2","1","2","3","4","1","4","1","738081261448597505","周","405","","","","","","","","","","","","","","","","","","","","","","","","","","","","","","feedback_test","","","","","","","","","","","",""
"658","","j","psychophysics","165","424121","0.0-7.0-0.0-4.0-0.0-0.29","4","4","4","4","4","4","4","3","4","4","5","5","5","4","5","5","5","5","4","5","1","1","1","1","1","1","1","1","1","0","1","0","1","0","0","0","1","0","0","0","1","0","0","0","5","1","2","2","1","2","3","4","1","4","1","738081261448597505","周","405","","","","match","","","","","","","","","","","","","","key","j","16.65546464646468","768","428","j","true","match","img/trapezoid.png","梯形","梯形","ALT1","formal_ALT1_1","","","","","","","","","","","",""
"null","<span style='color:GreenYellow; font-size: 70px;'>正确! </span>","null","html-keyboard-response","166","424622","0.0-7.0-0.0-4.0-0.0-1.29","4","4","4","4","4","4","4","3","4","4","5","5","5","4","5","5","5","5","4","5","1","1","1","1","1","1","1","1","1","0","1","0","1","0","0","0","1","0","0","0","1","0","0","0","5","1","2","2","1","2","3","4","1","4","1","738081261448597505","周","405","","","","","","","","","","","","","","","","","","","","","","","","","","","","","","feedback_test","","","","","","","","","","","",""
"729","","j","psychophysics","167","426353","0.0-7.0-0.0-4.0-0.0-0.30","4","4","4","4","4","4","4","3","4","4","5","5","5","4","5","5","5","5","4","5","1","1","1","1","1","1","1","1","1","0","1","0","1","0","0","0","1","0","0","0","1","0","0","0","5","1","2","2","1","2","3","4","1","4","1","738081261448597505","周","405","","","","match","","","","","","","","","","","","","","key","j","16.651000000000142","768","428","j","true","match","img/circle.png","圆形","圆形","ALT1","formal_ALT1_1","","","","","","","","","","","",""
"null","<span style='color:GreenYellow; font-size: 70px;'>正确! </span>","null","html-keyboard-response","168","426854","0.0-7.0-0.0-4.0-0.0-1.30","4","4","4","4","4","4","4","3","4","4","5","5","5","4","5","5","5","5","4","5","1","1","1","1","1","1","1","1","1","0","1","0","1","0","0","0","1","0","0","0","1","0","0","0","5","1","2","2","1","2","3","4","1","4","1","738081261448597505","周","405","","","","","","","","","","","","","","","","","","","","","","","","","","","","","","feedback_test","","","","","","","","","","","",""
"641","","j","psychophysics","169","428496","0.0-7.0-0.0-4.0-0.0-0.31","4","4","4","4","4","4","4","3","4","4","5","5","5","4","5","5","5","5","4","5","1","1","1","1","1","1","1","1","1","0","1","0","1","0","0","0","1","0","0","0","1","0","0","0","5","1","2","2","1","2","3","4","1","4","1","738081261448597505","周","405","","","","match","","","","","","","","","","","","","","key","j","16.654030612245208","768","428","j","true","match","img/hexagon.png","六边","六边","ALT1","formal_ALT1_1","","","","","","","","","","","",""
"null","<span style='color:GreenYellow; font-size: 70px;'>正确! </span>","null","html-keyboard-response","170","428998","0.0-7.0-0.0-4.0-0.0-1.31","4","4","4","4","4","4","4","3","4","4","5","5","5","4","5","5","5","5","4","5","1","1","1","1","1","1","1","1","1","0","1","0","1","0","0","0","1","0","0","0","1","0","0","0","5","1","2","2","1","2","3","4","1","4","1","738081261448597505","周","405","","","","","","","","","","","","","","","","","","","","","","","","","","","","","","feedback_test","","","","","","","","","","","",""
"513","","j","psychophysics","171","430513","0.0-7.0-0.0-4.0-0.0-0.32","4","4","4","4","4","4","4","3","4","4","5","5","5","4","5","5","5","5","4","5","1","1","1","1","1","1","1","1","1","0","1","0","1","0","0","0","1","0","0","0","1","0","0","0","5","1","2","2","1","2","3","4","1","4","1","738081261448597505","周","405","","","","match","","","","","","","","","","","","","","key","j","16.65155555555571","768","428","j","true","match","img/circle.png","圆形","圆形","ALT1","formal_ALT1_1","","","","","","","","","","","",""
"null","<span style='color:GreenYellow; font-size: 70px;'>正确! </span>","null","html-keyboard-response","172","431013","0.0-7.0-0.0-4.0-0.0-1.32","4","4","4","4","4","4","4","3","4","4","5","5","5","4","5","5","5","5","4","5","1","1","1","1","1","1","1","1","1","0","1","0","1","0","0","0","1","0","0","0","1","0","0","0","5","1","2","2","1","2","3","4","1","4","1","738081261448597505","周","405","","","","","","","","","","","","","","","","","","","","","","","","","","","","","","feedback_test","","","","","","","","","","","",""
"649","","f","psychophysics","173","432665","0.0-7.0-0.0-4.0-0.0-0.33","4","4","4","4","4","4","4","3","4","4","5","5","5","4","5","5","5","5","4","5","1","1","1","1","1","1","1","1","1","0","1","0","1","0","0","0","1","0","0","0","1","0","0","0","5","1","2","2","1","2","3","4","1","4","1","738081261448597505","周","405","","","","nonmatch","","","","","","","","","","","","","","key","f","16.651642857142605","768","428","f","true","nonmatch","img/circle.png","梯形","圆形","ALT1","formal_ALT1_1","","","","","","","","","","","",""
"null","<span style='color:GreenYellow; font-size: 70px;'>正确! </span>","null","html-keyboard-response","174","433166","0.0-7.0-0.0-4.0-0.0-1.33","4","4","4","4","4","4","4","3","4","4","5","5","5","4","5","5","5","5","4","5","1","1","1","1","1","1","1","1","1","0","1","0","1","0","0","0","1","0","0","0","1","0","0","0","5","1","2","2","1","2","3","4","1","4","1","738081261448597505","周","405","","","","","","","","","","","","","","","","","","","","","","","","","","","","","","feedback_test","","","","","","","","","","","",""
"618","","j","psychophysics","175","434785","0.0-7.0-0.0-4.0-0.0-0.34","4","4","4","4","4","4","4","3","4","4","5","5","5","4","5","5","5","5","4","5","1","1","1","1","1","1","1","1","1","0","1","0","1","0","0","0","1","0","0","0","1","0","0","0","5","1","2","2","1","2","3","4","1","4","1","738081261448597505","周","405","","","","match","","","","","","","","","","","","","","key","j","16.65154166666677","768","428","f","false","nonmatch","img/hexagon.png","梯形","六边","ALT1","formal_ALT1_1","","","","","","","","","","","",""
"null","<span style='color:red; font-size: 70px;'>错误! </span>","null","html-keyboard-response","176","435286","0.0-7.0-0.0-4.0-0.0-1.34","4","4","4","4","4","4","4","3","4","4","5","5","5","4","5","5","5","5","4","5","1","1","1","1","1","1","1","1","1","0","1","0","1","0","0","0","1","0","0","0","1","0","0","0","5","1","2","2","1","2","3","4","1","4","1","738081261448597505","周","405","","","","","","","","","","","","","","","","","","","","","","","","","","","","","","feedback_test","","","","","","","","","","","",""
"714","","j","psychophysics","177","437002","0.0-7.0-0.0-4.0-0.0-0.35","4","4","4","4","4","4","4","3","4","4","5","5","5","4","5","5","5","5","4","5","1","1","1","1","1","1","1","1","1","0","1","0","1","0","0","0","1","0","0","0","1","0","0","0","5","1","2","2","1","2","3","4","1","4","1","738081261448597505","周","405","","","","match","","","","","","","","","","","","","","key","j","16.654735294117607","768","428","f","false","nonmatch","img/trapezoid.png","圆形","梯形","ALT1","formal_ALT1_1","","","","","","","","","","","",""
"null","<span style='color:red; font-size: 70px;'>错误! </span>","null","html-keyboard-response","178","437503","0.0-7.0-0.0-4.0-0.0-1.35","4","4","4","4","4","4","4","3","4","4","5","5","5","4","5","5","5","5","4","5","1","1","1","1","1","1","1","1","1","0","1","0","1","0","0","0","1","0","0","0","1","0","0","0","5","1","2","2","1","2","3","4","1","4","1","738081261448597505","周","405","","","","","","","","","","","","","","","","","","","","","","","","","","","","","","feedback_test","","","","","","","","","","","",""
"704","","f","psychophysics","179","439208","0.0-7.0-0.0-4.0-0.0-0.36","4","4","4","4","4","4","4","3","4","4","5","5","5","4","5","5","5","5","4","5","1","1","1","1","1","1","1","1","1","0","1","0","1","0","0","0","1","0","0","0","1","0","0","0","5","1","2","2","1","2","3","4","1","4","1","738081261448597505","周","405","","","","nonmatch","","","","","","","","","","","","","","key","f","16.651732673267443","768","428","f","true","nonmatch","img/circle.png","三角","圆形","ALT1","formal_ALT1_1","","","","","","","","","","","",""
"null","<span style='color:GreenYellow; font-size: 70px;'>正确! </span>","null","html-keyboard-response","180","439710","0.0-7.0-0.0-4.0-0.0-1.36","4","4","4","4","4","4","4","3","4","4","5","5","5","4","5","5","5","5","4","5","1","1","1","1","1","1","1","1","1","0","1","0","1","0","0","0","1","0","0","0","1","0","0","0","5","1","2","2","1","2","3","4","1","4","1","738081261448597505","周","405","","","","","","","","","","","","","","","","","","","","","","","","","","","","","","feedback_test","","","","","","","","","","","",""
"697","","f","psychophysics","181","441409","0.0-7.0-0.0-4.0-0.0-0.37","4","4","4","4","4","4","4","3","4","4","5","5","5","4","5","5","5","5","4","5","1","1","1","1","1","1","1","1","1","0","1","0","1","0","0","0","1","0","0","0","1","0","0","0","5","1","2","2","1","2","3","4","1","4","1","738081261448597505","周","405","","","","nonmatch","","","","","","","","","","","","","","key","f","16.65119801980206","768","428","f","true","nonmatch","img/triangle.png","梯形","三角","ALT1","formal_ALT1_1","","","","","","","","","","","",""
