"rt","stimulus","response","trial_type","trial_index","time_elapsed","internal_node_id","ses_1","ses_2","ses_3","ses_4","ses_5","ses_6","ses_7","ses_8","ses_9","ses_10","coreself_1","coreself_2","coreself_3","coreself_4","coreself_5","coreself_6","coreself_7","coreself_8","coreself_9","coreself_10","SGPS_1","SGPS_2","SGPS_3","SGPS_4","SGPS_5","SGPS_6","SGPS_7","SGPS_8","SGPS_9","NPI1","NPI2","NPI3","NPI4","NPI5","NPI6","NPI7","NPI8","NPI9","NPI10","NPI11","NPI12","NPI13","NPI14","NPI15","hsns_1","hsns_2","hsns_3","hsns_4","hsns_5","trap1","hsns_6","hsns_7","hsns_8","hsns_9","hsns_10","subj_idx","friend_name","ParticipantID","value","success","user_agent","responses","item_order","radio_event_ids","radio_event_times","key_event_times","mouse_event_times","straightlining","zigzagging","honeypot","timeout","failed_images","failed_audio","failed_video","version_attrib2","version_target2","correct","IAT","screen_id","task_id","RT","condition","word","varname","summary","version_attrib","version_target","time_stamp","view_history","response_type","key_press","avg_frame_time","center_x","center_y","correct_response","identity","Image","question_order","correct_answer","trap1_item"
"9948","
   <p><div style = ""color: white;font-size:25px;"">您好，欢迎参加本次实验。</div> </p>
   <p><div style = ""color: white;font-size:25px;"">为充分保障您的权利，请确保您已经知晓并同意《参与实验同意书》以及《数据公开知情同意书》。</div></p>
   <p><div style = ""color: white;font-size:25px;"">如果您未见过上述内容，请咨询实验员。</div></p>
   <p><div style = ""color: white;font-size:25px;"">如果您选择继续实验，则表示您已经清楚两份知情同意书的内容并同意。</div></p>
   <p><div style = ""color: pink;font-size:30px;"">请确保您记得day0的实验编号，您将在本次实验输入该编号，若您忘记，请咨询实验员后作答。</div></p>
   <p><div style = ""color: lightblue;font-size:25px;"">请您尽可能认真地作答，我们将依据您在各问卷和按键任务中的作答质量发放报酬。</div></p>
   <p> <div style = ""color: green;font-size:25px;""><按空格键至下页></div> </p>
   "," ","html-keyboard-response","0","9952","0.0-0.0","4","4","4","4","4","4","4","4","4","4","5","5","5","5","5","5","5","5","5","5","1","1","1","1","1","1","1","1","1","1","1","1","0","0","0","0","0","0","0","1","1","0","0","1","5","1","1","1","1","4","1","1","2","1","1","618876128202850304","范","470","","","","","","","","","","","","","","","","","","","","","","","","","","","","","","","","","","","","","","","","","",""
"","","","call-function","1","9955","0.0-1.0-0.0","4","4","4","4","4","4","4","4","4","4","5","5","5","5","5","5","5","5","5","5","1","1","1","1","1","1","1","1","1","1","1","1","0","0","0","0","0","0","0","1","1","0","0","1","5","1","1","1","1","4","1","1","2","1","1","618876128202850304","范","470","","","","","","","","","","","","","","","","","","","","","","","","","","","","","","","","","","","","","","","","","",""
"44629","","{""friend_name"":""范"",""ParticipantID"":""470""}","survey-html-form","2","54585","0.0-1.0-1.0","4","4","4","4","4","4","4","4","4","4","5","5","5","5","5","5","5","5","5","5","1","1","1","1","1","1","1","1","1","1","1","1","0","0","0","0","0","0","0","1","1","0","0","1","5","1","1","1","1","4","1","1","2","1","1","618876128202850304","范","470","","","","","","","","","","","","","","","","","","","","","","","","","","","","","","","","","","","","","","","","","",""
"","","","fullscreen","3","58733","0.0-2.0","4","4","4","4","4","4","4","4","4","4","5","5","5","5","5","5","5","5","5","5","1","1","1","1","1","1","1","1","1","1","1","1","0","0","0","0","0","0","0","1","1","0","0","1","5","1","1","1","1","4","1","1","2","1","1","618876128202850304","范","470","","true","{}","","","","","","","","","","","","","","","","","","","","","","","","","","","","","","","","","","","","","","",""
"66221.5","","{""Q01"":""4"",""Q02"":""4"",""Q03"":""4"",""Q04"":""4"",""Q05"":""4"",""Q06"":""4"",""Q07"":""4"",""Q08"":""4"",""Q09"":""4"",""Q10"":""4""}","survey-template","4","124959","0.0-3.0","4","4","4","4","4","4","4","4","4","4","5","5","5","5","5","5","5","5","5","5","1","1","1","1","1","1","1","1","1","1","1","1","0","0","0","0","0","0","0","1","1","0","0","1","5","1","1","1","1","4","1","1","2","1","1","618876128202850304","范","470","","","","{""Q01"":""4"",""Q02"":""4"",""Q03"":""4"",""Q04"":""4"",""Q05"":""4"",""Q06"":""4"",""Q07"":""4"",""Q08"":""4"",""Q09"":""4"",""Q10"":""4""}","[0,1,2,3,4,5,6,7,8,9]","[""Q01"",""Q02"",""Q03"",""Q04"",""Q05"",""Q06"",""Q07"",""Q08"",""Q09"",""Q10""]","[8922.100000023842,11853.899999976158,18135.899999976158,20001.799999952316,22341.600000023842,23901.799999952316,25183.799999952316,34673.60000002384,49591.700000047684,52253.60000002384]","[]","[8922.100000023842,11853.899999976158,15534.299999952316,18135.899999976158,20001.799999952316,22341.600000023842,23901.799999952316,25183.799999952316,34673.60000002384,49591.700000047684,51263.60000002384,52253.60000002384,66219.39999997616]","0.5","0.5555555555555556","0","","","","","","","","","","","","","","","","","","","","","","","","","","","","","",""
"32752.200000047684","","{""Q01"":""5"",""Q02"":""5"",""Q03"":""5"",""Q04"":""5"",""Q05"":""5"",""Q06"":""5"",""Q07"":""5"",""Q08"":""5"",""Q09"":""5"",""Q10"":""5""}","survey-template","5","157718","0.0-4.0","4","4","4","4","4","4","4","4","4","4","5","5","5","5","5","5","5","5","5","5","1","1","1","1","1","1","1","1","1","1","1","1","0","0","0","0","0","0","0","1","1","0","0","1","5","1","1","1","1","4","1","1","2","1","1","618876128202850304","范","470","","","","{""Q01"":""5"",""Q02"":""5"",""Q03"":""5"",""Q04"":""5"",""Q05"":""5"",""Q06"":""5"",""Q07"":""5"",""Q08"":""5"",""Q09"":""5"",""Q10"":""5""}","[0,1,2,3,4,5,6,7,8,9]","[""Q01"",""Q02"",""Q03"",""Q04"",""Q05"",""Q06"",""Q07"",""Q08"",""Q09"",""Q10""]","[2840.899999976158,5816.700000047684,7316.700000047684,14864.700000047684,20864,23768.399999976158,25637.200000047684,27692.899999976158,30005.200000047684,31520.399999976158]","[]","[2840.899999976158,5816.700000047684,7316.700000047684,8898.899999976158,13650.600000023842,14864.700000047684,20864,23768.399999976158,25637.200000047684,27692.899999976158,30005.200000047684,31520.399999976158,32750.399999976158]","0.6","0.7777777777777778","0","","","","","","","","","","","","","","","","","","","","","","","","","","","","","",""
"","","","preload","6","158341","0.0-5.0","4","4","4","4","4","4","4","4","4","4","5","5","5","5","5","5","5","5","5","5","1","1","1","1","1","1","1","1","1","1","1","1","0","0","0","0","0","0","0","1","1","0","0","1","5","1","1","1","1","4","1","1","2","1","1","618876128202850304","范","470","","true","","","","","","","","","","","false","[]","[]","[]","","","","","","","","","","","","","","","","","","","","","","","","","",""
"16754","
    <h3>词语分类任务</h3>
    <p>在接下来的任务中，你需要对一系列词语进行分类。<p/>
    请先熟悉这些词语，这有利于你完成接下来的任务。</p>
    <table align=""center"" border=1 cellpadding=3 cellspacing=0>
    <tr> <th>类别</th> <th>词语</th> </tr>
    <tr> <td>&emsp;积极&emsp;</td> <td>&emsp;高尚、诚信、善良、君子、廉正、正直&emsp;</td> </tr>
    <tr> <td>&emsp;消极&emsp;</td> <td>&emsp;缺德、卑鄙、不孝、不仁、小人、黑心&emsp;</td> </tr>
    <tr> <td>&emsp;自我&emsp;</td> <td>&emsp;我、我的、自己、自己的、本人、本人的&emsp;</td> </tr>
    <tr> <td>&emsp;他人&emsp;</td> <td>&emsp;他、他的、别人、别人的、他人、他人的&emsp;</td> </tr>
    </table><br/>","0","html-button-response","7","175098","0.0-6.0-1.0-0.0","4","4","4","4","4","4","4","4","4","4","5","5","5","5","5","5","5","5","5","5","1","1","1","1","1","1","1","1","1","1","1","1","0","0","0","0","0","0","0","1","1","0","0","1","5","1","1","1","1","4","1","1","2","1","1","618876128202850304","范","470","","","","","","","","","","","","","","","","","2","2","","","","","","","","","","","","","","","","","","","","","","","",""
"6927","
    <div class=""tag-bottom""><p>
    —— 任务1：对“他人”词和“自我”词分类 ——<p/>
    不同词语会出现在屏幕中央，类别标签将始终显示在屏幕上方<p/>   
    <span style=""color:#FFD866""><b>请根据上方标签的提示，尽可能正确并且快速地做出按键反应</b></span><p/>
    当按键错误时屏幕中会出现<span style=""color:red""> X </span>，需要按另一个键纠正才能继续<br/><p/>
    请把双手食指分别放在键盘的“E”键和“I”键上<p/>
    按<空格键>开始
    </p></div>"," ","html-keyboard-response","8","182030","0.0-6.0-1.0-1.0","4","4","4","4","4","4","4","4","4","4","5","5","5","5","5","5","5","5","5","5","1","1","1","1","1","1","1","1","1","1","1","1","0","0","0","0","0","0","0","1","1","0","0","1","5","1","1","1","1","4","1","1","2","1","1","618876128202850304","范","470","","","","","","","","","","","","","","","","","","","","","","","","","","","","","","","","","","","","","","","","","",""
"null","","null","html-keyboard-response","9","182282","0.0-6.0-1.0-2.0-0.0","4","4","4","4","4","4","4","4","4","4","5","5","5","5","5","5","5","5","5","5","1","1","1","1","1","1","1","1","1","1","1","1","0","0","0","0","0","0","0","1","1","0","0","1","5","1","1","1","1","4","1","1","2","1","1","618876128202850304","范","470","","","","","","","","","","","","","","","","","","","","","","","","","","","","","","","","","","","","","","","","","",""
"775","<p style=""color:rgb(150, 250, 100); font-size: 35px;"">自己</p>","i","categorize-html","10","183063","0.0-6.0-1.0-2.0-1.0","4","4","4","4","4","4","4","4","4","4","5","5","5","5","5","5","5","5","5","5","1","1","1","1","1","1","1","1","1","1","1","1","0","0","0","0","0","0","0","1","1","0","0","1","5","1","1","1","1","4","1","1","2","1","1","618876128202850304","范","470","","","","","","","","","","","","","","","","","","","true","11","1","moral","775","self","自己","","","","","","","","","","","","","","","","",""
"null","","null","html-keyboard-response","11","183314","0.0-6.0-1.0-2.0-0.1","4","4","4","4","4","4","4","4","4","4","5","5","5","5","5","5","5","5","5","5","1","1","1","1","1","1","1","1","1","1","1","1","0","0","0","0","0","0","0","1","1","0","0","1","5","1","1","1","1","4","1","1","2","1","1","618876128202850304","范","470","","","","","","","","","","","","","","","","","","","","","","","","","","","","","","","","","","","","","","","","","",""
"709","<p style=""color:rgb(150, 250, 100); font-size: 35px;"">我的</p>","i","categorize-html","12","184027","0.0-6.0-1.0-2.0-1.1","4","4","4","4","4","4","4","4","4","4","5","5","5","5","5","5","5","5","5","5","1","1","1","1","1","1","1","1","1","1","1","1","0","0","0","0","0","0","0","1","1","0","0","1","5","1","1","1","1","4","1","1","2","1","1","618876128202850304","范","470","","","","","","","","","","","","","","","","","","","true","11","1","moral","709","self","我的","","","","","","","","","","","","","","","","",""
"null","","null","html-keyboard-response","13","184278","0.0-6.0-1.0-2.0-0.2","4","4","4","4","4","4","4","4","4","4","5","5","5","5","5","5","5","5","5","5","1","1","1","1","1","1","1","1","1","1","1","1","0","0","0","0","0","0","0","1","1","0","0","1","5","1","1","1","1","4","1","1","2","1","1","618876128202850304","范","470","","","","","","","","","","","","","","","","","","","","","","","","","","","","","","","","","","","","","","","","","",""
"574","<p style=""color:rgb(150, 250, 100); font-size: 35px;"">我</p>","i","categorize-html","14","184856","0.0-6.0-1.0-2.0-1.2","4","4","4","4","4","4","4","4","4","4","5","5","5","5","5","5","5","5","5","5","1","1","1","1","1","1","1","1","1","1","1","1","0","0","0","0","0","0","0","1","1","0","0","1","5","1","1","1","1","4","1","1","2","1","1","618876128202850304","范","470","","","","","","","","","","","","","","","","","","","true","11","1","moral","574","self","我","","","","","","","","","","","","","","","","",""
"null","","null","html-keyboard-response","15","185107","0.0-6.0-1.0-2.0-0.3","4","4","4","4","4","4","4","4","4","4","5","5","5","5","5","5","5","5","5","5","1","1","1","1","1","1","1","1","1","1","1","1","0","0","0","0","0","0","0","1","1","0","0","1","5","1","1","1","1","4","1","1","2","1","1","618876128202850304","范","470","","","","","","","","","","","","","","","","","","","","","","","","","","","","","","","","","","","","","","","","","",""
"668","<p style=""color:rgb(150, 250, 100); font-size: 35px;"">别人的</p>","e","categorize-html","16","185778","0.0-6.0-1.0-2.0-1.3","4","4","4","4","4","4","4","4","4","4","5","5","5","5","5","5","5","5","5","5","1","1","1","1","1","1","1","1","1","1","1","1","0","0","0","0","0","0","0","1","1","0","0","1","5","1","1","1","1","4","1","1","2","1","1","618876128202850304","范","470","","","","","","","","","","","","","","","","","","","true","11","1","moral","668","other","别人的","","","","","","","","","","","","","","","","",""
"null","","null","html-keyboard-response","17","186031","0.0-6.0-1.0-2.0-0.4","4","4","4","4","4","4","4","4","4","4","5","5","5","5","5","5","5","5","5","5","1","1","1","1","1","1","1","1","1","1","1","1","0","0","0","0","0","0","0","1","1","0","0","1","5","1","1","1","1","4","1","1","2","1","1","618876128202850304","范","470","","","","","","","","","","","","","","","","","","","","","","","","","","","","","","","","","","","","","","","","","",""
"471","<p style=""color:rgb(150, 250, 100); font-size: 35px;"">别人</p>","e","categorize-html","18","186505","0.0-6.0-1.0-2.0-1.4","4","4","4","4","4","4","4","4","4","4","5","5","5","5","5","5","5","5","5","5","1","1","1","1","1","1","1","1","1","1","1","1","0","0","0","0","0","0","0","1","1","0","0","1","5","1","1","1","1","4","1","1","2","1","1","618876128202850304","范","470","","","","","","","","","","","","","","","","","","","true","11","1","moral","471","other","别人","","","","","","","","","","","","","","","","",""
"null","","null","html-keyboard-response","19","186756","0.0-6.0-1.0-2.0-0.5","4","4","4","4","4","4","4","4","4","4","5","5","5","5","5","5","5","5","5","5","1","1","1","1","1","1","1","1","1","1","1","1","0","0","0","0","0","0","0","1","1","0","0","1","5","1","1","1","1","4","1","1","2","1","1","618876128202850304","范","470","","","","","","","","","","","","","","","","","","","","","","","","","","","","","","","","","","","","","","","","","",""
"928","<p style=""color:rgb(150, 250, 100); font-size: 35px;"">他人</p>","e","categorize-html","20","187687","0.0-6.0-1.0-2.0-1.5","4","4","4","4","4","4","4","4","4","4","5","5","5","5","5","5","5","5","5","5","1","1","1","1","1","1","1","1","1","1","1","1","0","0","0","0","0","0","0","1","1","0","0","1","5","1","1","1","1","4","1","1","2","1","1","618876128202850304","范","470","","","","","","","","","","","","","","","","","","","true","11","1","moral","928","other","他人","","","","","","","","","","","","","","","","",""
"null","","null","html-keyboard-response","21","187939","0.0-6.0-1.0-2.0-0.6","4","4","4","4","4","4","4","4","4","4","5","5","5","5","5","5","5","5","5","5","1","1","1","1","1","1","1","1","1","1","1","1","0","0","0","0","0","0","0","1","1","0","0","1","5","1","1","1","1","4","1","1","2","1","1","618876128202850304","范","470","","","","","","","","","","","","","","","","","","","","","","","","","","","","","","","","","","","","","","","","","",""
"624","<p style=""color:rgb(150, 250, 100); font-size: 35px;"">他</p>","e","categorize-html","22","188566","0.0-6.0-1.0-2.0-1.6","4","4","4","4","4","4","4","4","4","4","5","5","5","5","5","5","5","5","5","5","1","1","1","1","1","1","1","1","1","1","1","1","0","0","0","0","0","0","0","1","1","0","0","1","5","1","1","1","1","4","1","1","2","1","1","618876128202850304","范","470","","","","","","","","","","","","","","","","","","","true","11","1","moral","624","other","他","","","","","","","","","","","","","","","","",""
"null","","null","html-keyboard-response","23","188817","0.0-6.0-1.0-2.0-0.7","4","4","4","4","4","4","4","4","4","4","5","5","5","5","5","5","5","5","5","5","1","1","1","1","1","1","1","1","1","1","1","1","0","0","0","0","0","0","0","1","1","0","0","1","5","1","1","1","1","4","1","1","2","1","1","618876128202850304","范","470","","","","","","","","","","","","","","","","","","","","","","","","","","","","","","","","","","","","","","","","","",""
"816","<p style=""color:rgb(150, 250, 100); font-size: 35px;"">自己的</p>","i","categorize-html","24","189638","0.0-6.0-1.0-2.0-1.7","4","4","4","4","4","4","4","4","4","4","5","5","5","5","5","5","5","5","5","5","1","1","1","1","1","1","1","1","1","1","1","1","0","0","0","0","0","0","0","1","1","0","0","1","5","1","1","1","1","4","1","1","2","1","1","618876128202850304","范","470","","","","","","","","","","","","","","","","","","","true","11","1","moral","816","self","自己的","","","","","","","","","","","","","","","","",""
"null","","null","html-keyboard-response","25","189889","0.0-6.0-1.0-2.0-0.8","4","4","4","4","4","4","4","4","4","4","5","5","5","5","5","5","5","5","5","5","1","1","1","1","1","1","1","1","1","1","1","1","0","0","0","0","0","0","0","1","1","0","0","1","5","1","1","1","1","4","1","1","2","1","1","618876128202850304","范","470","","","","","","","","","","","","","","","","","","","","","","","","","","","","","","","","","","","","","","","","","",""
"803","<p style=""color:rgb(150, 250, 100); font-size: 35px;"">本人的</p>","i","categorize-html","26","190696","0.0-6.0-1.0-2.0-1.8","4","4","4","4","4","4","4","4","4","4","5","5","5","5","5","5","5","5","5","5","1","1","1","1","1","1","1","1","1","1","1","1","0","0","0","0","0","0","0","1","1","0","0","1","5","1","1","1","1","4","1","1","2","1","1","618876128202850304","范","470","","","","","","","","","","","","","","","","","","","true","11","1","moral","803","self","本人的","","","","","","","","","","","","","","","","",""
"null","","null","html-keyboard-response","27","190947","0.0-6.0-1.0-2.0-0.9","4","4","4","4","4","4","4","4","4","4","5","5","5","5","5","5","5","5","5","5","1","1","1","1","1","1","1","1","1","1","1","1","0","0","0","0","0","0","0","1","1","0","0","1","5","1","1","1","1","4","1","1","2","1","1","618876128202850304","范","470","","","","","","","","","","","","","","","","","","","","","","","","","","","","","","","","","","","","","","","","","",""
"685","<p style=""color:rgb(150, 250, 100); font-size: 35px;"">他人的</p>","e","categorize-html","28","191635","0.0-6.0-1.0-2.0-1.9","4","4","4","4","4","4","4","4","4","4","5","5","5","5","5","5","5","5","5","5","1","1","1","1","1","1","1","1","1","1","1","1","0","0","0","0","0","0","0","1","1","0","0","1","5","1","1","1","1","4","1","1","2","1","1","618876128202850304","范","470","","","","","","","","","","","","","","","","","","","true","11","1","moral","685","other","他人的","","","","","","","","","","","","","","","","",""
"null","","null","html-keyboard-response","29","191887","0.0-6.0-1.0-2.0-0.10","4","4","4","4","4","4","4","4","4","4","5","5","5","5","5","5","5","5","5","5","1","1","1","1","1","1","1","1","1","1","1","1","0","0","0","0","0","0","0","1","1","0","0","1","5","1","1","1","1","4","1","1","2","1","1","618876128202850304","范","470","","","","","","","","","","","","","","","","","","","","","","","","","","","","","","","","","","","","","","","","","",""
"686","<p style=""color:rgb(150, 250, 100); font-size: 35px;"">他的</p>","e","categorize-html","30","192576","0.0-6.0-1.0-2.0-1.10","4","4","4","4","4","4","4","4","4","4","5","5","5","5","5","5","5","5","5","5","1","1","1","1","1","1","1","1","1","1","1","1","0","0","0","0","0","0","0","1","1","0","0","1","5","1","1","1","1","4","1","1","2","1","1","618876128202850304","范","470","","","","","","","","","","","","","","","","","","","true","11","1","moral","686","other","他的","","","","","","","","","","","","","","","","",""
"null","","null","html-keyboard-response","31","192827","0.0-6.0-1.0-2.0-0.11","4","4","4","4","4","4","4","4","4","4","5","5","5","5","5","5","5","5","5","5","1","1","1","1","1","1","1","1","1","1","1","1","0","0","0","0","0","0","0","1","1","0","0","1","5","1","1","1","1","4","1","1","2","1","1","618876128202850304","范","470","","","","","","","","","","","","","","","","","","","","","","","","","","","","","","","","","","","","","","","","","",""
"721","<p style=""color:rgb(150, 250, 100); font-size: 35px;"">本人</p>","i","categorize-html","32","193551","0.0-6.0-1.0-2.0-1.11","4","4","4","4","4","4","4","4","4","4","5","5","5","5","5","5","5","5","5","5","1","1","1","1","1","1","1","1","1","1","1","1","0","0","0","0","0","0","0","1","1","0","0","1","5","1","1","1","1","4","1","1","2","1","1","618876128202850304","范","470","","","","","","","","","","","","","","","","","","","true","11","1","moral","721","self","本人","","","","","","","","","","","","","","","","",""
"6346","
    <div class=""tag-bottom""><p>
    —— 任务2：对“消极”词和“积极”词分类 ——<p/>   
    <span style=""color:#78DCE8""><b>注意上方，类别标签和需要分类的词语都已经改变</b></span><p/>
    <span style=""color:#FFD866""><b>请根据上方标签的提示，尽可能正确并且快速地做出按键反应</b></span><p/>
    当按键错误时屏幕中会出现<span style=""color:red""> X </span>，需要按另一个键纠正才能继续<br/><p/>
    请把双手食指分别放在键盘的“E”键和“I”键上<p/>
    按<空格键>开始
    </p></div>"," ","html-keyboard-response","33","199898","0.0-6.0-1.0-3.0","4","4","4","4","4","4","4","4","4","4","5","5","5","5","5","5","5","5","5","5","1","1","1","1","1","1","1","1","1","1","1","1","0","0","0","0","0","0","0","1","1","0","0","1","5","1","1","1","1","4","1","1","2","1","1","618876128202850304","范","470","","","","","","","","","","","","","","","","","","","","","","","","","","","","","","","","","","","","","","","","","",""
"null","","null","html-keyboard-response","34","200150","0.0-6.0-1.0-4.0-0.0","4","4","4","4","4","4","4","4","4","4","5","5","5","5","5","5","5","5","5","5","1","1","1","1","1","1","1","1","1","1","1","1","0","0","0","0","0","0","0","1","1","0","0","1","5","1","1","1","1","4","1","1","2","1","1","618876128202850304","范","470","","","","","","","","","","","","","","","","","","","","","","","","","","","","","","","","","","","","","","","","","",""
"945","<p style=""color:white; font-size: 35px;"">小人</p>","e","categorize-html","35","201099","0.0-6.0-1.0-4.0-1.0","4","4","4","4","4","4","4","4","4","4","5","5","5","5","5","5","5","5","5","5","1","1","1","1","1","1","1","1","1","1","1","1","0","0","0","0","0","0","0","1","1","0","0","1","5","1","1","1","1","4","1","1","2","1","1","618876128202850304","范","470","","","","","","","","","","","","","","","","","","","true","12","2","moral","945","negative","小人","","","","","","","","","","","","","","","","",""
"null","","null","html-keyboard-response","36","201351","0.0-6.0-1.0-4.0-0.1","4","4","4","4","4","4","4","4","4","4","5","5","5","5","5","5","5","5","5","5","1","1","1","1","1","1","1","1","1","1","1","1","0","0","0","0","0","0","0","1","1","0","0","1","5","1","1","1","1","4","1","1","2","1","1","618876128202850304","范","470","","","","","","","","","","","","","","","","","","","","","","","","","","","","","","","","","","","","","","","","","",""
"563","<p style=""color:white; font-size: 35px;"">卑鄙</p>","e","categorize-html","37","201917","0.0-6.0-1.0-4.0-1.1","4","4","4","4","4","4","4","4","4","4","5","5","5","5","5","5","5","5","5","5","1","1","1","1","1","1","1","1","1","1","1","1","0","0","0","0","0","0","0","1","1","0","0","1","5","1","1","1","1","4","1","1","2","1","1","618876128202850304","范","470","","","","","","","","","","","","","","","","","","","true","12","2","moral","563","negative","卑鄙","","","","","","","","","","","","","","","","",""
"null","","null","html-keyboard-response","38","202169","0.0-6.0-1.0-4.0-0.2","4","4","4","4","4","4","4","4","4","4","5","5","5","5","5","5","5","5","5","5","1","1","1","1","1","1","1","1","1","1","1","1","0","0","0","0","0","0","0","1","1","0","0","1","5","1","1","1","1","4","1","1","2","1","1","618876128202850304","范","470","","","","","","","","","","","","","","","","","","","","","","","","","","","","","","","","","","","","","","","","","",""
"758","<p style=""color:white; font-size: 35px;"">正直</p>","i","categorize-html","39","202930","0.0-6.0-1.0-4.0-1.2","4","4","4","4","4","4","4","4","4","4","5","5","5","5","5","5","5","5","5","5","1","1","1","1","1","1","1","1","1","1","1","1","0","0","0","0","0","0","0","1","1","0","0","1","5","1","1","1","1","4","1","1","2","1","1","618876128202850304","范","470","","","","","","","","","","","","","","","","","","","true","12","2","moral","758","positive","正直","","","","","","","","","","","","","","","","",""
"null","","null","html-keyboard-response","40","203181","0.0-6.0-1.0-4.0-0.3","4","4","4","4","4","4","4","4","4","4","5","5","5","5","5","5","5","5","5","5","1","1","1","1","1","1","1","1","1","1","1","1","0","0","0","0","0","0","0","1","1","0","0","1","5","1","1","1","1","4","1","1","2","1","1","618876128202850304","范","470","","","","","","","","","","","","","","","","","","","","","","","","","","","","","","","","","","","","","","","","","",""
"689","<p style=""color:white; font-size: 35px;"">黑心</p>","e","categorize-html","41","203873","0.0-6.0-1.0-4.0-1.3","4","4","4","4","4","4","4","4","4","4","5","5","5","5","5","5","5","5","5","5","1","1","1","1","1","1","1","1","1","1","1","1","0","0","0","0","0","0","0","1","1","0","0","1","5","1","1","1","1","4","1","1","2","1","1","618876128202850304","范","470","","","","","","","","","","","","","","","","","","","true","12","2","moral","689","negative","黑心","","","","","","","","","","","","","","","","",""
"null","","null","html-keyboard-response","42","204124","0.0-6.0-1.0-4.0-0.4","4","4","4","4","4","4","4","4","4","4","5","5","5","5","5","5","5","5","5","5","1","1","1","1","1","1","1","1","1","1","1","1","0","0","0","0","0","0","0","1","1","0","0","1","5","1","1","1","1","4","1","1","2","1","1","618876128202850304","范","470","","","","","","","","","","","","","","","","","","","","","","","","","","","","","","","","","","","","","","","","","",""
"691","<p style=""color:white; font-size: 35px;"">廉正</p>","i","categorize-html","43","204818","0.0-6.0-1.0-4.0-1.4","4","4","4","4","4","4","4","4","4","4","5","5","5","5","5","5","5","5","5","5","1","1","1","1","1","1","1","1","1","1","1","1","0","0","0","0","0","0","0","1","1","0","0","1","5","1","1","1","1","4","1","1","2","1","1","618876128202850304","范","470","","","","","","","","","","","","","","","","","","","true","12","2","moral","691","positive","廉正","","","","","","","","","","","","","","","","",""
"null","","null","html-keyboard-response","44","205069","0.0-6.0-1.0-4.0-0.5","4","4","4","4","4","4","4","4","4","4","5","5","5","5","5","5","5","5","5","5","1","1","1","1","1","1","1","1","1","1","1","1","0","0","0","0","0","0","0","1","1","0","0","1","5","1","1","1","1","4","1","1","2","1","1","618876128202850304","范","470","","","","","","","","","","","","","","","","","","","","","","","","","","","","","","","","","","","","","","","","","",""
"899","<p style=""color:white; font-size: 35px;"">不孝</p>","e","categorize-html","45","205972","0.0-6.0-1.0-4.0-1.5","4","4","4","4","4","4","4","4","4","4","5","5","5","5","5","5","5","5","5","5","1","1","1","1","1","1","1","1","1","1","1","1","0","0","0","0","0","0","0","1","1","0","0","1","5","1","1","1","1","4","1","1","2","1","1","618876128202850304","范","470","","","","","","","","","","","","","","","","","","","true","12","2","moral","899","negative","不孝","","","","","","","","","","","","","","","","",""
"null","","null","html-keyboard-response","46","206230","0.0-6.0-1.0-4.0-0.6","4","4","4","4","4","4","4","4","4","4","5","5","5","5","5","5","5","5","5","5","1","1","1","1","1","1","1","1","1","1","1","1","0","0","0","0","0","0","0","1","1","0","0","1","5","1","1","1","1","4","1","1","2","1","1","618876128202850304","范","470","","","","","","","","","","","","","","","","","","","","","","","","","","","","","","","","","","","","","","","","","",""
"1311","<p style=""color:white; font-size: 35px;"">君子</p>","i","categorize-html","47","207545","0.0-6.0-1.0-4.0-1.6","4","4","4","4","4","4","4","4","4","4","5","5","5","5","5","5","5","5","5","5","1","1","1","1","1","1","1","1","1","1","1","1","0","0","0","0","0","0","0","1","1","0","0","1","5","1","1","1","1","4","1","1","2","1","1","618876128202850304","范","470","","","","","","","","","","","","","","","","","","","true","12","2","moral","1311","positive","君子","","","","","","","","","","","","","","","","",""
"null","","null","html-keyboard-response","48","207796","0.0-6.0-1.0-4.0-0.7","4","4","4","4","4","4","4","4","4","4","5","5","5","5","5","5","5","5","5","5","1","1","1","1","1","1","1","1","1","1","1","1","0","0","0","0","0","0","0","1","1","0","0","1","5","1","1","1","1","4","1","1","2","1","1","618876128202850304","范","470","","","","","","","","","","","","","","","","","","","","","","","","","","","","","","","","","","","","","","","","","",""
"765","<p style=""color:white; font-size: 35px;"">不仁</p>","e","categorize-html","49","208565","0.0-6.0-1.0-4.0-1.7","4","4","4","4","4","4","4","4","4","4","5","5","5","5","5","5","5","5","5","5","1","1","1","1","1","1","1","1","1","1","1","1","0","0","0","0","0","0","0","1","1","0","0","1","5","1","1","1","1","4","1","1","2","1","1","618876128202850304","范","470","","","","","","","","","","","","","","","","","","","true","12","2","moral","765","negative","不仁","","","","","","","","","","","","","","","","",""
"null","","null","html-keyboard-response","50","208816","0.0-6.0-1.0-4.0-0.8","4","4","4","4","4","4","4","4","4","4","5","5","5","5","5","5","5","5","5","5","1","1","1","1","1","1","1","1","1","1","1","1","0","0","0","0","0","0","0","1","1","0","0","1","5","1","1","1","1","4","1","1","2","1","1","618876128202850304","范","470","","","","","","","","","","","","","","","","","","","","","","","","","","","","","","","","","","","","","","","","","",""
"878","<p style=""color:white; font-size: 35px;"">缺德</p>","e","categorize-html","51","209697","0.0-6.0-1.0-4.0-1.8","4","4","4","4","4","4","4","4","4","4","5","5","5","5","5","5","5","5","5","5","1","1","1","1","1","1","1","1","1","1","1","1","0","0","0","0","0","0","0","1","1","0","0","1","5","1","1","1","1","4","1","1","2","1","1","618876128202850304","范","470","","","","","","","","","","","","","","","","","","","true","12","2","moral","878","negative","缺德","","","","","","","","","","","","","","","","",""
"null","","null","html-keyboard-response","52","209949","0.0-6.0-1.0-4.0-0.9","4","4","4","4","4","4","4","4","4","4","5","5","5","5","5","5","5","5","5","5","1","1","1","1","1","1","1","1","1","1","1","1","0","0","0","0","0","0","0","1","1","0","0","1","5","1","1","1","1","4","1","1","2","1","1","618876128202850304","范","470","","","","","","","","","","","","","","","","","","","","","","","","","","","","","","","","","","","","","","","","","",""
"688","<p style=""color:white; font-size: 35px;"">善良</p>","i","categorize-html","53","210640","0.0-6.0-1.0-4.0-1.9","4","4","4","4","4","4","4","4","4","4","5","5","5","5","5","5","5","5","5","5","1","1","1","1","1","1","1","1","1","1","1","1","0","0","0","0","0","0","0","1","1","0","0","1","5","1","1","1","1","4","1","1","2","1","1","618876128202850304","范","470","","","","","","","","","","","","","","","","","","","true","12","2","moral","688","positive","善良","","","","","","","","","","","","","","","","",""
"null","","null","html-keyboard-response","54","210891","0.0-6.0-1.0-4.0-0.10","4","4","4","4","4","4","4","4","4","4","5","5","5","5","5","5","5","5","5","5","1","1","1","1","1","1","1","1","1","1","1","1","0","0","0","0","0","0","0","1","1","0","0","1","5","1","1","1","1","4","1","1","2","1","1","618876128202850304","范","470","","","","","","","","","","","","","","","","","","","","","","","","","","","","","","","","","","","","","","","","","",""
"1052","<p style=""color:white; font-size: 35px;"">高尚</p>","i","categorize-html","55","211947","0.0-6.0-1.0-4.0-1.10","4","4","4","4","4","4","4","4","4","4","5","5","5","5","5","5","5","5","5","5","1","1","1","1","1","1","1","1","1","1","1","1","0","0","0","0","0","0","0","1","1","0","0","1","5","1","1","1","1","4","1","1","2","1","1","618876128202850304","范","470","","","","","","","","","","","","","","","","","","","true","12","2","moral","1052","positive","高尚","","","","","","","","","","","","","","","","",""
"null","","null","html-keyboard-response","56","212198","0.0-6.0-1.0-4.0-0.11","4","4","4","4","4","4","4","4","4","4","5","5","5","5","5","5","5","5","5","5","1","1","1","1","1","1","1","1","1","1","1","1","0","0","0","0","0","0","0","1","1","0","0","1","5","1","1","1","1","4","1","1","2","1","1","618876128202850304","范","470","","","","","","","","","","","","","","","","","","","","","","","","","","","","","","","","","","","","","","","","","",""
"605","<p style=""color:white; font-size: 35px;"">诚信</p>","i","categorize-html","57","212806","0.0-6.0-1.0-4.0-1.11","4","4","4","4","4","4","4","4","4","4","5","5","5","5","5","5","5","5","5","5","1","1","1","1","1","1","1","1","1","1","1","1","0","0","0","0","0","0","0","1","1","0","0","1","5","1","1","1","1","4","1","1","2","1","1","618876128202850304","范","470","","","","","","","","","","","","","","","","","","","true","12","2","moral","605","positive","诚信","","","","","","","","","","","","","","","","",""
"3401","
    <div class=""tag-bottom""><p>
    —— 任务3：对“他人/消极”词和“自我/积极”词分类 ——<p/>
    <span style=""color:#78DCE8""><b>注意上方，之前的四类词语将混合在一起交替呈现</b></span><p/>
    <span style=""color:#FFD866""><b>请根据上方标签的提示，尽可能正确并且快速地做出按键反应</b></span><p/>
    当按键错误时屏幕中会出现<span style=""color:red""> X </span>，需要按另一个键纠正才能继续<br/><p/>
    请把双手食指分别放在键盘的“E”键和“I”键上<p/>
    按<空格键>开始
    </p></div>"," ","html-keyboard-response","58","216208","0.0-6.0-1.0-5.0","4","4","4","4","4","4","4","4","4","4","5","5","5","5","5","5","5","5","5","5","1","1","1","1","1","1","1","1","1","1","1","1","0","0","0","0","0","0","0","1","1","0","0","1","5","1","1","1","1","4","1","1","2","1","1","618876128202850304","范","470","","","","","","","","","","","","","","","","","","","","","","","","","","","","","","","","","","","","","","","","","",""
"null","","null","html-keyboard-response","59","216460","0.0-6.0-1.0-6.0-0.0","4","4","4","4","4","4","4","4","4","4","5","5","5","5","5","5","5","5","5","5","1","1","1","1","1","1","1","1","1","1","1","1","0","0","0","0","0","0","0","1","1","0","0","1","5","1","1","1","1","4","1","1","2","1","1","618876128202850304","范","470","","","","","","","","","","","","","","","","","","","","","","","","","","","","","","","","","","","","","","","","","",""
"780","<p style=""color:rgb(150, 250, 100); font-size: 35px;"">他的</p>","e","categorize-html","60","217244","0.0-6.0-1.0-6.0-1.0","4","4","4","4","4","4","4","4","4","4","5","5","5","5","5","5","5","5","5","5","1","1","1","1","1","1","1","1","1","1","1","1","0","0","0","0","0","0","0","1","1","0","0","1","5","1","1","1","1","4","1","1","2","1","1","618876128202850304","范","470","","","","","","","","","","","","","","","","","","","true","13","3","moral","780","other","他的","","","","","","","","","","","","","","","","",""
"null","","null","html-keyboard-response","61","217496","0.0-6.0-1.0-6.0-0.1","4","4","4","4","4","4","4","4","4","4","5","5","5","5","5","5","5","5","5","5","1","1","1","1","1","1","1","1","1","1","1","1","0","0","0","0","0","0","0","1","1","0","0","1","5","1","1","1","1","4","1","1","2","1","1","618876128202850304","范","470","","","","","","","","","","","","","","","","","","","","","","","","","","","","","","","","","","","","","","","","","",""
"756","<p style=""color:white; font-size: 35px;"">廉正</p>","i","categorize-html","62","218255","0.0-6.0-1.0-6.0-1.1","4","4","4","4","4","4","4","4","4","4","5","5","5","5","5","5","5","5","5","5","1","1","1","1","1","1","1","1","1","1","1","1","0","0","0","0","0","0","0","1","1","0","0","1","5","1","1","1","1","4","1","1","2","1","1","618876128202850304","范","470","","","","","","","","","","","","","","","","","","","true","13","3","moral","756","positive","廉正","","","","","","","","","","","","","","","","",""
"null","","null","html-keyboard-response","63","218506","0.0-6.0-1.0-6.0-0.2","4","4","4","4","4","4","4","4","4","4","5","5","5","5","5","5","5","5","5","5","1","1","1","1","1","1","1","1","1","1","1","1","0","0","0","0","0","0","0","1","1","0","0","1","5","1","1","1","1","4","1","1","2","1","1","618876128202850304","范","470","","","","","","","","","","","","","","","","","","","","","","","","","","","","","","","","","","","","","","","","","",""
"754","<p style=""color:rgb(150, 250, 100); font-size: 35px;"">自己</p>","i","categorize-html","64","219263","0.0-6.0-1.0-6.0-1.2","4","4","4","4","4","4","4","4","4","4","5","5","5","5","5","5","5","5","5","5","1","1","1","1","1","1","1","1","1","1","1","1","0","0","0","0","0","0","0","1","1","0","0","1","5","1","1","1","1","4","1","1","2","1","1","618876128202850304","范","470","","","","","","","","","","","","","","","","","","","true","13","3","moral","754","self","自己","","","","","","","","","","","","","","","","",""
"null","","null","html-keyboard-response","65","219514","0.0-6.0-1.0-6.0-0.3","4","4","4","4","4","4","4","4","4","4","5","5","5","5","5","5","5","5","5","5","1","1","1","1","1","1","1","1","1","1","1","1","0","0","0","0","0","0","0","1","1","0","0","1","5","1","1","1","1","4","1","1","2","1","1","618876128202850304","范","470","","","","","","","","","","","","","","","","","","","","","","","","","","","","","","","","","","","","","","","","","",""
"950","<p style=""color:white; font-size: 35px;"">黑心</p>","e","categorize-html","66","220467","0.0-6.0-1.0-6.0-1.3","4","4","4","4","4","4","4","4","4","4","5","5","5","5","5","5","5","5","5","5","1","1","1","1","1","1","1","1","1","1","1","1","0","0","0","0","0","0","0","1","1","0","0","1","5","1","1","1","1","4","1","1","2","1","1","618876128202850304","范","470","","","","","","","","","","","","","","","","","","","true","13","3","moral","950","negative","黑心","","","","","","","","","","","","","","","","",""
"null","","null","html-keyboard-response","67","220719","0.0-6.0-1.0-6.0-0.4","4","4","4","4","4","4","4","4","4","4","5","5","5","5","5","5","5","5","5","5","1","1","1","1","1","1","1","1","1","1","1","1","0","0","0","0","0","0","0","1","1","0","0","1","5","1","1","1","1","4","1","1","2","1","1","618876128202850304","范","470","","","","","","","","","","","","","","","","","","","","","","","","","","","","","","","","","","","","","","","","","",""
"797","<p style=""color:rgb(150, 250, 100); font-size: 35px;"">本人</p>","i","categorize-html","68","221519","0.0-6.0-1.0-6.0-1.4","4","4","4","4","4","4","4","4","4","4","5","5","5","5","5","5","5","5","5","5","1","1","1","1","1","1","1","1","1","1","1","1","0","0","0","0","0","0","0","1","1","0","0","1","5","1","1","1","1","4","1","1","2","1","1","618876128202850304","范","470","","","","","","","","","","","","","","","","","","","true","13","3","moral","797","self","本人","","","","","","","","","","","","","","","","",""
"null","","null","html-keyboard-response","69","221772","0.0-6.0-1.0-6.0-0.5","4","4","4","4","4","4","4","4","4","4","5","5","5","5","5","5","5","5","5","5","1","1","1","1","1","1","1","1","1","1","1","1","0","0","0","0","0","0","0","1","1","0","0","1","5","1","1","1","1","4","1","1","2","1","1","618876128202850304","范","470","","","","","","","","","","","","","","","","","","","","","","","","","","","","","","","","","","","","","","","","","",""
"811","<p style=""color:white; font-size: 35px;"">不孝</p>","e","categorize-html","70","222586","0.0-6.0-1.0-6.0-1.5","4","4","4","4","4","4","4","4","4","4","5","5","5","5","5","5","5","5","5","5","1","1","1","1","1","1","1","1","1","1","1","1","0","0","0","0","0","0","0","1","1","0","0","1","5","1","1","1","1","4","1","1","2","1","1","618876128202850304","范","470","","","","","","","","","","","","","","","","","","","true","13","3","moral","811","negative","不孝","","","","","","","","","","","","","","","","",""
"null","","null","html-keyboard-response","71","222837","0.0-6.0-1.0-6.0-0.6","4","4","4","4","4","4","4","4","4","4","5","5","5","5","5","5","5","5","5","5","1","1","1","1","1","1","1","1","1","1","1","1","0","0","0","0","0","0","0","1","1","0","0","1","5","1","1","1","1","4","1","1","2","1","1","618876128202850304","范","470","","","","","","","","","","","","","","","","","","","","","","","","","","","","","","","","","","","","","","","","","",""
"704","<p style=""color:rgb(150, 250, 100); font-size: 35px;"">他</p>","e","categorize-html","72","223544","0.0-6.0-1.0-6.0-1.6","4","4","4","4","4","4","4","4","4","4","5","5","5","5","5","5","5","5","5","5","1","1","1","1","1","1","1","1","1","1","1","1","0","0","0","0","0","0","0","1","1","0","0","1","5","1","1","1","1","4","1","1","2","1","1","618876128202850304","范","470","","","","","","","","","","","","","","","","","","","true","13","3","moral","704","other","他","","","","","","","","","","","","","","","","",""
"null","","null","html-keyboard-response","73","223797","0.0-6.0-1.0-6.0-0.7","4","4","4","4","4","4","4","4","4","4","5","5","5","5","5","5","5","5","5","5","1","1","1","1","1","1","1","1","1","1","1","1","0","0","0","0","0","0","0","1","1","0","0","1","5","1","1","1","1","4","1","1","2","1","1","618876128202850304","范","470","","","","","","","","","","","","","","","","","","","","","","","","","","","","","","","","","","","","","","","","","",""
"950","<p style=""color:white; font-size: 35px;"">高尚</p>","i","categorize-html","74","224750","0.0-6.0-1.0-6.0-1.7","4","4","4","4","4","4","4","4","4","4","5","5","5","5","5","5","5","5","5","5","1","1","1","1","1","1","1","1","1","1","1","1","0","0","0","0","0","0","0","1","1","0","0","1","5","1","1","1","1","4","1","1","2","1","1","618876128202850304","范","470","","","","","","","","","","","","","","","","","","","true","13","3","moral","950","positive","高尚","","","","","","","","","","","","","","","","",""
"null","","null","html-keyboard-response","75","225002","0.0-6.0-1.0-6.0-0.8","4","4","4","4","4","4","4","4","4","4","5","5","5","5","5","5","5","5","5","5","1","1","1","1","1","1","1","1","1","1","1","1","0","0","0","0","0","0","0","1","1","0","0","1","5","1","1","1","1","4","1","1","2","1","1","618876128202850304","范","470","","","","","","","","","","","","","","","","","","","","","","","","","","","","","","","","","","","","","","","","","",""
"1140","<p style=""color:rgb(150, 250, 100); font-size: 35px;"">我</p>","i","categorize-html","76","226147","0.0-6.0-1.0-6.0-1.8","4","4","4","4","4","4","4","4","4","4","5","5","5","5","5","5","5","5","5","5","1","1","1","1","1","1","1","1","1","1","1","1","0","0","0","0","0","0","0","1","1","0","0","1","5","1","1","1","1","4","1","1","2","1","1","618876128202850304","范","470","","","","","","","","","","","","","","","","","","","true","13","3","moral","1140","self","我","","","","","","","","","","","","","","","","",""
"null","","null","html-keyboard-response","77","226399","0.0-6.0-1.0-6.0-0.9","4","4","4","4","4","4","4","4","4","4","5","5","5","5","5","5","5","5","5","5","1","1","1","1","1","1","1","1","1","1","1","1","0","0","0","0","0","0","0","1","1","0","0","1","5","1","1","1","1","4","1","1","2","1","1","618876128202850304","范","470","","","","","","","","","","","","","","","","","","","","","","","","","","","","","","","","","","","","","","","","","",""
"679","<p style=""color:white; font-size: 35px;"">缺德</p>","e","categorize-html","78","227081","0.0-6.0-1.0-6.0-1.9","4","4","4","4","4","4","4","4","4","4","5","5","5","5","5","5","5","5","5","5","1","1","1","1","1","1","1","1","1","1","1","1","0","0","0","0","0","0","0","1","1","0","0","1","5","1","1","1","1","4","1","1","2","1","1","618876128202850304","范","470","","","","","","","","","","","","","","","","","","","true","13","3","moral","679","negative","缺德","","","","","","","","","","","","","","","","",""
"null","","null","html-keyboard-response","79","227332","0.0-6.0-1.0-6.0-0.10","4","4","4","4","4","4","4","4","4","4","5","5","5","5","5","5","5","5","5","5","1","1","1","1","1","1","1","1","1","1","1","1","0","0","0","0","0","0","0","1","1","0","0","1","5","1","1","1","1","4","1","1","2","1","1","618876128202850304","范","470","","","","","","","","","","","","","","","","","","","","","","","","","","","","","","","","","","","","","","","","","",""
"910","<p style=""color:rgb(150, 250, 100); font-size: 35px;"">别人的</p>","e","categorize-html","80","228245","0.0-6.0-1.0-6.0-1.10","4","4","4","4","4","4","4","4","4","4","5","5","5","5","5","5","5","5","5","5","1","1","1","1","1","1","1","1","1","1","1","1","0","0","0","0","0","0","0","1","1","0","0","1","5","1","1","1","1","4","1","1","2","1","1","618876128202850304","范","470","","","","","","","","","","","","","","","","","","","true","13","3","moral","910","other","别人的","","","","","","","","","","","","","","","","",""
"null","","null","html-keyboard-response","81","228497","0.0-6.0-1.0-6.0-0.11","4","4","4","4","4","4","4","4","4","4","5","5","5","5","5","5","5","5","5","5","1","1","1","1","1","1","1","1","1","1","1","1","0","0","0","0","0","0","0","1","1","0","0","1","5","1","1","1","1","4","1","1","2","1","1","618876128202850304","范","470","","","","","","","","","","","","","","","","","","","","","","","","","","","","","","","","","","","","","","","","","",""
"1004","<p style=""color:white; font-size: 35px;"">善良</p>","i","categorize-html","82","229504","0.0-6.0-1.0-6.0-1.11","4","4","4","4","4","4","4","4","4","4","5","5","5","5","5","5","5","5","5","5","1","1","1","1","1","1","1","1","1","1","1","1","0","0","0","0","0","0","0","1","1","0","0","1","5","1","1","1","1","4","1","1","2","1","1","618876128202850304","范","470","","","","","","","","","","","","","","","","","","","true","13","3","moral","1004","positive","善良","","","","","","","","","","","","","","","","",""
"null","","null","html-keyboard-response","83","229756","0.0-6.0-1.0-6.0-0.12","4","4","4","4","4","4","4","4","4","4","5","5","5","5","5","5","5","5","5","5","1","1","1","1","1","1","1","1","1","1","1","1","0","0","0","0","0","0","0","1","1","0","0","1","5","1","1","1","1","4","1","1","2","1","1","618876128202850304","范","470","","","","","","","","","","","","","","","","","","","","","","","","","","","","","","","","","","","","","","","","","",""
"1011","<p style=""color:rgb(150, 250, 100); font-size: 35px;"">他人</p>","e","categorize-html","84","230771","0.0-6.0-1.0-6.0-1.12","4","4","4","4","4","4","4","4","4","4","5","5","5","5","5","5","5","5","5","5","1","1","1","1","1","1","1","1","1","1","1","1","0","0","0","0","0","0","0","1","1","0","0","1","5","1","1","1","1","4","1","1","2","1","1","618876128202850304","范","470","","","","","","","","","","","","","","","","","","","true","13","3","moral","1011","other","他人","","","","","","","","","","","","","","","","",""
"null","","null","html-keyboard-response","85","231023","0.0-6.0-1.0-6.0-0.13","4","4","4","4","4","4","4","4","4","4","5","5","5","5","5","5","5","5","5","5","1","1","1","1","1","1","1","1","1","1","1","1","0","0","0","0","0","0","0","1","1","0","0","1","5","1","1","1","1","4","1","1","2","1","1","618876128202850304","范","470","","","","","","","","","","","","","","","","","","","","","","","","","","","","","","","","","","","","","","","","","",""
"1605","<p style=""color:white; font-size: 35px;"">君子</p>","i","categorize-html","86","232631","0.0-6.0-1.0-6.0-1.13","4","4","4","4","4","4","4","4","4","4","5","5","5","5","5","5","5","5","5","5","1","1","1","1","1","1","1","1","1","1","1","1","0","0","0","0","0","0","0","1","1","0","0","1","5","1","1","1","1","4","1","1","2","1","1","618876128202850304","范","470","","","","","","","","","","","","","","","","","","","true","13","3","moral","1605","positive","君子","","","","","","","","","","","","","","","","",""
"null","","null","html-keyboard-response","87","232883","0.0-6.0-1.0-6.0-0.14","4","4","4","4","4","4","4","4","4","4","5","5","5","5","5","5","5","5","5","5","1","1","1","1","1","1","1","1","1","1","1","1","0","0","0","0","0","0","0","1","1","0","0","1","5","1","1","1","1","4","1","1","2","1","1","618876128202850304","范","470","","","","","","","","","","","","","","","","","","","","","","","","","","","","","","","","","","","","","","","","","",""
"1168","<p style=""color:rgb(150, 250, 100); font-size: 35px;"">自己的</p>","i","categorize-html","88","234054","0.0-6.0-1.0-6.0-1.14","4","4","4","4","4","4","4","4","4","4","5","5","5","5","5","5","5","5","5","5","1","1","1","1","1","1","1","1","1","1","1","1","0","0","0","0","0","0","0","1","1","0","0","1","5","1","1","1","1","4","1","1","2","1","1","618876128202850304","范","470","","","","","","","","","","","","","","","","","","","true","13","3","moral","1168","self","自己的","","","","","","","","","","","","","","","","",""
"null","","null","html-keyboard-response","89","234305","0.0-6.0-1.0-6.0-0.15","4","4","4","4","4","4","4","4","4","4","5","5","5","5","5","5","5","5","5","5","1","1","1","1","1","1","1","1","1","1","1","1","0","0","0","0","0","0","0","1","1","0","0","1","5","1","1","1","1","4","1","1","2","1","1","618876128202850304","范","470","","","","","","","","","","","","","","","","","","","","","","","","","","","","","","","","","","","","","","","","","",""
"1072","<p style=""color:white; font-size: 35px;"">不仁</p>","e","categorize-html","90","235380","0.0-6.0-1.0-6.0-1.15","4","4","4","4","4","4","4","4","4","4","5","5","5","5","5","5","5","5","5","5","1","1","1","1","1","1","1","1","1","1","1","1","0","0","0","0","0","0","0","1","1","0","0","1","5","1","1","1","1","4","1","1","2","1","1","618876128202850304","范","470","","","","","","","","","","","","","","","","","","","true","13","3","moral","1072","negative","不仁","","","","","","","","","","","","","","","","",""
"null","","null","html-keyboard-response","91","235631","0.0-6.0-1.0-6.0-0.16","4","4","4","4","4","4","4","4","4","4","5","5","5","5","5","5","5","5","5","5","1","1","1","1","1","1","1","1","1","1","1","1","0","0","0","0","0","0","0","1","1","0","0","1","5","1","1","1","1","4","1","1","2","1","1","618876128202850304","范","470","","","","","","","","","","","","","","","","","","","","","","","","","","","","","","","","","","","","","","","","","",""
"729","<p style=""color:rgb(150, 250, 100); font-size: 35px;"">本人的</p>","i","categorize-html","92","236363","0.0-6.0-1.0-6.0-1.16","4","4","4","4","4","4","4","4","4","4","5","5","5","5","5","5","5","5","5","5","1","1","1","1","1","1","1","1","1","1","1","1","0","0","0","0","0","0","0","1","1","0","0","1","5","1","1","1","1","4","1","1","2","1","1","618876128202850304","范","470","","","","","","","","","","","","","","","","","","","true","13","3","moral","729","self","本人的","","","","","","","","","","","","","","","","",""
"null","","null","html-keyboard-response","93","236615","0.0-6.0-1.0-6.0-0.17","4","4","4","4","4","4","4","4","4","4","5","5","5","5","5","5","5","5","5","5","1","1","1","1","1","1","1","1","1","1","1","1","0","0","0","0","0","0","0","1","1","0","0","1","5","1","1","1","1","4","1","1","2","1","1","618876128202850304","范","470","","","","","","","","","","","","","","","","","","","","","","","","","","","","","","","","","","","","","","","","","",""
"796","<p style=""color:white; font-size: 35px;"">诚信</p>","i","categorize-html","94","237413","0.0-6.0-1.0-6.0-1.17","4","4","4","4","4","4","4","4","4","4","5","5","5","5","5","5","5","5","5","5","1","1","1","1","1","1","1","1","1","1","1","1","0","0","0","0","0","0","0","1","1","0","0","1","5","1","1","1","1","4","1","1","2","1","1","618876128202850304","范","470","","","","","","","","","","","","","","","","","","","true","13","3","moral","796","positive","诚信","","","","","","","","","","","","","","","","",""
"null","","null","html-keyboard-response","95","237665","0.0-6.0-1.0-6.0-0.18","4","4","4","4","4","4","4","4","4","4","5","5","5","5","5","5","5","5","5","5","1","1","1","1","1","1","1","1","1","1","1","1","0","0","0","0","0","0","0","1","1","0","0","1","5","1","1","1","1","4","1","1","2","1","1","618876128202850304","范","470","","","","","","","","","","","","","","","","","","","","","","","","","","","","","","","","","","","","","","","","","",""
"729","<p style=""color:rgb(150, 250, 100); font-size: 35px;"">他人的</p>","e","categorize-html","96","238398","0.0-6.0-1.0-6.0-1.18","4","4","4","4","4","4","4","4","4","4","5","5","5","5","5","5","5","5","5","5","1","1","1","1","1","1","1","1","1","1","1","1","0","0","0","0","0","0","0","1","1","0","0","1","5","1","1","1","1","4","1","1","2","1","1","618876128202850304","范","470","","","","","","","","","","","","","","","","","","","true","13","3","moral","729","other","他人的","","","","","","","","","","","","","","","","",""
"null","","null","html-keyboard-response","97","238649","0.0-6.0-1.0-6.0-0.19","4","4","4","4","4","4","4","4","4","4","5","5","5","5","5","5","5","5","5","5","1","1","1","1","1","1","1","1","1","1","1","1","0","0","0","0","0","0","0","1","1","0","0","1","5","1","1","1","1","4","1","1","2","1","1","618876128202850304","范","470","","","","","","","","","","","","","","","","","","","","","","","","","","","","","","","","","","","","","","","","","",""
"1073","<p style=""color:white; font-size: 35px;"">小人</p>","e","categorize-html","98","239726","0.0-6.0-1.0-6.0-1.19","4","4","4","4","4","4","4","4","4","4","5","5","5","5","5","5","5","5","5","5","1","1","1","1","1","1","1","1","1","1","1","1","0","0","0","0","0","0","0","1","1","0","0","1","5","1","1","1","1","4","1","1","2","1","1","618876128202850304","范","470","","","","","","","","","","","","","","","","","","","true","13","3","moral","1073","negative","小人","","","","","","","","","","","","","","","","",""
"null","","null","html-keyboard-response","99","239977","0.0-6.0-1.0-6.0-0.20","4","4","4","4","4","4","4","4","4","4","5","5","5","5","5","5","5","5","5","5","1","1","1","1","1","1","1","1","1","1","1","1","0","0","0","0","0","0","0","1","1","0","0","1","5","1","1","1","1","4","1","1","2","1","1","618876128202850304","范","470","","","","","","","","","","","","","","","","","","","","","","","","","","","","","","","","","","","","","","","","","",""
"819","<p style=""color:rgb(150, 250, 100); font-size: 35px;"">我的</p>","i","categorize-html","100","240800","0.0-6.0-1.0-6.0-1.20","4","4","4","4","4","4","4","4","4","4","5","5","5","5","5","5","5","5","5","5","1","1","1","1","1","1","1","1","1","1","1","1","0","0","0","0","0","0","0","1","1","0","0","1","5","1","1","1","1","4","1","1","2","1","1","618876128202850304","范","470","","","","","","","","","","","","","","","","","","","true","13","3","moral","819","self","我的","","","","","","","","","","","","","","","","",""
"null","","null","html-keyboard-response","101","241051","0.0-6.0-1.0-6.0-0.21","4","4","4","4","4","4","4","4","4","4","5","5","5","5","5","5","5","5","5","5","1","1","1","1","1","1","1","1","1","1","1","1","0","0","0","0","0","0","0","1","1","0","0","1","5","1","1","1","1","4","1","1","2","1","1","618876128202850304","范","470","","","","","","","","","","","","","","","","","","","","","","","","","","","","","","","","","","","","","","","","","",""
"805","<p style=""color:white; font-size: 35px;"">正直</p>","i","categorize-html","102","241859","0.0-6.0-1.0-6.0-1.21","4","4","4","4","4","4","4","4","4","4","5","5","5","5","5","5","5","5","5","5","1","1","1","1","1","1","1","1","1","1","1","1","0","0","0","0","0","0","0","1","1","0","0","1","5","1","1","1","1","4","1","1","2","1","1","618876128202850304","范","470","","","","","","","","","","","","","","","","","","","true","13","3","moral","805","positive","正直","","","","","","","","","","","","","","","","",""
"null","","null","html-keyboard-response","103","242110","0.0-6.0-1.0-6.0-0.22","4","4","4","4","4","4","4","4","4","4","5","5","5","5","5","5","5","5","5","5","1","1","1","1","1","1","1","1","1","1","1","1","0","0","0","0","0","0","0","1","1","0","0","1","5","1","1","1","1","4","1","1","2","1","1","618876128202850304","范","470","","","","","","","","","","","","","","","","","","","","","","","","","","","","","","","","","","","","","","","","","",""
"1260","<p style=""color:rgb(150, 250, 100); font-size: 35px;"">别人</p>","e","categorize-html","104","243373","0.0-6.0-1.0-6.0-1.22","4","4","4","4","4","4","4","4","4","4","5","5","5","5","5","5","5","5","5","5","1","1","1","1","1","1","1","1","1","1","1","1","0","0","0","0","0","0","0","1","1","0","0","1","5","1","1","1","1","4","1","1","2","1","1","618876128202850304","范","470","","","","","","","","","","","","","","","","","","","true","13","3","moral","1260","other","别人","","","","","","","","","","","","","","","","",""
"null","","null","html-keyboard-response","105","243625","0.0-6.0-1.0-6.0-0.23","4","4","4","4","4","4","4","4","4","4","5","5","5","5","5","5","5","5","5","5","1","1","1","1","1","1","1","1","1","1","1","1","0","0","0","0","0","0","0","1","1","0","0","1","5","1","1","1","1","4","1","1","2","1","1","618876128202850304","范","470","","","","","","","","","","","","","","","","","","","","","","","","","","","","","","","","","","","","","","","","","",""
"680","<p style=""color:white; font-size: 35px;"">卑鄙</p>","e","categorize-html","106","244308","0.0-6.0-1.0-6.0-1.23","4","4","4","4","4","4","4","4","4","4","5","5","5","5","5","5","5","5","5","5","1","1","1","1","1","1","1","1","1","1","1","1","0","0","0","0","0","0","0","1","1","0","0","1","5","1","1","1","1","4","1","1","2","1","1","618876128202850304","范","470","","","","","","","","","","","","","","","","","","","true","13","3","moral","680","negative","卑鄙","","","","","","","","","","","","","","","","",""
"15079","
    <div class=""tag-bottom""><p>
    —— 任务4：对“他人/消极”词和“自我/积极”词分类 ——<p/>
    <span style=""color:#78DCE8""><b>与刚才的任务完全相同，请再次对这四类词语分类</b></span><p/>
    <span style=""color:#FFD866""><b>请根据上方标签的提示，尽可能正确并且快速地做出按键反应</b></span><p/>
    当按键错误时屏幕中会出现<span style=""color:red""> X </span>，需要按另一个键纠正才能继续<br/><p/>
    请把双手食指分别放在键盘的“E”键和“I”键上<p/>
    按<空格键>开始
    </p></div>"," ","html-keyboard-response","107","259388","0.0-6.0-1.0-7.0","4","4","4","4","4","4","4","4","4","4","5","5","5","5","5","5","5","5","5","5","1","1","1","1","1","1","1","1","1","1","1","1","0","0","0","0","0","0","0","1","1","0","0","1","5","1","1","1","1","4","1","1","2","1","1","618876128202850304","范","470","","","","","","","","","","","","","","","","","","","","","","","","","","","","","","","","","","","","","","","","","",""
"null","","null","html-keyboard-response","108","259639","0.0-6.0-1.0-8.0-0.0","4","4","4","4","4","4","4","4","4","4","5","5","5","5","5","5","5","5","5","5","1","1","1","1","1","1","1","1","1","1","1","1","0","0","0","0","0","0","0","1","1","0","0","1","5","1","1","1","1","4","1","1","2","1","1","618876128202850304","范","470","","","","","","","","","","","","","","","","","","","","","","","","","","","","","","","","","","","","","","","","","",""
"727","<p style=""color:rgb(150, 250, 100); font-size: 35px;"">我的</p>","i","categorize-html","109","260370","0.0-6.0-1.0-8.0-1.0","4","4","4","4","4","4","4","4","4","4","5","5","5","5","5","5","5","5","5","5","1","1","1","1","1","1","1","1","1","1","1","1","0","0","0","0","0","0","0","1","1","0","0","1","5","1","1","1","1","4","1","1","2","1","1","618876128202850304","范","470","","","","","","","","","","","","","","","","","","","true","14","4","moral","727","self","我的","","","","","","","","","","","","","","","","",""
"null","","null","html-keyboard-response","110","260620","0.0-6.0-1.0-8.0-0.1","4","4","4","4","4","4","4","4","4","4","5","5","5","5","5","5","5","5","5","5","1","1","1","1","1","1","1","1","1","1","1","1","0","0","0","0","0","0","0","1","1","0","0","1","5","1","1","1","1","4","1","1","2","1","1","618876128202850304","范","470","","","","","","","","","","","","","","","","","","","","","","","","","","","","","","","","","","","","","","","","","",""
"1352","<p style=""color:white; font-size: 35px;"">缺德</p>","e","categorize-html","111","261976","0.0-6.0-1.0-8.0-1.1","4","4","4","4","4","4","4","4","4","4","5","5","5","5","5","5","5","5","5","5","1","1","1","1","1","1","1","1","1","1","1","1","0","0","0","0","0","0","0","1","1","0","0","1","5","1","1","1","1","4","1","1","2","1","1","618876128202850304","范","470","","","","","","","","","","","","","","","","","","","true","14","4","moral","1352","negative","缺德","","","","","","","","","","","","","","","","",""
"null","","null","html-keyboard-response","112","262229","0.0-6.0-1.0-8.0-0.2","4","4","4","4","4","4","4","4","4","4","5","5","5","5","5","5","5","5","5","5","1","1","1","1","1","1","1","1","1","1","1","1","0","0","0","0","0","0","0","1","1","0","0","1","5","1","1","1","1","4","1","1","2","1","1","618876128202850304","范","470","","","","","","","","","","","","","","","","","","","","","","","","","","","","","","","","","","","","","","","","","",""
"753","<p style=""color:rgb(150, 250, 100); font-size: 35px;"">他</p>","e","categorize-html","113","262985","0.0-6.0-1.0-8.0-1.2","4","4","4","4","4","4","4","4","4","4","5","5","5","5","5","5","5","5","5","5","1","1","1","1","1","1","1","1","1","1","1","1","0","0","0","0","0","0","0","1","1","0","0","1","5","1","1","1","1","4","1","1","2","1","1","618876128202850304","范","470","","","","","","","","","","","","","","","","","","","true","14","4","moral","753","other","他","","","","","","","","","","","","","","","","",""
"null","","null","html-keyboard-response","114","263236","0.0-6.0-1.0-8.0-0.3","4","4","4","4","4","4","4","4","4","4","5","5","5","5","5","5","5","5","5","5","1","1","1","1","1","1","1","1","1","1","1","1","0","0","0","0","0","0","0","1","1","0","0","1","5","1","1","1","1","4","1","1","2","1","1","618876128202850304","范","470","","","","","","","","","","","","","","","","","","","","","","","","","","","","","","","","","","","","","","","","","",""
"1563","<p style=""color:white; font-size: 35px;"">高尚</p>","i","categorize-html","115","264802","0.0-6.0-1.0-8.0-1.3","4","4","4","4","4","4","4","4","4","4","5","5","5","5","5","5","5","5","5","5","1","1","1","1","1","1","1","1","1","1","1","1","0","0","0","0","0","0","0","1","1","0","0","1","5","1","1","1","1","4","1","1","2","1","1","618876128202850304","范","470","","","","","","","","","","","","","","","","","","","true","14","4","moral","1563","positive","高尚","","","","","","","","","","","","","","","","",""
"null","","null","html-keyboard-response","116","265054","0.0-6.0-1.0-8.0-0.4","4","4","4","4","4","4","4","4","4","4","5","5","5","5","5","5","5","5","5","5","1","1","1","1","1","1","1","1","1","1","1","1","0","0","0","0","0","0","0","1","1","0","0","1","5","1","1","1","1","4","1","1","2","1","1","618876128202850304","范","470","","","","","","","","","","","","","","","","","","","","","","","","","","","","","","","","","","","","","","","","","",""
"725","<p style=""color:rgb(150, 250, 100); font-size: 35px;"">他人</p>","e","categorize-html","117","265782","0.0-6.0-1.0-8.0-1.4","4","4","4","4","4","4","4","4","4","4","5","5","5","5","5","5","5","5","5","5","1","1","1","1","1","1","1","1","1","1","1","1","0","0","0","0","0","0","0","1","1","0","0","1","5","1","1","1","1","4","1","1","2","1","1","618876128202850304","范","470","","","","","","","","","","","","","","","","","","","true","14","4","moral","725","other","他人","","","","","","","","","","","","","","","","",""
"null","","null","html-keyboard-response","118","266033","0.0-6.0-1.0-8.0-0.5","4","4","4","4","4","4","4","4","4","4","5","5","5","5","5","5","5","5","5","5","1","1","1","1","1","1","1","1","1","1","1","1","0","0","0","0","0","0","0","1","1","0","0","1","5","1","1","1","1","4","1","1","2","1","1","618876128202850304","范","470","","","","","","","","","","","","","","","","","","","","","","","","","","","","","","","","","","","","","","","","","",""
"881","<p style=""color:white; font-size: 35px;"">卑鄙</p>","e","categorize-html","119","266918","0.0-6.0-1.0-8.0-1.5","4","4","4","4","4","4","4","4","4","4","5","5","5","5","5","5","5","5","5","5","1","1","1","1","1","1","1","1","1","1","1","1","0","0","0","0","0","0","0","1","1","0","0","1","5","1","1","1","1","4","1","1","2","1","1","618876128202850304","范","470","","","","","","","","","","","","","","","","","","","true","14","4","moral","881","negative","卑鄙","","","","","","","","","","","","","","","","",""
"null","","null","html-keyboard-response","120","267169","0.0-6.0-1.0-8.0-0.6","4","4","4","4","4","4","4","4","4","4","5","5","5","5","5","5","5","5","5","5","1","1","1","1","1","1","1","1","1","1","1","1","0","0","0","0","0","0","0","1","1","0","0","1","5","1","1","1","1","4","1","1","2","1","1","618876128202850304","范","470","","","","","","","","","","","","","","","","","","","","","","","","","","","","","","","","","","","","","","","","","",""
"948","<p style=""color:rgb(150, 250, 100); font-size: 35px;"">自己的</p>","i","categorize-html","121","268121","0.0-6.0-1.0-8.0-1.6","4","4","4","4","4","4","4","4","4","4","5","5","5","5","5","5","5","5","5","5","1","1","1","1","1","1","1","1","1","1","1","1","0","0","0","0","0","0","0","1","1","0","0","1","5","1","1","1","1","4","1","1","2","1","1","618876128202850304","范","470","","","","","","","","","","","","","","","","","","","true","14","4","moral","948","self","自己的","","","","","","","","","","","","","","","","",""
"null","","null","html-keyboard-response","122","268372","0.0-6.0-1.0-8.0-0.7","4","4","4","4","4","4","4","4","4","4","5","5","5","5","5","5","5","5","5","5","1","1","1","1","1","1","1","1","1","1","1","1","0","0","0","0","0","0","0","1","1","0","0","1","5","1","1","1","1","4","1","1","2","1","1","618876128202850304","范","470","","","","","","","","","","","","","","","","","","","","","","","","","","","","","","","","","","","","","","","","","",""
"917","<p style=""color:white; font-size: 35px;"">正直</p>","i","categorize-html","123","269292","0.0-6.0-1.0-8.0-1.7","4","4","4","4","4","4","4","4","4","4","5","5","5","5","5","5","5","5","5","5","1","1","1","1","1","1","1","1","1","1","1","1","0","0","0","0","0","0","0","1","1","0","0","1","5","1","1","1","1","4","1","1","2","1","1","618876128202850304","范","470","","","","","","","","","","","","","","","","","","","true","14","4","moral","917","positive","正直","","","","","","","","","","","","","","","","",""
"null","","null","html-keyboard-response","124","269544","0.0-6.0-1.0-8.0-0.8","4","4","4","4","4","4","4","4","4","4","5","5","5","5","5","5","5","5","5","5","1","1","1","1","1","1","1","1","1","1","1","1","0","0","0","0","0","0","0","1","1","0","0","1","5","1","1","1","1","4","1","1","2","1","1","618876128202850304","范","470","","","","","","","","","","","","","","","","","","","","","","","","","","","","","","","","","","","","","","","","","",""
"889","<p style=""color:rgb(150, 250, 100); font-size: 35px;"">本人</p>","i","categorize-html","125","270436","0.0-6.0-1.0-8.0-1.8","4","4","4","4","4","4","4","4","4","4","5","5","5","5","5","5","5","5","5","5","1","1","1","1","1","1","1","1","1","1","1","1","0","0","0","0","0","0","0","1","1","0","0","1","5","1","1","1","1","4","1","1","2","1","1","618876128202850304","范","470","","","","","","","","","","","","","","","","","","","true","14","4","moral","889","self","本人","","","","","","","","","","","","","","","","",""
"null","","null","html-keyboard-response","126","270689","0.0-6.0-1.0-8.0-0.9","4","4","4","4","4","4","4","4","4","4","5","5","5","5","5","5","5","5","5","5","1","1","1","1","1","1","1","1","1","1","1","1","0","0","0","0","0","0","0","1","1","0","0","1","5","1","1","1","1","4","1","1","2","1","1","618876128202850304","范","470","","","","","","","","","","","","","","","","","","","","","","","","","","","","","","","","","","","","","","","","","",""
"797","<p style=""color:white; font-size: 35px;"">不仁</p>","e","categorize-html","127","271490","0.0-6.0-1.0-8.0-1.9","4","4","4","4","4","4","4","4","4","4","5","5","5","5","5","5","5","5","5","5","1","1","1","1","1","1","1","1","1","1","1","1","0","0","0","0","0","0","0","1","1","0","0","1","5","1","1","1","1","4","1","1","2","1","1","618876128202850304","范","470","","","","","","","","","","","","","","","","","","","true","14","4","moral","797","negative","不仁","","","","","","","","","","","","","","","","",""
"null","","null","html-keyboard-response","128","271741","0.0-6.0-1.0-8.0-0.10","4","4","4","4","4","4","4","4","4","4","5","5","5","5","5","5","5","5","5","5","1","1","1","1","1","1","1","1","1","1","1","1","0","0","0","0","0","0","0","1","1","0","0","1","5","1","1","1","1","4","1","1","2","1","1","618876128202850304","范","470","","","","","","","","","","","","","","","","","","","","","","","","","","","","","","","","","","","","","","","","","",""
"932","<p style=""color:rgb(150, 250, 100); font-size: 35px;"">他人的</p>","e","categorize-html","129","272676","0.0-6.0-1.0-8.0-1.10","4","4","4","4","4","4","4","4","4","4","5","5","5","5","5","5","5","5","5","5","1","1","1","1","1","1","1","1","1","1","1","1","0","0","0","0","0","0","0","1","1","0","0","1","5","1","1","1","1","4","1","1","2","1","1","618876128202850304","范","470","","","","","","","","","","","","","","","","","","","true","14","4","moral","932","other","他人的","","","","","","","","","","","","","","","","",""
"null","","null","html-keyboard-response","130","272928","0.0-6.0-1.0-8.0-0.11","4","4","4","4","4","4","4","4","4","4","5","5","5","5","5","5","5","5","5","5","1","1","1","1","1","1","1","1","1","1","1","1","0","0","0","0","0","0","0","1","1","0","0","1","5","1","1","1","1","4","1","1","2","1","1","618876128202850304","范","470","","","","","","","","","","","","","","","","","","","","","","","","","","","","","","","","","","","","","","","","","",""
"927","<p style=""color:white; font-size: 35px;"">正直</p>","i","categorize-html","131","273858","0.0-6.0-1.0-8.0-1.11","4","4","4","4","4","4","4","4","4","4","5","5","5","5","5","5","5","5","5","5","1","1","1","1","1","1","1","1","1","1","1","1","0","0","0","0","0","0","0","1","1","0","0","1","5","1","1","1","1","4","1","1","2","1","1","618876128202850304","范","470","","","","","","","","","","","","","","","","","","","true","14","4","moral","927","positive","正直","","","","","","","","","","","","","","","","",""
"null","","null","html-keyboard-response","132","274109","0.0-6.0-1.0-8.0-0.12","4","4","4","4","4","4","4","4","4","4","5","5","5","5","5","5","5","5","5","5","1","1","1","1","1","1","1","1","1","1","1","1","0","0","0","0","0","0","0","1","1","0","0","1","5","1","1","1","1","4","1","1","2","1","1","618876128202850304","范","470","","","","","","","","","","","","","","","","","","","","","","","","","","","","","","","","","","","","","","","","","",""
"815","<p style=""color:rgb(150, 250, 100); font-size: 35px;"">我</p>","i","categorize-html","133","274928","0.0-6.0-1.0-8.0-1.12","4","4","4","4","4","4","4","4","4","4","5","5","5","5","5","5","5","5","5","5","1","1","1","1","1","1","1","1","1","1","1","1","0","0","0","0","0","0","0","1","1","0","0","1","5","1","1","1","1","4","1","1","2","1","1","618876128202850304","范","470","","","","","","","","","","","","","","","","","","","true","14","4","moral","815","self","我","","","","","","","","","","","","","","","","",""
"null","","null","html-keyboard-response","134","275179","0.0-6.0-1.0-8.0-0.13","4","4","4","4","4","4","4","4","4","4","5","5","5","5","5","5","5","5","5","5","1","1","1","1","1","1","1","1","1","1","1","1","0","0","0","0","0","0","0","1","1","0","0","1","5","1","1","1","1","4","1","1","2","1","1","618876128202850304","范","470","","","","","","","","","","","","","","","","","","","","","","","","","","","","","","","","","","","","","","","","","",""
"723","<p style=""color:white; font-size: 35px;"">卑鄙</p>","e","categorize-html","135","275905","0.0-6.0-1.0-8.0-1.13","4","4","4","4","4","4","4","4","4","4","5","5","5","5","5","5","5","5","5","5","1","1","1","1","1","1","1","1","1","1","1","1","0","0","0","0","0","0","0","1","1","0","0","1","5","1","1","1","1","4","1","1","2","1","1","618876128202850304","范","470","","","","","","","","","","","","","","","","","","","true","14","4","moral","723","negative","卑鄙","","","","","","","","","","","","","","","","",""
"null","","null","html-keyboard-response","136","276156","0.0-6.0-1.0-8.0-0.14","4","4","4","4","4","4","4","4","4","4","5","5","5","5","5","5","5","5","5","5","1","1","1","1","1","1","1","1","1","1","1","1","0","0","0","0","0","0","0","1","1","0","0","1","5","1","1","1","1","4","1","1","2","1","1","618876128202850304","范","470","","","","","","","","","","","","","","","","","","","","","","","","","","","","","","","","","","","","","","","","","",""
"1134","<p style=""color:rgb(150, 250, 100); font-size: 35px;"">他</p>","e","categorize-html","137","277294","0.0-6.0-1.0-8.0-1.14","4","4","4","4","4","4","4","4","4","4","5","5","5","5","5","5","5","5","5","5","1","1","1","1","1","1","1","1","1","1","1","1","0","0","0","0","0","0","0","1","1","0","0","1","5","1","1","1","1","4","1","1","2","1","1","618876128202850304","范","470","","","","","","","","","","","","","","","","","","","true","14","4","moral","1134","other","他","","","","","","","","","","","","","","","","",""
"null","","null","html-keyboard-response","138","277545","0.0-6.0-1.0-8.0-0.15","4","4","4","4","4","4","4","4","4","4","5","5","5","5","5","5","5","5","5","5","1","1","1","1","1","1","1","1","1","1","1","1","0","0","0","0","0","0","0","1","1","0","0","1","5","1","1","1","1","4","1","1","2","1","1","618876128202850304","范","470","","","","","","","","","","","","","","","","","","","","","","","","","","","","","","","","","","","","","","","","","",""
"753","<p style=""color:white; font-size: 35px;"">廉正</p>","i","categorize-html","139","278302","0.0-6.0-1.0-8.0-1.15","4","4","4","4","4","4","4","4","4","4","5","5","5","5","5","5","5","5","5","5","1","1","1","1","1","1","1","1","1","1","1","1","0","0","0","0","0","0","0","1","1","0","0","1","5","1","1","1","1","4","1","1","2","1","1","618876128202850304","范","470","","","","","","","","","","","","","","","","","","","true","14","4","moral","753","positive","廉正","","","","","","","","","","","","","","","","",""
"null","","null","html-keyboard-response","140","278553","0.0-6.0-1.0-8.0-0.16","4","4","4","4","4","4","4","4","4","4","5","5","5","5","5","5","5","5","5","5","1","1","1","1","1","1","1","1","1","1","1","1","0","0","0","0","0","0","0","1","1","0","0","1","5","1","1","1","1","4","1","1","2","1","1","618876128202850304","范","470","","","","","","","","","","","","","","","","","","","","","","","","","","","","","","","","","","","","","","","","","",""
"652","<p style=""color:rgb(150, 250, 100); font-size: 35px;"">别人的</p>","e","categorize-html","141","279208","0.0-6.0-1.0-8.0-1.16","4","4","4","4","4","4","4","4","4","4","5","5","5","5","5","5","5","5","5","5","1","1","1","1","1","1","1","1","1","1","1","1","0","0","0","0","0","0","0","1","1","0","0","1","5","1","1","1","1","4","1","1","2","1","1","618876128202850304","范","470","","","","","","","","","","","","","","","","","","","true","14","4","moral","652","other","别人的","","","","","","","","","","","","","","","","",""
"null","","null","html-keyboard-response","142","279460","0.0-6.0-1.0-8.0-0.17","4","4","4","4","4","4","4","4","4","4","5","5","5","5","5","5","5","5","5","5","1","1","1","1","1","1","1","1","1","1","1","1","0","0","0","0","0","0","0","1","1","0","0","1","5","1","1","1","1","4","1","1","2","1","1","618876128202850304","范","470","","","","","","","","","","","","","","","","","","","","","","","","","","","","","","","","","","","","","","","","","",""
"651","<p style=""color:white; font-size: 35px;"">不孝</p>","e","categorize-html","143","280115","0.0-6.0-1.0-8.0-1.17","4","4","4","4","4","4","4","4","4","4","5","5","5","5","5","5","5","5","5","5","1","1","1","1","1","1","1","1","1","1","1","1","0","0","0","0","0","0","0","1","1","0","0","1","5","1","1","1","1","4","1","1","2","1","1","618876128202850304","范","470","","","","","","","","","","","","","","","","","","","true","14","4","moral","651","negative","不孝","","","","","","","","","","","","","","","","",""
"null","","null","html-keyboard-response","144","280366","0.0-6.0-1.0-8.0-0.18","4","4","4","4","4","4","4","4","4","4","5","5","5","5","5","5","5","5","5","5","1","1","1","1","1","1","1","1","1","1","1","1","0","0","0","0","0","0","0","1","1","0","0","1","5","1","1","1","1","4","1","1","2","1","1","618876128202850304","范","470","","","","","","","","","","","","","","","","","","","","","","","","","","","","","","","","","","","","","","","","","",""
"1340","<p style=""color:rgb(150, 250, 100); font-size: 35px;"">本人的</p>","i","categorize-html","145","281709","0.0-6.0-1.0-8.0-1.18","4","4","4","4","4","4","4","4","4","4","5","5","5","5","5","5","5","5","5","5","1","1","1","1","1","1","1","1","1","1","1","1","0","0","0","0","0","0","0","1","1","0","0","1","5","1","1","1","1","4","1","1","2","1","1","618876128202850304","范","470","","","","","","","","","","","","","","","","","","","true","14","4","moral","1340","self","本人的","","","","","","","","","","","","","","","","",""
"null","","null","html-keyboard-response","146","281961","0.0-6.0-1.0-8.0-0.19","4","4","4","4","4","4","4","4","4","4","5","5","5","5","5","5","5","5","5","5","1","1","1","1","1","1","1","1","1","1","1","1","0","0","0","0","0","0","0","1","1","0","0","1","5","1","1","1","1","4","1","1","2","1","1","618876128202850304","范","470","","","","","","","","","","","","","","","","","","","","","","","","","","","","","","","","","","","","","","","","","",""
"800","<p style=""color:white; font-size: 35px;"">高尚</p>","i","categorize-html","147","282763","0.0-6.0-1.0-8.0-1.19","4","4","4","4","4","4","4","4","4","4","5","5","5","5","5","5","5","5","5","5","1","1","1","1","1","1","1","1","1","1","1","1","0","0","0","0","0","0","0","1","1","0","0","1","5","1","1","1","1","4","1","1","2","1","1","618876128202850304","范","470","","","","","","","","","","","","","","","","","","","true","14","4","moral","800","positive","高尚","","","","","","","","","","","","","","","","",""
"null","","null","html-keyboard-response","148","283015","0.0-6.0-1.0-8.0-0.20","4","4","4","4","4","4","4","4","4","4","5","5","5","5","5","5","5","5","5","5","1","1","1","1","1","1","1","1","1","1","1","1","0","0","0","0","0","0","0","1","1","0","0","1","5","1","1","1","1","4","1","1","2","1","1","618876128202850304","范","470","","","","","","","","","","","","","","","","","","","","","","","","","","","","","","","","","","","","","","","","","",""
"901","<p style=""color:rgb(150, 250, 100); font-size: 35px;"">别人</p>","e","categorize-html","149","283920","0.0-6.0-1.0-8.0-1.20","4","4","4","4","4","4","4","4","4","4","5","5","5","5","5","5","5","5","5","5","1","1","1","1","1","1","1","1","1","1","1","1","0","0","0","0","0","0","0","1","1","0","0","1","5","1","1","1","1","4","1","1","2","1","1","618876128202850304","范","470","","","","","","","","","","","","","","","","","","","true","14","4","moral","901","other","别人","","","","","","","","","","","","","","","","",""
"null","","null","html-keyboard-response","150","284171","0.0-6.0-1.0-8.0-0.21","4","4","4","4","4","4","4","4","4","4","5","5","5","5","5","5","5","5","5","5","1","1","1","1","1","1","1","1","1","1","1","1","0","0","0","0","0","0","0","1","1","0","0","1","5","1","1","1","1","4","1","1","2","1","1","618876128202850304","范","470","","","","","","","","","","","","","","","","","","","","","","","","","","","","","","","","","","","","","","","","","",""
"708","<p style=""color:white; font-size: 35px;"">廉正</p>","i","categorize-html","151","284882","0.0-6.0-1.0-8.0-1.21","4","4","4","4","4","4","4","4","4","4","5","5","5","5","5","5","5","5","5","5","1","1","1","1","1","1","1","1","1","1","1","1","0","0","0","0","0","0","0","1","1","0","0","1","5","1","1","1","1","4","1","1","2","1","1","618876128202850304","范","470","","","","","","","","","","","","","","","","","","","true","14","4","moral","708","positive","廉正","","","","","","","","","","","","","","","","",""
"null","","null","html-keyboard-response","152","285133","0.0-6.0-1.0-8.0-0.22","4","4","4","4","4","4","4","4","4","4","5","5","5","5","5","5","5","5","5","5","1","1","1","1","1","1","1","1","1","1","1","1","0","0","0","0","0","0","0","1","1","0","0","1","5","1","1","1","1","4","1","1","2","1","1","618876128202850304","范","470","","","","","","","","","","","","","","","","","","","","","","","","","","","","","","","","","","","","","","","","","",""
"663","<p style=""color:rgb(150, 250, 100); font-size: 35px;"">自己</p>","i","categorize-html","153","285799","0.0-6.0-1.0-8.0-1.22","4","4","4","4","4","4","4","4","4","4","5","5","5","5","5","5","5","5","5","5","1","1","1","1","1","1","1","1","1","1","1","1","0","0","0","0","0","0","0","1","1","0","0","1","5","1","1","1","1","4","1","1","2","1","1","618876128202850304","范","470","","","","","","","","","","","","","","","","","","","true","14","4","moral","663","self","自己","","","","","","","","","","","","","","","","",""
"null","","null","html-keyboard-response","154","286051","0.0-6.0-1.0-8.0-0.23","4","4","4","4","4","4","4","4","4","4","5","5","5","5","5","5","5","5","5","5","1","1","1","1","1","1","1","1","1","1","1","1","0","0","0","0","0","0","0","1","1","0","0","1","5","1","1","1","1","4","1","1","2","1","1","618876128202850304","范","470","","","","","","","","","","","","","","","","","","","","","","","","","","","","","","","","","","","","","","","","","",""
"794","<p style=""color:white; font-size: 35px;"">不孝</p>","e","categorize-html","155","286848","0.0-6.0-1.0-8.0-1.23","4","4","4","4","4","4","4","4","4","4","5","5","5","5","5","5","5","5","5","5","1","1","1","1","1","1","1","1","1","1","1","1","0","0","0","0","0","0","0","1","1","0","0","1","5","1","1","1","1","4","1","1","2","1","1","618876128202850304","范","470","","","","","","","","","","","","","","","","","","","true","14","4","moral","794","negative","不孝","","","","","","","","","","","","","","","","",""
"null","","null","html-keyboard-response","156","287100","0.0-6.0-1.0-8.0-0.24","4","4","4","4","4","4","4","4","4","4","5","5","5","5","5","5","5","5","5","5","1","1","1","1","1","1","1","1","1","1","1","1","0","0","0","0","0","0","0","1","1","0","0","1","5","1","1","1","1","4","1","1","2","1","1","618876128202850304","范","470","","","","","","","","","","","","","","","","","","","","","","","","","","","","","","","","","","","","","","","","","",""
"763","<p style=""color:rgb(150, 250, 100); font-size: 35px;"">自己的</p>","i","categorize-html","157","287866","0.0-6.0-1.0-8.0-1.24","4","4","4","4","4","4","4","4","4","4","5","5","5","5","5","5","5","5","5","5","1","1","1","1","1","1","1","1","1","1","1","1","0","0","0","0","0","0","0","1","1","0","0","1","5","1","1","1","1","4","1","1","2","1","1","618876128202850304","范","470","","","","","","","","","","","","","","","","","","","true","14","4","moral","763","self","自己的","","","","","","","","","","","","","","","","",""
"null","","null","html-keyboard-response","158","288118","0.0-6.0-1.0-8.0-0.25","4","4","4","4","4","4","4","4","4","4","5","5","5","5","5","5","5","5","5","5","1","1","1","1","1","1","1","1","1","1","1","1","0","0","0","0","0","0","0","1","1","0","0","1","5","1","1","1","1","4","1","1","2","1","1","618876128202850304","范","470","","","","","","","","","","","","","","","","","","","","","","","","","","","","","","","","","","","","","","","","","",""
"771","<p style=""color:white; font-size: 35px;"">君子</p>","i","categorize-html","159","288892","0.0-6.0-1.0-8.0-1.25","4","4","4","4","4","4","4","4","4","4","5","5","5","5","5","5","5","5","5","5","1","1","1","1","1","1","1","1","1","1","1","1","0","0","0","0","0","0","0","1","1","0","0","1","5","1","1","1","1","4","1","1","2","1","1","618876128202850304","范","470","","","","","","","","","","","","","","","","","","","true","14","4","moral","771","positive","君子","","","","","","","","","","","","","","","","",""
"null","","null","html-keyboard-response","160","289144","0.0-6.0-1.0-8.0-0.26","4","4","4","4","4","4","4","4","4","4","5","5","5","5","5","5","5","5","5","5","1","1","1","1","1","1","1","1","1","1","1","1","0","0","0","0","0","0","0","1","1","0","0","1","5","1","1","1","1","4","1","1","2","1","1","618876128202850304","范","470","","","","","","","","","","","","","","","","","","","","","","","","","","","","","","","","","","","","","","","","","",""
"828","<p style=""color:rgb(150, 250, 100); font-size: 35px;"">别人</p>","e","categorize-html","161","289976","0.0-6.0-1.0-8.0-1.26","4","4","4","4","4","4","4","4","4","4","5","5","5","5","5","5","5","5","5","5","1","1","1","1","1","1","1","1","1","1","1","1","0","0","0","0","0","0","0","1","1","0","0","1","5","1","1","1","1","4","1","1","2","1","1","618876128202850304","范","470","","","","","","","","","","","","","","","","","","","true","14","4","moral","828","other","别人","","","","","","","","","","","","","","","","",""
"null","","null","html-keyboard-response","162","290228","0.0-6.0-1.0-8.0-0.27","4","4","4","4","4","4","4","4","4","4","5","5","5","5","5","5","5","5","5","5","1","1","1","1","1","1","1","1","1","1","1","1","0","0","0","0","0","0","0","1","1","0","0","1","5","1","1","1","1","4","1","1","2","1","1","618876128202850304","范","470","","","","","","","","","","","","","","","","","","","","","","","","","","","","","","","","","","","","","","","","","",""
"714","<p style=""color:white; font-size: 35px;"">小人</p>","e","categorize-html","163","290945","0.0-6.0-1.0-8.0-1.27","4","4","4","4","4","4","4","4","4","4","5","5","5","5","5","5","5","5","5","5","1","1","1","1","1","1","1","1","1","1","1","1","0","0","0","0","0","0","0","1","1","0","0","1","5","1","1","1","1","4","1","1","2","1","1","618876128202850304","范","470","","","","","","","","","","","","","","","","","","","true","14","4","moral","714","negative","小人","","","","","","","","","","","","","","","","",""
"null","","null","html-keyboard-response","164","291197","0.0-6.0-1.0-8.0-0.28","4","4","4","4","4","4","4","4","4","4","5","5","5","5","5","5","5","5","5","5","1","1","1","1","1","1","1","1","1","1","1","1","0","0","0","0","0","0","0","1","1","0","0","1","5","1","1","1","1","4","1","1","2","1","1","618876128202850304","范","470","","","","","","","","","","","","","","","","","","","","","","","","","","","","","","","","","","","","","","","","","",""
"718","<p style=""color:rgb(150, 250, 100); font-size: 35px;"">他人</p>","e","categorize-html","165","291918","0.0-6.0-1.0-8.0-1.28","4","4","4","4","4","4","4","4","4","4","5","5","5","5","5","5","5","5","5","5","1","1","1","1","1","1","1","1","1","1","1","1","0","0","0","0","0","0","0","1","1","0","0","1","5","1","1","1","1","4","1","1","2","1","1","618876128202850304","范","470","","","","","","","","","","","","","","","","","","","true","14","4","moral","718","other","他人","","","","","","","","","","","","","","","","",""
"null","","null","html-keyboard-response","166","292169","0.0-6.0-1.0-8.0-0.29","4","4","4","4","4","4","4","4","4","4","5","5","5","5","5","5","5","5","5","5","1","1","1","1","1","1","1","1","1","1","1","1","0","0","0","0","0","0","0","1","1","0","0","1","5","1","1","1","1","4","1","1","2","1","1","618876128202850304","范","470","","","","","","","","","","","","","","","","","","","","","","","","","","","","","","","","","","","","","","","","","",""
"686","<p style=""color:white; font-size: 35px;"">诚信</p>","i","categorize-html","167","292859","0.0-6.0-1.0-8.0-1.29","4","4","4","4","4","4","4","4","4","4","5","5","5","5","5","5","5","5","5","5","1","1","1","1","1","1","1","1","1","1","1","1","0","0","0","0","0","0","0","1","1","0","0","1","5","1","1","1","1","4","1","1","2","1","1","618876128202850304","范","470","","","","","","","","","","","","","","","","","","","true","14","4","moral","686","positive","诚信","","","","","","","","","","","","","","","","",""
"null","","null","html-keyboard-response","168","293111","0.0-6.0-1.0-8.0-0.30","4","4","4","4","4","4","4","4","4","4","5","5","5","5","5","5","5","5","5","5","1","1","1","1","1","1","1","1","1","1","1","1","0","0","0","0","0","0","0","1","1","0","0","1","5","1","1","1","1","4","1","1","2","1","1","618876128202850304","范","470","","","","","","","","","","","","","","","","","","","","","","","","","","","","","","","","","","","","","","","","","",""
"719","<p style=""color:rgb(150, 250, 100); font-size: 35px;"">自己</p>","i","categorize-html","169","293833","0.0-6.0-1.0-8.0-1.30","4","4","4","4","4","4","4","4","4","4","5","5","5","5","5","5","5","5","5","5","1","1","1","1","1","1","1","1","1","1","1","1","0","0","0","0","0","0","0","1","1","0","0","1","5","1","1","1","1","4","1","1","2","1","1","618876128202850304","范","470","","","","","","","","","","","","","","","","","","","true","14","4","moral","719","self","自己","","","","","","","","","","","","","","","","",""
"null","","null","html-keyboard-response","170","294084","0.0-6.0-1.0-8.0-0.31","4","4","4","4","4","4","4","4","4","4","5","5","5","5","5","5","5","5","5","5","1","1","1","1","1","1","1","1","1","1","1","1","0","0","0","0","0","0","0","1","1","0","0","1","5","1","1","1","1","4","1","1","2","1","1","618876128202850304","范","470","","","","","","","","","","","","","","","","","","","","","","","","","","","","","","","","","","","","","","","","","",""
"655","<p style=""color:white; font-size: 35px;"">黑心</p>","e","categorize-html","171","294742","0.0-6.0-1.0-8.0-1.31","4","4","4","4","4","4","4","4","4","4","5","5","5","5","5","5","5","5","5","5","1","1","1","1","1","1","1","1","1","1","1","1","0","0","0","0","0","0","0","1","1","0","0","1","5","1","1","1","1","4","1","1","2","1","1","618876128202850304","范","470","","","","","","","","","","","","","","","","","","","true","14","4","moral","655","negative","黑心","","","","","","","","","","","","","","","","",""
"null","","null","html-keyboard-response","172","294993","0.0-6.0-1.0-8.0-0.32","4","4","4","4","4","4","4","4","4","4","5","5","5","5","5","5","5","5","5","5","1","1","1","1","1","1","1","1","1","1","1","1","0","0","0","0","0","0","0","1","1","0","0","1","5","1","1","1","1","4","1","1","2","1","1","618876128202850304","范","470","","","","","","","","","","","","","","","","","","","","","","","","","","","","","","","","","","","","","","","","","",""
"823","<p style=""color:rgb(150, 250, 100); font-size: 35px;"">他的</p>","e","categorize-html","173","295820","0.0-6.0-1.0-8.0-1.32","4","4","4","4","4","4","4","4","4","4","5","5","5","5","5","5","5","5","5","5","1","1","1","1","1","1","1","1","1","1","1","1","0","0","0","0","0","0","0","1","1","0","0","1","5","1","1","1","1","4","1","1","2","1","1","618876128202850304","范","470","","","","","","","","","","","","","","","","","","","true","14","4","moral","823","other","他的","","","","","","","","","","","","","","","","",""
"null","","null","html-keyboard-response","174","296071","0.0-6.0-1.0-8.0-0.33","4","4","4","4","4","4","4","4","4","4","5","5","5","5","5","5","5","5","5","5","1","1","1","1","1","1","1","1","1","1","1","1","0","0","0","0","0","0","0","1","1","0","0","1","5","1","1","1","1","4","1","1","2","1","1","618876128202850304","范","470","","","","","","","","","","","","","","","","","","","","","","","","","","","","","","","","","","","","","","","","","",""
"650","<p style=""color:white; font-size: 35px;"">君子</p>","i","categorize-html","175","296725","0.0-6.0-1.0-8.0-1.33","4","4","4","4","4","4","4","4","4","4","5","5","5","5","5","5","5","5","5","5","1","1","1","1","1","1","1","1","1","1","1","1","0","0","0","0","0","0","0","1","1","0","0","1","5","1","1","1","1","4","1","1","2","1","1","618876128202850304","范","470","","","","","","","","","","","","","","","","","","","true","14","4","moral","650","positive","君子","","","","","","","","","","","","","","","","",""
"null","","null","html-keyboard-response","176","296977","0.0-6.0-1.0-8.0-0.34","4","4","4","4","4","4","4","4","4","4","5","5","5","5","5","5","5","5","5","5","1","1","1","1","1","1","1","1","1","1","1","1","0","0","0","0","0","0","0","1","1","0","0","1","5","1","1","1","1","4","1","1","2","1","1","618876128202850304","范","470","","","","","","","","","","","","","","","","","","","","","","","","","","","","","","","","","","","","","","","","","",""
"712","<p style=""color:rgb(150, 250, 100); font-size: 35px;"">我</p>","i","categorize-html","177","297692","0.0-6.0-1.0-8.0-1.34","4","4","4","4","4","4","4","4","4","4","5","5","5","5","5","5","5","5","5","5","1","1","1","1","1","1","1","1","1","1","1","1","0","0","0","0","0","0","0","1","1","0","0","1","5","1","1","1","1","4","1","1","2","1","1","618876128202850304","范","470","","","","","","","","","","","","","","","","","","","true","14","4","moral","712","self","我","","","","","","","","","","","","","","","","",""
"null","","null","html-keyboard-response","178","297943","0.0-6.0-1.0-8.0-0.35","4","4","4","4","4","4","4","4","4","4","5","5","5","5","5","5","5","5","5","5","1","1","1","1","1","1","1","1","1","1","1","1","0","0","0","0","0","0","0","1","1","0","0","1","5","1","1","1","1","4","1","1","2","1","1","618876128202850304","范","470","","","","","","","","","","","","","","","","","","","","","","","","","","","","","","","","","","","","","","","","","",""
"930","<p style=""color:white; font-size: 35px;"">黑心</p>","e","categorize-html","179","298876","0.0-6.0-1.0-8.0-1.35","4","4","4","4","4","4","4","4","4","4","5","5","5","5","5","5","5","5","5","5","1","1","1","1","1","1","1","1","1","1","1","1","0","0","0","0","0","0","0","1","1","0","0","1","5","1","1","1","1","4","1","1","2","1","1","618876128202850304","范","470","","","","","","","","","","","","","","","","","","","true","14","4","moral","930","negative","黑心","","","","","","","","","","","","","","","","",""
"null","","null","html-keyboard-response","180","299128","0.0-6.0-1.0-8.0-0.36","4","4","4","4","4","4","4","4","4","4","5","5","5","5","5","5","5","5","5","5","1","1","1","1","1","1","1","1","1","1","1","1","0","0","0","0","0","0","0","1","1","0","0","1","5","1","1","1","1","4","1","1","2","1","1","618876128202850304","范","470","","","","","","","","","","","","","","","","","","","","","","","","","","","","","","","","","","","","","","","","","",""
"964","<p style=""color:rgb(150, 250, 100); font-size: 35px;"">别人的</p>","e","categorize-html","181","300095","0.0-6.0-1.0-8.0-1.36","4","4","4","4","4","4","4","4","4","4","5","5","5","5","5","5","5","5","5","5","1","1","1","1","1","1","1","1","1","1","1","1","0","0","0","0","0","0","0","1","1","0","0","1","5","1","1","1","1","4","1","1","2","1","1","618876128202850304","范","470","","","","","","","","","","","","","","","","","","","true","14","4","moral","964","other","别人的","","","","","","","","","","","","","","","","",""
"null","","null","html-keyboard-response","182","300347","0.0-6.0-1.0-8.0-0.37","4","4","4","4","4","4","4","4","4","4","5","5","5","5","5","5","5","5","5","5","1","1","1","1","1","1","1","1","1","1","1","1","0","0","0","0","0","0","0","1","1","0","0","1","5","1","1","1","1","4","1","1","2","1","1","618876128202850304","范","470","","","","","","","","","","","","","","","","","","","","","","","","","","","","","","","","","","","","","","","","","",""
"1885","<p style=""color:white; font-size: 35px;"">善良</p>","i","categorize-html","183","302235","0.0-6.0-1.0-8.0-1.37","4","4","4","4","4","4","4","4","4","4","5","5","5","5","5","5","5","5","5","5","1","1","1","1","1","1","1","1","1","1","1","1","0","0","0","0","0","0","0","1","1","0","0","1","5","1","1","1","1","4","1","1","2","1","1","618876128202850304","范","470","","","","","","","","","","","","","","","","","","","true","14","4","moral","1885","positive","善良","","","","","","","","","","","","","","","","",""
"null","","null","html-keyboard-response","184","302486","0.0-6.0-1.0-8.0-0.38","4","4","4","4","4","4","4","4","4","4","5","5","5","5","5","5","5","5","5","5","1","1","1","1","1","1","1","1","1","1","1","1","0","0","0","0","0","0","0","1","1","0","0","1","5","1","1","1","1","4","1","1","2","1","1","618876128202850304","范","470","","","","","","","","","","","","","","","","","","","","","","","","","","","","","","","","","","","","","","","","","",""
"1266","<p style=""color:rgb(150, 250, 100); font-size: 35px;"">我的</p>","i","categorize-html","185","303756","0.0-6.0-1.0-8.0-1.38","4","4","4","4","4","4","4","4","4","4","5","5","5","5","5","5","5","5","5","5","1","1","1","1","1","1","1","1","1","1","1","1","0","0","0","0","0","0","0","1","1","0","0","1","5","1","1","1","1","4","1","1","2","1","1","618876128202850304","范","470","","","","","","","","","","","","","","","","","","","true","14","4","moral","1266","self","我的","","","","","","","","","","","","","","","","",""
"null","","null","html-keyboard-response","186","304007","0.0-6.0-1.0-8.0-0.39","4","4","4","4","4","4","4","4","4","4","5","5","5","5","5","5","5","5","5","5","1","1","1","1","1","1","1","1","1","1","1","1","0","0","0","0","0","0","0","1","1","0","0","1","5","1","1","1","1","4","1","1","2","1","1","618876128202850304","范","470","","","","","","","","","","","","","","","","","","","","","","","","","","","","","","","","","","","","","","","","","",""
"2204","<p style=""color:white; font-size: 35px;"">小人</p>","e","categorize-html","187","306214","0.0-6.0-1.0-8.0-1.39","4","4","4","4","4","4","4","4","4","4","5","5","5","5","5","5","5","5","5","5","1","1","1","1","1","1","1","1","1","1","1","1","0","0","0","0","0","0","0","1","1","0","0","1","5","1","1","1","1","4","1","1","2","1","1","618876128202850304","范","470","","","","","","","","","","","","","","","","","","","true","14","4","moral","2204","negative","小人","","","","","","","","","","","","","","","","",""
"null","","null","html-keyboard-response","188","306465","0.0-6.0-1.0-8.0-0.40","4","4","4","4","4","4","4","4","4","4","5","5","5","5","5","5","5","5","5","5","1","1","1","1","1","1","1","1","1","1","1","1","0","0","0","0","0","0","0","1","1","0","0","1","5","1","1","1","1","4","1","1","2","1","1","618876128202850304","范","470","","","","","","","","","","","","","","","","","","","","","","","","","","","","","","","","","","","","","","","","","",""
"687","<p style=""color:rgb(150, 250, 100); font-size: 35px;"">本人</p>","i","categorize-html","189","307155","0.0-6.0-1.0-8.0-1.40","4","4","4","4","4","4","4","4","4","4","5","5","5","5","5","5","5","5","5","5","1","1","1","1","1","1","1","1","1","1","1","1","0","0","0","0","0","0","0","1","1","0","0","1","5","1","1","1","1","4","1","1","2","1","1","618876128202850304","范","470","","","","","","","","","","","","","","","","","","","true","14","4","moral","687","self","本人","","","","","","","","","","","","","","","","",""
"null","","null","html-keyboard-response","190","307407","0.0-6.0-1.0-8.0-0.41","4","4","4","4","4","4","4","4","4","4","5","5","5","5","5","5","5","5","5","5","1","1","1","1","1","1","1","1","1","1","1","1","0","0","0","0","0","0","0","1","1","0","0","1","5","1","1","1","1","4","1","1","2","1","1","618876128202850304","范","470","","","","","","","","","","","","","","","","","","","","","","","","","","","","","","","","","","","","","","","","","",""
"993","<p style=""color:white; font-size: 35px;"">不仁</p>","e","categorize-html","191","308404","0.0-6.0-1.0-8.0-1.41","4","4","4","4","4","4","4","4","4","4","5","5","5","5","5","5","5","5","5","5","1","1","1","1","1","1","1","1","1","1","1","1","0","0","0","0","0","0","0","1","1","0","0","1","5","1","1","1","1","4","1","1","2","1","1","618876128202850304","范","470","","","","","","","","","","","","","","","","","","","true","14","4","moral","993","negative","不仁","","","","","","","","","","","","","","","","",""
"null","","null","html-keyboard-response","192","308656","0.0-6.0-1.0-8.0-0.42","4","4","4","4","4","4","4","4","4","4","5","5","5","5","5","5","5","5","5","5","1","1","1","1","1","1","1","1","1","1","1","1","0","0","0","0","0","0","0","1","1","0","0","1","5","1","1","1","1","4","1","1","2","1","1","618876128202850304","范","470","","","","","","","","","","","","","","","","","","","","","","","","","","","","","","","","","","","","","","","","","",""
"1316","<p style=""color:rgb(150, 250, 100); font-size: 35px;"">他人的</p>","e","categorize-html","193","309976","0.0-6.0-1.0-8.0-1.42","4","4","4","4","4","4","4","4","4","4","5","5","5","5","5","5","5","5","5","5","1","1","1","1","1","1","1","1","1","1","1","1","0","0","0","0","0","0","0","1","1","0","0","1","5","1","1","1","1","4","1","1","2","1","1","618876128202850304","范","470","","","","","","","","","","","","","","","","","","","true","14","4","moral","1316","other","他人的","","","","","","","","","","","","","","","","",""
