"rt","stimulus","response","trial_type","trial_index","time_elapsed","internal_node_id","ses_1","ses_2","ses_3","ses_4","ses_5","ses_6","ses_7","ses_8","ses_9","ses_10","coreself_1","coreself_2","coreself_3","coreself_4","coreself_5","coreself_6","coreself_7","coreself_8","coreself_9","coreself_10","SGPS_1","SGPS_2","SGPS_3","SGPS_4","SGPS_5","SGPS_6","SGPS_7","SGPS_8","SGPS_9","NPI1","NPI2","NPI3","NPI4","NPI5","NPI6","NPI7","NPI8","NPI9","NPI10","NPI11","NPI12","NPI13","NPI14","NPI15","hsns_1","hsns_2","hsns_3","hsns_4","hsns_5","trap1","hsns_6","hsns_7","hsns_8","hsns_9","hsns_10","subj_idx","friend_name","ParticipantID","value","success","user_agent","responses","item_order","radio_event_ids","radio_event_times","key_event_times","mouse_event_times","straightlining","zigzagging","honeypot","timeout","failed_images","failed_audio","failed_video","version_attrib","version_target","correct","IAT","screen_id","task_id","RT","condition","word","varname","summary","version_attrib2","version_target2","time_stamp","view_history","response_type","key_press","avg_frame_time","center_x","center_y","correct_response","identity","Image","question_order","correct_answer","trap1_item"
"1275","
   <p><div style = ""color: white;font-size:25px;"">您好，欢迎参加本次实验。</div> </p>
   <p><div style = ""color: white;font-size:25px;"">为充分保障您的权利，请确保您已经知晓并同意《参与实验同意书》以及《数据公开知情同意书》。</div></p>
   <p><div style = ""color: white;font-size:25px;"">如果您未见过上述内容，请咨询实验员。</div></p>
   <p><div style = ""color: white;font-size:25px;"">如果您选择继续实验，则表示您已经清楚两份知情同意书的内容并同意。</div></p>
   <p><div style = ""color: pink;font-size:30px;"">请确保您记得day0的实验编号，您将在本次实验输入该编号，若您忘记，请咨询实验员后作答。</div></p>
   <p><div style = ""color: lightblue;font-size:25px;"">请您尽可能认真地作答，我们将依据您在各问卷和按键任务中的作答质量发放报酬。</div></p>
   <p> <div style = ""color: green;font-size:25px;""><按空格键至下页></div> </p>
   "," ","html-keyboard-response","0","1277","0.0-0.0","3","4","4","3","3","3","4","3","3","4","4","4","2","3","4","5","4","2","4","4","4","5","4","4","4","5","4","4","5","1","0","0","0","1","1","1","1","0","1","1","0","1","0","1","4","4","5","2","5","2","2","4","5","4","3","777148633652137985","仝","240","","","","","","","","","","","","","","","","","","","","","","","","","","","","","","","","","","","","","","","","","",""
"","","","call-function","1","1278","0.0-1.0-0.0","3","4","4","3","3","3","4","3","3","4","4","4","2","3","4","5","4","2","4","4","4","5","4","4","4","5","4","4","5","1","0","0","0","1","1","1","1","0","1","1","0","1","0","1","4","4","5","2","5","2","2","4","5","4","3","777148633652137985","仝","240","","","","","","","","","","","","","","","","","","","","","","","","","","","","","","","","","","","","","","","","","",""
"10497","","{""friend_name"":""仝"",""ParticipantID"":""240""}","survey-html-form","2","11775","0.0-1.0-1.0","3","4","4","3","3","3","4","3","3","4","4","4","2","3","4","5","4","2","4","4","4","5","4","4","4","5","4","4","5","1","0","0","0","1","1","1","1","0","1","1","0","1","0","1","4","4","5","2","5","2","2","4","5","4","3","777148633652137985","仝","240","","","","","","","","","","","","","","","","","","","","","","","","","","","","","","","","","","","","","","","","","",""
"","","","fullscreen","3","32950","0.0-2.0","3","4","4","3","3","3","4","3","3","4","4","4","2","3","4","5","4","2","4","4","4","5","4","4","4","5","4","4","5","1","0","0","0","1","1","1","1","0","1","1","0","1","0","1","4","4","5","2","5","2","2","4","5","4","3","777148633652137985","仝","240","","true","{}","","","","","","","","","","","","","","","","","","","","","","","","","","","","","","","","","","","","","","",""
"25643.799999999814","","{""Q01"":""3"",""Q02"":""4"",""Q03"":""4"",""Q04"":""3"",""Q05"":""3"",""Q06"":""3"",""Q07"":""4"",""Q08"":""3"",""Q09"":""3"",""Q10"":""4""}","survey-template","4","58600","0.0-3.0","3","4","4","3","3","3","4","3","3","4","4","4","2","3","4","5","4","2","4","4","4","5","4","4","4","5","4","4","5","1","0","0","0","1","1","1","1","0","1","1","0","1","0","1","4","4","5","2","5","2","2","4","5","4","3","777148633652137985","仝","240","","","","{""Q01"":""3"",""Q02"":""4"",""Q03"":""4"",""Q04"":""3"",""Q05"":""3"",""Q06"":""3"",""Q07"":""4"",""Q08"":""3"",""Q09"":""3"",""Q10"":""4""}","[0,1,2,3,4,5,6,7,8,9]","[""Q01"",""Q01"",""Q02"",""Q03"",""Q04"",""Q05"",""Q06"",""Q07"",""Q08"",""Q09"",""Q10""]","[4195.600000000093,6908.200000000186,9227,10811.299999999814,12683.100000000093,14987,16250.899999999907,17436.600000000093,20066.899999999907,23482.899999999907,24698.799999999814]","[]","[4195.600000000093,6908.200000000186,9227,10811.299999999814,12683.100000000093,14987,16250.899999999907,17436.600000000093,20066.899999999907,23482.899999999907,24698.799999999814,25642.799999999814]","0.3","0.6666666666666666","0","","","","","","","","","","","","","","","","","","","","","","","","","","","","","",""
"34995.700000000186","","{""Q01"":""4"",""Q02"":""4"",""Q03"":""2"",""Q04"":""3"",""Q05"":""4"",""Q06"":""5"",""Q07"":""4"",""Q08"":""2"",""Q09"":""4"",""Q10"":""4""}","survey-template","5","93600","0.0-4.0","3","4","4","3","3","3","4","3","3","4","4","4","2","3","4","5","4","2","4","4","4","5","4","4","4","5","4","4","5","1","0","0","0","1","1","1","1","0","1","1","0","1","0","1","4","4","5","2","5","2","2","4","5","4","3","777148633652137985","仝","240","","","","{""Q01"":""4"",""Q02"":""4"",""Q03"":""2"",""Q04"":""3"",""Q05"":""4"",""Q06"":""5"",""Q07"":""4"",""Q08"":""2"",""Q09"":""4"",""Q10"":""4""}","[0,1,2,3,4,5,6,7,8,9]","[""Q01"",""Q02"",""Q02"",""Q03"",""Q04"",""Q04"",""Q05"",""Q06"",""Q07"",""Q08"",""Q09"",""Q10""]","[3130.5,4266.399999999907,7122.800000000279,9162.399999999907,14387,16682.399999999907,19514.399999999907,21626.399999999907,23258.399999999907,27109.200000000186,29850.5,33634.30000000028]","[]","[3130.5,4266.399999999907,7122.800000000279,9162.399999999907,14387,16682.399999999907,19514.399999999907,21626.399999999907,23258.399999999907,27109.200000000186,29850.5,33634.30000000028,34994.5]","0.4","0.2222222222222222","0","","","","","","","","","","","","","","","","","","","","","","","","","","","","","",""
"","","","preload","6","94011","0.0-5.0","3","4","4","3","3","3","4","3","3","4","4","4","2","3","4","5","4","2","4","4","4","5","4","4","4","5","4","4","5","1","0","0","0","1","1","1","1","0","1","1","0","1","0","1","4","4","5","2","5","2","2","4","5","4","3","777148633652137985","仝","240","","true","","","","","","","","","","","false","[]","[]","[]","","","","","","","","","","","","","","","","","","","","","","","","","",""
"17702","
    <h3>词语分类任务</h3>
    <p>在接下来的任务中，你需要对一系列词语进行分类。</p>
    <p>请先熟悉这些词语，这有利于你完成接下来的任务。</p>
    <table align=""center"" border=1 cellpadding=3 cellspacing=0>
    <tr> <th>类别</th> <th>词语</th> </tr>
    <tr> <td>&emsp;积极&emsp;</td> <td>&emsp;能干、全能、全才、高效、精干、天才&emsp;</td> </tr>
    <tr> <td>&emsp;消极&emsp;</td> <td>&emsp;无能、低能、废物、拙笨、愚钝、蠢笨&emsp;</td> </tr>
    <tr> <td>&emsp;自我&emsp;</td> <td>&emsp;我、我的、自己、自己的、本人、本人的&emsp;</td> </tr>
    <tr> <td>&emsp;他人&emsp;</td> <td>&emsp;他、他的、别人、别人的、他人、他人的&emsp;</td> </tr>
    </table><br/>","0","html-button-response","7","111714","0.0-6.0-0.0-0.0","3","4","4","3","3","3","4","3","3","4","4","4","2","3","4","5","4","2","4","4","4","5","4","4","4","5","4","4","5","1","0","0","0","1","1","1","1","0","1","1","0","1","0","1","4","4","5","2","5","2","2","4","5","4","3","777148633652137985","仝","240","","","","","","","","","","","","","","","","","1","1","","","","","","","","","","","","","","","","","","","","","","","",""
"28060","
    <div class=""tag-bottom"">
    <p> —— 任务1：对“自我”词和“他人”词分类 ——<p/>
    不同词语会出现在屏幕中央，类别标签将始终显示在屏幕上方<p/>   
    <span style=""color:#FFD866""><b>请根据上方标签的提示，尽可能正确并且快速地做出按键反应</b></span><p/>
    当按键错误时屏幕中会出现<span style=""color:red""> X </span>，需要按另一个键纠正才能继续<br/><p/>
    请把双手食指分别放在键盘的“E”键和“I”键上<p/>
    按<空格键>开始
    </p></div>"," ","html-keyboard-response","8","139776","0.0-6.0-0.0-1.0","3","4","4","3","3","3","4","3","3","4","4","4","2","3","4","5","4","2","4","4","4","5","4","4","4","5","4","4","5","1","0","0","0","1","1","1","1","0","1","1","0","1","0","1","4","4","5","2","5","2","2","4","5","4","3","777148633652137985","仝","240","","","","","","","","","","","","","","","","","","","","","","","","","","","","","","","","","","","","","","","","","",""
"null","","null","html-keyboard-response","9","140028","0.0-6.0-0.0-2.0-0.0","3","4","4","3","3","3","4","3","3","4","4","4","2","3","4","5","4","2","4","4","4","5","4","4","4","5","4","4","5","1","0","0","0","1","1","1","1","0","1","1","0","1","0","1","4","4","5","2","5","2","2","4","5","4","3","777148633652137985","仝","240","","","","","","","","","","","","","","","","","","","","","","","","","","","","","","","","","","","","","","","","","",""
"2403","<p style=""color:rgb(150, 250, 100); font-size: 35px;"">我</p>","e","categorize-html","10","142433","0.0-6.0-0.0-2.0-1.0","3","4","4","3","3","3","4","3","3","4","4","4","2","3","4","5","4","2","4","4","4","5","4","4","4","5","4","4","5","1","0","0","0","1","1","1","1","0","1","1","0","1","0","1","4","4","5","2","5","2","2","4","5","4","3","777148633652137985","仝","240","","","","","","","","","","","","","","","","","","","true","1","1","ability","2403","self","我","","","","","","","","","","","","","","","","",""
"null","","null","html-keyboard-response","11","142685","0.0-6.0-0.0-2.0-0.1","3","4","4","3","3","3","4","3","3","4","4","4","2","3","4","5","4","2","4","4","4","5","4","4","4","5","4","4","5","1","0","0","0","1","1","1","1","0","1","1","0","1","0","1","4","4","5","2","5","2","2","4","5","4","3","777148633652137985","仝","240","","","","","","","","","","","","","","","","","","","","","","","","","","","","","","","","","","","","","","","","","",""
"582","<p style=""color:rgb(150, 250, 100); font-size: 35px;"">自己的</p>","e","categorize-html","12","143269","0.0-6.0-0.0-2.0-1.1","3","4","4","3","3","3","4","3","3","4","4","4","2","3","4","5","4","2","4","4","4","5","4","4","4","5","4","4","5","1","0","0","0","1","1","1","1","0","1","1","0","1","0","1","4","4","5","2","5","2","2","4","5","4","3","777148633652137985","仝","240","","","","","","","","","","","","","","","","","","","true","1","1","ability","582","self","自己的","","","","","","","","","","","","","","","","",""
"null","","null","html-keyboard-response","13","143520","0.0-6.0-0.0-2.0-0.2","3","4","4","3","3","3","4","3","3","4","4","4","2","3","4","5","4","2","4","4","4","5","4","4","4","5","4","4","5","1","0","0","0","1","1","1","1","0","1","1","0","1","0","1","4","4","5","2","5","2","2","4","5","4","3","777148633652137985","仝","240","","","","","","","","","","","","","","","","","","","","","","","","","","","","","","","","","","","","","","","","","",""
"568","<p style=""color:rgb(150, 250, 100); font-size: 35px;"">别人的</p>","i","categorize-html","14","144089","0.0-6.0-0.0-2.0-1.2","3","4","4","3","3","3","4","3","3","4","4","4","2","3","4","5","4","2","4","4","4","5","4","4","4","5","4","4","5","1","0","0","0","1","1","1","1","0","1","1","0","1","0","1","4","4","5","2","5","2","2","4","5","4","3","777148633652137985","仝","240","","","","","","","","","","","","","","","","","","","true","1","1","ability","568","other","别人的","","","","","","","","","","","","","","","","",""
"null","","null","html-keyboard-response","15","144340","0.0-6.0-0.0-2.0-0.3","3","4","4","3","3","3","4","3","3","4","4","4","2","3","4","5","4","2","4","4","4","5","4","4","4","5","4","4","5","1","0","0","0","1","1","1","1","0","1","1","0","1","0","1","4","4","5","2","5","2","2","4","5","4","3","777148633652137985","仝","240","","","","","","","","","","","","","","","","","","","","","","","","","","","","","","","","","","","","","","","","","",""
"510","<p style=""color:rgb(150, 250, 100); font-size: 35px;"">别人</p>","i","categorize-html","16","144851","0.0-6.0-0.0-2.0-1.3","3","4","4","3","3","3","4","3","3","4","4","4","2","3","4","5","4","2","4","4","4","5","4","4","4","5","4","4","5","1","0","0","0","1","1","1","1","0","1","1","0","1","0","1","4","4","5","2","5","2","2","4","5","4","3","777148633652137985","仝","240","","","","","","","","","","","","","","","","","","","true","1","1","ability","510","other","别人","","","","","","","","","","","","","","","","",""
"null","","null","html-keyboard-response","17","145104","0.0-6.0-0.0-2.0-0.4","3","4","4","3","3","3","4","3","3","4","4","4","2","3","4","5","4","2","4","4","4","5","4","4","4","5","4","4","5","1","0","0","0","1","1","1","1","0","1","1","0","1","0","1","4","4","5","2","5","2","2","4","5","4","3","777148633652137985","仝","240","","","","","","","","","","","","","","","","","","","","","","","","","","","","","","","","","","","","","","","","","",""
"462","<p style=""color:rgb(150, 250, 100); font-size: 35px;"">我的</p>","e","categorize-html","18","145566","0.0-6.0-0.0-2.0-1.4","3","4","4","3","3","3","4","3","3","4","4","4","2","3","4","5","4","2","4","4","4","5","4","4","4","5","4","4","5","1","0","0","0","1","1","1","1","0","1","1","0","1","0","1","4","4","5","2","5","2","2","4","5","4","3","777148633652137985","仝","240","","","","","","","","","","","","","","","","","","","true","1","1","ability","462","self","我的","","","","","","","","","","","","","","","","",""
"null","","null","html-keyboard-response","19","145817","0.0-6.0-0.0-2.0-0.5","3","4","4","3","3","3","4","3","3","4","4","4","2","3","4","5","4","2","4","4","4","5","4","4","4","5","4","4","5","1","0","0","0","1","1","1","1","0","1","1","0","1","0","1","4","4","5","2","5","2","2","4","5","4","3","777148633652137985","仝","240","","","","","","","","","","","","","","","","","","","","","","","","","","","","","","","","","","","","","","","","","",""
"646","<p style=""color:rgb(150, 250, 100); font-size: 35px;"">他</p>","i","categorize-html","20","146464","0.0-6.0-0.0-2.0-1.5","3","4","4","3","3","3","4","3","3","4","4","4","2","3","4","5","4","2","4","4","4","5","4","4","4","5","4","4","5","1","0","0","0","1","1","1","1","0","1","1","0","1","0","1","4","4","5","2","5","2","2","4","5","4","3","777148633652137985","仝","240","","","","","","","","","","","","","","","","","","","true","1","1","ability","646","other","他","","","","","","","","","","","","","","","","",""
"null","","null","html-keyboard-response","21","146715","0.0-6.0-0.0-2.0-0.6","3","4","4","3","3","3","4","3","3","4","4","4","2","3","4","5","4","2","4","4","4","5","4","4","4","5","4","4","5","1","0","0","0","1","1","1","1","0","1","1","0","1","0","1","4","4","5","2","5","2","2","4","5","4","3","777148633652137985","仝","240","","","","","","","","","","","","","","","","","","","","","","","","","","","","","","","","","","","","","","","","","",""
"603","<p style=""color:rgb(150, 250, 100); font-size: 35px;"">他人</p>","i","categorize-html","22","147319","0.0-6.0-0.0-2.0-1.6","3","4","4","3","3","3","4","3","3","4","4","4","2","3","4","5","4","2","4","4","4","5","4","4","4","5","4","4","5","1","0","0","0","1","1","1","1","0","1","1","0","1","0","1","4","4","5","2","5","2","2","4","5","4","3","777148633652137985","仝","240","","","","","","","","","","","","","","","","","","","true","1","1","ability","603","other","他人","","","","","","","","","","","","","","","","",""
"null","","null","html-keyboard-response","23","147569","0.0-6.0-0.0-2.0-0.7","3","4","4","3","3","3","4","3","3","4","4","4","2","3","4","5","4","2","4","4","4","5","4","4","4","5","4","4","5","1","0","0","0","1","1","1","1","0","1","1","0","1","0","1","4","4","5","2","5","2","2","4","5","4","3","777148633652137985","仝","240","","","","","","","","","","","","","","","","","","","","","","","","","","","","","","","","","","","","","","","","","",""
"533","<p style=""color:rgb(150, 250, 100); font-size: 35px;"">本人的</p>","e","categorize-html","24","148103","0.0-6.0-0.0-2.0-1.7","3","4","4","3","3","3","4","3","3","4","4","4","2","3","4","5","4","2","4","4","4","5","4","4","4","5","4","4","5","1","0","0","0","1","1","1","1","0","1","1","0","1","0","1","4","4","5","2","5","2","2","4","5","4","3","777148633652137985","仝","240","","","","","","","","","","","","","","","","","","","true","1","1","ability","533","self","本人的","","","","","","","","","","","","","","","","",""
"null","","null","html-keyboard-response","25","148354","0.0-6.0-0.0-2.0-0.8","3","4","4","3","3","3","4","3","3","4","4","4","2","3","4","5","4","2","4","4","4","5","4","4","4","5","4","4","5","1","0","0","0","1","1","1","1","0","1","1","0","1","0","1","4","4","5","2","5","2","2","4","5","4","3","777148633652137985","仝","240","","","","","","","","","","","","","","","","","","","","","","","","","","","","","","","","","","","","","","","","","",""
"781","<p style=""color:rgb(150, 250, 100); font-size: 35px;"">他的</p>","i","categorize-html","26","149137","0.0-6.0-0.0-2.0-1.8","3","4","4","3","3","3","4","3","3","4","4","4","2","3","4","5","4","2","4","4","4","5","4","4","4","5","4","4","5","1","0","0","0","1","1","1","1","0","1","1","0","1","0","1","4","4","5","2","5","2","2","4","5","4","3","777148633652137985","仝","240","","","","","","","","","","","","","","","","","","","true","1","1","ability","781","other","他的","","","","","","","","","","","","","","","","",""
"null","","null","html-keyboard-response","27","149388","0.0-6.0-0.0-2.0-0.9","3","4","4","3","3","3","4","3","3","4","4","4","2","3","4","5","4","2","4","4","4","5","4","4","4","5","4","4","5","1","0","0","0","1","1","1","1","0","1","1","0","1","0","1","4","4","5","2","5","2","2","4","5","4","3","777148633652137985","仝","240","","","","","","","","","","","","","","","","","","","","","","","","","","","","","","","","","","","","","","","","","",""
"549","<p style=""color:rgb(150, 250, 100); font-size: 35px;"">他人的</p>","i","categorize-html","28","149938","0.0-6.0-0.0-2.0-1.9","3","4","4","3","3","3","4","3","3","4","4","4","2","3","4","5","4","2","4","4","4","5","4","4","4","5","4","4","5","1","0","0","0","1","1","1","1","0","1","1","0","1","0","1","4","4","5","2","5","2","2","4","5","4","3","777148633652137985","仝","240","","","","","","","","","","","","","","","","","","","true","1","1","ability","549","other","他人的","","","","","","","","","","","","","","","","",""
"null","","null","html-keyboard-response","29","150189","0.0-6.0-0.0-2.0-0.10","3","4","4","3","3","3","4","3","3","4","4","4","2","3","4","5","4","2","4","4","4","5","4","4","4","5","4","4","5","1","0","0","0","1","1","1","1","0","1","1","0","1","0","1","4","4","5","2","5","2","2","4","5","4","3","777148633652137985","仝","240","","","","","","","","","","","","","","","","","","","","","","","","","","","","","","","","","","","","","","","","","",""
"445","<p style=""color:rgb(150, 250, 100); font-size: 35px;"">本人</p>","e","categorize-html","30","150636","0.0-6.0-0.0-2.0-1.10","3","4","4","3","3","3","4","3","3","4","4","4","2","3","4","5","4","2","4","4","4","5","4","4","4","5","4","4","5","1","0","0","0","1","1","1","1","0","1","1","0","1","0","1","4","4","5","2","5","2","2","4","5","4","3","777148633652137985","仝","240","","","","","","","","","","","","","","","","","","","true","1","1","ability","445","self","本人","","","","","","","","","","","","","","","","",""
"null","","null","html-keyboard-response","31","150886","0.0-6.0-0.0-2.0-0.11","3","4","4","3","3","3","4","3","3","4","4","4","2","3","4","5","4","2","4","4","4","5","4","4","4","5","4","4","5","1","0","0","0","1","1","1","1","0","1","1","0","1","0","1","4","4","5","2","5","2","2","4","5","4","3","777148633652137985","仝","240","","","","","","","","","","","","","","","","","","","","","","","","","","","","","","","","","","","","","","","","","",""
"482","<p style=""color:rgb(150, 250, 100); font-size: 35px;"">自己</p>","e","categorize-html","32","151370","0.0-6.0-0.0-2.0-1.11","3","4","4","3","3","3","4","3","3","4","4","4","2","3","4","5","4","2","4","4","4","5","4","4","4","5","4","4","5","1","0","0","0","1","1","1","1","0","1","1","0","1","0","1","4","4","5","2","5","2","2","4","5","4","3","777148633652137985","仝","240","","","","","","","","","","","","","","","","","","","true","1","1","ability","482","self","自己","","","","","","","","","","","","","","","","",""
"4093","
    <div class=""tag-bottom""><p>
    —— 任务2：对“积极”词和“消极”词分类 ——<p/>   
    <span style=""color:#78DCE8""><b>注意上方，类别标签和需要分类的词语都已经改变</b></span><p/>
    <span style=""color:#FFD866""><b>请根据上方标签的提示，尽可能正确并且快速地做出按键反应</b></span><p/>
    当按键错误时屏幕中会出现<span style=""color:red""> X </span>，需要按另一个键纠正才能继续<br/><p/>
    请把双手食指分别放在键盘的“E”键和“I”键上<p/>
    按<空格键>开始
    </p></div>"," ","html-keyboard-response","33","155464","0.0-6.0-0.0-3.0","3","4","4","3","3","3","4","3","3","4","4","4","2","3","4","5","4","2","4","4","4","5","4","4","4","5","4","4","5","1","0","0","0","1","1","1","1","0","1","1","0","1","0","1","4","4","5","2","5","2","2","4","5","4","3","777148633652137985","仝","240","","","","","","","","","","","","","","","","","","","","","","","","","","","","","","","","","","","","","","","","","",""
"null","","null","html-keyboard-response","34","155715","0.0-6.0-0.0-4.0-0.0","3","4","4","3","3","3","4","3","3","4","4","4","2","3","4","5","4","2","4","4","4","5","4","4","4","5","4","4","5","1","0","0","0","1","1","1","1","0","1","1","0","1","0","1","4","4","5","2","5","2","2","4","5","4","3","777148633652137985","仝","240","","","","","","","","","","","","","","","","","","","","","","","","","","","","","","","","","","","","","","","","","",""
"713","<p style=""color:white; font-size: 35px;"">能干</p>","e","categorize-html","35","156430","0.0-6.0-0.0-4.0-1.0","3","4","4","3","3","3","4","3","3","4","4","4","2","3","4","5","4","2","4","4","4","5","4","4","4","5","4","4","5","1","0","0","0","1","1","1","1","0","1","1","0","1","0","1","4","4","5","2","5","2","2","4","5","4","3","777148633652137985","仝","240","","","","","","","","","","","","","","","","","","","true","2","2","ability","713","positive","能干","","","","","","","","","","","","","","","","",""
"null","","null","html-keyboard-response","36","156682","0.0-6.0-0.0-4.0-0.1","3","4","4","3","3","3","4","3","3","4","4","4","2","3","4","5","4","2","4","4","4","5","4","4","4","5","4","4","5","1","0","0","0","1","1","1","1","0","1","1","0","1","0","1","4","4","5","2","5","2","2","4","5","4","3","777148633652137985","仝","240","","","","","","","","","","","","","","","","","","","","","","","","","","","","","","","","","","","","","","","","","",""
"590","<p style=""color:white; font-size: 35px;"">无能</p>","i","categorize-html","37","157273","0.0-6.0-0.0-4.0-1.1","3","4","4","3","3","3","4","3","3","4","4","4","2","3","4","5","4","2","4","4","4","5","4","4","4","5","4","4","5","1","0","0","0","1","1","1","1","0","1","1","0","1","0","1","4","4","5","2","5","2","2","4","5","4","3","777148633652137985","仝","240","","","","","","","","","","","","","","","","","","","true","2","2","ability","590","negative","无能","","","","","","","","","","","","","","","","",""
"null","","null","html-keyboard-response","38","157523","0.0-6.0-0.0-4.0-0.2","3","4","4","3","3","3","4","3","3","4","4","4","2","3","4","5","4","2","4","4","4","5","4","4","4","5","4","4","5","1","0","0","0","1","1","1","1","0","1","1","0","1","0","1","4","4","5","2","5","2","2","4","5","4","3","777148633652137985","仝","240","","","","","","","","","","","","","","","","","","","","","","","","","","","","","","","","","","","","","","","","","",""
"516","<p style=""color:white; font-size: 35px;"">精干</p>","e","categorize-html","39","158041","0.0-6.0-0.0-4.0-1.2","3","4","4","3","3","3","4","3","3","4","4","4","2","3","4","5","4","2","4","4","4","5","4","4","4","5","4","4","5","1","0","0","0","1","1","1","1","0","1","1","0","1","0","1","4","4","5","2","5","2","2","4","5","4","3","777148633652137985","仝","240","","","","","","","","","","","","","","","","","","","true","2","2","ability","516","positive","精干","","","","","","","","","","","","","","","","",""
"null","","null","html-keyboard-response","40","158293","0.0-6.0-0.0-4.0-0.3","3","4","4","3","3","3","4","3","3","4","4","4","2","3","4","5","4","2","4","4","4","5","4","4","4","5","4","4","5","1","0","0","0","1","1","1","1","0","1","1","0","1","0","1","4","4","5","2","5","2","2","4","5","4","3","777148633652137985","仝","240","","","","","","","","","","","","","","","","","","","","","","","","","","","","","","","","","","","","","","","","","",""
"492","<p style=""color:white; font-size: 35px;"">低能</p>","i","categorize-html","41","158786","0.0-6.0-0.0-4.0-1.3","3","4","4","3","3","3","4","3","3","4","4","4","2","3","4","5","4","2","4","4","4","5","4","4","4","5","4","4","5","1","0","0","0","1","1","1","1","0","1","1","0","1","0","1","4","4","5","2","5","2","2","4","5","4","3","777148633652137985","仝","240","","","","","","","","","","","","","","","","","","","true","2","2","ability","492","negative","低能","","","","","","","","","","","","","","","","",""
"null","","null","html-keyboard-response","42","159037","0.0-6.0-0.0-4.0-0.4","3","4","4","3","3","3","4","3","3","4","4","4","2","3","4","5","4","2","4","4","4","5","4","4","4","5","4","4","5","1","0","0","0","1","1","1","1","0","1","1","0","1","0","1","4","4","5","2","5","2","2","4","5","4","3","777148633652137985","仝","240","","","","","","","","","","","","","","","","","","","","","","","","","","","","","","","","","","","","","","","","","",""
"629","<p style=""color:white; font-size: 35px;"">愚钝</p>","i","categorize-html","43","159667","0.0-6.0-0.0-4.0-1.4","3","4","4","3","3","3","4","3","3","4","4","4","2","3","4","5","4","2","4","4","4","5","4","4","4","5","4","4","5","1","0","0","0","1","1","1","1","0","1","1","0","1","0","1","4","4","5","2","5","2","2","4","5","4","3","777148633652137985","仝","240","","","","","","","","","","","","","","","","","","","true","2","2","ability","629","negative","愚钝","","","","","","","","","","","","","","","","",""
"null","","null","html-keyboard-response","44","159918","0.0-6.0-0.0-4.0-0.5","3","4","4","3","3","3","4","3","3","4","4","4","2","3","4","5","4","2","4","4","4","5","4","4","4","5","4","4","5","1","0","0","0","1","1","1","1","0","1","1","0","1","0","1","4","4","5","2","5","2","2","4","5","4","3","777148633652137985","仝","240","","","","","","","","","","","","","","","","","","","","","","","","","","","","","","","","","","","","","","","","","",""
"528","<p style=""color:white; font-size: 35px;"">全能</p>","e","categorize-html","45","160447","0.0-6.0-0.0-4.0-1.5","3","4","4","3","3","3","4","3","3","4","4","4","2","3","4","5","4","2","4","4","4","5","4","4","4","5","4","4","5","1","0","0","0","1","1","1","1","0","1","1","0","1","0","1","4","4","5","2","5","2","2","4","5","4","3","777148633652137985","仝","240","","","","","","","","","","","","","","","","","","","true","2","2","ability","528","positive","全能","","","","","","","","","","","","","","","","",""
"null","","null","html-keyboard-response","46","160698","0.0-6.0-0.0-4.0-0.6","3","4","4","3","3","3","4","3","3","4","4","4","2","3","4","5","4","2","4","4","4","5","4","4","4","5","4","4","5","1","0","0","0","1","1","1","1","0","1","1","0","1","0","1","4","4","5","2","5","2","2","4","5","4","3","777148633652137985","仝","240","","","","","","","","","","","","","","","","","","","","","","","","","","","","","","","","","","","","","","","","","",""
"514","<p style=""color:white; font-size: 35px;"">天才</p>","e","categorize-html","47","161213","0.0-6.0-0.0-4.0-1.6","3","4","4","3","3","3","4","3","3","4","4","4","2","3","4","5","4","2","4","4","4","5","4","4","4","5","4","4","5","1","0","0","0","1","1","1","1","0","1","1","0","1","0","1","4","4","5","2","5","2","2","4","5","4","3","777148633652137985","仝","240","","","","","","","","","","","","","","","","","","","true","2","2","ability","514","positive","天才","","","","","","","","","","","","","","","","",""
"null","","null","html-keyboard-response","48","161463","0.0-6.0-0.0-4.0-0.7","3","4","4","3","3","3","4","3","3","4","4","4","2","3","4","5","4","2","4","4","4","5","4","4","4","5","4","4","5","1","0","0","0","1","1","1","1","0","1","1","0","1","0","1","4","4","5","2","5","2","2","4","5","4","3","777148633652137985","仝","240","","","","","","","","","","","","","","","","","","","","","","","","","","","","","","","","","","","","","","","","","",""
"557","<p style=""color:white; font-size: 35px;"">拙笨</p>","i","categorize-html","49","162021","0.0-6.0-0.0-4.0-1.7","3","4","4","3","3","3","4","3","3","4","4","4","2","3","4","5","4","2","4","4","4","5","4","4","4","5","4","4","5","1","0","0","0","1","1","1","1","0","1","1","0","1","0","1","4","4","5","2","5","2","2","4","5","4","3","777148633652137985","仝","240","","","","","","","","","","","","","","","","","","","true","2","2","ability","557","negative","拙笨","","","","","","","","","","","","","","","","",""
"null","","null","html-keyboard-response","50","162273","0.0-6.0-0.0-4.0-0.8","3","4","4","3","3","3","4","3","3","4","4","4","2","3","4","5","4","2","4","4","4","5","4","4","4","5","4","4","5","1","0","0","0","1","1","1","1","0","1","1","0","1","0","1","4","4","5","2","5","2","2","4","5","4","3","777148633652137985","仝","240","","","","","","","","","","","","","","","","","","","","","","","","","","","","","","","","","","","","","","","","","",""
"642","<p style=""color:white; font-size: 35px;"">废物</p>","i","categorize-html","51","162917","0.0-6.0-0.0-4.0-1.8","3","4","4","3","3","3","4","3","3","4","4","4","2","3","4","5","4","2","4","4","4","5","4","4","4","5","4","4","5","1","0","0","0","1","1","1","1","0","1","1","0","1","0","1","4","4","5","2","5","2","2","4","5","4","3","777148633652137985","仝","240","","","","","","","","","","","","","","","","","","","true","2","2","ability","642","negative","废物","","","","","","","","","","","","","","","","",""
"null","","null","html-keyboard-response","52","163168","0.0-6.0-0.0-4.0-0.9","3","4","4","3","3","3","4","3","3","4","4","4","2","3","4","5","4","2","4","4","4","5","4","4","4","5","4","4","5","1","0","0","0","1","1","1","1","0","1","1","0","1","0","1","4","4","5","2","5","2","2","4","5","4","3","777148633652137985","仝","240","","","","","","","","","","","","","","","","","","","","","","","","","","","","","","","","","","","","","","","","","",""
"527","<p style=""color:white; font-size: 35px;"">蠢笨</p>","i","categorize-html","53","163697","0.0-6.0-0.0-4.0-1.9","3","4","4","3","3","3","4","3","3","4","4","4","2","3","4","5","4","2","4","4","4","5","4","4","4","5","4","4","5","1","0","0","0","1","1","1","1","0","1","1","0","1","0","1","4","4","5","2","5","2","2","4","5","4","3","777148633652137985","仝","240","","","","","","","","","","","","","","","","","","","true","2","2","ability","527","negative","蠢笨","","","","","","","","","","","","","","","","",""
"null","","null","html-keyboard-response","54","163948","0.0-6.0-0.0-4.0-0.10","3","4","4","3","3","3","4","3","3","4","4","4","2","3","4","5","4","2","4","4","4","5","4","4","4","5","4","4","5","1","0","0","0","1","1","1","1","0","1","1","0","1","0","1","4","4","5","2","5","2","2","4","5","4","3","777148633652137985","仝","240","","","","","","","","","","","","","","","","","","","","","","","","","","","","","","","","","","","","","","","","","",""
"501","<p style=""color:white; font-size: 35px;"">高效</p>","e","categorize-html","55","164451","0.0-6.0-0.0-4.0-1.10","3","4","4","3","3","3","4","3","3","4","4","4","2","3","4","5","4","2","4","4","4","5","4","4","4","5","4","4","5","1","0","0","0","1","1","1","1","0","1","1","0","1","0","1","4","4","5","2","5","2","2","4","5","4","3","777148633652137985","仝","240","","","","","","","","","","","","","","","","","","","true","2","2","ability","501","positive","高效","","","","","","","","","","","","","","","","",""
"null","","null","html-keyboard-response","56","164701","0.0-6.0-0.0-4.0-0.11","3","4","4","3","3","3","4","3","3","4","4","4","2","3","4","5","4","2","4","4","4","5","4","4","4","5","4","4","5","1","0","0","0","1","1","1","1","0","1","1","0","1","0","1","4","4","5","2","5","2","2","4","5","4","3","777148633652137985","仝","240","","","","","","","","","","","","","","","","","","","","","","","","","","","","","","","","","","","","","","","","","",""
"488","<p style=""color:white; font-size: 35px;"">全才</p>","e","categorize-html","57","165190","0.0-6.0-0.0-4.0-1.11","3","4","4","3","3","3","4","3","3","4","4","4","2","3","4","5","4","2","4","4","4","5","4","4","4","5","4","4","5","1","0","0","0","1","1","1","1","0","1","1","0","1","0","1","4","4","5","2","5","2","2","4","5","4","3","777148633652137985","仝","240","","","","","","","","","","","","","","","","","","","true","2","2","ability","488","positive","全才","","","","","","","","","","","","","","","","",""
"4423","
    <div class=""tag-bottom""><p>
    —— 任务3：对“自我/积极”词和“他人/消极”词分类 ——<p/>
    <span style=""color:#78DCE8""><b>注意上方，之前的四类词语将混合在一起交替呈现</b></span><p/>
    <span style=""color:#FFD866""><b>请根据上方标签的提示，尽可能正确并且快速地做出按键反应</b></span><p/>
    当按键错误时屏幕中会出现<span style=""color:red""> X </span>，需要按另一个键纠正才能继续<br/><p/>
    请把双手食指分别放在键盘的“E”键和“I”键上<p/>
    按<空格键>开始
    </p></div>"," ","html-keyboard-response","58","169613","0.0-6.0-0.0-5.0","3","4","4","3","3","3","4","3","3","4","4","4","2","3","4","5","4","2","4","4","4","5","4","4","4","5","4","4","5","1","0","0","0","1","1","1","1","0","1","1","0","1","0","1","4","4","5","2","5","2","2","4","5","4","3","777148633652137985","仝","240","","","","","","","","","","","","","","","","","","","","","","","","","","","","","","","","","","","","","","","","","",""
"null","","null","html-keyboard-response","59","169864","0.0-6.0-0.0-6.0-0.0","3","4","4","3","3","3","4","3","3","4","4","4","2","3","4","5","4","2","4","4","4","5","4","4","4","5","4","4","5","1","0","0","0","1","1","1","1","0","1","1","0","1","0","1","4","4","5","2","5","2","2","4","5","4","3","777148633652137985","仝","240","","","","","","","","","","","","","","","","","","","","","","","","","","","","","","","","","","","","","","","","","",""
"534","<p style=""color:rgb(150, 250, 100); font-size: 35px;"">我</p>","e","categorize-html","60","170400","0.0-6.0-0.0-6.0-1.0","3","4","4","3","3","3","4","3","3","4","4","4","2","3","4","5","4","2","4","4","4","5","4","4","4","5","4","4","5","1","0","0","0","1","1","1","1","0","1","1","0","1","0","1","4","4","5","2","5","2","2","4","5","4","3","777148633652137985","仝","240","","","","","","","","","","","","","","","","","","","true","3","3","ability","534","self","我","","","","","","","","","","","","","","","","",""
"null","","null","html-keyboard-response","61","170651","0.0-6.0-0.0-6.0-0.1","3","4","4","3","3","3","4","3","3","4","4","4","2","3","4","5","4","2","4","4","4","5","4","4","4","5","4","4","5","1","0","0","0","1","1","1","1","0","1","1","0","1","0","1","4","4","5","2","5","2","2","4","5","4","3","777148633652137985","仝","240","","","","","","","","","","","","","","","","","","","","","","","","","","","","","","","","","","","","","","","","","",""
"546","<p style=""color:white; font-size: 35px;"">拙笨</p>","i","categorize-html","62","171199","0.0-6.0-0.0-6.0-1.1","3","4","4","3","3","3","4","3","3","4","4","4","2","3","4","5","4","2","4","4","4","5","4","4","4","5","4","4","5","1","0","0","0","1","1","1","1","0","1","1","0","1","0","1","4","4","5","2","5","2","2","4","5","4","3","777148633652137985","仝","240","","","","","","","","","","","","","","","","","","","true","3","3","ability","546","negative","拙笨","","","","","","","","","","","","","","","","",""
"null","","null","html-keyboard-response","63","171449","0.0-6.0-0.0-6.0-0.2","3","4","4","3","3","3","4","3","3","4","4","4","2","3","4","5","4","2","4","4","4","5","4","4","4","5","4","4","5","1","0","0","0","1","1","1","1","0","1","1","0","1","0","1","4","4","5","2","5","2","2","4","5","4","3","777148633652137985","仝","240","","","","","","","","","","","","","","","","","","","","","","","","","","","","","","","","","","","","","","","","","",""
"750","<p style=""color:rgb(150, 250, 100); font-size: 35px;"">别人</p>","i","categorize-html","64","172201","0.0-6.0-0.0-6.0-1.2","3","4","4","3","3","3","4","3","3","4","4","4","2","3","4","5","4","2","4","4","4","5","4","4","4","5","4","4","5","1","0","0","0","1","1","1","1","0","1","1","0","1","0","1","4","4","5","2","5","2","2","4","5","4","3","777148633652137985","仝","240","","","","","","","","","","","","","","","","","","","true","3","3","ability","750","other","别人","","","","","","","","","","","","","","","","",""
"null","","null","html-keyboard-response","65","172452","0.0-6.0-0.0-6.0-0.3","3","4","4","3","3","3","4","3","3","4","4","4","2","3","4","5","4","2","4","4","4","5","4","4","4","5","4","4","5","1","0","0","0","1","1","1","1","0","1","1","0","1","0","1","4","4","5","2","5","2","2","4","5","4","3","777148633652137985","仝","240","","","","","","","","","","","","","","","","","","","","","","","","","","","","","","","","","","","","","","","","","",""
"521","<p style=""color:white; font-size: 35px;"">天才</p>","e","categorize-html","66","172974","0.0-6.0-0.0-6.0-1.3","3","4","4","3","3","3","4","3","3","4","4","4","2","3","4","5","4","2","4","4","4","5","4","4","4","5","4","4","5","1","0","0","0","1","1","1","1","0","1","1","0","1","0","1","4","4","5","2","5","2","2","4","5","4","3","777148633652137985","仝","240","","","","","","","","","","","","","","","","","","","true","3","3","ability","521","positive","天才","","","","","","","","","","","","","","","","",""
"null","","null","html-keyboard-response","67","173225","0.0-6.0-0.0-6.0-0.4","3","4","4","3","3","3","4","3","3","4","4","4","2","3","4","5","4","2","4","4","4","5","4","4","4","5","4","4","5","1","0","0","0","1","1","1","1","0","1","1","0","1","0","1","4","4","5","2","5","2","2","4","5","4","3","777148633652137985","仝","240","","","","","","","","","","","","","","","","","","","","","","","","","","","","","","","","","","","","","","","","","",""
"766","<p style=""color:rgb(150, 250, 100); font-size: 35px;"">他的</p>","i","categorize-html","68","173995","0.0-6.0-0.0-6.0-1.4","3","4","4","3","3","3","4","3","3","4","4","4","2","3","4","5","4","2","4","4","4","5","4","4","4","5","4","4","5","1","0","0","0","1","1","1","1","0","1","1","0","1","0","1","4","4","5","2","5","2","2","4","5","4","3","777148633652137985","仝","240","","","","","","","","","","","","","","","","","","","true","3","3","ability","766","other","他的","","","","","","","","","","","","","","","","",""
"null","","null","html-keyboard-response","69","174248","0.0-6.0-0.0-6.0-0.5","3","4","4","3","3","3","4","3","3","4","4","4","2","3","4","5","4","2","4","4","4","5","4","4","4","5","4","4","5","1","0","0","0","1","1","1","1","0","1","1","0","1","0","1","4","4","5","2","5","2","2","4","5","4","3","777148633652137985","仝","240","","","","","","","","","","","","","","","","","","","","","","","","","","","","","","","","","","","","","","","","","",""
"769","<p style=""color:white; font-size: 35px;"">精干</p>","e","categorize-html","70","175019","0.0-6.0-0.0-6.0-1.5","3","4","4","3","3","3","4","3","3","4","4","4","2","3","4","5","4","2","4","4","4","5","4","4","4","5","4","4","5","1","0","0","0","1","1","1","1","0","1","1","0","1","0","1","4","4","5","2","5","2","2","4","5","4","3","777148633652137985","仝","240","","","","","","","","","","","","","","","","","","","true","3","3","ability","769","positive","精干","","","","","","","","","","","","","","","","",""
"null","","null","html-keyboard-response","71","175269","0.0-6.0-0.0-6.0-0.6","3","4","4","3","3","3","4","3","3","4","4","4","2","3","4","5","4","2","4","4","4","5","4","4","4","5","4","4","5","1","0","0","0","1","1","1","1","0","1","1","0","1","0","1","4","4","5","2","5","2","2","4","5","4","3","777148633652137985","仝","240","","","","","","","","","","","","","","","","","","","","","","","","","","","","","","","","","","","","","","","","","",""
"634","<p style=""color:rgb(150, 250, 100); font-size: 35px;"">本人</p>","e","categorize-html","72","175904","0.0-6.0-0.0-6.0-1.6","3","4","4","3","3","3","4","3","3","4","4","4","2","3","4","5","4","2","4","4","4","5","4","4","4","5","4","4","5","1","0","0","0","1","1","1","1","0","1","1","0","1","0","1","4","4","5","2","5","2","2","4","5","4","3","777148633652137985","仝","240","","","","","","","","","","","","","","","","","","","true","3","3","ability","634","self","本人","","","","","","","","","","","","","","","","",""
"null","","null","html-keyboard-response","73","176156","0.0-6.0-0.0-6.0-0.7","3","4","4","3","3","3","4","3","3","4","4","4","2","3","4","5","4","2","4","4","4","5","4","4","4","5","4","4","5","1","0","0","0","1","1","1","1","0","1","1","0","1","0","1","4","4","5","2","5","2","2","4","5","4","3","777148633652137985","仝","240","","","","","","","","","","","","","","","","","","","","","","","","","","","","","","","","","","","","","","","","","",""
"601","<p style=""color:white; font-size: 35px;"">无能</p>","i","categorize-html","74","176758","0.0-6.0-0.0-6.0-1.7","3","4","4","3","3","3","4","3","3","4","4","4","2","3","4","5","4","2","4","4","4","5","4","4","4","5","4","4","5","1","0","0","0","1","1","1","1","0","1","1","0","1","0","1","4","4","5","2","5","2","2","4","5","4","3","777148633652137985","仝","240","","","","","","","","","","","","","","","","","","","true","3","3","ability","601","negative","无能","","","","","","","","","","","","","","","","",""
"null","","null","html-keyboard-response","75","177010","0.0-6.0-0.0-6.0-0.8","3","4","4","3","3","3","4","3","3","4","4","4","2","3","4","5","4","2","4","4","4","5","4","4","4","5","4","4","5","1","0","0","0","1","1","1","1","0","1","1","0","1","0","1","4","4","5","2","5","2","2","4","5","4","3","777148633652137985","仝","240","","","","","","","","","","","","","","","","","","","","","","","","","","","","","","","","","","","","","","","","","",""
"1090","<p style=""color:rgb(150, 250, 100); font-size: 35px;"">他人</p>","i","categorize-html","76","178101","0.0-6.0-0.0-6.0-1.8","3","4","4","3","3","3","4","3","3","4","4","4","2","3","4","5","4","2","4","4","4","5","4","4","4","5","4","4","5","1","0","0","0","1","1","1","1","0","1","1","0","1","0","1","4","4","5","2","5","2","2","4","5","4","3","777148633652137985","仝","240","","","","","","","","","","","","","","","","","","","true","3","3","ability","1090","other","他人","","","","","","","","","","","","","","","","",""
"null","","null","html-keyboard-response","77","178353","0.0-6.0-0.0-6.0-0.9","3","4","4","3","3","3","4","3","3","4","4","4","2","3","4","5","4","2","4","4","4","5","4","4","4","5","4","4","5","1","0","0","0","1","1","1","1","0","1","1","0","1","0","1","4","4","5","2","5","2","2","4","5","4","3","777148633652137985","仝","240","","","","","","","","","","","","","","","","","","","","","","","","","","","","","","","","","","","","","","","","","",""
"683","<p style=""color:white; font-size: 35px;"">愚钝</p>","i","categorize-html","78","179037","0.0-6.0-0.0-6.0-1.9","3","4","4","3","3","3","4","3","3","4","4","4","2","3","4","5","4","2","4","4","4","5","4","4","4","5","4","4","5","1","0","0","0","1","1","1","1","0","1","1","0","1","0","1","4","4","5","2","5","2","2","4","5","4","3","777148633652137985","仝","240","","","","","","","","","","","","","","","","","","","true","3","3","ability","683","negative","愚钝","","","","","","","","","","","","","","","","",""
"null","","null","html-keyboard-response","79","179288","0.0-6.0-0.0-6.0-0.10","3","4","4","3","3","3","4","3","3","4","4","4","2","3","4","5","4","2","4","4","4","5","4","4","4","5","4","4","5","1","0","0","0","1","1","1","1","0","1","1","0","1","0","1","4","4","5","2","5","2","2","4","5","4","3","777148633652137985","仝","240","","","","","","","","","","","","","","","","","","","","","","","","","","","","","","","","","","","","","","","","","",""
"596","<p style=""color:rgb(150, 250, 100); font-size: 35px;"">本人的</p>","e","categorize-html","80","179885","0.0-6.0-0.0-6.0-1.10","3","4","4","3","3","3","4","3","3","4","4","4","2","3","4","5","4","2","4","4","4","5","4","4","4","5","4","4","5","1","0","0","0","1","1","1","1","0","1","1","0","1","0","1","4","4","5","2","5","2","2","4","5","4","3","777148633652137985","仝","240","","","","","","","","","","","","","","","","","","","true","3","3","ability","596","self","本人的","","","","","","","","","","","","","","","","",""
"null","","null","html-keyboard-response","81","180137","0.0-6.0-0.0-6.0-0.11","3","4","4","3","3","3","4","3","3","4","4","4","2","3","4","5","4","2","4","4","4","5","4","4","4","5","4","4","5","1","0","0","0","1","1","1","1","0","1","1","0","1","0","1","4","4","5","2","5","2","2","4","5","4","3","777148633652137985","仝","240","","","","","","","","","","","","","","","","","","","","","","","","","","","","","","","","","","","","","","","","","",""
"587","<p style=""color:white; font-size: 35px;"">全才</p>","e","categorize-html","82","180725","0.0-6.0-0.0-6.0-1.11","3","4","4","3","3","3","4","3","3","4","4","4","2","3","4","5","4","2","4","4","4","5","4","4","4","5","4","4","5","1","0","0","0","1","1","1","1","0","1","1","0","1","0","1","4","4","5","2","5","2","2","4","5","4","3","777148633652137985","仝","240","","","","","","","","","","","","","","","","","","","true","3","3","ability","587","positive","全才","","","","","","","","","","","","","","","","",""
"null","","null","html-keyboard-response","83","180976","0.0-6.0-0.0-6.0-0.12","3","4","4","3","3","3","4","3","3","4","4","4","2","3","4","5","4","2","4","4","4","5","4","4","4","5","4","4","5","1","0","0","0","1","1","1","1","0","1","1","0","1","0","1","4","4","5","2","5","2","2","4","5","4","3","777148633652137985","仝","240","","","","","","","","","","","","","","","","","","","","","","","","","","","","","","","","","","","","","","","","","",""
"526","<p style=""color:rgb(150, 250, 100); font-size: 35px;"">别人的</p>","i","categorize-html","84","181504","0.0-6.0-0.0-6.0-1.12","3","4","4","3","3","3","4","3","3","4","4","4","2","3","4","5","4","2","4","4","4","5","4","4","4","5","4","4","5","1","0","0","0","1","1","1","1","0","1","1","0","1","0","1","4","4","5","2","5","2","2","4","5","4","3","777148633652137985","仝","240","","","","","","","","","","","","","","","","","","","true","3","3","ability","526","other","别人的","","","","","","","","","","","","","","","","",""
"null","","null","html-keyboard-response","85","181755","0.0-6.0-0.0-6.0-0.13","3","4","4","3","3","3","4","3","3","4","4","4","2","3","4","5","4","2","4","4","4","5","4","4","4","5","4","4","5","1","0","0","0","1","1","1","1","0","1","1","0","1","0","1","4","4","5","2","5","2","2","4","5","4","3","777148633652137985","仝","240","","","","","","","","","","","","","","","","","","","","","","","","","","","","","","","","","","","","","","","","","",""
"544","<p style=""color:white; font-size: 35px;"">低能</p>","i","categorize-html","86","182300","0.0-6.0-0.0-6.0-1.13","3","4","4","3","3","3","4","3","3","4","4","4","2","3","4","5","4","2","4","4","4","5","4","4","4","5","4","4","5","1","0","0","0","1","1","1","1","0","1","1","0","1","0","1","4","4","5","2","5","2","2","4","5","4","3","777148633652137985","仝","240","","","","","","","","","","","","","","","","","","","true","3","3","ability","544","negative","低能","","","","","","","","","","","","","","","","",""
"null","","null","html-keyboard-response","87","182551","0.0-6.0-0.0-6.0-0.14","3","4","4","3","3","3","4","3","3","4","4","4","2","3","4","5","4","2","4","4","4","5","4","4","4","5","4","4","5","1","0","0","0","1","1","1","1","0","1","1","0","1","0","1","4","4","5","2","5","2","2","4","5","4","3","777148633652137985","仝","240","","","","","","","","","","","","","","","","","","","","","","","","","","","","","","","","","","","","","","","","","",""
"830","<p style=""color:rgb(150, 250, 100); font-size: 35px;"">我的</p>","e","categorize-html","88","183382","0.0-6.0-0.0-6.0-1.14","3","4","4","3","3","3","4","3","3","4","4","4","2","3","4","5","4","2","4","4","4","5","4","4","4","5","4","4","5","1","0","0","0","1","1","1","1","0","1","1","0","1","0","1","4","4","5","2","5","2","2","4","5","4","3","777148633652137985","仝","240","","","","","","","","","","","","","","","","","","","true","3","3","ability","830","self","我的","","","","","","","","","","","","","","","","",""
"null","","null","html-keyboard-response","89","183632","0.0-6.0-0.0-6.0-0.15","3","4","4","3","3","3","4","3","3","4","4","4","2","3","4","5","4","2","4","4","4","5","4","4","4","5","4","4","5","1","0","0","0","1","1","1","1","0","1","1","0","1","0","1","4","4","5","2","5","2","2","4","5","4","3","777148633652137985","仝","240","","","","","","","","","","","","","","","","","","","","","","","","","","","","","","","","","","","","","","","","","",""
"697","<p style=""color:white; font-size: 35px;"">高效</p>","e","categorize-html","90","184331","0.0-6.0-0.0-6.0-1.15","3","4","4","3","3","3","4","3","3","4","4","4","2","3","4","5","4","2","4","4","4","5","4","4","4","5","4","4","5","1","0","0","0","1","1","1","1","0","1","1","0","1","0","1","4","4","5","2","5","2","2","4","5","4","3","777148633652137985","仝","240","","","","","","","","","","","","","","","","","","","true","3","3","ability","697","positive","高效","","","","","","","","","","","","","","","","",""
"null","","null","html-keyboard-response","91","184581","0.0-6.0-0.0-6.0-0.16","3","4","4","3","3","3","4","3","3","4","4","4","2","3","4","5","4","2","4","4","4","5","4","4","4","5","4","4","5","1","0","0","0","1","1","1","1","0","1","1","0","1","0","1","4","4","5","2","5","2","2","4","5","4","3","777148633652137985","仝","240","","","","","","","","","","","","","","","","","","","","","","","","","","","","","","","","","","","","","","","","","",""
"460","<p style=""color:rgb(150, 250, 100); font-size: 35px;"">他人的</p>","i","categorize-html","92","185045","0.0-6.0-0.0-6.0-1.16","3","4","4","3","3","3","4","3","3","4","4","4","2","3","4","5","4","2","4","4","4","5","4","4","4","5","4","4","5","1","0","0","0","1","1","1","1","0","1","1","0","1","0","1","4","4","5","2","5","2","2","4","5","4","3","777148633652137985","仝","240","","","","","","","","","","","","","","","","","","","true","3","3","ability","460","other","他人的","","","","","","","","","","","","","","","","",""
"null","","null","html-keyboard-response","93","185296","0.0-6.0-0.0-6.0-0.17","3","4","4","3","3","3","4","3","3","4","4","4","2","3","4","5","4","2","4","4","4","5","4","4","4","5","4","4","5","1","0","0","0","1","1","1","1","0","1","1","0","1","0","1","4","4","5","2","5","2","2","4","5","4","3","777148633652137985","仝","240","","","","","","","","","","","","","","","","","","","","","","","","","","","","","","","","","","","","","","","","","",""
"507","<p style=""color:white; font-size: 35px;"">废物</p>","i","categorize-html","94","185805","0.0-6.0-0.0-6.0-1.17","3","4","4","3","3","3","4","3","3","4","4","4","2","3","4","5","4","2","4","4","4","5","4","4","4","5","4","4","5","1","0","0","0","1","1","1","1","0","1","1","0","1","0","1","4","4","5","2","5","2","2","4","5","4","3","777148633652137985","仝","240","","","","","","","","","","","","","","","","","","","true","3","3","ability","507","negative","废物","","","","","","","","","","","","","","","","",""
"null","","null","html-keyboard-response","95","186055","0.0-6.0-0.0-6.0-0.18","3","4","4","3","3","3","4","3","3","4","4","4","2","3","4","5","4","2","4","4","4","5","4","4","4","5","4","4","5","1","0","0","0","1","1","1","1","0","1","1","0","1","0","1","4","4","5","2","5","2","2","4","5","4","3","777148633652137985","仝","240","","","","","","","","","","","","","","","","","","","","","","","","","","","","","","","","","","","","","","","","","",""
"504","<p style=""color:rgb(150, 250, 100); font-size: 35px;"">自己的</p>","e","categorize-html","96","186562","0.0-6.0-0.0-6.0-1.18","3","4","4","3","3","3","4","3","3","4","4","4","2","3","4","5","4","2","4","4","4","5","4","4","4","5","4","4","5","1","0","0","0","1","1","1","1","0","1","1","0","1","0","1","4","4","5","2","5","2","2","4","5","4","3","777148633652137985","仝","240","","","","","","","","","","","","","","","","","","","true","3","3","ability","504","self","自己的","","","","","","","","","","","","","","","","",""
"null","","null","html-keyboard-response","97","186814","0.0-6.0-0.0-6.0-0.19","3","4","4","3","3","3","4","3","3","4","4","4","2","3","4","5","4","2","4","4","4","5","4","4","4","5","4","4","5","1","0","0","0","1","1","1","1","0","1","1","0","1","0","1","4","4","5","2","5","2","2","4","5","4","3","777148633652137985","仝","240","","","","","","","","","","","","","","","","","","","","","","","","","","","","","","","","","","","","","","","","","",""
"439","<p style=""color:white; font-size: 35px;"">全能</p>","e","categorize-html","98","187254","0.0-6.0-0.0-6.0-1.19","3","4","4","3","3","3","4","3","3","4","4","4","2","3","4","5","4","2","4","4","4","5","4","4","4","5","4","4","5","1","0","0","0","1","1","1","1","0","1","1","0","1","0","1","4","4","5","2","5","2","2","4","5","4","3","777148633652137985","仝","240","","","","","","","","","","","","","","","","","","","true","3","3","ability","439","positive","全能","","","","","","","","","","","","","","","","",""
"null","","null","html-keyboard-response","99","187504","0.0-6.0-0.0-6.0-0.20","3","4","4","3","3","3","4","3","3","4","4","4","2","3","4","5","4","2","4","4","4","5","4","4","4","5","4","4","5","1","0","0","0","1","1","1","1","0","1","1","0","1","0","1","4","4","5","2","5","2","2","4","5","4","3","777148633652137985","仝","240","","","","","","","","","","","","","","","","","","","","","","","","","","","","","","","","","","","","","","","","","",""
"438","<p style=""color:rgb(150, 250, 100); font-size: 35px;"">自己</p>","e","categorize-html","100","187943","0.0-6.0-0.0-6.0-1.20","3","4","4","3","3","3","4","3","3","4","4","4","2","3","4","5","4","2","4","4","4","5","4","4","4","5","4","4","5","1","0","0","0","1","1","1","1","0","1","1","0","1","0","1","4","4","5","2","5","2","2","4","5","4","3","777148633652137985","仝","240","","","","","","","","","","","","","","","","","","","true","3","3","ability","438","self","自己","","","","","","","","","","","","","","","","",""
"null","","null","html-keyboard-response","101","188194","0.0-6.0-0.0-6.0-0.21","3","4","4","3","3","3","4","3","3","4","4","4","2","3","4","5","4","2","4","4","4","5","4","4","4","5","4","4","5","1","0","0","0","1","1","1","1","0","1","1","0","1","0","1","4","4","5","2","5","2","2","4","5","4","3","777148633652137985","仝","240","","","","","","","","","","","","","","","","","","","","","","","","","","","","","","","","","","","","","","","","","",""
"467","<p style=""color:white; font-size: 35px;"">能干</p>","e","categorize-html","102","188662","0.0-6.0-0.0-6.0-1.21","3","4","4","3","3","3","4","3","3","4","4","4","2","3","4","5","4","2","4","4","4","5","4","4","4","5","4","4","5","1","0","0","0","1","1","1","1","0","1","1","0","1","0","1","4","4","5","2","5","2","2","4","5","4","3","777148633652137985","仝","240","","","","","","","","","","","","","","","","","","","true","3","3","ability","467","positive","能干","","","","","","","","","","","","","","","","",""
"null","","null","html-keyboard-response","103","188913","0.0-6.0-0.0-6.0-0.22","3","4","4","3","3","3","4","3","3","4","4","4","2","3","4","5","4","2","4","4","4","5","4","4","4","5","4","4","5","1","0","0","0","1","1","1","1","0","1","1","0","1","0","1","4","4","5","2","5","2","2","4","5","4","3","777148633652137985","仝","240","","","","","","","","","","","","","","","","","","","","","","","","","","","","","","","","","","","","","","","","","",""
"471","<p style=""color:rgb(150, 250, 100); font-size: 35px;"">他</p>","i","categorize-html","104","189386","0.0-6.0-0.0-6.0-1.22","3","4","4","3","3","3","4","3","3","4","4","4","2","3","4","5","4","2","4","4","4","5","4","4","4","5","4","4","5","1","0","0","0","1","1","1","1","0","1","1","0","1","0","1","4","4","5","2","5","2","2","4","5","4","3","777148633652137985","仝","240","","","","","","","","","","","","","","","","","","","true","3","3","ability","471","other","他","","","","","","","","","","","","","","","","",""
"null","","null","html-keyboard-response","105","189638","0.0-6.0-0.0-6.0-0.23","3","4","4","3","3","3","4","3","3","4","4","4","2","3","4","5","4","2","4","4","4","5","4","4","4","5","4","4","5","1","0","0","0","1","1","1","1","0","1","1","0","1","0","1","4","4","5","2","5","2","2","4","5","4","3","777148633652137985","仝","240","","","","","","","","","","","","","","","","","","","","","","","","","","","","","","","","","","","","","","","","","",""
"457","<p style=""color:white; font-size: 35px;"">蠢笨</p>","i","categorize-html","106","190096","0.0-6.0-0.0-6.0-1.23","3","4","4","3","3","3","4","3","3","4","4","4","2","3","4","5","4","2","4","4","4","5","4","4","4","5","4","4","5","1","0","0","0","1","1","1","1","0","1","1","0","1","0","1","4","4","5","2","5","2","2","4","5","4","3","777148633652137985","仝","240","","","","","","","","","","","","","","","","","","","true","3","3","ability","457","negative","蠢笨","","","","","","","","","","","","","","","","",""
"8641","
    <div class=""tag-bottom""><p>
    —— 任务4：对“自我/积极”词和“他人/消极”词分类 ——<p/>
    <span style=""color:#78DCE8""><b>与刚才的任务完全相同，请再次对这四类词语分类</b></span><p/>
    <span style=""color:#FFD866""><b>请根据上方标签的提示，尽可能正确并且快速地做出按键反应</b></span><p/>
    当按键错误时屏幕中会出现<span style=""color:red""> X </span>，需要按另一个键纠正才能继续<br/><p/>
    请把双手食指分别放在键盘的“E”键和“I”键上<p/>
    按<空格键>开始
    </p></div>"," ","html-keyboard-response","107","198737","0.0-6.0-0.0-7.0","3","4","4","3","3","3","4","3","3","4","4","4","2","3","4","5","4","2","4","4","4","5","4","4","4","5","4","4","5","1","0","0","0","1","1","1","1","0","1","1","0","1","0","1","4","4","5","2","5","2","2","4","5","4","3","777148633652137985","仝","240","","","","","","","","","","","","","","","","","","","","","","","","","","","","","","","","","","","","","","","","","",""
"null","","null","html-keyboard-response","108","198988","0.0-6.0-0.0-8.0-0.0","3","4","4","3","3","3","4","3","3","4","4","4","2","3","4","5","4","2","4","4","4","5","4","4","4","5","4","4","5","1","0","0","0","1","1","1","1","0","1","1","0","1","0","1","4","4","5","2","5","2","2","4","5","4","3","777148633652137985","仝","240","","","","","","","","","","","","","","","","","","","","","","","","","","","","","","","","","","","","","","","","","",""
"615","<p style=""color:rgb(150, 250, 100); font-size: 35px;"">别人</p>","i","categorize-html","109","199606","0.0-6.0-0.0-8.0-1.0","3","4","4","3","3","3","4","3","3","4","4","4","2","3","4","5","4","2","4","4","4","5","4","4","4","5","4","4","5","1","0","0","0","1","1","1","1","0","1","1","0","1","0","1","4","4","5","2","5","2","2","4","5","4","3","777148633652137985","仝","240","","","","","","","","","","","","","","","","","","","true","4","4","ability","615","other","别人","","","","","","","","","","","","","","","","",""
"null","","null","html-keyboard-response","110","199859","0.0-6.0-0.0-8.0-0.1","3","4","4","3","3","3","4","3","3","4","4","4","2","3","4","5","4","2","4","4","4","5","4","4","4","5","4","4","5","1","0","0","0","1","1","1","1","0","1","1","0","1","0","1","4","4","5","2","5","2","2","4","5","4","3","777148633652137985","仝","240","","","","","","","","","","","","","","","","","","","","","","","","","","","","","","","","","","","","","","","","","",""
"567","<p style=""color:white; font-size: 35px;"">愚钝</p>","i","categorize-html","111","200427","0.0-6.0-0.0-8.0-1.1","3","4","4","3","3","3","4","3","3","4","4","4","2","3","4","5","4","2","4","4","4","5","4","4","4","5","4","4","5","1","0","0","0","1","1","1","1","0","1","1","0","1","0","1","4","4","5","2","5","2","2","4","5","4","3","777148633652137985","仝","240","","","","","","","","","","","","","","","","","","","true","4","4","ability","567","negative","愚钝","","","","","","","","","","","","","","","","",""
"null","","null","html-keyboard-response","112","200683","0.0-6.0-0.0-8.0-0.2","3","4","4","3","3","3","4","3","3","4","4","4","2","3","4","5","4","2","4","4","4","5","4","4","4","5","4","4","5","1","0","0","0","1","1","1","1","0","1","1","0","1","0","1","4","4","5","2","5","2","2","4","5","4","3","777148633652137985","仝","240","","","","","","","","","","","","","","","","","","","","","","","","","","","","","","","","","","","","","","","","","",""
"543","<p style=""color:rgb(150, 250, 100); font-size: 35px;"">我</p>","e","categorize-html","113","201227","0.0-6.0-0.0-8.0-1.2","3","4","4","3","3","3","4","3","3","4","4","4","2","3","4","5","4","2","4","4","4","5","4","4","4","5","4","4","5","1","0","0","0","1","1","1","1","0","1","1","0","1","0","1","4","4","5","2","5","2","2","4","5","4","3","777148633652137985","仝","240","","","","","","","","","","","","","","","","","","","true","4","4","ability","543","self","我","","","","","","","","","","","","","","","","",""
"null","","null","html-keyboard-response","114","201478","0.0-6.0-0.0-8.0-0.3","3","4","4","3","3","3","4","3","3","4","4","4","2","3","4","5","4","2","4","4","4","5","4","4","4","5","4","4","5","1","0","0","0","1","1","1","1","0","1","1","0","1","0","1","4","4","5","2","5","2","2","4","5","4","3","777148633652137985","仝","240","","","","","","","","","","","","","","","","","","","","","","","","","","","","","","","","","","","","","","","","","",""
"432","<p style=""color:white; font-size: 35px;"">能干</p>","e","categorize-html","115","201915","0.0-6.0-0.0-8.0-1.3","3","4","4","3","3","3","4","3","3","4","4","4","2","3","4","5","4","2","4","4","4","5","4","4","4","5","4","4","5","1","0","0","0","1","1","1","1","0","1","1","0","1","0","1","4","4","5","2","5","2","2","4","5","4","3","777148633652137985","仝","240","","","","","","","","","","","","","","","","","","","true","4","4","ability","432","positive","能干","","","","","","","","","","","","","","","","",""
"null","","null","html-keyboard-response","116","202166","0.0-6.0-0.0-8.0-0.4","3","4","4","3","3","3","4","3","3","4","4","4","2","3","4","5","4","2","4","4","4","5","4","4","4","5","4","4","5","1","0","0","0","1","1","1","1","0","1","1","0","1","0","1","4","4","5","2","5","2","2","4","5","4","3","777148633652137985","仝","240","","","","","","","","","","","","","","","","","","","","","","","","","","","","","","","","","","","","","","","","","",""
"640","<p style=""color:rgb(150, 250, 100); font-size: 35px;"">他人</p>","i","categorize-html","117","202807","0.0-6.0-0.0-8.0-1.4","3","4","4","3","3","3","4","3","3","4","4","4","2","3","4","5","4","2","4","4","4","5","4","4","4","5","4","4","5","1","0","0","0","1","1","1","1","0","1","1","0","1","0","1","4","4","5","2","5","2","2","4","5","4","3","777148633652137985","仝","240","","","","","","","","","","","","","","","","","","","true","4","4","ability","640","other","他人","","","","","","","","","","","","","","","","",""
"null","","null","html-keyboard-response","118","203059","0.0-6.0-0.0-8.0-0.5","3","4","4","3","3","3","4","3","3","4","4","4","2","3","4","5","4","2","4","4","4","5","4","4","4","5","4","4","5","1","0","0","0","1","1","1","1","0","1","1","0","1","0","1","4","4","5","2","5","2","2","4","5","4","3","777148633652137985","仝","240","","","","","","","","","","","","","","","","","","","","","","","","","","","","","","","","","","","","","","","","","",""
"618","<p style=""color:white; font-size: 35px;"">无能</p>","i","categorize-html","119","203679","0.0-6.0-0.0-8.0-1.5","3","4","4","3","3","3","4","3","3","4","4","4","2","3","4","5","4","2","4","4","4","5","4","4","4","5","4","4","5","1","0","0","0","1","1","1","1","0","1","1","0","1","0","1","4","4","5","2","5","2","2","4","5","4","3","777148633652137985","仝","240","","","","","","","","","","","","","","","","","","","true","4","4","ability","618","negative","无能","","","","","","","","","","","","","","","","",""
"null","","null","html-keyboard-response","120","203930","0.0-6.0-0.0-8.0-0.6","3","4","4","3","3","3","4","3","3","4","4","4","2","3","4","5","4","2","4","4","4","5","4","4","4","5","4","4","5","1","0","0","0","1","1","1","1","0","1","1","0","1","0","1","4","4","5","2","5","2","2","4","5","4","3","777148633652137985","仝","240","","","","","","","","","","","","","","","","","","","","","","","","","","","","","","","","","","","","","","","","","",""
"473","<p style=""color:rgb(150, 250, 100); font-size: 35px;"">本人</p>","e","categorize-html","121","204404","0.0-6.0-0.0-8.0-1.6","3","4","4","3","3","3","4","3","3","4","4","4","2","3","4","5","4","2","4","4","4","5","4","4","4","5","4","4","5","1","0","0","0","1","1","1","1","0","1","1","0","1","0","1","4","4","5","2","5","2","2","4","5","4","3","777148633652137985","仝","240","","","","","","","","","","","","","","","","","","","true","4","4","ability","473","self","本人","","","","","","","","","","","","","","","","",""
"null","","null","html-keyboard-response","122","204655","0.0-6.0-0.0-8.0-0.7","3","4","4","3","3","3","4","3","3","4","4","4","2","3","4","5","4","2","4","4","4","5","4","4","4","5","4","4","5","1","0","0","0","1","1","1","1","0","1","1","0","1","0","1","4","4","5","2","5","2","2","4","5","4","3","777148633652137985","仝","240","","","","","","","","","","","","","","","","","","","","","","","","","","","","","","","","","","","","","","","","","",""
"463","<p style=""color:white; font-size: 35px;"">天才</p>","e","categorize-html","123","205121","0.0-6.0-0.0-8.0-1.7","3","4","4","3","3","3","4","3","3","4","4","4","2","3","4","5","4","2","4","4","4","5","4","4","4","5","4","4","5","1","0","0","0","1","1","1","1","0","1","1","0","1","0","1","4","4","5","2","5","2","2","4","5","4","3","777148633652137985","仝","240","","","","","","","","","","","","","","","","","","","true","4","4","ability","463","positive","天才","","","","","","","","","","","","","","","","",""
"null","","null","html-keyboard-response","124","205373","0.0-6.0-0.0-8.0-0.8","3","4","4","3","3","3","4","3","3","4","4","4","2","3","4","5","4","2","4","4","4","5","4","4","4","5","4","4","5","1","0","0","0","1","1","1","1","0","1","1","0","1","0","1","4","4","5","2","5","2","2","4","5","4","3","777148633652137985","仝","240","","","","","","","","","","","","","","","","","","","","","","","","","","","","","","","","","","","","","","","","","",""
"424","<p style=""color:rgb(150, 250, 100); font-size: 35px;"">我</p>","e","categorize-html","125","205798","0.0-6.0-0.0-8.0-1.8","3","4","4","3","3","3","4","3","3","4","4","4","2","3","4","5","4","2","4","4","4","5","4","4","4","5","4","4","5","1","0","0","0","1","1","1","1","0","1","1","0","1","0","1","4","4","5","2","5","2","2","4","5","4","3","777148633652137985","仝","240","","","","","","","","","","","","","","","","","","","true","4","4","ability","424","self","我","","","","","","","","","","","","","","","","",""
"null","","null","html-keyboard-response","126","206050","0.0-6.0-0.0-8.0-0.9","3","4","4","3","3","3","4","3","3","4","4","4","2","3","4","5","4","2","4","4","4","5","4","4","4","5","4","4","5","1","0","0","0","1","1","1","1","0","1","1","0","1","0","1","4","4","5","2","5","2","2","4","5","4","3","777148633652137985","仝","240","","","","","","","","","","","","","","","","","","","","","","","","","","","","","","","","","","","","","","","","","",""
"429","<p style=""color:white; font-size: 35px;"">废物</p>","i","categorize-html","127","206480","0.0-6.0-0.0-8.0-1.9","3","4","4","3","3","3","4","3","3","4","4","4","2","3","4","5","4","2","4","4","4","5","4","4","4","5","4","4","5","1","0","0","0","1","1","1","1","0","1","1","0","1","0","1","4","4","5","2","5","2","2","4","5","4","3","777148633652137985","仝","240","","","","","","","","","","","","","","","","","","","true","4","4","ability","429","negative","废物","","","","","","","","","","","","","","","","",""
"null","","null","html-keyboard-response","128","206732","0.0-6.0-0.0-8.0-0.10","3","4","4","3","3","3","4","3","3","4","4","4","2","3","4","5","4","2","4","4","4","5","4","4","4","5","4","4","5","1","0","0","0","1","1","1","1","0","1","1","0","1","0","1","4","4","5","2","5","2","2","4","5","4","3","777148633652137985","仝","240","","","","","","","","","","","","","","","","","","","","","","","","","","","","","","","","","","","","","","","","","",""
"555","<p style=""color:rgb(150, 250, 100); font-size: 35px;"">别人的</p>","e","categorize-html","129","209045","0.0-6.0-0.0-8.0-1.10","3","4","4","3","3","3","4","3","3","4","4","4","2","3","4","5","4","2","4","4","4","5","4","4","4","5","4","4","5","1","0","0","0","1","1","1","1","0","1","1","0","1","0","1","4","4","5","2","5","2","2","4","5","4","3","777148633652137985","仝","240","","","","","","","","","","","","","","","","","","","false","4","4","ability","1261.276595744681","other","别人的","","","","","","","","","","","","","","","","",""
"null","","null","html-keyboard-response","130","209296","0.0-6.0-0.0-8.0-0.11","3","4","4","3","3","3","4","3","3","4","4","4","2","3","4","5","4","2","4","4","4","5","4","4","4","5","4","4","5","1","0","0","0","1","1","1","1","0","1","1","0","1","0","1","4","4","5","2","5","2","2","4","5","4","3","777148633652137985","仝","240","","","","","","","","","","","","","","","","","","","","","","","","","","","","","","","","","","","","","","","","","",""
"2028","<p style=""color:white; font-size: 35px;"">高效</p>","e","categorize-html","131","211326","0.0-6.0-0.0-8.0-1.11","3","4","4","3","3","3","4","3","3","4","4","4","2","3","4","5","4","2","4","4","4","5","4","4","4","5","4","4","5","1","0","0","0","1","1","1","1","0","1","1","0","1","0","1","4","4","5","2","5","2","2","4","5","4","3","777148633652137985","仝","240","","","","","","","","","","","","","","","","","","","true","4","4","ability","2028","positive","高效","","","","","","","","","","","","","","","","",""
"null","","null","html-keyboard-response","132","211576","0.0-6.0-0.0-8.0-0.12","3","4","4","3","3","3","4","3","3","4","4","4","2","3","4","5","4","2","4","4","4","5","4","4","4","5","4","4","5","1","0","0","0","1","1","1","1","0","1","1","0","1","0","1","4","4","5","2","5","2","2","4","5","4","3","777148633652137985","仝","240","","","","","","","","","","","","","","","","","","","","","","","","","","","","","","","","","","","","","","","","","",""
"585","<p style=""color:rgb(150, 250, 100); font-size: 35px;"">他的</p>","i","categorize-html","133","212164","0.0-6.0-0.0-8.0-1.12","3","4","4","3","3","3","4","3","3","4","4","4","2","3","4","5","4","2","4","4","4","5","4","4","4","5","4","4","5","1","0","0","0","1","1","1","1","0","1","1","0","1","0","1","4","4","5","2","5","2","2","4","5","4","3","777148633652137985","仝","240","","","","","","","","","","","","","","","","","","","true","4","4","ability","585","other","他的","","","","","","","","","","","","","","","","",""
"null","","null","html-keyboard-response","134","212416","0.0-6.0-0.0-8.0-0.13","3","4","4","3","3","3","4","3","3","4","4","4","2","3","4","5","4","2","4","4","4","5","4","4","4","5","4","4","5","1","0","0","0","1","1","1","1","0","1","1","0","1","0","1","4","4","5","2","5","2","2","4","5","4","3","777148633652137985","仝","240","","","","","","","","","","","","","","","","","","","","","","","","","","","","","","","","","","","","","","","","","",""
"576","<p style=""color:white; font-size: 35px;"">精干</p>","e","categorize-html","135","212993","0.0-6.0-0.0-8.0-1.13","3","4","4","3","3","3","4","3","3","4","4","4","2","3","4","5","4","2","4","4","4","5","4","4","4","5","4","4","5","1","0","0","0","1","1","1","1","0","1","1","0","1","0","1","4","4","5","2","5","2","2","4","5","4","3","777148633652137985","仝","240","","","","","","","","","","","","","","","","","","","true","4","4","ability","576","positive","精干","","","","","","","","","","","","","","","","",""
"null","","null","html-keyboard-response","136","213245","0.0-6.0-0.0-8.0-0.14","3","4","4","3","3","3","4","3","3","4","4","4","2","3","4","5","4","2","4","4","4","5","4","4","4","5","4","4","5","1","0","0","0","1","1","1","1","0","1","1","0","1","0","1","4","4","5","2","5","2","2","4","5","4","3","777148633652137985","仝","240","","","","","","","","","","","","","","","","","","","","","","","","","","","","","","","","","","","","","","","","","",""
"574","<p style=""color:rgb(150, 250, 100); font-size: 35px;"">自己</p>","e","categorize-html","137","213820","0.0-6.0-0.0-8.0-1.14","3","4","4","3","3","3","4","3","3","4","4","4","2","3","4","5","4","2","4","4","4","5","4","4","4","5","4","4","5","1","0","0","0","1","1","1","1","0","1","1","0","1","0","1","4","4","5","2","5","2","2","4","5","4","3","777148633652137985","仝","240","","","","","","","","","","","","","","","","","","","true","4","4","ability","574","self","自己","","","","","","","","","","","","","","","","",""
"null","","null","html-keyboard-response","138","214071","0.0-6.0-0.0-8.0-0.15","3","4","4","3","3","3","4","3","3","4","4","4","2","3","4","5","4","2","4","4","4","5","4","4","4","5","4","4","5","1","0","0","0","1","1","1","1","0","1","1","0","1","0","1","4","4","5","2","5","2","2","4","5","4","3","777148633652137985","仝","240","","","","","","","","","","","","","","","","","","","","","","","","","","","","","","","","","","","","","","","","","",""
"535","<p style=""color:white; font-size: 35px;"">废物</p>","i","categorize-html","139","214608","0.0-6.0-0.0-8.0-1.15","3","4","4","3","3","3","4","3","3","4","4","4","2","3","4","5","4","2","4","4","4","5","4","4","4","5","4","4","5","1","0","0","0","1","1","1","1","0","1","1","0","1","0","1","4","4","5","2","5","2","2","4","5","4","3","777148633652137985","仝","240","","","","","","","","","","","","","","","","","","","true","4","4","ability","535","negative","废物","","","","","","","","","","","","","","","","",""
"null","","null","html-keyboard-response","140","214859","0.0-6.0-0.0-8.0-0.16","3","4","4","3","3","3","4","3","3","4","4","4","2","3","4","5","4","2","4","4","4","5","4","4","4","5","4","4","5","1","0","0","0","1","1","1","1","0","1","1","0","1","0","1","4","4","5","2","5","2","2","4","5","4","3","777148633652137985","仝","240","","","","","","","","","","","","","","","","","","","","","","","","","","","","","","","","","","","","","","","","","",""
"605","<p style=""color:rgb(150, 250, 100); font-size: 35px;"">本人的</p>","e","categorize-html","141","215466","0.0-6.0-0.0-8.0-1.16","3","4","4","3","3","3","4","3","3","4","4","4","2","3","4","5","4","2","4","4","4","5","4","4","4","5","4","4","5","1","0","0","0","1","1","1","1","0","1","1","0","1","0","1","4","4","5","2","5","2","2","4","5","4","3","777148633652137985","仝","240","","","","","","","","","","","","","","","","","","","true","4","4","ability","605","self","本人的","","","","","","","","","","","","","","","","",""
"null","","null","html-keyboard-response","142","215718","0.0-6.0-0.0-8.0-0.17","3","4","4","3","3","3","4","3","3","4","4","4","2","3","4","5","4","2","4","4","4","5","4","4","4","5","4","4","5","1","0","0","0","1","1","1","1","0","1","1","0","1","0","1","4","4","5","2","5","2","2","4","5","4","3","777148633652137985","仝","240","","","","","","","","","","","","","","","","","","","","","","","","","","","","","","","","","","","","","","","","","",""
"732","<p style=""color:white; font-size: 35px;"">低能</p>","i","categorize-html","143","216451","0.0-6.0-0.0-8.0-1.17","3","4","4","3","3","3","4","3","3","4","4","4","2","3","4","5","4","2","4","4","4","5","4","4","4","5","4","4","5","1","0","0","0","1","1","1","1","0","1","1","0","1","0","1","4","4","5","2","5","2","2","4","5","4","3","777148633652137985","仝","240","","","","","","","","","","","","","","","","","","","true","4","4","ability","732","negative","低能","","","","","","","","","","","","","","","","",""
"null","","null","html-keyboard-response","144","216702","0.0-6.0-0.0-8.0-0.18","3","4","4","3","3","3","4","3","3","4","4","4","2","3","4","5","4","2","4","4","4","5","4","4","4","5","4","4","5","1","0","0","0","1","1","1","1","0","1","1","0","1","0","1","4","4","5","2","5","2","2","4","5","4","3","777148633652137985","仝","240","","","","","","","","","","","","","","","","","","","","","","","","","","","","","","","","","","","","","","","","","",""
"537","<p style=""color:rgb(150, 250, 100); font-size: 35px;"">他的</p>","i","categorize-html","145","217240","0.0-6.0-0.0-8.0-1.18","3","4","4","3","3","3","4","3","3","4","4","4","2","3","4","5","4","2","4","4","4","5","4","4","4","5","4","4","5","1","0","0","0","1","1","1","1","0","1","1","0","1","0","1","4","4","5","2","5","2","2","4","5","4","3","777148633652137985","仝","240","","","","","","","","","","","","","","","","","","","true","4","4","ability","537","other","他的","","","","","","","","","","","","","","","","",""
"null","","null","html-keyboard-response","146","217491","0.0-6.0-0.0-8.0-0.19","3","4","4","3","3","3","4","3","3","4","4","4","2","3","4","5","4","2","4","4","4","5","4","4","4","5","4","4","5","1","0","0","0","1","1","1","1","0","1","1","0","1","0","1","4","4","5","2","5","2","2","4","5","4","3","777148633652137985","仝","240","","","","","","","","","","","","","","","","","","","","","","","","","","","","","","","","","","","","","","","","","",""
"662","<p style=""color:white; font-size: 35px;"">精干</p>","e","categorize-html","147","218157","0.0-6.0-0.0-8.0-1.19","3","4","4","3","3","3","4","3","3","4","4","4","2","3","4","5","4","2","4","4","4","5","4","4","4","5","4","4","5","1","0","0","0","1","1","1","1","0","1","1","0","1","0","1","4","4","5","2","5","2","2","4","5","4","3","777148633652137985","仝","240","","","","","","","","","","","","","","","","","","","true","4","4","ability","662","positive","精干","","","","","","","","","","","","","","","","",""
"null","","null","html-keyboard-response","148","218409","0.0-6.0-0.0-8.0-0.20","3","4","4","3","3","3","4","3","3","4","4","4","2","3","4","5","4","2","4","4","4","5","4","4","4","5","4","4","5","1","0","0","0","1","1","1","1","0","1","1","0","1","0","1","4","4","5","2","5","2","2","4","5","4","3","777148633652137985","仝","240","","","","","","","","","","","","","","","","","","","","","","","","","","","","","","","","","","","","","","","","","",""
"626","<p style=""color:rgb(150, 250, 100); font-size: 35px;"">我的</p>","e","categorize-html","149","219036","0.0-6.0-0.0-8.0-1.20","3","4","4","3","3","3","4","3","3","4","4","4","2","3","4","5","4","2","4","4","4","5","4","4","4","5","4","4","5","1","0","0","0","1","1","1","1","0","1","1","0","1","0","1","4","4","5","2","5","2","2","4","5","4","3","777148633652137985","仝","240","","","","","","","","","","","","","","","","","","","true","4","4","ability","626","self","我的","","","","","","","","","","","","","","","","",""
"null","","null","html-keyboard-response","150","219287","0.0-6.0-0.0-8.0-0.21","3","4","4","3","3","3","4","3","3","4","4","4","2","3","4","5","4","2","4","4","4","5","4","4","4","5","4","4","5","1","0","0","0","1","1","1","1","0","1","1","0","1","0","1","4","4","5","2","5","2","2","4","5","4","3","777148633652137985","仝","240","","","","","","","","","","","","","","","","","","","","","","","","","","","","","","","","","","","","","","","","","",""
"470","<p style=""color:white; font-size: 35px;"">全能</p>","e","categorize-html","151","219759","0.0-6.0-0.0-8.0-1.21","3","4","4","3","3","3","4","3","3","4","4","4","2","3","4","5","4","2","4","4","4","5","4","4","4","5","4","4","5","1","0","0","0","1","1","1","1","0","1","1","0","1","0","1","4","4","5","2","5","2","2","4","5","4","3","777148633652137985","仝","240","","","","","","","","","","","","","","","","","","","true","4","4","ability","470","positive","全能","","","","","","","","","","","","","","","","",""
"null","","null","html-keyboard-response","152","220010","0.0-6.0-0.0-8.0-0.22","3","4","4","3","3","3","4","3","3","4","4","4","2","3","4","5","4","2","4","4","4","5","4","4","4","5","4","4","5","1","0","0","0","1","1","1","1","0","1","1","0","1","0","1","4","4","5","2","5","2","2","4","5","4","3","777148633652137985","仝","240","","","","","","","","","","","","","","","","","","","","","","","","","","","","","","","","","","","","","","","","","",""
"545","<p style=""color:rgb(150, 250, 100); font-size: 35px;"">他人的</p>","i","categorize-html","153","220556","0.0-6.0-0.0-8.0-1.22","3","4","4","3","3","3","4","3","3","4","4","4","2","3","4","5","4","2","4","4","4","5","4","4","4","5","4","4","5","1","0","0","0","1","1","1","1","0","1","1","0","1","0","1","4","4","5","2","5","2","2","4","5","4","3","777148633652137985","仝","240","","","","","","","","","","","","","","","","","","","true","4","4","ability","545","other","他人的","","","","","","","","","","","","","","","","",""
"null","","null","html-keyboard-response","154","220807","0.0-6.0-0.0-8.0-0.23","3","4","4","3","3","3","4","3","3","4","4","4","2","3","4","5","4","2","4","4","4","5","4","4","4","5","4","4","5","1","0","0","0","1","1","1","1","0","1","1","0","1","0","1","4","4","5","2","5","2","2","4","5","4","3","777148633652137985","仝","240","","","","","","","","","","","","","","","","","","","","","","","","","","","","","","","","","","","","","","","","","",""
"492","<p style=""color:white; font-size: 35px;"">无能</p>","i","categorize-html","155","221301","0.0-6.0-0.0-8.0-1.23","3","4","4","3","3","3","4","3","3","4","4","4","2","3","4","5","4","2","4","4","4","5","4","4","4","5","4","4","5","1","0","0","0","1","1","1","1","0","1","1","0","1","0","1","4","4","5","2","5","2","2","4","5","4","3","777148633652137985","仝","240","","","","","","","","","","","","","","","","","","","true","4","4","ability","492","negative","无能","","","","","","","","","","","","","","","","",""
"null","","null","html-keyboard-response","156","221552","0.0-6.0-0.0-8.0-0.24","3","4","4","3","3","3","4","3","3","4","4","4","2","3","4","5","4","2","4","4","4","5","4","4","4","5","4","4","5","1","0","0","0","1","1","1","1","0","1","1","0","1","0","1","4","4","5","2","5","2","2","4","5","4","3","777148633652137985","仝","240","","","","","","","","","","","","","","","","","","","","","","","","","","","","","","","","","","","","","","","","","",""
"555","<p style=""color:rgb(150, 250, 100); font-size: 35px;"">他人</p>","i","categorize-html","157","222110","0.0-6.0-0.0-8.0-1.24","3","4","4","3","3","3","4","3","3","4","4","4","2","3","4","5","4","2","4","4","4","5","4","4","4","5","4","4","5","1","0","0","0","1","1","1","1","0","1","1","0","1","0","1","4","4","5","2","5","2","2","4","5","4","3","777148633652137985","仝","240","","","","","","","","","","","","","","","","","","","true","4","4","ability","555","other","他人","","","","","","","","","","","","","","","","",""
"null","","null","html-keyboard-response","158","222361","0.0-6.0-0.0-8.0-0.25","3","4","4","3","3","3","4","3","3","4","4","4","2","3","4","5","4","2","4","4","4","5","4","4","4","5","4","4","5","1","0","0","0","1","1","1","1","0","1","1","0","1","0","1","4","4","5","2","5","2","2","4","5","4","3","777148633652137985","仝","240","","","","","","","","","","","","","","","","","","","","","","","","","","","","","","","","","","","","","","","","","",""
"539","<p style=""color:white; font-size: 35px;"">拙笨</p>","i","categorize-html","159","222904","0.0-6.0-0.0-8.0-1.25","3","4","4","3","3","3","4","3","3","4","4","4","2","3","4","5","4","2","4","4","4","5","4","4","4","5","4","4","5","1","0","0","0","1","1","1","1","0","1","1","0","1","0","1","4","4","5","2","5","2","2","4","5","4","3","777148633652137985","仝","240","","","","","","","","","","","","","","","","","","","true","4","4","ability","539","negative","拙笨","","","","","","","","","","","","","","","","",""
"null","","null","html-keyboard-response","160","223155","0.0-6.0-0.0-8.0-0.26","3","4","4","3","3","3","4","3","3","4","4","4","2","3","4","5","4","2","4","4","4","5","4","4","4","5","4","4","5","1","0","0","0","1","1","1","1","0","1","1","0","1","0","1","4","4","5","2","5","2","2","4","5","4","3","777148633652137985","仝","240","","","","","","","","","","","","","","","","","","","","","","","","","","","","","","","","","","","","","","","","","",""
"770","<p style=""color:rgb(150, 250, 100); font-size: 35px;"">本人</p>","e","categorize-html","161","223927","0.0-6.0-0.0-8.0-1.26","3","4","4","3","3","3","4","3","3","4","4","4","2","3","4","5","4","2","4","4","4","5","4","4","4","5","4","4","5","1","0","0","0","1","1","1","1","0","1","1","0","1","0","1","4","4","5","2","5","2","2","4","5","4","3","777148633652137985","仝","240","","","","","","","","","","","","","","","","","","","true","4","4","ability","770","self","本人","","","","","","","","","","","","","","","","",""
"null","","null","html-keyboard-response","162","224178","0.0-6.0-0.0-8.0-0.27","3","4","4","3","3","3","4","3","3","4","4","4","2","3","4","5","4","2","4","4","4","5","4","4","4","5","4","4","5","1","0","0","0","1","1","1","1","0","1","1","0","1","0","1","4","4","5","2","5","2","2","4","5","4","3","777148633652137985","仝","240","","","","","","","","","","","","","","","","","","","","","","","","","","","","","","","","","","","","","","","","","",""
"593","<p style=""color:white; font-size: 35px;"">全才</p>","e","categorize-html","163","224774","0.0-6.0-0.0-8.0-1.27","3","4","4","3","3","3","4","3","3","4","4","4","2","3","4","5","4","2","4","4","4","5","4","4","4","5","4","4","5","1","0","0","0","1","1","1","1","0","1","1","0","1","0","1","4","4","5","2","5","2","2","4","5","4","3","777148633652137985","仝","240","","","","","","","","","","","","","","","","","","","true","4","4","ability","593","positive","全才","","","","","","","","","","","","","","","","",""
"null","","null","html-keyboard-response","164","225025","0.0-6.0-0.0-8.0-0.28","3","4","4","3","3","3","4","3","3","4","4","4","2","3","4","5","4","2","4","4","4","5","4","4","4","5","4","4","5","1","0","0","0","1","1","1","1","0","1","1","0","1","0","1","4","4","5","2","5","2","2","4","5","4","3","777148633652137985","仝","240","","","","","","","","","","","","","","","","","","","","","","","","","","","","","","","","","","","","","","","","","",""
"467","<p style=""color:rgb(150, 250, 100); font-size: 35px;"">他人的</p>","i","categorize-html","165","225496","0.0-6.0-0.0-8.0-1.28","3","4","4","3","3","3","4","3","3","4","4","4","2","3","4","5","4","2","4","4","4","5","4","4","4","5","4","4","5","1","0","0","0","1","1","1","1","0","1","1","0","1","0","1","4","4","5","2","5","2","2","4","5","4","3","777148633652137985","仝","240","","","","","","","","","","","","","","","","","","","true","4","4","ability","467","other","他人的","","","","","","","","","","","","","","","","",""
"null","","null","html-keyboard-response","166","225747","0.0-6.0-0.0-8.0-0.29","3","4","4","3","3","3","4","3","3","4","4","4","2","3","4","5","4","2","4","4","4","5","4","4","4","5","4","4","5","1","0","0","0","1","1","1","1","0","1","1","0","1","0","1","4","4","5","2","5","2","2","4","5","4","3","777148633652137985","仝","240","","","","","","","","","","","","","","","","","","","","","","","","","","","","","","","","","","","","","","","","","",""
"620","<p style=""color:white; font-size: 35px;"">能干</p>","e","categorize-html","167","226369","0.0-6.0-0.0-8.0-1.29","3","4","4","3","3","3","4","3","3","4","4","4","2","3","4","5","4","2","4","4","4","5","4","4","4","5","4","4","5","1","0","0","0","1","1","1","1","0","1","1","0","1","0","1","4","4","5","2","5","2","2","4","5","4","3","777148633652137985","仝","240","","","","","","","","","","","","","","","","","","","true","4","4","ability","620","positive","能干","","","","","","","","","","","","","","","","",""
"null","","null","html-keyboard-response","168","226620","0.0-6.0-0.0-8.0-0.30","3","4","4","3","3","3","4","3","3","4","4","4","2","3","4","5","4","2","4","4","4","5","4","4","4","5","4","4","5","1","0","0","0","1","1","1","1","0","1","1","0","1","0","1","4","4","5","2","5","2","2","4","5","4","3","777148633652137985","仝","240","","","","","","","","","","","","","","","","","","","","","","","","","","","","","","","","","","","","","","","","","",""
"542","<p style=""color:rgb(150, 250, 100); font-size: 35px;"">本人的</p>","e","categorize-html","169","227163","0.0-6.0-0.0-8.0-1.30","3","4","4","3","3","3","4","3","3","4","4","4","2","3","4","5","4","2","4","4","4","5","4","4","4","5","4","4","5","1","0","0","0","1","1","1","1","0","1","1","0","1","0","1","4","4","5","2","5","2","2","4","5","4","3","777148633652137985","仝","240","","","","","","","","","","","","","","","","","","","true","4","4","ability","542","self","本人的","","","","","","","","","","","","","","","","",""
"null","","null","html-keyboard-response","170","227414","0.0-6.0-0.0-8.0-0.31","3","4","4","3","3","3","4","3","3","4","4","4","2","3","4","5","4","2","4","4","4","5","4","4","4","5","4","4","5","1","0","0","0","1","1","1","1","0","1","1","0","1","0","1","4","4","5","2","5","2","2","4","5","4","3","777148633652137985","仝","240","","","","","","","","","","","","","","","","","","","","","","","","","","","","","","","","","","","","","","","","","",""
"535","<p style=""color:white; font-size: 35px;"">蠢笨</p>","i","categorize-html","171","227953","0.0-6.0-0.0-8.0-1.31","3","4","4","3","3","3","4","3","3","4","4","4","2","3","4","5","4","2","4","4","4","5","4","4","4","5","4","4","5","1","0","0","0","1","1","1","1","0","1","1","0","1","0","1","4","4","5","2","5","2","2","4","5","4","3","777148633652137985","仝","240","","","","","","","","","","","","","","","","","","","true","4","4","ability","535","negative","蠢笨","","","","","","","","","","","","","","","","",""
"null","","null","html-keyboard-response","172","228206","0.0-6.0-0.0-8.0-0.32","3","4","4","3","3","3","4","3","3","4","4","4","2","3","4","5","4","2","4","4","4","5","4","4","4","5","4","4","5","1","0","0","0","1","1","1","1","0","1","1","0","1","0","1","4","4","5","2","5","2","2","4","5","4","3","777148633652137985","仝","240","","","","","","","","","","","","","","","","","","","","","","","","","","","","","","","","","","","","","","","","","",""
"539","<p style=""color:rgb(150, 250, 100); font-size: 35px;"">自己</p>","e","categorize-html","173","228749","0.0-6.0-0.0-8.0-1.32","3","4","4","3","3","3","4","3","3","4","4","4","2","3","4","5","4","2","4","4","4","5","4","4","4","5","4","4","5","1","0","0","0","1","1","1","1","0","1","1","0","1","0","1","4","4","5","2","5","2","2","4","5","4","3","777148633652137985","仝","240","","","","","","","","","","","","","","","","","","","true","4","4","ability","539","self","自己","","","","","","","","","","","","","","","","",""
"null","","null","html-keyboard-response","174","229001","0.0-6.0-0.0-8.0-0.33","3","4","4","3","3","3","4","3","3","4","4","4","2","3","4","5","4","2","4","4","4","5","4","4","4","5","4","4","5","1","0","0","0","1","1","1","1","0","1","1","0","1","0","1","4","4","5","2","5","2","2","4","5","4","3","777148633652137985","仝","240","","","","","","","","","","","","","","","","","","","","","","","","","","","","","","","","","","","","","","","","","",""
"703","<p style=""color:white; font-size: 35px;"">全才</p>","e","categorize-html","175","229704","0.0-6.0-0.0-8.0-1.33","3","4","4","3","3","3","4","3","3","4","4","4","2","3","4","5","4","2","4","4","4","5","4","4","4","5","4","4","5","1","0","0","0","1","1","1","1","0","1","1","0","1","0","1","4","4","5","2","5","2","2","4","5","4","3","777148633652137985","仝","240","","","","","","","","","","","","","","","","","","","true","4","4","ability","703","positive","全才","","","","","","","","","","","","","","","","",""
"null","","null","html-keyboard-response","176","229955","0.0-6.0-0.0-8.0-0.34","3","4","4","3","3","3","4","3","3","4","4","4","2","3","4","5","4","2","4","4","4","5","4","4","4","5","4","4","5","1","0","0","0","1","1","1","1","0","1","1","0","1","0","1","4","4","5","2","5","2","2","4","5","4","3","777148633652137985","仝","240","","","","","","","","","","","","","","","","","","","","","","","","","","","","","","","","","","","","","","","","","",""
"604","<p style=""color:rgb(150, 250, 100); font-size: 35px;"">别人</p>","i","categorize-html","177","230562","0.0-6.0-0.0-8.0-1.34","3","4","4","3","3","3","4","3","3","4","4","4","2","3","4","5","4","2","4","4","4","5","4","4","4","5","4","4","5","1","0","0","0","1","1","1","1","0","1","1","0","1","0","1","4","4","5","2","5","2","2","4","5","4","3","777148633652137985","仝","240","","","","","","","","","","","","","","","","","","","true","4","4","ability","604","other","别人","","","","","","","","","","","","","","","","",""
"null","","null","html-keyboard-response","178","230813","0.0-6.0-0.0-8.0-0.35","3","4","4","3","3","3","4","3","3","4","4","4","2","3","4","5","4","2","4","4","4","5","4","4","4","5","4","4","5","1","0","0","0","1","1","1","1","0","1","1","0","1","0","1","4","4","5","2","5","2","2","4","5","4","3","777148633652137985","仝","240","","","","","","","","","","","","","","","","","","","","","","","","","","","","","","","","","","","","","","","","","",""
"550","<p style=""color:white; font-size: 35px;"">愚钝</p>","i","categorize-html","179","231365","0.0-6.0-0.0-8.0-1.35","3","4","4","3","3","3","4","3","3","4","4","4","2","3","4","5","4","2","4","4","4","5","4","4","4","5","4","4","5","1","0","0","0","1","1","1","1","0","1","1","0","1","0","1","4","4","5","2","5","2","2","4","5","4","3","777148633652137985","仝","240","","","","","","","","","","","","","","","","","","","true","4","4","ability","550","negative","愚钝","","","","","","","","","","","","","","","","",""
"null","","null","html-keyboard-response","180","231616","0.0-6.0-0.0-8.0-0.36","3","4","4","3","3","3","4","3","3","4","4","4","2","3","4","5","4","2","4","4","4","5","4","4","4","5","4","4","5","1","0","0","0","1","1","1","1","0","1","1","0","1","0","1","4","4","5","2","5","2","2","4","5","4","3","777148633652137985","仝","240","","","","","","","","","","","","","","","","","","","","","","","","","","","","","","","","","","","","","","","","","",""
"517","<p style=""color:rgb(150, 250, 100); font-size: 35px;"">他</p>","i","categorize-html","181","232134","0.0-6.0-0.0-8.0-1.36","3","4","4","3","3","3","4","3","3","4","4","4","2","3","4","5","4","2","4","4","4","5","4","4","4","5","4","4","5","1","0","0","0","1","1","1","1","0","1","1","0","1","0","1","4","4","5","2","5","2","2","4","5","4","3","777148633652137985","仝","240","","","","","","","","","","","","","","","","","","","true","4","4","ability","517","other","他","","","","","","","","","","","","","","","","",""
"null","","null","html-keyboard-response","182","232386","0.0-6.0-0.0-8.0-0.37","3","4","4","3","3","3","4","3","3","4","4","4","2","3","4","5","4","2","4","4","4","5","4","4","4","5","4","4","5","1","0","0","0","1","1","1","1","0","1","1","0","1","0","1","4","4","5","2","5","2","2","4","5","4","3","777148633652137985","仝","240","","","","","","","","","","","","","","","","","","","","","","","","","","","","","","","","","","","","","","","","","",""
"626","<p style=""color:white; font-size: 35px;"">天才</p>","e","categorize-html","183","233014","0.0-6.0-0.0-8.0-1.37","3","4","4","3","3","3","4","3","3","4","4","4","2","3","4","5","4","2","4","4","4","5","4","4","4","5","4","4","5","1","0","0","0","1","1","1","1","0","1","1","0","1","0","1","4","4","5","2","5","2","2","4","5","4","3","777148633652137985","仝","240","","","","","","","","","","","","","","","","","","","true","4","4","ability","626","positive","天才","","","","","","","","","","","","","","","","",""
"null","","null","html-keyboard-response","184","233265","0.0-6.0-0.0-8.0-0.38","3","4","4","3","3","3","4","3","3","4","4","4","2","3","4","5","4","2","4","4","4","5","4","4","4","5","4","4","5","1","0","0","0","1","1","1","1","0","1","1","0","1","0","1","4","4","5","2","5","2","2","4","5","4","3","777148633652137985","仝","240","","","","","","","","","","","","","","","","","","","","","","","","","","","","","","","","","","","","","","","","","",""
"1088","<p style=""color:rgb(150, 250, 100); font-size: 35px;"">我的</p>","e","categorize-html","185","234354","0.0-6.0-0.0-8.0-1.38","3","4","4","3","3","3","4","3","3","4","4","4","2","3","4","5","4","2","4","4","4","5","4","4","4","5","4","4","5","1","0","0","0","1","1","1","1","0","1","1","0","1","0","1","4","4","5","2","5","2","2","4","5","4","3","777148633652137985","仝","240","","","","","","","","","","","","","","","","","","","true","4","4","ability","1088","self","我的","","","","","","","","","","","","","","","","",""
"null","","null","html-keyboard-response","186","234606","0.0-6.0-0.0-8.0-0.39","3","4","4","3","3","3","4","3","3","4","4","4","2","3","4","5","4","2","4","4","4","5","4","4","4","5","4","4","5","1","0","0","0","1","1","1","1","0","1","1","0","1","0","1","4","4","5","2","5","2","2","4","5","4","3","777148633652137985","仝","240","","","","","","","","","","","","","","","","","","","","","","","","","","","","","","","","","","","","","","","","","",""
"525","<p style=""color:white; font-size: 35px;"">蠢笨</p>","i","categorize-html","187","235132","0.0-6.0-0.0-8.0-1.39","3","4","4","3","3","3","4","3","3","4","4","4","2","3","4","5","4","2","4","4","4","5","4","4","4","5","4","4","5","1","0","0","0","1","1","1","1","0","1","1","0","1","0","1","4","4","5","2","5","2","2","4","5","4","3","777148633652137985","仝","240","","","","","","","","","","","","","","","","","","","true","4","4","ability","525","negative","蠢笨","","","","","","","","","","","","","","","","",""
"null","","null","html-keyboard-response","188","235384","0.0-6.0-0.0-8.0-0.40","3","4","4","3","3","3","4","3","3","4","4","4","2","3","4","5","4","2","4","4","4","5","4","4","4","5","4","4","5","1","0","0","0","1","1","1","1","0","1","1","0","1","0","1","4","4","5","2","5","2","2","4","5","4","3","777148633652137985","仝","240","","","","","","","","","","","","","","","","","","","","","","","","","","","","","","","","","","","","","","","","","",""
"856","<p style=""color:rgb(150, 250, 100); font-size: 35px;"">自己的</p>","e","categorize-html","189","236241","0.0-6.0-0.0-8.0-1.40","3","4","4","3","3","3","4","3","3","4","4","4","2","3","4","5","4","2","4","4","4","5","4","4","4","5","4","4","5","1","0","0","0","1","1","1","1","0","1","1","0","1","0","1","4","4","5","2","5","2","2","4","5","4","3","777148633652137985","仝","240","","","","","","","","","","","","","","","","","","","true","4","4","ability","856","self","自己的","","","","","","","","","","","","","","","","",""
"null","","null","html-keyboard-response","190","236491","0.0-6.0-0.0-8.0-0.41","3","4","4","3","3","3","4","3","3","4","4","4","2","3","4","5","4","2","4","4","4","5","4","4","4","5","4","4","5","1","0","0","0","1","1","1","1","0","1","1","0","1","0","1","4","4","5","2","5","2","2","4","5","4","3","777148633652137985","仝","240","","","","","","","","","","","","","","","","","","","","","","","","","","","","","","","","","","","","","","","","","",""
"684","<p style=""color:white; font-size: 35px;"">拙笨</p>","i","categorize-html","191","237177","0.0-6.0-0.0-8.0-1.41","3","4","4","3","3","3","4","3","3","4","4","4","2","3","4","5","4","2","4","4","4","5","4","4","4","5","4","4","5","1","0","0","0","1","1","1","1","0","1","1","0","1","0","1","4","4","5","2","5","2","2","4","5","4","3","777148633652137985","仝","240","","","","","","","","","","","","","","","","","","","true","4","4","ability","684","negative","拙笨","","","","","","","","","","","","","","","","",""
"null","","null","html-keyboard-response","192","237428","0.0-6.0-0.0-8.0-0.42","3","4","4","3","3","3","4","3","3","4","4","4","2","3","4","5","4","2","4","4","4","5","4","4","4","5","4","4","5","1","0","0","0","1","1","1","1","0","1","1","0","1","0","1","4","4","5","2","5","2","2","4","5","4","3","777148633652137985","仝","240","","","","","","","","","","","","","","","","","","","","","","","","","","","","","","","","","","","","","","","","","",""
