"rt","stimulus","response","trial_type","trial_index","time_elapsed","internal_node_id","ses_1","ses_2","ses_3","ses_4","ses_5","ses_6","ses_7","ses_8","ses_9","ses_10","coreself_1","coreself_2","coreself_3","coreself_4","coreself_5","coreself_6","coreself_7","coreself_8","coreself_9","coreself_10","SGPS_1","SGPS_2","SGPS_3","SGPS_4","SGPS_5","SGPS_6","SGPS_7","SGPS_8","SGPS_9","NPI1","NPI2","NPI3","NPI4","NPI5","NPI6","NPI7","NPI8","NPI9","NPI10","NPI11","NPI12","NPI13","NPI14","NPI15","hsns_1","hsns_2","hsns_3","hsns_4","hsns_5","trap1","hsns_6","hsns_7","hsns_8","hsns_9","hsns_10","subj_idx","friend_name","ParticipantID","value","success","user_agent","responses","item_order","radio_event_ids","radio_event_times","key_event_times","mouse_event_times","straightlining","zigzagging","honeypot","timeout","failed_images","failed_audio","failed_video","view_history","response_type","key_press","avg_frame_time","center_x","center_y","correct_response","correct","identity","Image","word","condition","task_id","screen_id","time_stamp","version_attrib2","version_target2","IAT","RT","varname","summary","version_attrib","version_target","question_order","correct_answer","trap1_item"
"8446","
   <p><div style = ""color: white;font-size:25px;"">您好，欢迎参加本次实验。</div> </p>
   <p><div style = ""color: white;font-size:25px;"">为充分保障您的权利，请确保您已经知晓并同意《参与实验同意书》以及《数据公开知情同意书》。</div></p>
   <p><div style = ""color: white;font-size:25px;"">如果您未见过上述内容，请咨询实验员。</div></p>
   <p><div style = ""color: white;font-size:25px;"">如果您选择继续实验，则表示您已经清楚两份知情同意书的内容并同意。</div></p>
   <p><div style = ""color: pink;font-size:30px;"">请确保您记得day0的实验编号，您将在本次实验输入该编号，若您忘记，请咨询实验员后作答。</div></p>
   <p><div style = ""color: lightblue;font-size:25px;"">请您尽可能认真地作答，我们将依据您在各问卷和按键任务中的作答质量发放报酬。</div></p>
   <p> <div style = ""color: green;font-size:25px;""><按空格键至下页></div> </p>
   "," ","html-keyboard-response","0","8461","0.0-0.0","3","4","4","3","4","4","4","4","4","4","4","3","4","4","3","4","4","4","4","5","2","1","1","2","2","2","1","2","1","1","0","0","1","0","1","0","1","0","1","1","0","1","0","0","4","5","4","2","5","","2","4","4","1","2","768533085213167618","徐","417","","","","","","","","","","","","","","","","","","","","","","","","","","","","","","","","","","","","","","","","","",""
"","","","call-function","1","8471","0.0-1.0-0.0","3","4","4","3","4","4","4","4","4","4","4","3","4","4","3","4","4","4","4","5","2","1","1","2","2","2","1","2","1","1","0","0","1","0","1","0","1","0","1","1","0","1","0","0","4","5","4","2","5","","2","4","4","1","2","768533085213167618","徐","417","","","","","","","","","","","","","","","","","","","","","","","","","","","","","","","","","","","","","","","","","",""
"39979","","{""friend_name"":""徐"",""ParticipantID"":""417""}","survey-html-form","2","48480","0.0-1.0-1.0","3","4","4","3","4","4","4","4","4","4","4","3","4","4","3","4","4","4","4","5","2","1","1","2","2","2","1","2","1","1","0","0","1","0","1","0","1","0","1","1","0","1","0","0","4","5","4","2","5","","2","4","4","1","2","768533085213167618","徐","417","","","","","","","","","","","","","","","","","","","","","","","","","","","","","","","","","","","","","","","","","",""
"","","","fullscreen","3","103005","0.0-2.0","3","4","4","3","4","4","4","4","4","4","4","3","4","4","3","4","4","4","4","5","2","1","1","2","2","2","1","2","1","1","0","0","1","0","1","0","1","0","1","1","0","1","0","0","4","5","4","2","5","","2","4","4","1","2","768533085213167618","徐","417","","true","{}","","","","","","","","","","","","","","","","","","","","","","","","","","","","","","","","","","","","","","",""
"21109.70000000298","","{""Q01"":""3"",""Q02"":""4"",""Q03"":""4"",""Q04"":""3"",""Q05"":""4"",""Q06"":""4"",""Q07"":""4"",""Q08"":""4"",""Q09"":""4"",""Q10"":""4""}","survey-template","4","124126","0.0-3.0","3","4","4","3","4","4","4","4","4","4","4","3","4","4","3","4","4","4","4","5","2","1","1","2","2","2","1","2","1","1","0","0","1","0","1","0","1","0","1","1","0","1","0","0","4","5","4","2","5","","2","4","4","1","2","768533085213167618","徐","417","","","","{""Q01"":""3"",""Q02"":""4"",""Q03"":""4"",""Q04"":""3"",""Q05"":""4"",""Q06"":""4"",""Q07"":""4"",""Q08"":""4"",""Q09"":""4"",""Q10"":""4""}","[0,1,2,3,4,5,6,7,8,9]","[""Q01"",""Q02"",""Q03"",""Q04"",""Q05"",""Q06"",""Q07"",""Q08"",""Q09"",""Q10""]","[3643.10000000149,5291.70000000298,7021.20000000298,8820.60000000149,11052.90000000596,13714.60000000149,14974.10000000149,17293.20000000298,18675.10000000149,19740]","[]","[3643.10000000149,5291.70000000298,7021.20000000298,8820.60000000149,11052.90000000596,12662,13714.60000000149,14974.10000000149,17293.20000000298,18675.10000000149,19740,21106]","0.5","0.4444444444444444","0","","","","","","","","","","","","","","","","","","","","","","","","","","","","","",""
"22572.69999999553","","{""Q01"":""4"",""Q02"":""3"",""Q03"":""4"",""Q04"":""4"",""Q05"":""3"",""Q06"":""4"",""Q07"":""4"",""Q08"":""4"",""Q09"":""4"",""Q10"":""5""}","survey-template","5","146725","0.0-4.0","3","4","4","3","4","4","4","4","4","4","4","3","4","4","3","4","4","4","4","5","2","1","1","2","2","2","1","2","1","1","0","0","1","0","1","0","1","0","1","1","0","1","0","0","4","5","4","2","5","","2","4","4","1","2","768533085213167618","徐","417","","","","{""Q01"":""4"",""Q02"":""3"",""Q03"":""4"",""Q04"":""4"",""Q05"":""3"",""Q06"":""4"",""Q07"":""4"",""Q08"":""4"",""Q09"":""4"",""Q10"":""5""}","[0,1,2,3,4,5,6,7,8,9]","[""Q01"",""Q02"",""Q03"",""Q04"",""Q05"",""Q06"",""Q07"",""Q08"",""Q09"",""Q10""]","[4394.5999999940395,5982.79999999702,8042.39999999851,9934.19999999553,11244.59999999404,13305,14576.39999999851,16495,18515.79999999702,20923.69999999553]","[]","[4394.5999999940395,5982.79999999702,8042.39999999851,9934.19999999553,11244.59999999404,13305,14576.39999999851,16495,18515.79999999702,20923.69999999553,22564.69999999553]","0.4","0.4444444444444444","0","","","","","","","","","","","","","","","","","","","","","","","","","","","","","",""
"","","","preload","6","149398","0.0-5.0","3","4","4","3","4","4","4","4","4","4","4","3","4","4","3","4","4","4","4","5","2","1","1","2","2","2","1","2","1","1","0","0","1","0","1","0","1","0","1","1","0","1","0","0","4","5","4","2","5","","2","4","4","1","2","768533085213167618","徐","417","","true","","","","","","","","","","","false","[]","[]","[]","","","","","","","","","","","","","","","","","","","","","","","","","",""
"18719","","","instructions","7","168120","0.0-6.0","3","4","4","3","4","4","4","4","4","4","4","3","4","4","3","4","4","4","4","5","2","1","1","2","2","2","1","2","1","1","0","0","1","0","1","0","1","0","1","1","0","1","0","0","4","5","4","2","5","","2","4","4","1","2","768533085213167618","徐","417","","","","","","","","","","","","","","","","","[{""page_index"":0,""viewing_time"":18717}]","","","","","","","","","","","","","","","","","","","","","","","","",""
"35151","","","instructions","8","203282","0.0-7.0-1.0-0.0","3","4","4","3","4","4","4","4","4","4","4","3","4","4","3","4","4","4","4","5","2","1","1","2","2","2","1","2","1","1","0","0","1","0","1","0","1","0","1","1","0","1","0","0","4","5","4","2","5","","2","4","4","1","2","768533085213167618","徐","417","","","","","","","","","","","","","","","","","[{""page_index"":0,""viewing_time"":22837},{""page_index"":1,""viewing_time"":9524},{""page_index"":2,""viewing_time"":2789}]","","","","","","","","","","","","","","","","","","","","","","","","",""
"710","","j","psychophysics","9","205025","0.0-7.0-1.0-1.0-0.0-0.0","3","4","4","3","4","4","4","4","4","4","4","3","4","4","3","4","4","4","4","5","2","1","1","2","2","2","1","2","1","1","0","0","1","0","1","0","1","0","1","1","0","1","0","0","4","5","4","2","5","","2","4","4","1","2","768533085213167618","徐","417","","","","match","","","","","","","","","","","","","","key","j","23.14627777777787","853.1249872874471","475.6249929126353","f","false","nonmatch","img/hexagon.png","方形","六边","ALT1_2","prac_ALT1_2","","","","","","","","","","","",""
"null","<span style='color:red; font-size: 70px;'>错误! </span>","null","html-keyboard-response","10","205531","0.0-7.0-1.0-1.0-0.0-1.0","3","4","4","3","4","4","4","4","4","4","4","3","4","4","3","4","4","4","4","5","2","1","1","2","2","2","1","2","1","1","0","0","1","0","1","0","1","0","1","1","0","1","0","0","4","5","4","2","5","","2","4","4","1","2","768533085213167618","徐","417","","","","","","","","","","","","","","","","","","","","","","","","","","","","","","feedback_test","","","","","","","","","","","",""
"547","","j","psychophysics","11","207107","0.0-7.0-1.0-1.0-0.0-0.1","3","4","4","3","4","4","4","4","4","4","4","3","4","4","3","4","4","4","4","5","2","1","1","2","2","2","1","2","1","1","0","0","1","0","1","0","1","0","1","1","0","1","0","0","4","5","4","2","5","","2","4","4","1","2","768533085213167618","徐","417","","","","match","","","","","","","","","","","","","","key","j","21.903785714285913","853.1249872874471","475.6249929126353","j","true","match","img/ellipse.png","椭圆","椭圆","ALT1_2","prac_ALT1_2","","","","","","","","","","","",""
"null","<span style='color:GreenYellow; font-size: 70px;'>正确! </span>","null","html-keyboard-response","12","207612","0.0-7.0-1.0-1.0-0.0-1.1","3","4","4","3","4","4","4","4","4","4","4","3","4","4","3","4","4","4","4","5","2","1","1","2","2","2","1","2","1","1","0","0","1","0","1","0","1","0","1","1","0","1","0","0","4","5","4","2","5","","2","4","4","1","2","768533085213167618","徐","417","","","","","","","","","","","","","","","","","","","","","","","","","","","","","","feedback_test","","","","","","","","","","","",""
"703","","f","psychophysics","13","209342","0.0-7.0-1.0-1.0-0.0-0.2","3","4","4","3","4","4","4","4","4","4","4","3","4","4","3","4","4","4","4","5","2","1","1","2","2","2","1","2","1","1","0","0","1","0","1","0","1","0","1","1","0","1","0","0","4","5","4","2","5","","2","4","4","1","2","768533085213167618","徐","417","","","","nonmatch","","","","","","","","","","","","","","key","f","22.073935064935057","853.1249872874471","475.6249929126353","f","true","nonmatch","img/trapezoid.png","方形","梯形","ALT1_2","prac_ALT1_2","","","","","","","","","","","",""
"null","<span style='color:GreenYellow; font-size: 70px;'>正确! </span>","null","html-keyboard-response","14","209846","0.0-7.0-1.0-1.0-0.0-1.2","3","4","4","3","4","4","4","4","4","4","4","3","4","4","3","4","4","4","4","5","2","1","1","2","2","2","1","2","1","1","0","0","1","0","1","0","1","0","1","1","0","1","0","0","4","5","4","2","5","","2","4","4","1","2","768533085213167618","徐","417","","","","","","","","","","","","","","","","","","","","","","","","","","","","","","feedback_test","","","","","","","","","","","",""
"562","","j","psychophysics","15","211432","0.0-7.0-1.0-1.0-0.0-0.3","3","4","4","3","4","4","4","4","4","4","4","3","4","4","3","4","4","4","4","5","2","1","1","2","2","2","1","2","1","1","0","0","1","0","1","0","1","0","1","1","0","1","0","0","4","5","4","2","5","","2","4","4","1","2","768533085213167618","徐","417","","","","match","","","","","","","","","","","","","","key","j","21.820422535211268","853.1249872874471","475.6249929126353","j","true","match","img/ellipse.png","椭圆","椭圆","ALT1_2","prac_ALT1_2","","","","","","","","","","","",""
"null","<span style='color:GreenYellow; font-size: 70px;'>正确! </span>","null","html-keyboard-response","16","211938","0.0-7.0-1.0-1.0-0.0-1.3","3","4","4","3","4","4","4","4","4","4","4","3","4","4","3","4","4","4","4","5","2","1","1","2","2","2","1","2","1","1","0","0","1","0","1","0","1","0","1","1","0","1","0","0","4","5","4","2","5","","2","4","4","1","2","768533085213167618","徐","417","","","","","","","","","","","","","","","","","","","","","","","","","","","","","","feedback_test","","","","","","","","","","","",""
"583","","j","psychophysics","17","213540","0.0-7.0-1.0-1.0-0.0-0.4","3","4","4","3","4","4","4","4","4","4","4","3","4","4","3","4","4","4","4","5","2","1","1","2","2","2","1","2","1","1","0","0","1","0","1","0","1","0","1","1","0","1","0","0","4","5","4","2","5","","2","4","4","1","2","768533085213167618","徐","417","","","","match","","","","","","","","","","","","","","key","j","22.79488235294112","853.1249872874471","475.6249929126353","f","false","nonmatch","img/ellipse.png","梯形","椭圆","ALT1_2","prac_ALT1_2","","","","","","","","","","","",""
"null","<span style='color:red; font-size: 70px;'>错误! </span>","null","html-keyboard-response","18","214044","0.0-7.0-1.0-1.0-0.0-1.4","3","4","4","3","4","4","4","4","4","4","4","3","4","4","3","4","4","4","4","5","2","1","1","2","2","2","1","2","1","1","0","0","1","0","1","0","1","0","1","1","0","1","0","0","4","5","4","2","5","","2","4","4","1","2","768533085213167618","徐","417","","","","","","","","","","","","","","","","","","","","","","","","","","","","","","feedback_test","","","","","","","","","","","",""
"656","","j","psychophysics","19","215721","0.0-7.0-1.0-1.0-0.0-0.5","3","4","4","3","4","4","4","4","4","4","4","3","4","4","3","4","4","4","4","5","2","1","1","2","2","2","1","2","1","1","0","0","1","0","1","0","1","0","1","1","0","1","0","0","4","5","4","2","5","","2","4","4","1","2","768533085213167618","徐","417","","","","match","","","","","","","","","","","","","","key","j","22.682472222221904","853.1249872874471","475.6249929126353","f","false","nonmatch","img/ellipse.png","六边","椭圆","ALT1_2","prac_ALT1_2","","","","","","","","","","","",""
"null","<span style='color:red; font-size: 70px;'>错误! </span>","null","html-keyboard-response","20","216225","0.0-7.0-1.0-1.0-0.0-1.5","3","4","4","3","4","4","4","4","4","4","4","3","4","4","3","4","4","4","4","5","2","1","1","2","2","2","1","2","1","1","0","0","1","0","1","0","1","0","1","1","0","1","0","0","4","5","4","2","5","","2","4","4","1","2","768533085213167618","徐","417","","","","","","","","","","","","","","","","","","","","","","","","","","","","","","feedback_test","","","","","","","","","","","",""
"677","","j","psychophysics","21","217919","0.0-7.0-1.0-1.0-0.0-0.6","3","4","4","3","4","4","4","4","4","4","4","3","4","4","3","4","4","4","4","5","2","1","1","2","2","2","1","2","1","1","0","0","1","0","1","0","1","0","1","1","0","1","0","0","4","5","4","2","5","","2","4","4","1","2","768533085213167618","徐","417","","","","match","","","","","","","","","","","","","","key","j","21.7102368421053","853.1249872874471","475.6249929126353","j","true","match","img/trapezoid.png","梯形","梯形","ALT1_2","prac_ALT1_2","","","","","","","","","","","",""
"null","<span style='color:GreenYellow; font-size: 70px;'>正确! </span>","null","html-keyboard-response","22","218423","0.0-7.0-1.0-1.0-0.0-1.6","3","4","4","3","4","4","4","4","4","4","4","3","4","4","3","4","4","4","4","5","2","1","1","2","2","2","1","2","1","1","0","0","1","0","1","0","1","0","1","1","0","1","0","0","4","5","4","2","5","","2","4","4","1","2","768533085213167618","徐","417","","","","","","","","","","","","","","","","","","","","","","","","","","","","","","feedback_test","","","","","","","","","","","",""
"641","","j","psychophysics","23","220074","0.0-7.0-1.0-1.0-0.0-0.7","3","4","4","3","4","4","4","4","4","4","4","3","4","4","3","4","4","4","4","5","2","1","1","2","2","2","1","2","1","1","0","0","1","0","1","0","1","0","1","1","0","1","0","0","4","5","4","2","5","","2","4","4","1","2","768533085213167618","徐","417","","","","match","","","","","","","","","","","","","","key","j","23.130217391304146","853.1249872874471","475.6249929126353","f","false","nonmatch","img/square.png","梯形","方形","ALT1_2","prac_ALT1_2","","","","","","","","","","","",""
"null","<span style='color:red; font-size: 70px;'>错误! </span>","null","html-keyboard-response","24","220578","0.0-7.0-1.0-1.0-0.0-1.7","3","4","4","3","4","4","4","4","4","4","4","3","4","4","3","4","4","4","4","5","2","1","1","2","2","2","1","2","1","1","0","0","1","0","1","0","1","0","1","1","0","1","0","0","4","5","4","2","5","","2","4","4","1","2","768533085213167618","徐","417","","","","","","","","","","","","","","","","","","","","","","","","","","","","","","feedback_test","","","","","","","","","","","",""
"671","","j","psychophysics","25","222262","0.0-7.0-1.0-1.0-0.0-0.8","3","4","4","3","4","4","4","4","4","4","4","3","4","4","3","4","4","4","4","5","2","1","1","2","2","2","1","2","1","1","0","0","1","0","1","0","1","0","1","1","0","1","0","0","4","5","4","2","5","","2","4","4","1","2","768533085213167618","徐","417","","","","match","","","","","","","","","","","","","","key","j","21.98573333333324","853.1249872874471","475.6249929126353","j","true","match","img/hexagon.png","六边","六边","ALT1_2","prac_ALT1_2","","","","","","","","","","","",""
"null","<span style='color:GreenYellow; font-size: 70px;'>正确! </span>","null","html-keyboard-response","26","222766","0.0-7.0-1.0-1.0-0.0-1.8","3","4","4","3","4","4","4","4","4","4","4","3","4","4","3","4","4","4","4","5","2","1","1","2","2","2","1","2","1","1","0","0","1","0","1","0","1","0","1","1","0","1","0","0","4","5","4","2","5","","2","4","4","1","2","768533085213167618","徐","417","","","","","","","","","","","","","","","","","","","","","","","","","","","","","","feedback_test","","","","","","","","","","","",""
"744","","f","psychophysics","27","224514","0.0-7.0-1.0-1.0-0.0-0.9","3","4","4","3","4","4","4","4","4","4","4","3","4","4","3","4","4","4","4","5","2","1","1","2","2","2","1","2","1","1","0","0","1","0","1","0","1","0","1","1","0","1","0","0","4","5","4","2","5","","2","4","4","1","2","768533085213167618","徐","417","","","","nonmatch","","","","","","","","","","","","","","key","f","22.662359999999946","853.1249872874471","475.6249929126353","f","true","nonmatch","img/hexagon.png","椭圆","六边","ALT1_2","prac_ALT1_2","","","","","","","","","","","",""
"null","<span style='color:GreenYellow; font-size: 70px;'>正确! </span>","null","html-keyboard-response","28","225023","0.0-7.0-1.0-1.0-0.0-1.9","3","4","4","3","4","4","4","4","4","4","4","3","4","4","3","4","4","4","4","5","2","1","1","2","2","2","1","2","1","1","0","0","1","0","1","0","1","0","1","1","0","1","0","0","4","5","4","2","5","","2","4","4","1","2","768533085213167618","徐","417","","","","","","","","","","","","","","","","","","","","","","","","","","","","","","feedback_test","","","","","","","","","","","",""
"777","","j","psychophysics","29","226816","0.0-7.0-1.0-1.0-0.0-0.10","3","4","4","3","4","4","4","4","4","4","4","3","4","4","3","4","4","4","4","5","2","1","1","2","2","2","1","2","1","1","0","0","1","0","1","0","1","0","1","1","0","1","0","0","4","5","4","2","5","","2","4","4","1","2","768533085213167618","徐","417","","","","match","","","","","","","","","","","","","","key","j","22.428384615384857","853.1249872874471","475.6249929126353","f","false","nonmatch","img/trapezoid.png","椭圆","梯形","ALT1_2","prac_ALT1_2","","","","","","","","","","","",""
"null","<span style='color:red; font-size: 70px;'>错误! </span>","null","html-keyboard-response","30","227321","0.0-7.0-1.0-1.0-0.0-1.10","3","4","4","3","4","4","4","4","4","4","4","3","4","4","3","4","4","4","4","5","2","1","1","2","2","2","1","2","1","1","0","0","1","0","1","0","1","0","1","1","0","1","0","0","4","5","4","2","5","","2","4","4","1","2","768533085213167618","徐","417","","","","","","","","","","","","","","","","","","","","","","","","","","","","","","feedback_test","","","","","","","","","","","",""
"1014","","f","psychophysics","31","229346","0.0-7.0-1.0-1.0-0.0-0.11","3","4","4","3","4","4","4","4","4","4","4","3","4","4","3","4","4","4","4","5","2","1","1","2","2","2","1","2","1","1","0","0","1","0","1","0","1","0","1","1","0","1","0","0","4","5","4","2","5","","2","4","4","1","2","768533085213167618","徐","417","","","","nonmatch","","","","","","","","","","","","","","key","f","22.59582758620689","853.1249872874471","475.6249929126353","f","true","nonmatch","img/trapezoid.png","六边","梯形","ALT1_2","prac_ALT1_2","","","","","","","","","","","",""
"null","<span style='color:GreenYellow; font-size: 70px;'>正确! </span>","null","html-keyboard-response","32","229850","0.0-7.0-1.0-1.0-0.0-1.11","3","4","4","3","4","4","4","4","4","4","4","3","4","4","3","4","4","4","4","5","2","1","1","2","2","2","1","2","1","1","0","0","1","0","1","0","1","0","1","1","0","1","0","0","4","5","4","2","5","","2","4","4","1","2","768533085213167618","徐","417","","","","","","","","","","","","","","","","","","","","","","","","","","","","","","feedback_test","","","","","","","","","","","",""
"842","","j","psychophysics","33","231712","0.0-7.0-1.0-1.0-0.0-0.12","3","4","4","3","4","4","4","4","4","4","4","3","4","4","3","4","4","4","4","5","2","1","1","2","2","2","1","2","1","1","0","0","1","0","1","0","1","0","1","1","0","1","0","0","4","5","4","2","5","","2","4","4","1","2","768533085213167618","徐","417","","","","match","","","","","","","","","","","","","","key","j","22.12409756097569","853.1249872874471","475.6249929126353","f","false","nonmatch","img/hexagon.png","梯形","六边","ALT1_2","prac_ALT1_2","","","","","","","","","","","",""
"null","<span style='color:red; font-size: 70px;'>错误! </span>","null","html-keyboard-response","34","232216","0.0-7.0-1.0-1.0-0.0-1.12","3","4","4","3","4","4","4","4","4","4","4","3","4","4","3","4","4","4","4","5","2","1","1","2","2","2","1","2","1","1","0","0","1","0","1","0","1","0","1","1","0","1","0","0","4","5","4","2","5","","2","4","4","1","2","768533085213167618","徐","417","","","","","","","","","","","","","","","","","","","","","","","","","","","","","","feedback_test","","","","","","","","","","","",""
"868","","j","psychophysics","35","234099","0.0-7.0-1.0-1.0-0.0-0.13","3","4","4","3","4","4","4","4","4","4","4","3","4","4","3","4","4","4","4","5","2","1","1","2","2","2","1","2","1","1","0","0","1","0","1","0","1","0","1","1","0","1","0","0","4","5","4","2","5","","2","4","4","1","2","768533085213167618","徐","417","","","","match","","","","","","","","","","","","","","key","j","22.36093902439035","853.1249872874471","475.6249929126353","j","true","match","img/trapezoid.png","梯形","梯形","ALT1_2","prac_ALT1_2","","","","","","","","","","","",""
"null","<span style='color:GreenYellow; font-size: 70px;'>正确! </span>","null","html-keyboard-response","36","234605","0.0-7.0-1.0-1.0-0.0-1.13","3","4","4","3","4","4","4","4","4","4","4","3","4","4","3","4","4","4","4","5","2","1","1","2","2","2","1","2","1","1","0","0","1","0","1","0","1","0","1","1","0","1","0","0","4","5","4","2","5","","2","4","4","1","2","768533085213167618","徐","417","","","","","","","","","","","","","","","","","","","","","","","","","","","","","","feedback_test","","","","","","","","","","","",""
"640","","j","psychophysics","37","236264","0.0-7.0-1.0-1.0-0.0-0.14","3","4","4","3","4","4","4","4","4","4","4","3","4","4","3","4","4","4","4","5","2","1","1","2","2","2","1","2","1","1","0","0","1","0","1","0","1","0","1","1","0","1","0","0","4","5","4","2","5","","2","4","4","1","2","768533085213167618","徐","417","","","","match","","","","","","","","","","","","","","key","j","21.84724324324319","853.1249872874471","475.6249929126353","j","true","match","img/square.png","方形","方形","ALT1_2","prac_ALT1_2","","","","","","","","","","","",""
"null","<span style='color:GreenYellow; font-size: 70px;'>正确! </span>","null","html-keyboard-response","38","236767","0.0-7.0-1.0-1.0-0.0-1.14","3","4","4","3","4","4","4","4","4","4","4","3","4","4","3","4","4","4","4","5","2","1","1","2","2","2","1","2","1","1","0","0","1","0","1","0","1","0","1","1","0","1","0","0","4","5","4","2","5","","2","4","4","1","2","768533085213167618","徐","417","","","","","","","","","","","","","","","","","","","","","","","","","","","","","","feedback_test","","","","","","","","","","","",""
"647","","f","psychophysics","39","238437","0.0-7.0-1.0-1.0-0.0-0.15","3","4","4","3","4","4","4","4","4","4","4","3","4","4","3","4","4","4","4","5","2","1","1","2","2","2","1","2","1","1","0","0","1","0","1","0","1","0","1","1","0","1","0","0","4","5","4","2","5","","2","4","4","1","2","768533085213167618","徐","417","","","","nonmatch","","","","","","","","","","","","","","key","f","21.848608108107992","853.1249872874471","475.6249929126353","j","false","match","img/ellipse.png","椭圆","椭圆","ALT1_2","prac_ALT1_2","","","","","","","","","","","",""
"null","<span style='color:red; font-size: 70px;'>错误! </span>","null","html-keyboard-response","40","238940","0.0-7.0-1.0-1.0-0.0-1.15","3","4","4","3","4","4","4","4","4","4","4","3","4","4","3","4","4","4","4","5","2","1","1","2","2","2","1","2","1","1","0","0","1","0","1","0","1","0","1","1","0","1","0","0","4","5","4","2","5","","2","4","4","1","2","768533085213167618","徐","417","","","","","","","","","","","","","","","","","","","","","","","","","","","","","","feedback_test","","","","","","","","","","","",""
"666","","j","psychophysics","41","240614","0.0-7.0-1.0-1.0-0.0-0.16","3","4","4","3","4","4","4","4","4","4","4","3","4","4","3","4","4","4","4","5","2","1","1","2","2","2","1","2","1","1","0","0","1","0","1","0","1","0","1","1","0","1","0","0","4","5","4","2","5","","2","4","4","1","2","768533085213167618","徐","417","","","","match","","","","","","","","","","","","","","key","j","22.684444444444427","853.1249872874471","475.6249929126353","j","true","match","img/hexagon.png","六边","六边","ALT1_2","prac_ALT1_2","","","","","","","","","","","",""
"null","<span style='color:GreenYellow; font-size: 70px;'>正确! </span>","null","html-keyboard-response","42","241121","0.0-7.0-1.0-1.0-0.0-1.16","3","4","4","3","4","4","4","4","4","4","4","3","4","4","3","4","4","4","4","5","2","1","1","2","2","2","1","2","1","1","0","0","1","0","1","0","1","0","1","1","0","1","0","0","4","5","4","2","5","","2","4","4","1","2","768533085213167618","徐","417","","","","","","","","","","","","","","","","","","","","","","","","","","","","","","feedback_test","","","","","","","","","","","",""
"562","","j","psychophysics","43","242714","0.0-7.0-1.0-1.0-0.0-0.17","3","4","4","3","4","4","4","4","4","4","4","3","4","4","3","4","4","4","4","5","2","1","1","2","2","2","1","2","1","1","0","0","1","0","1","0","1","0","1","1","0","1","0","0","4","5","4","2","5","","2","4","4","1","2","768533085213167618","徐","417","","","","match","","","","","","","","","","","","","","key","j","23.818076923076745","853.1249872874471","475.6249929126353","j","true","match","img/square.png","方形","方形","ALT1_2","prac_ALT1_2","","","","","","","","","","","",""
"null","<span style='color:GreenYellow; font-size: 70px;'>正确! </span>","null","html-keyboard-response","44","243221","0.0-7.0-1.0-1.0-0.0-1.17","3","4","4","3","4","4","4","4","4","4","4","3","4","4","3","4","4","4","4","5","2","1","1","2","2","2","1","2","1","1","0","0","1","0","1","0","1","0","1","1","0","1","0","0","4","5","4","2","5","","2","4","4","1","2","768533085213167618","徐","417","","","","","","","","","","","","","","","","","","","","","","","","","","","","","","feedback_test","","","","","","","","","","","",""
"580","","j","psychophysics","45","244837","0.0-7.0-1.0-1.0-0.0-0.18","3","4","4","3","4","4","4","4","4","4","4","3","4","4","3","4","4","4","4","5","2","1","1","2","2","2","1","2","1","1","0","0","1","0","1","0","1","0","1","1","0","1","0","0","4","5","4","2","5","","2","4","4","1","2","768533085213167618","徐","417","","","","match","","","","","","","","","","","","","","key","j","23.847215384615208","853.1249872874471","475.6249929126353","j","true","match","img/hexagon.png","六边","六边","ALT1_2","prac_ALT1_2","","","","","","","","","","","",""
"null","<span style='color:GreenYellow; font-size: 70px;'>正确! </span>","null","html-keyboard-response","46","245340","0.0-7.0-1.0-1.0-0.0-1.18","3","4","4","3","4","4","4","4","4","4","4","3","4","4","3","4","4","4","4","5","2","1","1","2","2","2","1","2","1","1","0","0","1","0","1","0","1","0","1","1","0","1","0","0","4","5","4","2","5","","2","4","4","1","2","768533085213167618","徐","417","","","","","","","","","","","","","","","","","","","","","","","","","","","","","","feedback_test","","","","","","","","","","","",""
"623","","f","psychophysics","47","246992","0.0-7.0-1.0-1.0-0.0-0.19","3","4","4","3","4","4","4","4","4","4","4","3","4","4","3","4","4","4","4","5","2","1","1","2","2","2","1","2","1","1","0","0","1","0","1","0","1","0","1","1","0","1","0","0","4","5","4","2","5","","2","4","4","1","2","768533085213167618","徐","417","","","","nonmatch","","","","","","","","","","","","","","key","f","23.772911764705736","853.1249872874471","475.6249929126353","f","true","nonmatch","img/ellipse.png","方形","椭圆","ALT1_2","prac_ALT1_2","","","","","","","","","","","",""
"null","<span style='color:GreenYellow; font-size: 70px;'>正确! </span>","null","html-keyboard-response","48","247496","0.0-7.0-1.0-1.0-0.0-1.19","3","4","4","3","4","4","4","4","4","4","4","3","4","4","3","4","4","4","4","5","2","1","1","2","2","2","1","2","1","1","0","0","1","0","1","0","1","0","1","1","0","1","0","0","4","5","4","2","5","","2","4","4","1","2","768533085213167618","徐","417","","","","","","","","","","","","","","","","","","","","","","","","","","","","","","feedback_test","","","","","","","","","","","",""
"638","","j","psychophysics","49","249216","0.0-7.0-1.0-1.0-0.0-0.20","3","4","4","3","4","4","4","4","4","4","4","3","4","4","3","4","4","4","4","5","2","1","1","2","2","2","1","2","1","1","0","0","1","0","1","0","1","0","1","1","0","1","0","0","4","5","4","2","5","","2","4","4","1","2","768533085213167618","徐","417","","","","match","","","","","","","","","","","","","","key","j","25.06582089552244","853.1249872874471","475.6249929126353","j","true","match","img/trapezoid.png","梯形","梯形","ALT1_2","prac_ALT1_2","","","","","","","","","","","",""
"null","<span style='color:GreenYellow; font-size: 70px;'>正确! </span>","null","html-keyboard-response","50","249722","0.0-7.0-1.0-1.0-0.0-1.20","3","4","4","3","4","4","4","4","4","4","4","3","4","4","3","4","4","4","4","5","2","1","1","2","2","2","1","2","1","1","0","0","1","0","1","0","1","0","1","1","0","1","0","0","4","5","4","2","5","","2","4","4","1","2","768533085213167618","徐","417","","","","","","","","","","","","","","","","","","","","","","","","","","","","","","feedback_test","","","","","","","","","","","",""
"717","","f","psychophysics","51","251447","0.0-7.0-1.0-1.0-0.0-0.21","3","4","4","3","4","4","4","4","4","4","4","3","4","4","3","4","4","4","4","5","2","1","1","2","2","2","1","2","1","1","0","0","1","0","1","0","1","0","1","1","0","1","0","0","4","5","4","2","5","","2","4","4","1","2","768533085213167618","徐","417","","","","nonmatch","","","","","","","","","","","","","","key","f","23.808085714286012","853.1249872874471","475.6249929126353","f","true","nonmatch","img/square.png","六边","方形","ALT1_2","prac_ALT1_2","","","","","","","","","","","",""
"null","<span style='color:GreenYellow; font-size: 70px;'>正确! </span>","null","html-keyboard-response","52","251950","0.0-7.0-1.0-1.0-0.0-1.21","3","4","4","3","4","4","4","4","4","4","4","3","4","4","3","4","4","4","4","5","2","1","1","2","2","2","1","2","1","1","0","0","1","0","1","0","1","0","1","1","0","1","0","0","4","5","4","2","5","","2","4","4","1","2","768533085213167618","徐","417","","","","","","","","","","","","","","","","","","","","","","","","","","","","","","feedback_test","","","","","","","","","","","",""
"776","","f","psychophysics","53","253736","0.0-7.0-1.0-1.0-0.0-0.22","3","4","4","3","4","4","4","4","4","4","4","3","4","4","3","4","4","4","4","5","2","1","1","2","2","2","1","2","1","1","0","0","1","0","1","0","1","0","1","1","0","1","0","0","4","5","4","2","5","","2","4","4","1","2","768533085213167618","徐","417","","","","nonmatch","","","","","","","","","","","","","","key","f","23.11275999999993","853.1249872874471","475.6249929126353","f","true","nonmatch","img/square.png","椭圆","方形","ALT1_2","prac_ALT1_2","","","","","","","","","","","",""
"null","<span style='color:GreenYellow; font-size: 70px;'>正确! </span>","null","html-keyboard-response","54","254239","0.0-7.0-1.0-1.0-0.0-1.22","3","4","4","3","4","4","4","4","4","4","4","3","4","4","3","4","4","4","4","5","2","1","1","2","2","2","1","2","1","1","0","0","1","0","1","0","1","0","1","1","0","1","0","0","4","5","4","2","5","","2","4","4","1","2","768533085213167618","徐","417","","","","","","","","","","","","","","","","","","","","","","","","","","","","","","feedback_test","","","","","","","","","","","",""
"611","","j","psychophysics","55","255873","0.0-7.0-1.0-1.0-0.0-0.23","3","4","4","3","4","4","4","4","4","4","4","3","4","4","3","4","4","4","4","5","2","1","1","2","2","2","1","2","1","1","0","0","1","0","1","0","1","0","1","1","0","1","0","0","4","5","4","2","5","","2","4","4","1","2","768533085213167618","徐","417","","","","match","","","","","","","","","","","","","","key","j","24.358892307691992","853.1249872874471","475.6249929126353","j","true","match","img/square.png","方形","方形","ALT1_2","prac_ALT1_2","","","","","","","","","","","",""
"null","<span style='color:GreenYellow; font-size: 70px;'>正确! </span>","null","html-keyboard-response","56","256376","0.0-7.0-1.0-1.0-0.0-1.23","3","4","4","3","4","4","4","4","4","4","4","3","4","4","3","4","4","4","4","5","2","1","1","2","2","2","1","2","1","1","0","0","1","0","1","0","1","0","1","1","0","1","0","0","4","5","4","2","5","","2","4","4","1","2","768533085213167618","徐","417","","","","","","","","","","","","","","","","","","","","","","","","","","","","","","feedback_test","","","","","","","","","","","",""
"685","","j","psychophysics","57","258071","0.0-7.0-1.0-1.0-0.0-0.24","3","4","4","3","4","4","4","4","4","4","4","3","4","4","3","4","4","4","4","5","2","1","1","2","2","2","1","2","1","1","0","0","1","0","1","0","1","0","1","1","0","1","0","0","4","5","4","2","5","","2","4","4","1","2","768533085213167618","徐","417","","","","match","","","","","","","","","","","","","","key","j","23.557728571428534","853.1249872874471","475.6249929126353","f","false","nonmatch","img/hexagon.png","方形","六边","ALT1_2","prac_ALT1_2","","","","","","","","","","","",""
"null","<span style='color:red; font-size: 70px;'>错误! </span>","null","html-keyboard-response","58","258574","0.0-7.0-1.0-1.0-0.0-1.24","3","4","4","3","4","4","4","4","4","4","4","3","4","4","3","4","4","4","4","5","2","1","1","2","2","2","1","2","1","1","0","0","1","0","1","0","1","0","1","1","0","1","0","0","4","5","4","2","5","","2","4","4","1","2","768533085213167618","徐","417","","","","","","","","","","","","","","","","","","","","","","","","","","","","","","feedback_test","","","","","","","","","","","",""
"711","","f","psychophysics","59","260302","0.0-7.0-1.0-1.0-0.0-0.25","3","4","4","3","4","4","4","4","4","4","4","3","4","4","3","4","4","4","4","5","2","1","1","2","2","2","1","2","1","1","0","0","1","0","1","0","1","0","1","1","0","1","0","0","4","5","4","2","5","","2","4","4","1","2","768533085213167618","徐","417","","","","nonmatch","","","","","","","","","","","","","","key","f","25.499500000000065","853.1249872874471","475.6249929126353","f","true","nonmatch","img/square.png","椭圆","方形","ALT1_2","prac_ALT1_2","","","","","","","","","","","",""
"null","<span style='color:GreenYellow; font-size: 70px;'>正确! </span>","null","html-keyboard-response","60","260805","0.0-7.0-1.0-1.0-0.0-1.25","3","4","4","3","4","4","4","4","4","4","4","3","4","4","3","4","4","4","4","5","2","1","1","2","2","2","1","2","1","1","0","0","1","0","1","0","1","0","1","1","0","1","0","0","4","5","4","2","5","","2","4","4","1","2","768533085213167618","徐","417","","","","","","","","","","","","","","","","","","","","","","","","","","","","","","feedback_test","","","","","","","","","","","",""
"863","","f","psychophysics","61","262673","0.0-7.0-1.0-1.0-0.0-0.26","3","4","4","3","4","4","4","4","4","4","4","3","4","4","3","4","4","4","4","5","2","1","1","2","2","2","1","2","1","1","0","0","1","0","1","0","1","0","1","1","0","1","0","0","4","5","4","2","5","","2","4","4","1","2","768533085213167618","徐","417","","","","nonmatch","","","","","","","","","","","","","","key","f","23.90296052631579","853.1249872874471","475.6249929126353","f","true","nonmatch","img/trapezoid.png","方形","梯形","ALT1_2","prac_ALT1_2","","","","","","","","","","","",""
"null","<span style='color:GreenYellow; font-size: 70px;'>正确! </span>","null","html-keyboard-response","62","263178","0.0-7.0-1.0-1.0-0.0-1.26","3","4","4","3","4","4","4","4","4","4","4","3","4","4","3","4","4","4","4","5","2","1","1","2","2","2","1","2","1","1","0","0","1","0","1","0","1","0","1","1","0","1","0","0","4","5","4","2","5","","2","4","4","1","2","768533085213167618","徐","417","","","","","","","","","","","","","","","","","","","","","","","","","","","","","","feedback_test","","","","","","","","","","","",""
"581","","j","psychophysics","63","264765","0.0-7.0-1.0-1.0-0.0-0.27","3","4","4","3","4","4","4","4","4","4","4","3","4","4","3","4","4","4","4","5","2","1","1","2","2","2","1","2","1","1","0","0","1","0","1","0","1","0","1","1","0","1","0","0","4","5","4","2","5","","2","4","4","1","2","768533085213167618","徐","417","","","","match","","","","","","","","","","","","","","key","j","23.84893846153819","853.1249872874471","475.6249929126353","j","true","match","img/trapezoid.png","梯形","梯形","ALT1_2","prac_ALT1_2","","","","","","","","","","","",""
"null","<span style='color:GreenYellow; font-size: 70px;'>正确! </span>","null","html-keyboard-response","64","265270","0.0-7.0-1.0-1.0-0.0-1.27","3","4","4","3","4","4","4","4","4","4","4","3","4","4","3","4","4","4","4","5","2","1","1","2","2","2","1","2","1","1","0","0","1","0","1","0","1","0","1","1","0","1","0","0","4","5","4","2","5","","2","4","4","1","2","768533085213167618","徐","417","","","","","","","","","","","","","","","","","","","","","","","","","","","","","","feedback_test","","","","","","","","","","","",""
"632","","j","psychophysics","65","266923","0.0-7.0-1.0-1.0-0.0-0.28","3","4","4","3","4","4","4","4","4","4","4","3","4","4","3","4","4","4","4","5","2","1","1","2","2","2","1","2","1","1","0","0","1","0","1","0","1","0","1","1","0","1","0","0","4","5","4","2","5","","2","4","4","1","2","768533085213167618","徐","417","","","","match","","","","","","","","","","","","","","key","j","22.765830985915645","853.1249872874471","475.6249929126353","j","true","match","img/square.png","方形","方形","ALT1_2","prac_ALT1_2","","","","","","","","","","","",""
"null","<span style='color:GreenYellow; font-size: 70px;'>正确! </span>","null","html-keyboard-response","66","267427","0.0-7.0-1.0-1.0-0.0-1.28","3","4","4","3","4","4","4","4","4","4","4","3","4","4","3","4","4","4","4","5","2","1","1","2","2","2","1","2","1","1","0","0","1","0","1","0","1","0","1","1","0","1","0","0","4","5","4","2","5","","2","4","4","1","2","768533085213167618","徐","417","","","","","","","","","","","","","","","","","","","","","","","","","","","","","","feedback_test","","","","","","","","","","","",""
"752","","f","psychophysics","67","269195","0.0-7.0-1.0-1.0-0.0-0.29","3","4","4","3","4","4","4","4","4","4","4","3","4","4","3","4","4","4","4","5","2","1","1","2","2","2","1","2","1","1","0","0","1","0","1","0","1","0","1","1","0","1","0","0","4","5","4","2","5","","2","4","4","1","2","768533085213167618","徐","417","","","","nonmatch","","","","","","","","","","","","","","key","f","22.49397402597431","853.1249872874471","475.6249929126353","f","true","nonmatch","img/trapezoid.png","六边","梯形","ALT1_2","prac_ALT1_2","","","","","","","","","","","",""
"null","<span style='color:GreenYellow; font-size: 70px;'>正确! </span>","null","html-keyboard-response","68","269698","0.0-7.0-1.0-1.0-0.0-1.29","3","4","4","3","4","4","4","4","4","4","4","3","4","4","3","4","4","4","4","5","2","1","1","2","2","2","1","2","1","1","0","0","1","0","1","0","1","0","1","1","0","1","0","0","4","5","4","2","5","","2","4","4","1","2","768533085213167618","徐","417","","","","","","","","","","","","","","","","","","","","","","","","","","","","","","feedback_test","","","","","","","","","","","",""
"747","","f","psychophysics","69","271455","0.0-7.0-1.0-1.0-0.0-0.30","3","4","4","3","4","4","4","4","4","4","4","3","4","4","3","4","4","4","4","5","2","1","1","2","2","2","1","2","1","1","0","0","1","0","1","0","1","0","1","1","0","1","0","0","4","5","4","2","5","","2","4","4","1","2","768533085213167618","徐","417","","","","nonmatch","","","","","","","","","","","","","","key","f","22.08249350649368","853.1249872874471","475.6249929126353","f","true","nonmatch","img/ellipse.png","方形","椭圆","ALT1_2","prac_ALT1_2","","","","","","","","","","","",""
"null","<span style='color:GreenYellow; font-size: 70px;'>正确! </span>","null","html-keyboard-response","70","271958","0.0-7.0-1.0-1.0-0.0-1.30","3","4","4","3","4","4","4","4","4","4","4","3","4","4","3","4","4","4","4","5","2","1","1","2","2","2","1","2","1","1","0","0","1","0","1","0","1","0","1","1","0","1","0","0","4","5","4","2","5","","2","4","4","1","2","768533085213167618","徐","417","","","","","","","","","","","","","","","","","","","","","","","","","","","","","","feedback_test","","","","","","","","","","","",""
"626","","j","psychophysics","71","273608","0.0-7.0-1.0-1.0-0.0-0.31","3","4","4","3","4","4","4","4","4","4","4","3","4","4","3","4","4","4","4","5","2","1","1","2","2","2","1","2","1","1","0","0","1","0","1","0","1","0","1","1","0","1","0","0","4","5","4","2","5","","2","4","4","1","2","768533085213167618","徐","417","","","","match","","","","","","","","","","","","","","key","j","22.447722222222687","853.1249872874471","475.6249929126353","j","true","match","img/ellipse.png","椭圆","椭圆","ALT1_2","prac_ALT1_2","","","","","","","","","","","",""
"null","<span style='color:GreenYellow; font-size: 70px;'>正确! </span>","null","html-keyboard-response","72","274111","0.0-7.0-1.0-1.0-0.0-1.31","3","4","4","3","4","4","4","4","4","4","4","3","4","4","3","4","4","4","4","5","2","1","1","2","2","2","1","2","1","1","0","0","1","0","1","0","1","0","1","1","0","1","0","0","4","5","4","2","5","","2","4","4","1","2","768533085213167618","徐","417","","","","","","","","","","","","","","","","","","","","","","","","","","","","","","feedback_test","","","","","","","","","","","",""
"600","","j","psychophysics","73","275721","0.0-7.0-1.0-1.0-0.0-0.32","3","4","4","3","4","4","4","4","4","4","4","3","4","4","3","4","4","4","4","5","2","1","1","2","2","2","1","2","1","1","0","0","1","0","1","0","1","0","1","1","0","1","0","0","4","5","4","2","5","","2","4","4","1","2","768533085213167618","徐","417","","","","match","","","","","","","","","","","","","","key","j","22.699028985507354","853.1249872874471","475.6249929126353","j","true","match","img/square.png","方形","方形","ALT1_2","prac_ALT1_2","","","","","","","","","","","",""
"null","<span style='color:GreenYellow; font-size: 70px;'>正确! </span>","null","html-keyboard-response","74","276225","0.0-7.0-1.0-1.0-0.0-1.32","3","4","4","3","4","4","4","4","4","4","4","3","4","4","3","4","4","4","4","5","2","1","1","2","2","2","1","2","1","1","0","0","1","0","1","0","1","0","1","1","0","1","0","0","4","5","4","2","5","","2","4","4","1","2","768533085213167618","徐","417","","","","","","","","","","","","","","","","","","","","","","","","","","","","","","feedback_test","","","","","","","","","","","",""
"801","","j","psychophysics","75","278037","0.0-7.0-1.0-1.0-0.0-0.33","3","4","4","3","4","4","4","4","4","4","4","3","4","4","3","4","4","4","4","5","2","1","1","2","2","2","1","2","1","1","0","0","1","0","1","0","1","0","1","1","0","1","0","0","4","5","4","2","5","","2","4","4","1","2","768533085213167618","徐","417","","","","match","","","","","","","","","","","","","","key","j","22.35864556962079","853.1249872874471","475.6249929126353","j","true","match","img/ellipse.png","椭圆","椭圆","ALT1_2","prac_ALT1_2","","","","","","","","","","","",""
"null","<span style='color:GreenYellow; font-size: 70px;'>正确! </span>","null","html-keyboard-response","76","278541","0.0-7.0-1.0-1.0-0.0-1.33","3","4","4","3","4","4","4","4","4","4","4","3","4","4","3","4","4","4","4","5","2","1","1","2","2","2","1","2","1","1","0","0","1","0","1","0","1","0","1","1","0","1","0","0","4","5","4","2","5","","2","4","4","1","2","768533085213167618","徐","417","","","","","","","","","","","","","","","","","","","","","","","","","","","","","","feedback_test","","","","","","","","","","","",""
"665","","j","psychophysics","77","280209","0.0-7.0-1.0-1.0-0.0-0.34","3","4","4","3","4","4","4","4","4","4","4","3","4","4","3","4","4","4","4","5","2","1","1","2","2","2","1","2","1","1","0","0","1","0","1","0","1","0","1","1","0","1","0","0","4","5","4","2","5","","2","4","4","1","2","768533085213167618","徐","417","","","","match","","","","","","","","","","","","","","key","j","23.64350724637684","853.1249872874471","475.6249929126353","j","true","match","img/hexagon.png","六边","六边","ALT1_2","prac_ALT1_2","","","","","","","","","","","",""
"null","<span style='color:GreenYellow; font-size: 70px;'>正确! </span>","null","html-keyboard-response","78","280712","0.0-7.0-1.0-1.0-0.0-1.34","3","4","4","3","4","4","4","4","4","4","4","3","4","4","3","4","4","4","4","5","2","1","1","2","2","2","1","2","1","1","0","0","1","0","1","0","1","0","1","1","0","1","0","0","4","5","4","2","5","","2","4","4","1","2","768533085213167618","徐","417","","","","","","","","","","","","","","","","","","","","","","","","","","","","","","feedback_test","","","","","","","","","","","",""
"701","","j","psychophysics","79","282417","0.0-7.0-1.0-1.0-0.0-0.35","3","4","4","3","4","4","4","4","4","4","4","3","4","4","3","4","4","4","4","5","2","1","1","2","2","2","1","2","1","1","0","0","1","0","1","0","1","0","1","1","0","1","0","0","4","5","4","2","5","","2","4","4","1","2","768533085213167618","徐","417","","","","match","","","","","","","","","","","","","","key","j","22.520621621621004","853.1249872874471","475.6249929126353","f","false","nonmatch","img/square.png","梯形","方形","ALT1_2","prac_ALT1_2","","","","","","","","","","","",""
"null","<span style='color:red; font-size: 70px;'>错误! </span>","null","html-keyboard-response","80","282921","0.0-7.0-1.0-1.0-0.0-1.35","3","4","4","3","4","4","4","4","4","4","4","3","4","4","3","4","4","4","4","5","2","1","1","2","2","2","1","2","1","1","0","0","1","0","1","0","1","0","1","1","0","1","0","0","4","5","4","2","5","","2","4","4","1","2","768533085213167618","徐","417","","","","","","","","","","","","","","","","","","","","","","","","","","","","","","feedback_test","","","","","","","","","","","",""
"670","","f","psychophysics","81","284617","0.0-7.0-1.0-1.0-0.0-0.36","3","4","4","3","4","4","4","4","4","4","4","3","4","4","3","4","4","4","4","5","2","1","1","2","2","2","1","2","1","1","0","0","1","0","1","0","1","0","1","1","0","1","0","0","4","5","4","2","5","","2","4","4","1","2","768533085213167618","徐","417","","","","nonmatch","","","","","","","","","","","","","","key","f","23.2189436619716","853.1249872874471","475.6249929126353","f","true","nonmatch","img/ellipse.png","六边","椭圆","ALT1_2","prac_ALT1_2","","","","","","","","","","","",""
"null","<span style='color:GreenYellow; font-size: 70px;'>正确! </span>","null","html-keyboard-response","82","285120","0.0-7.0-1.0-1.0-0.0-1.36","3","4","4","3","4","4","4","4","4","4","4","3","4","4","3","4","4","4","4","5","2","1","1","2","2","2","1","2","1","1","0","0","1","0","1","0","1","0","1","1","0","1","0","0","4","5","4","2","5","","2","4","4","1","2","768533085213167618","徐","417","","","","","","","","","","","","","","","","","","","","","","","","","","","","","","feedback_test","","","","","","","","","","","",""
"780","","j","psychophysics","83","286918","0.0-7.0-1.0-1.0-0.0-0.37","3","4","4","3","4","4","4","4","4","4","4","3","4","4","3","4","4","4","4","5","2","1","1","2","2","2","1","2","1","1","0","0","1","0","1","0","1","0","1","1","0","1","0","0","4","5","4","2","5","","2","4","4","1","2","768533085213167618","徐","417","","","","match","","","","","","","","","","","","","","key","j","22.435435897436363","853.1249872874471","475.6249929126353","j","true","match","img/trapezoid.png","梯形","梯形","ALT1_2","prac_ALT1_2","","","","","","","","","","","",""
"null","<span style='color:GreenYellow; font-size: 70px;'>正确! </span>","null","html-keyboard-response","84","287421","0.0-7.0-1.0-1.0-0.0-1.37","3","4","4","3","4","4","4","4","4","4","4","3","4","4","3","4","4","4","4","5","2","1","1","2","2","2","1","2","1","1","0","0","1","0","1","0","1","0","1","1","0","1","0","0","4","5","4","2","5","","2","4","4","1","2","768533085213167618","徐","417","","","","","","","","","","","","","","","","","","","","","","","","","","","","","","feedback_test","","","","","","","","","","","",""
"646","","f","psychophysics","85","289074","0.0-7.0-1.0-1.0-0.0-0.38","3","4","4","3","4","4","4","4","4","4","4","3","4","4","3","4","4","4","4","5","2","1","1","2","2","2","1","2","1","1","0","0","1","0","1","0","1","0","1","1","0","1","0","0","4","5","4","2","5","","2","4","4","1","2","768533085213167618","徐","417","","","","nonmatch","","","","","","","","","","","","","","key","f","22.770126760563432","853.1249872874471","475.6249929126353","f","true","nonmatch","img/trapezoid.png","椭圆","梯形","ALT1_2","prac_ALT1_2","","","","","","","","","","","",""
"null","<span style='color:GreenYellow; font-size: 70px;'>正确! </span>","null","html-keyboard-response","86","289580","0.0-7.0-1.0-1.0-0.0-1.38","3","4","4","3","4","4","4","4","4","4","4","3","4","4","3","4","4","4","4","5","2","1","1","2","2","2","1","2","1","1","0","0","1","0","1","0","1","0","1","1","0","1","0","0","4","5","4","2","5","","2","4","4","1","2","768533085213167618","徐","417","","","","","","","","","","","","","","","","","","","","","","","","","","","","","","feedback_test","","","","","","","","","","","",""
"819","","f","psychophysics","87","291408","0.0-7.0-1.0-1.0-0.0-0.39","3","4","4","3","4","4","4","4","4","4","4","3","4","4","3","4","4","4","4","5","2","1","1","2","2","2","1","2","1","1","0","0","1","0","1","0","1","0","1","1","0","1","0","0","4","5","4","2","5","","2","4","4","1","2","768533085213167618","徐","417","","","","nonmatch","","","","","","","","","","","","","","key","f","22.29181250000038","853.1249872874471","475.6249929126353","f","true","nonmatch","img/hexagon.png","椭圆","六边","ALT1_2","prac_ALT1_2","","","","","","","","","","","",""
"null","<span style='color:GreenYellow; font-size: 70px;'>正确! </span>","null","html-keyboard-response","88","291911","0.0-7.0-1.0-1.0-0.0-1.39","3","4","4","3","4","4","4","4","4","4","4","3","4","4","3","4","4","4","4","5","2","1","1","2","2","2","1","2","1","1","0","0","1","0","1","0","1","0","1","1","0","1","0","0","4","5","4","2","5","","2","4","4","1","2","768533085213167618","徐","417","","","","","","","","","","","","","","","","","","","","","","","","","","","","","","feedback_test","","","","","","","","","","","",""
"688","","j","psychophysics","89","293641","0.0-7.0-1.0-1.0-0.0-0.40","3","4","4","3","4","4","4","4","4","4","4","3","4","4","3","4","4","4","4","5","2","1","1","2","2","2","1","2","1","1","0","0","1","0","1","0","1","0","1","1","0","1","0","0","4","5","4","2","5","","2","4","4","1","2","768533085213167618","徐","417","","","","match","","","","","","","","","","","","","","key","j","22.66377333333328","853.1249872874471","475.6249929126353","f","false","nonmatch","img/ellipse.png","梯形","椭圆","ALT1_2","prac_ALT1_2","","","","","","","","","","","",""
"null","<span style='color:red; font-size: 70px;'>错误! </span>","null","html-keyboard-response","90","294143","0.0-7.0-1.0-1.0-0.0-1.40","3","4","4","3","4","4","4","4","4","4","4","3","4","4","3","4","4","4","4","5","2","1","1","2","2","2","1","2","1","1","0","0","1","0","1","0","1","0","1","1","0","1","0","0","4","5","4","2","5","","2","4","4","1","2","768533085213167618","徐","417","","","","","","","","","","","","","","","","","","","","","","","","","","","","","","feedback_test","","","","","","","","","","","",""
"1051","","f","psychophysics","91","296206","0.0-7.0-1.0-1.0-0.0-0.41","3","4","4","3","4","4","4","4","4","4","4","3","4","4","3","4","4","4","4","5","2","1","1","2","2","2","1","2","1","1","0","0","1","0","1","0","1","0","1","1","0","1","0","0","4","5","4","2","5","","2","4","4","1","2","768533085213167618","徐","417","","","","nonmatch","","","","","","","","","","","","","","key","f","23.199448275862224","853.1249872874471","475.6249929126353","f","true","nonmatch","img/hexagon.png","梯形","六边","ALT1_2","prac_ALT1_2","","","","","","","","","","","",""
"null","<span style='color:GreenYellow; font-size: 70px;'>正确! </span>","null","html-keyboard-response","92","296709","0.0-7.0-1.0-1.0-0.0-1.41","3","4","4","3","4","4","4","4","4","4","4","3","4","4","3","4","4","4","4","5","2","1","1","2","2","2","1","2","1","1","0","0","1","0","1","0","1","0","1","1","0","1","0","0","4","5","4","2","5","","2","4","4","1","2","768533085213167618","徐","417","","","","","","","","","","","","","","","","","","","","","","","","","","","","","","feedback_test","","","","","","","","","","","",""
"658","","j","psychophysics","93","298382","0.0-7.0-1.0-1.0-0.0-0.42","3","4","4","3","4","4","4","4","4","4","4","3","4","4","3","4","4","4","4","5","2","1","1","2","2","2","1","2","1","1","0","0","1","0","1","0","1","0","1","1","0","1","0","0","4","5","4","2","5","","2","4","4","1","2","768533085213167618","徐","417","","","","match","","","","","","","","","","","","","","key","j","22.690666666666704","853.1249872874471","475.6249929126353","j","true","match","img/square.png","方形","方形","ALT1_2","prac_ALT1_2","","","","","","","","","","","",""
"null","<span style='color:GreenYellow; font-size: 70px;'>正确! </span>","null","html-keyboard-response","94","298886","0.0-7.0-1.0-1.0-0.0-1.42","3","4","4","3","4","4","4","4","4","4","4","3","4","4","3","4","4","4","4","5","2","1","1","2","2","2","1","2","1","1","0","0","1","0","1","0","1","0","1","1","0","1","0","0","4","5","4","2","5","","2","4","4","1","2","768533085213167618","徐","417","","","","","","","","","","","","","","","","","","","","","","","","","","","","","","feedback_test","","","","","","","","","","","",""
"687","","j","psychophysics","95","300596","0.0-7.0-1.0-1.0-0.0-0.43","3","4","4","3","4","4","4","4","4","4","4","3","4","4","3","4","4","4","4","5","2","1","1","2","2","2","1","2","1","1","0","0","1","0","1","0","1","0","1","1","0","1","0","0","4","5","4","2","5","","2","4","4","1","2","768533085213167618","徐","417","","","","match","","","","","","","","","","","","","","key","j","22.82898630136991","853.1249872874471","475.6249929126353","j","true","match","img/ellipse.png","椭圆","椭圆","ALT1_2","prac_ALT1_2","","","","","","","","","","","",""
"null","<span style='color:GreenYellow; font-size: 70px;'>正确! </span>","null","html-keyboard-response","96","301102","0.0-7.0-1.0-1.0-0.0-1.43","3","4","4","3","4","4","4","4","4","4","4","3","4","4","3","4","4","4","4","5","2","1","1","2","2","2","1","2","1","1","0","0","1","0","1","0","1","0","1","1","0","1","0","0","4","5","4","2","5","","2","4","4","1","2","768533085213167618","徐","417","","","","","","","","","","","","","","","","","","","","","","","","","","","","","","feedback_test","","","","","","","","","","","",""
"618","","j","psychophysics","97","302742","0.0-7.0-1.0-1.0-0.0-0.44","3","4","4","3","4","4","4","4","4","4","4","3","4","4","3","4","4","4","4","5","2","1","1","2","2","2","1","2","1","1","0","0","1","0","1","0","1","0","1","1","0","1","0","0","4","5","4","2","5","","2","4","4","1","2","768533085213167618","徐","417","","","","match","","","","","","","","","","","","","","key","j","23.06857142857126","853.1249872874471","475.6249929126353","j","true","match","img/hexagon.png","六边","六边","ALT1_2","prac_ALT1_2","","","","","","","","","","","",""
"null","<span style='color:GreenYellow; font-size: 70px;'>正确! </span>","null","html-keyboard-response","98","303246","0.0-7.0-1.0-1.0-0.0-1.44","3","4","4","3","4","4","4","4","4","4","4","3","4","4","3","4","4","4","4","5","2","1","1","2","2","2","1","2","1","1","0","0","1","0","1","0","1","0","1","1","0","1","0","0","4","5","4","2","5","","2","4","4","1","2","768533085213167618","徐","417","","","","","","","","","","","","","","","","","","","","","","","","","","","","","","feedback_test","","","","","","","","","","","",""
"685","","j","psychophysics","99","304939","0.0-7.0-1.0-1.0-0.0-0.45","3","4","4","3","4","4","4","4","4","4","4","3","4","4","3","4","4","4","4","5","2","1","1","2","2","2","1","2","1","1","0","0","1","0","1","0","1","0","1","1","0","1","0","0","4","5","4","2","5","","2","4","4","1","2","768533085213167618","徐","417","","","","match","","","","","","","","","","","","","","key","j","22.91530555555558","853.1249872874471","475.6249929126353","j","true","match","img/hexagon.png","六边","六边","ALT1_2","prac_ALT1_2","","","","","","","","","","","",""
"null","<span style='color:GreenYellow; font-size: 70px;'>正确! </span>","null","html-keyboard-response","100","305442","0.0-7.0-1.0-1.0-0.0-1.45","3","4","4","3","4","4","4","4","4","4","4","3","4","4","3","4","4","4","4","5","2","1","1","2","2","2","1","2","1","1","0","0","1","0","1","0","1","0","1","1","0","1","0","0","4","5","4","2","5","","2","4","4","1","2","768533085213167618","徐","417","","","","","","","","","","","","","","","","","","","","","","","","","","","","","","feedback_test","","","","","","","","","","","",""
"645","","f","psychophysics","101","307098","0.0-7.0-1.0-1.0-0.0-0.46","3","4","4","3","4","4","4","4","4","4","4","3","4","4","3","4","4","4","4","5","2","1","1","2","2","2","1","2","1","1","0","0","1","0","1","0","1","0","1","1","0","1","0","0","4","5","4","2","5","","2","4","4","1","2","768533085213167618","徐","417","","","","nonmatch","","","","","","","","","","","","","","key","f","22.45956944444495","853.1249872874471","475.6249929126353","f","true","nonmatch","img/square.png","六边","方形","ALT1_2","prac_ALT1_2","","","","","","","","","","","",""
"null","<span style='color:GreenYellow; font-size: 70px;'>正确! </span>","null","html-keyboard-response","102","307602","0.0-7.0-1.0-1.0-0.0-1.46","3","4","4","3","4","4","4","4","4","4","4","3","4","4","3","4","4","4","4","5","2","1","1","2","2","2","1","2","1","1","0","0","1","0","1","0","1","0","1","1","0","1","0","0","4","5","4","2","5","","2","4","4","1","2","768533085213167618","徐","417","","","","","","","","","","","","","","","","","","","","","","","","","","","","","","feedback_test","","","","","","","","","","","",""
"704","","j","psychophysics","103","309320","0.0-7.0-1.0-1.0-0.0-0.47","3","4","4","3","4","4","4","4","4","4","4","3","4","4","3","4","4","4","4","5","2","1","1","2","2","2","1","2","1","1","0","0","1","0","1","0","1","0","1","1","0","1","0","0","4","5","4","2","5","","2","4","4","1","2","768533085213167618","徐","417","","","","match","","","","","","","","","","","","","","key","j","22.5265540540544","853.1249872874471","475.6249929126353","j","true","match","img/trapezoid.png","梯形","梯形","ALT1_2","prac_ALT1_2","","","","","","","","","","","",""
"null","<span style='color:GreenYellow; font-size: 70px;'>正确! </span>","null","html-keyboard-response","104","309822","0.0-7.0-1.0-1.0-0.0-1.47","3","4","4","3","4","4","4","4","4","4","4","3","4","4","3","4","4","4","4","5","2","1","1","2","2","2","1","2","1","1","0","0","1","0","1","0","1","0","1","1","0","1","0","0","4","5","4","2","5","","2","4","4","1","2","768533085213167618","徐","417","","","","","","","","","","","","","","","","","","","","","","","","","","","","","","feedback_test","","","","","","","","","","","",""
"6819","<style>.context{color:white; font-size: 35px; line-height:40px}</style>                          <div><p class='context'>您正确回答了79% 的试次。</p><p class='context'>您的平均反应时为698毫秒。</p><p class='context'>恭喜您完成练习。按空格键进入正式实验。</p><p class='footer' style='font-size: 35px; line-height:40px;'>请在进入正式实验实验之前将您的<span style='color: lightgreen;'>食指</span>放在电脑键盘的相应键位上进行按键。</p>"," ","html-keyboard-response","105","316653","0.0-7.0-1.0-2.0","3","4","4","3","4","4","4","4","4","4","4","3","4","4","3","4","4","4","4","5","2","1","1","2","2","2","1","2","1","1","0","0","1","0","1","0","1","0","1","1","0","1","0","0","4","5","4","2","5","","2","4","4","1","2","768533085213167618","徐","417","","","","","","","","","","","","","","","","","","","","","","","","","","","","","","","","","","","","","","","","","",""
"1415","
  <p style='color: white; font-size: 22px'>请您将手指放在按键上，准备进入正式的匹配任务。</p>
  <p> <div style = ""color: green""><按空格键进入下一阶段的匹配任务></div></p>
  "," ","html-keyboard-response","106","318097","0.0-7.0-1.0-3.0","3","4","4","3","4","4","4","4","4","4","4","3","4","4","3","4","4","4","4","5","2","1","1","2","2","2","1","2","1","1","0","0","1","0","1","0","1","0","1","1","0","1","0","0","4","5","4","2","5","","2","4","4","1","2","768533085213167618","徐","417","","","","","","","","","","","","","","","","","","","","","","","","","","","","","","","","","","","","","","","","","",""
"729","","f","psychophysics","107","319874","0.0-7.0-1.0-4.0-0.0-0.0","3","4","4","3","4","4","4","4","4","4","4","3","4","4","3","4","4","4","4","5","2","1","1","2","2","2","1","2","1","1","0","0","1","0","1","0","1","0","1","1","0","1","0","0","4","5","4","2","5","","2","4","4","1","2","768533085213167618","徐","417","","","","nonmatch","","","","","","","","","","","","","","key","f","23.114706666666702","853.1249872874471","475.6249929126353","f","true","nonmatch","img/ellipse.png","方形","椭圆","ALT1","formal_ALT1_2","","","","","","","","","","","",""
"null","<span style='color:GreenYellow; font-size: 70px;'>正确! </span>","null","html-keyboard-response","108","320377","0.0-7.0-1.0-4.0-0.0-1.0","3","4","4","3","4","4","4","4","4","4","4","3","4","4","3","4","4","4","4","5","2","1","1","2","2","2","1","2","1","1","0","0","1","0","1","0","1","0","1","1","0","1","0","0","4","5","4","2","5","","2","4","4","1","2","768533085213167618","徐","417","","","","","","","","","","","","","","","","","","","","","","","","","","","","","","feedback_test","","","","","","","","","","","",""
"655","","j","psychophysics","109","322048","0.0-7.0-1.0-4.0-0.0-0.1","3","4","4","3","4","4","4","4","4","4","4","3","4","4","3","4","4","4","4","5","2","1","1","2","2","2","1","2","1","1","0","0","1","0","1","0","1","0","1","1","0","1","0","0","4","5","4","2","5","","2","4","4","1","2","768533085213167618","徐","417","","","","match","","","","","","","","","","","","","","key","j","22.462777777777873","853.1249872874471","475.6249929126353","j","true","match","img/square.png","方形","方形","ALT1","formal_ALT1_2","","","","","","","","","","","",""
"null","<span style='color:GreenYellow; font-size: 70px;'>正确! </span>","null","html-keyboard-response","110","322551","0.0-7.0-1.0-4.0-0.0-1.1","3","4","4","3","4","4","4","4","4","4","4","3","4","4","3","4","4","4","4","5","2","1","1","2","2","2","1","2","1","1","0","0","1","0","1","0","1","0","1","1","0","1","0","0","4","5","4","2","5","","2","4","4","1","2","768533085213167618","徐","417","","","","","","","","","","","","","","","","","","","","","","","","","","","","","","feedback_test","","","","","","","","","","","",""
"836","","f","psychophysics","111","324409","0.0-7.0-1.0-4.0-0.0-0.2","3","4","4","3","4","4","4","4","4","4","4","3","4","4","3","4","4","4","4","5","2","1","1","2","2","2","1","2","1","1","0","0","1","0","1","0","1","0","1","1","0","1","0","0","4","5","4","2","5","","2","4","4","1","2","768533085213167618","徐","417","","","","nonmatch","","","","","","","","","","","","","","key","f","21.885879518072183","853.1249872874471","475.6249929126353","f","true","nonmatch","img/hexagon.png","方形","六边","ALT1","formal_ALT1_2","","","","","","","","","","","",""
"null","<span style='color:GreenYellow; font-size: 70px;'>正确! </span>","null","html-keyboard-response","112","324913","0.0-7.0-1.0-4.0-0.0-1.2","3","4","4","3","4","4","4","4","4","4","4","3","4","4","3","4","4","4","4","5","2","1","1","2","2","2","1","2","1","1","0","0","1","0","1","0","1","0","1","1","0","1","0","0","4","5","4","2","5","","2","4","4","1","2","768533085213167618","徐","417","","","","","","","","","","","","","","","","","","","","","","","","","","","","","","feedback_test","","","","","","","","","","","",""
"767","","f","psychophysics","113","326714","0.0-7.0-1.0-4.0-0.0-0.3","3","4","4","3","4","4","4","4","4","4","4","3","4","4","3","4","4","4","4","5","2","1","1","2","2","2","1","2","1","1","0","0","1","0","1","0","1","0","1","1","0","1","0","0","4","5","4","2","5","","2","4","4","1","2","768533085213167618","徐","417","","","","nonmatch","","","","","","","","","","","","","","key","f","21.608790123456497","853.1249872874471","475.6249929126353","f","true","nonmatch","img/square.png","六边","方形","ALT1","formal_ALT1_2","","","","","","","","","","","",""
"null","<span style='color:GreenYellow; font-size: 70px;'>正确! </span>","null","html-keyboard-response","114","327219","0.0-7.0-1.0-4.0-0.0-1.3","3","4","4","3","4","4","4","4","4","4","4","3","4","4","3","4","4","4","4","5","2","1","1","2","2","2","1","2","1","1","0","0","1","0","1","0","1","0","1","1","0","1","0","0","4","5","4","2","5","","2","4","4","1","2","768533085213167618","徐","417","","","","","","","","","","","","","","","","","","","","","","","","","","","","","","feedback_test","","","","","","","","","","","",""
"749","","j","psychophysics","115","328975","0.0-7.0-1.0-4.0-0.0-0.4","3","4","4","3","4","4","4","4","4","4","4","3","4","4","3","4","4","4","4","5","2","1","1","2","2","2","1","2","1","1","0","0","1","0","1","0","1","0","1","1","0","1","0","0","4","5","4","2","5","","2","4","4","1","2","768533085213167618","徐","417","","","","match","","","","","","","","","","","","","","key","j","22.010743589743445","853.1249872874471","475.6249929126353","j","true","match","img/trapezoid.png","梯形","梯形","ALT1","formal_ALT1_2","","","","","","","","","","","",""
"null","<span style='color:GreenYellow; font-size: 70px;'>正确! </span>","null","html-keyboard-response","116","329479","0.0-7.0-1.0-4.0-0.0-1.4","3","4","4","3","4","4","4","4","4","4","4","3","4","4","3","4","4","4","4","5","2","1","1","2","2","2","1","2","1","1","0","0","1","0","1","0","1","0","1","1","0","1","0","0","4","5","4","2","5","","2","4","4","1","2","768533085213167618","徐","417","","","","","","","","","","","","","","","","","","","","","","","","","","","","","","feedback_test","","","","","","","","","","","",""
"656","","j","psychophysics","117","331143","0.0-7.0-1.0-4.0-0.0-0.5","3","4","4","3","4","4","4","4","4","4","4","3","4","4","3","4","4","4","4","5","2","1","1","2","2","2","1","2","1","1","0","0","1","0","1","0","1","0","1","1","0","1","0","0","4","5","4","2","5","","2","4","4","1","2","768533085213167618","徐","417","","","","match","","","","","","","","","","","","","","key","j","22.45677777777746","853.1249872874471","475.6249929126353","j","true","match","img/hexagon.png","六边","六边","ALT1","formal_ALT1_2","","","","","","","","","","","",""
"null","<span style='color:GreenYellow; font-size: 70px;'>正确! </span>","null","html-keyboard-response","118","331650","0.0-7.0-1.0-4.0-0.0-1.5","3","4","4","3","4","4","4","4","4","4","4","3","4","4","3","4","4","4","4","5","2","1","1","2","2","2","1","2","1","1","0","0","1","0","1","0","1","0","1","1","0","1","0","0","4","5","4","2","5","","2","4","4","1","2","768533085213167618","徐","417","","","","","","","","","","","","","","","","","","","","","","","","","","","","","","feedback_test","","","","","","","","","","","",""
"623","","j","psychophysics","119","333287","0.0-7.0-1.0-4.0-0.0-0.6","3","4","4","3","4","4","4","4","4","4","4","3","4","4","3","4","4","4","4","5","2","1","1","2","2","2","1","2","1","1","0","0","1","0","1","0","1","0","1","1","0","1","0","0","4","5","4","2","5","","2","4","4","1","2","768533085213167618","徐","417","","","","match","","","","","","","","","","","","","","key","j","22.536985915492806","853.1249872874471","475.6249929126353","j","true","match","img/square.png","方形","方形","ALT1","formal_ALT1_2","","","","","","","","","","","",""
"null","<span style='color:GreenYellow; font-size: 70px;'>正确! </span>","null","html-keyboard-response","120","333790","0.0-7.0-1.0-4.0-0.0-1.6","3","4","4","3","4","4","4","4","4","4","4","3","4","4","3","4","4","4","4","5","2","1","1","2","2","2","1","2","1","1","0","0","1","0","1","0","1","0","1","1","0","1","0","0","4","5","4","2","5","","2","4","4","1","2","768533085213167618","徐","417","","","","","","","","","","","","","","","","","","","","","","","","","","","","","","feedback_test","","","","","","","","","","","",""
"688","","j","psychophysics","121","335489","0.0-7.0-1.0-4.0-0.0-0.7","3","4","4","3","4","4","4","4","4","4","4","3","4","4","3","4","4","4","4","5","2","1","1","2","2","2","1","2","1","1","0","0","1","0","1","0","1","0","1","1","0","1","0","0","4","5","4","2","5","","2","4","4","1","2","768533085213167618","徐","417","","","","match","","","","","","","","","","","","","","key","j","23.1488194444448","853.1249872874471","475.6249929126353","j","true","match","img/ellipse.png","椭圆","椭圆","ALT1","formal_ALT1_2","","","","","","","","","","","",""
"null","<span style='color:GreenYellow; font-size: 70px;'>正确! </span>","null","html-keyboard-response","122","335992","0.0-7.0-1.0-4.0-0.0-1.7","3","4","4","3","4","4","4","4","4","4","4","3","4","4","3","4","4","4","4","5","2","1","1","2","2","2","1","2","1","1","0","0","1","0","1","0","1","0","1","1","0","1","0","0","4","5","4","2","5","","2","4","4","1","2","768533085213167618","徐","417","","","","","","","","","","","","","","","","","","","","","","","","","","","","","","feedback_test","","","","","","","","","","","",""
"606","","j","psychophysics","123","337608","0.0-7.0-1.0-4.0-0.0-0.8","3","4","4","3","4","4","4","4","4","4","4","3","4","4","3","4","4","4","4","5","2","1","1","2","2","2","1","2","1","1","0","0","1","0","1","0","1","0","1","1","0","1","0","0","4","5","4","2","5","","2","4","4","1","2","768533085213167618","徐","417","","","","match","","","","","","","","","","","","","","key","j","22.949521739130326","853.1249872874471","475.6249929126353","j","true","match","img/trapezoid.png","梯形","梯形","ALT1","formal_ALT1_2","","","","","","","","","","","",""
"null","<span style='color:GreenYellow; font-size: 70px;'>正确! </span>","null","html-keyboard-response","124","338111","0.0-7.0-1.0-4.0-0.0-1.8","3","4","4","3","4","4","4","4","4","4","4","3","4","4","3","4","4","4","4","5","2","1","1","2","2","2","1","2","1","1","0","0","1","0","1","0","1","0","1","1","0","1","0","0","4","5","4","2","5","","2","4","4","1","2","768533085213167618","徐","417","","","","","","","","","","","","","","","","","","","","","","","","","","","","","","feedback_test","","","","","","","","","","","",""
"804","","f","psychophysics","125","339945","0.0-7.0-1.0-4.0-0.0-0.9","3","4","4","3","4","4","4","4","4","4","4","3","4","4","3","4","4","4","4","5","2","1","1","2","2","2","1","2","1","1","0","0","1","0","1","0","1","0","1","1","0","1","0","0","4","5","4","2","5","","2","4","4","1","2","768533085213167618","徐","417","","","","nonmatch","","","","","","","","","","","","","","key","f","23.492934210526936","853.1249872874471","475.6249929126353","f","true","nonmatch","img/ellipse.png","六边","椭圆","ALT1","formal_ALT1_2","","","","","","","","","","","",""
"null","<span style='color:GreenYellow; font-size: 70px;'>正确! </span>","null","html-keyboard-response","126","340450","0.0-7.0-1.0-4.0-0.0-1.9","3","4","4","3","4","4","4","4","4","4","4","3","4","4","3","4","4","4","4","5","2","1","1","2","2","2","1","2","1","1","0","0","1","0","1","0","1","0","1","1","0","1","0","0","4","5","4","2","5","","2","4","4","1","2","768533085213167618","徐","417","","","","","","","","","","","","","","","","","","","","","","","","","","","","","","feedback_test","","","","","","","","","","","",""
"608","","j","psychophysics","127","342076","0.0-7.0-1.0-4.0-0.0-0.10","3","4","4","3","4","4","4","4","4","4","4","3","4","4","3","4","4","4","4","5","2","1","1","2","2","2","1","2","1","1","0","0","1","0","1","0","1","0","1","1","0","1","0","0","4","5","4","2","5","","2","4","4","1","2","768533085213167618","徐","417","","","","match","","","","","","","","","","","","","","key","j","22.297464788733148","853.1249872874471","475.6249929126353","j","true","match","img/ellipse.png","椭圆","椭圆","ALT1","formal_ALT1_2","","","","","","","","","","","",""
"null","<span style='color:GreenYellow; font-size: 70px;'>正确! </span>","null","html-keyboard-response","128","342580","0.0-7.0-1.0-4.0-0.0-1.10","3","4","4","3","4","4","4","4","4","4","4","3","4","4","3","4","4","4","4","5","2","1","1","2","2","2","1","2","1","1","0","0","1","0","1","0","1","0","1","1","0","1","0","0","4","5","4","2","5","","2","4","4","1","2","768533085213167618","徐","417","","","","","","","","","","","","","","","","","","","","","","","","","","","","","","feedback_test","","","","","","","","","","","",""
"638","","j","psychophysics","129","344235","0.0-7.0-1.0-4.0-0.0-0.11","3","4","4","3","4","4","4","4","4","4","4","3","4","4","3","4","4","4","4","5","2","1","1","2","2","2","1","2","1","1","0","0","1","0","1","0","1","0","1","1","0","1","0","0","4","5","4","2","5","","2","4","4","1","2","768533085213167618","徐","417","","","","match","","","","","","","","","","","","","","key","j","22.135452054795007","853.1249872874471","475.6249929126353","f","false","nonmatch","img/trapezoid.png","方形","梯形","ALT1","formal_ALT1_2","","","","","","","","","","","",""
"null","<span style='color:red; font-size: 70px;'>错误! </span>","null","html-keyboard-response","130","344739","0.0-7.0-1.0-4.0-0.0-1.11","3","4","4","3","4","4","4","4","4","4","4","3","4","4","3","4","4","4","4","5","2","1","1","2","2","2","1","2","1","1","0","0","1","0","1","0","1","0","1","1","0","1","0","0","4","5","4","2","5","","2","4","4","1","2","768533085213167618","徐","417","","","","","","","","","","","","","","","","","","","","","","","","","","","","","","feedback_test","","","","","","","","","","","",""
"895","","f","psychophysics","131","346647","0.0-7.0-1.0-4.0-0.0-0.12","3","4","4","3","4","4","4","4","4","4","4","3","4","4","3","4","4","4","4","5","2","1","1","2","2","2","1","2","1","1","0","0","1","0","1","0","1","0","1","1","0","1","0","0","4","5","4","2","5","","2","4","4","1","2","768533085213167618","徐","417","","","","nonmatch","","","","","","","","","","","","","","key","f","26.653314285714544","853.1249872874471","475.6249929126353","f","true","nonmatch","img/ellipse.png","梯形","椭圆","ALT1","formal_ALT1_2","","","","","","","","","","","",""
"null","<span style='color:GreenYellow; font-size: 70px;'>正确! </span>","null","html-keyboard-response","132","347150","0.0-7.0-1.0-4.0-0.0-1.12","3","4","4","3","4","4","4","4","4","4","4","3","4","4","3","4","4","4","4","5","2","1","1","2","2","2","1","2","1","1","0","0","1","0","1","0","1","0","1","1","0","1","0","0","4","5","4","2","5","","2","4","4","1","2","768533085213167618","徐","417","","","","","","","","","","","","","","","","","","","","","","","","","","","","","","feedback_test","","","","","","","","","","","",""
"870","","f","psychophysics","133","349035","0.0-7.0-1.0-4.0-0.0-0.13","3","4","4","3","4","4","4","4","4","4","4","3","4","4","3","4","4","4","4","5","2","1","1","2","2","2","1","2","1","1","0","0","1","0","1","0","1","0","1","1","0","1","0","0","4","5","4","2","5","","2","4","4","1","2","768533085213167618","徐","417","","","","nonmatch","","","","","","","","","","","","","","key","f","23.804090909090636","853.1249872874471","475.6249929126353","f","true","nonmatch","img/trapezoid.png","椭圆","梯形","ALT1","formal_ALT1_2","","","","","","","","","","","",""
"null","<span style='color:GreenYellow; font-size: 70px;'>正确! </span>","null","html-keyboard-response","134","349538","0.0-7.0-1.0-4.0-0.0-1.13","3","4","4","3","4","4","4","4","4","4","4","3","4","4","3","4","4","4","4","5","2","1","1","2","2","2","1","2","1","1","0","0","1","0","1","0","1","0","1","1","0","1","0","0","4","5","4","2","5","","2","4","4","1","2","768533085213167618","徐","417","","","","","","","","","","","","","","","","","","","","","","","","","","","","","","feedback_test","","","","","","","","","","","",""
"701","","f","psychophysics","135","351263","0.0-7.0-1.0-4.0-0.0-0.14","3","4","4","3","4","4","4","4","4","4","4","3","4","4","3","4","4","4","4","5","2","1","1","2","2","2","1","2","1","1","0","0","1","0","1","0","1","0","1","1","0","1","0","0","4","5","4","2","5","","2","4","4","1","2","768533085213167618","徐","417","","","","nonmatch","","","","","","","","","","","","","","key","f","26.326328124999236","853.1249872874471","475.6249929126353","f","true","nonmatch","img/square.png","椭圆","方形","ALT1","formal_ALT1_2","","","","","","","","","","","",""
"null","<span style='color:GreenYellow; font-size: 70px;'>正确! </span>","null","html-keyboard-response","136","351767","0.0-7.0-1.0-4.0-0.0-1.14","3","4","4","3","4","4","4","4","4","4","4","3","4","4","3","4","4","4","4","5","2","1","1","2","2","2","1","2","1","1","0","0","1","0","1","0","1","0","1","1","0","1","0","0","4","5","4","2","5","","2","4","4","1","2","768533085213167618","徐","417","","","","","","","","","","","","","","","","","","","","","","","","","","","","","","feedback_test","","","","","","","","","","","",""
"697","","j","psychophysics","137","353487","0.0-7.0-1.0-4.0-0.0-0.15","3","4","4","3","4","4","4","4","4","4","4","3","4","4","3","4","4","4","4","5","2","1","1","2","2","2","1","2","1","1","0","0","1","0","1","0","1","0","1","1","0","1","0","0","4","5","4","2","5","","2","4","4","1","2","768533085213167618","徐","417","","","","match","","","","","","","","","","","","","","key","j","22.52487837837858","853.1249872874471","475.6249929126353","j","true","match","img/trapezoid.png","梯形","梯形","ALT1","formal_ALT1_2","","","","","","","","","","","",""
"null","<span style='color:GreenYellow; font-size: 70px;'>正确! </span>","null","html-keyboard-response","138","353991","0.0-7.0-1.0-4.0-0.0-1.15","3","4","4","3","4","4","4","4","4","4","4","3","4","4","3","4","4","4","4","5","2","1","1","2","2","2","1","2","1","1","0","0","1","0","1","0","1","0","1","1","0","1","0","0","4","5","4","2","5","","2","4","4","1","2","768533085213167618","徐","417","","","","","","","","","","","","","","","","","","","","","","","","","","","","","","feedback_test","","","","","","","","","","","",""
"766","","f","psychophysics","139","355780","0.0-7.0-1.0-4.0-0.0-0.16","3","4","4","3","4","4","4","4","4","4","4","3","4","4","3","4","4","4","4","5","2","1","1","2","2","2","1","2","1","1","0","0","1","0","1","0","1","0","1","1","0","1","0","0","4","5","4","2","5","","2","4","4","1","2","768533085213167618","徐","417","","","","nonmatch","","","","","","","","","","","","","","key","f","23.64475675675675","853.1249872874471","475.6249929126353","f","true","nonmatch","img/hexagon.png","梯形","六边","ALT1","formal_ALT1_2","","","","","","","","","","","",""
"null","<span style='color:GreenYellow; font-size: 70px;'>正确! </span>","null","html-keyboard-response","140","356284","0.0-7.0-1.0-4.0-0.0-1.16","3","4","4","3","4","4","4","4","4","4","4","3","4","4","3","4","4","4","4","5","2","1","1","2","2","2","1","2","1","1","0","0","1","0","1","0","1","0","1","1","0","1","0","0","4","5","4","2","5","","2","4","4","1","2","768533085213167618","徐","417","","","","","","","","","","","","","","","","","","","","","","","","","","","","","","feedback_test","","","","","","","","","","","",""
"634","","j","psychophysics","141","357967","0.0-7.0-1.0-4.0-0.0-0.17","3","4","4","3","4","4","4","4","4","4","4","3","4","4","3","4","4","4","4","5","2","1","1","2","2","2","1","2","1","1","0","0","1","0","1","0","1","0","1","1","0","1","0","0","4","5","4","2","5","","2","4","4","1","2","768533085213167618","徐","417","","","","match","","","","","","","","","","","","","","key","j","22.37028767123311","853.1249872874471","475.6249929126353","j","true","match","img/hexagon.png","六边","六边","ALT1","formal_ALT1_2","","","","","","","","","","","",""
"null","<span style='color:GreenYellow; font-size: 70px;'>正确! </span>","null","html-keyboard-response","142","358470","0.0-7.0-1.0-4.0-0.0-1.17","3","4","4","3","4","4","4","4","4","4","4","3","4","4","3","4","4","4","4","5","2","1","1","2","2","2","1","2","1","1","0","0","1","0","1","0","1","0","1","1","0","1","0","0","4","5","4","2","5","","2","4","4","1","2","768533085213167618","徐","417","","","","","","","","","","","","","","","","","","","","","","","","","","","","","","feedback_test","","","","","","","","","","","",""
"783","","f","psychophysics","143","360263","0.0-7.0-1.0-4.0-0.0-0.18","3","4","4","3","4","4","4","4","4","4","4","3","4","4","3","4","4","4","4","5","2","1","1","2","2","2","1","2","1","1","0","0","1","0","1","0","1","0","1","1","0","1","0","0","4","5","4","2","5","","2","4","4","1","2","768533085213167618","徐","417","","","","nonmatch","","","","","","","","","","","","","","key","f","23.01335526315808","853.1249872874471","475.6249929126353","f","true","nonmatch","img/square.png","梯形","方形","ALT1","formal_ALT1_2","","","","","","","","","","","",""
"null","<span style='color:GreenYellow; font-size: 70px;'>正确! </span>","null","html-keyboard-response","144","360766","0.0-7.0-1.0-4.0-0.0-1.18","3","4","4","3","4","4","4","4","4","4","4","3","4","4","3","4","4","4","4","5","2","1","1","2","2","2","1","2","1","1","0","0","1","0","1","0","1","0","1","1","0","1","0","0","4","5","4","2","5","","2","4","4","1","2","768533085213167618","徐","417","","","","","","","","","","","","","","","","","","","","","","","","","","","","","","feedback_test","","","","","","","","","","","",""
"617","","j","psychophysics","145","362399","0.0-7.0-1.0-4.0-0.0-0.19","3","4","4","3","4","4","4","4","4","4","4","3","4","4","3","4","4","4","4","5","2","1","1","2","2","2","1","2","1","1","0","0","1","0","1","0","1","0","1","1","0","1","0","0","4","5","4","2","5","","2","4","4","1","2","768533085213167618","徐","417","","","","match","","","","","","","","","","","","","","key","j","21.990222222222656","853.1249872874471","475.6249929126353","j","true","match","img/square.png","方形","方形","ALT1","formal_ALT1_2","","","","","","","","","","","",""
"null","<span style='color:GreenYellow; font-size: 70px;'>正确! </span>","null","html-keyboard-response","146","362902","0.0-7.0-1.0-4.0-0.0-1.19","3","4","4","3","4","4","4","4","4","4","4","3","4","4","3","4","4","4","4","5","2","1","1","2","2","2","1","2","1","1","0","0","1","0","1","0","1","0","1","1","0","1","0","0","4","5","4","2","5","","2","4","4","1","2","768533085213167618","徐","417","","","","","","","","","","","","","","","","","","","","","","","","","","","","","","feedback_test","","","","","","","","","","","",""
"691","","f","psychophysics","147","364603","0.0-7.0-1.0-4.0-0.0-0.20","3","4","4","3","4","4","4","4","4","4","4","3","4","4","3","4","4","4","4","5","2","1","1","2","2","2","1","2","1","1","0","0","1","0","1","0","1","0","1","1","0","1","0","0","4","5","4","2","5","","2","4","4","1","2","768533085213167618","徐","417","","","","nonmatch","","","","","","","","","","","","","","key","f","23.27687323943656","853.1249872874471","475.6249929126353","f","true","nonmatch","img/trapezoid.png","六边","梯形","ALT1","formal_ALT1_2","","","","","","","","","","","",""
"null","<span style='color:GreenYellow; font-size: 70px;'>正确! </span>","null","html-keyboard-response","148","365106","0.0-7.0-1.0-4.0-0.0-1.20","3","4","4","3","4","4","4","4","4","4","4","3","4","4","3","4","4","4","4","5","2","1","1","2","2","2","1","2","1","1","0","0","1","0","1","0","1","0","1","1","0","1","0","0","4","5","4","2","5","","2","4","4","1","2","768533085213167618","徐","417","","","","","","","","","","","","","","","","","","","","","","","","","","","","","","feedback_test","","","","","","","","","","","",""
"652","","j","psychophysics","149","366768","0.0-7.0-1.0-4.0-0.0-0.21","3","4","4","3","4","4","4","4","4","4","4","3","4","4","3","4","4","4","4","5","2","1","1","2","2","2","1","2","1","1","0","0","1","0","1","0","1","0","1","1","0","1","0","0","4","5","4","2","5","","2","4","4","1","2","768533085213167618","徐","417","","","","match","","","","","","","","","","","","","","key","j","22.362287671233478","853.1249872874471","475.6249929126353","j","true","match","img/ellipse.png","椭圆","椭圆","ALT1","formal_ALT1_2","","","","","","","","","","","",""
"null","<span style='color:GreenYellow; font-size: 70px;'>正确! </span>","null","html-keyboard-response","150","367271","0.0-7.0-1.0-4.0-0.0-1.21","3","4","4","3","4","4","4","4","4","4","4","3","4","4","3","4","4","4","4","5","2","1","1","2","2","2","1","2","1","1","0","0","1","0","1","0","1","0","1","1","0","1","0","0","4","5","4","2","5","","2","4","4","1","2","768533085213167618","徐","417","","","","","","","","","","","","","","","","","","","","","","","","","","","","","","feedback_test","","","","","","","","","","","",""
"872","","f","psychophysics","151","369162","0.0-7.0-1.0-4.0-0.0-0.22","3","4","4","3","4","4","4","4","4","4","4","3","4","4","3","4","4","4","4","5","2","1","1","2","2","2","1","2","1","1","0","0","1","0","1","0","1","0","1","1","0","1","0","0","4","5","4","2","5","","2","4","4","1","2","768533085213167618","徐","417","","","","nonmatch","","","","","","","","","","","","","","key","f","22.555414634146274","853.1249872874471","475.6249929126353","f","true","nonmatch","img/hexagon.png","椭圆","六边","ALT1","formal_ALT1_2","","","","","","","","","","","",""
"null","<span style='color:GreenYellow; font-size: 70px;'>正确! </span>","null","html-keyboard-response","152","369665","0.0-7.0-1.0-4.0-0.0-1.22","3","4","4","3","4","4","4","4","4","4","4","3","4","4","3","4","4","4","4","5","2","1","1","2","2","2","1","2","1","1","0","0","1","0","1","0","1","0","1","1","0","1","0","0","4","5","4","2","5","","2","4","4","1","2","768533085213167618","徐","417","","","","","","","","","","","","","","","","","","","","","","","","","","","","","","feedback_test","","","","","","","","","","","",""
"641","","j","psychophysics","153","371309","0.0-7.0-1.0-4.0-0.0-0.23","3","4","4","3","4","4","4","4","4","4","4","3","4","4","3","4","4","4","4","5","2","1","1","2","2","2","1","2","1","1","0","0","1","0","1","0","1","0","1","1","0","1","0","0","4","5","4","2","5","","2","4","4","1","2","768533085213167618","徐","417","","","","match","","","","","","","","","","","","","","key","j","22.220041666666575","853.1249872874471","475.6249929126353","j","true","match","img/hexagon.png","六边","六边","ALT1","formal_ALT1_2","","","","","","","","","","","",""
"null","<span style='color:GreenYellow; font-size: 70px;'>正确! </span>","null","html-keyboard-response","154","371813","0.0-7.0-1.0-4.0-0.0-1.23","3","4","4","3","4","4","4","4","4","4","4","3","4","4","3","4","4","4","4","5","2","1","1","2","2","2","1","2","1","1","0","0","1","0","1","0","1","0","1","1","0","1","0","0","4","5","4","2","5","","2","4","4","1","2","768533085213167618","徐","417","","","","","","","","","","","","","","","","","","","","","","","","","","","","","","feedback_test","","","","","","","","","","","",""
"604","","f","psychophysics","155","373447","0.0-7.0-1.0-4.0-0.0-0.24","3","4","4","3","4","4","4","4","4","4","4","3","4","4","3","4","4","4","4","5","2","1","1","2","2","2","1","2","1","1","0","0","1","0","1","0","1","0","1","1","0","1","0","0","4","5","4","2","5","","2","4","4","1","2","768533085213167618","徐","417","","","","nonmatch","","","","","","","","","","","","","","key","f","21.987708333333202","853.1249872874471","475.6249929126353","f","true","nonmatch","img/hexagon.png","椭圆","六边","ALT1","formal_ALT1_2","","","","","","","","","","","",""
"null","<span style='color:GreenYellow; font-size: 70px;'>正确! </span>","null","html-keyboard-response","156","373949","0.0-7.0-1.0-4.0-0.0-1.24","3","4","4","3","4","4","4","4","4","4","4","3","4","4","3","4","4","4","4","5","2","1","1","2","2","2","1","2","1","1","0","0","1","0","1","0","1","0","1","1","0","1","0","0","4","5","4","2","5","","2","4","4","1","2","768533085213167618","徐","417","","","","","","","","","","","","","","","","","","","","","","","","","","","","","","feedback_test","","","","","","","","","","","",""
"641","","j","psychophysics","157","375613","0.0-7.0-1.0-4.0-0.0-0.25","3","4","4","3","4","4","4","4","4","4","4","3","4","4","3","4","4","4","4","5","2","1","1","2","2","2","1","2","1","1","0","0","1","0","1","0","1","0","1","1","0","1","0","0","4","5","4","2","5","","2","4","4","1","2","768533085213167618","徐","417","","","","match","","","","","","","","","","","","","","key","j","22.769084507041992","853.1249872874471","475.6249929126353","j","true","match","img/square.png","方形","方形","ALT1","formal_ALT1_2","","","","","","","","","","","",""
"null","<span style='color:GreenYellow; font-size: 70px;'>正确! </span>","null","html-keyboard-response","158","376116","0.0-7.0-1.0-4.0-0.0-1.25","3","4","4","3","4","4","4","4","4","4","4","3","4","4","3","4","4","4","4","5","2","1","1","2","2","2","1","2","1","1","0","0","1","0","1","0","1","0","1","1","0","1","0","0","4","5","4","2","5","","2","4","4","1","2","768533085213167618","徐","417","","","","","","","","","","","","","","","","","","","","","","","","","","","","","","feedback_test","","","","","","","","","","","",""
"593","","j","psychophysics","159","377717","0.0-7.0-1.0-4.0-0.0-0.26","3","4","4","3","4","4","4","4","4","4","4","3","4","4","3","4","4","4","4","5","2","1","1","2","2","2","1","2","1","1","0","0","1","0","1","0","1","0","1","1","0","1","0","0","4","5","4","2","5","","2","4","4","1","2","768533085213167618","徐","417","","","","match","","","","","","","","","","","","","","key","j","22.67221739130395","853.1249872874471","475.6249929126353","j","true","match","img/hexagon.png","六边","六边","ALT1","formal_ALT1_2","","","","","","","","","","","",""
"null","<span style='color:GreenYellow; font-size: 70px;'>正确! </span>","null","html-keyboard-response","160","378220","0.0-7.0-1.0-4.0-0.0-1.26","3","4","4","3","4","4","4","4","4","4","4","3","4","4","3","4","4","4","4","5","2","1","1","2","2","2","1","2","1","1","0","0","1","0","1","0","1","0","1","1","0","1","0","0","4","5","4","2","5","","2","4","4","1","2","768533085213167618","徐","417","","","","","","","","","","","","","","","","","","","","","","","","","","","","","","feedback_test","","","","","","","","","","","",""
"758","","f","psychophysics","161","379994","0.0-7.0-1.0-4.0-0.0-0.27","3","4","4","3","4","4","4","4","4","4","4","3","4","4","3","4","4","4","4","5","2","1","1","2","2","2","1","2","1","1","0","0","1","0","1","0","1","0","1","1","0","1","0","0","4","5","4","2","5","","2","4","4","1","2","768533085213167618","徐","417","","","","nonmatch","","","","","","","","","","","","","","key","f","23.73595890410927","853.1249872874471","475.6249929126353","f","true","nonmatch","img/trapezoid.png","六边","梯形","ALT1","formal_ALT1_2","","","","","","","","","","","",""
"null","<span style='color:GreenYellow; font-size: 70px;'>正确! </span>","null","html-keyboard-response","162","380499","0.0-7.0-1.0-4.0-0.0-1.27","3","4","4","3","4","4","4","4","4","4","4","3","4","4","3","4","4","4","4","5","2","1","1","2","2","2","1","2","1","1","0","0","1","0","1","0","1","0","1","1","0","1","0","0","4","5","4","2","5","","2","4","4","1","2","768533085213167618","徐","417","","","","","","","","","","","","","","","","","","","","","","","","","","","","","","feedback_test","","","","","","","","","","","",""
"569","","j","psychophysics","163","382083","0.0-7.0-1.0-4.0-0.0-0.28","3","4","4","3","4","4","4","4","4","4","4","3","4","4","3","4","4","4","4","5","2","1","1","2","2","2","1","2","1","1","0","0","1","0","1","0","1","0","1","1","0","1","0","0","4","5","4","2","5","","2","4","4","1","2","768533085213167618","徐","417","","","","match","","","","","","","","","","","","","","key","j","22.467724637680963","853.1249872874471","475.6249929126353","j","true","match","img/square.png","方形","方形","ALT1","formal_ALT1_2","","","","","","","","","","","",""
"null","<span style='color:GreenYellow; font-size: 70px;'>正确! </span>","null","html-keyboard-response","164","382587","0.0-7.0-1.0-4.0-0.0-1.28","3","4","4","3","4","4","4","4","4","4","4","3","4","4","3","4","4","4","4","5","2","1","1","2","2","2","1","2","1","1","0","0","1","0","1","0","1","0","1","1","0","1","0","0","4","5","4","2","5","","2","4","4","1","2","768533085213167618","徐","417","","","","","","","","","","","","","","","","","","","","","","","","","","","","","","feedback_test","","","","","","","","","","","",""
"626","","j","psychophysics","165","384221","0.0-7.0-1.0-4.0-0.0-0.29","3","4","4","3","4","4","4","4","4","4","4","3","4","4","3","4","4","4","4","5","2","1","1","2","2","2","1","2","1","1","0","0","1","0","1","0","1","0","1","1","0","1","0","0","4","5","4","2","5","","2","4","4","1","2","768533085213167618","徐","417","","","","match","","","","","","","","","","","","","","key","j","22.212055555555303","853.1249872874471","475.6249929126353","j","true","match","img/hexagon.png","六边","六边","ALT1","formal_ALT1_2","","","","","","","","","","","",""
"null","<span style='color:GreenYellow; font-size: 70px;'>正确! </span>","null","html-keyboard-response","166","384725","0.0-7.0-1.0-4.0-0.0-1.29","3","4","4","3","4","4","4","4","4","4","4","3","4","4","3","4","4","4","4","5","2","1","1","2","2","2","1","2","1","1","0","0","1","0","1","0","1","0","1","1","0","1","0","0","4","5","4","2","5","","2","4","4","1","2","768533085213167618","徐","417","","","","","","","","","","","","","","","","","","","","","","","","","","","","","","feedback_test","","","","","","","","","","","",""
"604","","j","psychophysics","167","386351","0.0-7.0-1.0-4.0-0.0-0.30","3","4","4","3","4","4","4","4","4","4","4","3","4","4","3","4","4","4","4","5","2","1","1","2","2","2","1","2","1","1","0","0","1","0","1","0","1","0","1","1","0","1","0","0","4","5","4","2","5","","2","4","4","1","2","768533085213167618","徐","417","","","","match","","","","","","","","","","","","","","key","j","22.95266666666662","853.1249872874471","475.6249929126353","j","true","match","img/ellipse.png","椭圆","椭圆","ALT1","formal_ALT1_2","","","","","","","","","","","",""
"null","<span style='color:GreenYellow; font-size: 70px;'>正确! </span>","null","html-keyboard-response","168","386855","0.0-7.0-1.0-4.0-0.0-1.30","3","4","4","3","4","4","4","4","4","4","4","3","4","4","3","4","4","4","4","5","2","1","1","2","2","2","1","2","1","1","0","0","1","0","1","0","1","0","1","1","0","1","0","0","4","5","4","2","5","","2","4","4","1","2","768533085213167618","徐","417","","","","","","","","","","","","","","","","","","","","","","","","","","","","","","feedback_test","","","","","","","","","","","",""
"676","","f","psychophysics","169","388560","0.0-7.0-1.0-4.0-0.0-0.31","3","4","4","3","4","4","4","4","4","4","4","3","4","4","3","4","4","4","4","5","2","1","1","2","2","2","1","2","1","1","0","0","1","0","1","0","1","0","1","1","0","1","0","0","4","5","4","2","5","","2","4","4","1","2","768533085213167618","徐","417","","","","nonmatch","","","","","","","","","","","","","","key","f","23.13693055555551","853.1249872874471","475.6249929126353","f","true","nonmatch","img/trapezoid.png","椭圆","梯形","ALT1","formal_ALT1_2","","","","","","","","","","","",""
"null","<span style='color:GreenYellow; font-size: 70px;'>正确! </span>","null","html-keyboard-response","170","389063","0.0-7.0-1.0-4.0-0.0-1.31","3","4","4","3","4","4","4","4","4","4","4","3","4","4","3","4","4","4","4","5","2","1","1","2","2","2","1","2","1","1","0","0","1","0","1","0","1","0","1","1","0","1","0","0","4","5","4","2","5","","2","4","4","1","2","768533085213167618","徐","417","","","","","","","","","","","","","","","","","","","","","","","","","","","","","","feedback_test","","","","","","","","","","","",""
"611","","j","psychophysics","171","390695","0.0-7.0-1.0-4.0-0.0-0.32","3","4","4","3","4","4","4","4","4","4","4","3","4","4","3","4","4","4","4","5","2","1","1","2","2","2","1","2","1","1","0","0","1","0","1","0","1","0","1","1","0","1","0","0","4","5","4","2","5","","2","4","4","1","2","768533085213167618","徐","417","","","","match","","","","","","","","","","","","","","key","j","23.282676470588367","853.1249872874471","475.6249929126353","j","true","match","img/square.png","方形","方形","ALT1","formal_ALT1_2","","","","","","","","","","","",""
"null","<span style='color:GreenYellow; font-size: 70px;'>正确! </span>","null","html-keyboard-response","172","391201","0.0-7.0-1.0-4.0-0.0-1.32","3","4","4","3","4","4","4","4","4","4","4","3","4","4","3","4","4","4","4","5","2","1","1","2","2","2","1","2","1","1","0","0","1","0","1","0","1","0","1","1","0","1","0","0","4","5","4","2","5","","2","4","4","1","2","768533085213167618","徐","417","","","","","","","","","","","","","","","","","","","","","","","","","","","","","","feedback_test","","","","","","","","","","","",""
"676","","j","psychophysics","173","392895","0.0-7.0-1.0-4.0-0.0-0.33","3","4","4","3","4","4","4","4","4","4","4","3","4","4","3","4","4","4","4","5","2","1","1","2","2","2","1","2","1","1","0","0","1","0","1","0","1","0","1","1","0","1","0","0","4","5","4","2","5","","2","4","4","1","2","768533085213167618","徐","417","","","","match","","","","","","","","","","","","","","key","j","22.29198648648673","853.1249872874471","475.6249929126353","j","true","match","img/trapezoid.png","梯形","梯形","ALT1","formal_ALT1_2","","","","","","","","","","","",""
"null","<span style='color:GreenYellow; font-size: 70px;'>正确! </span>","null","html-keyboard-response","174","393398","0.0-7.0-1.0-4.0-0.0-1.33","3","4","4","3","4","4","4","4","4","4","4","3","4","4","3","4","4","4","4","5","2","1","1","2","2","2","1","2","1","1","0","0","1","0","1","0","1","0","1","1","0","1","0","0","4","5","4","2","5","","2","4","4","1","2","768533085213167618","徐","417","","","","","","","","","","","","","","","","","","","","","","","","","","","","","","feedback_test","","","","","","","","","","","",""
"935","","f","psychophysics","175","395355","0.0-7.0-1.0-4.0-0.0-0.34","3","4","4","3","4","4","4","4","4","4","4","3","4","4","3","4","4","4","4","5","2","1","1","2","2","2","1","2","1","1","0","0","1","0","1","0","1","0","1","1","0","1","0","0","4","5","4","2","5","","2","4","4","1","2","768533085213167618","徐","417","","","","nonmatch","","","","","","","","","","","","","","key","f","23.376573170731895","853.1249872874471","475.6249929126353","f","true","nonmatch","img/ellipse.png","六边","椭圆","ALT1","formal_ALT1_2","","","","","","","","","","","",""
"null","<span style='color:GreenYellow; font-size: 70px;'>正确! </span>","null","html-keyboard-response","176","395860","0.0-7.0-1.0-4.0-0.0-1.34","3","4","4","3","4","4","4","4","4","4","4","3","4","4","3","4","4","4","4","5","2","1","1","2","2","2","1","2","1","1","0","0","1","0","1","0","1","0","1","1","0","1","0","0","4","5","4","2","5","","2","4","4","1","2","768533085213167618","徐","417","","","","","","","","","","","","","","","","","","","","","","","","","","","","","","feedback_test","","","","","","","","","","","",""
"795","","f","psychophysics","177","397660","0.0-7.0-1.0-4.0-0.0-0.35","3","4","4","3","4","4","4","4","4","4","4","3","4","4","3","4","4","4","4","5","2","1","1","2","2","2","1","2","1","1","0","0","1","0","1","0","1","0","1","1","0","1","0","0","4","5","4","2","5","","2","4","4","1","2","768533085213167618","徐","417","","","","nonmatch","","","","","","","","","","","","","","key","f","21.871337499999935","853.1249872874471","475.6249929126353","f","true","nonmatch","img/ellipse.png","梯形","椭圆","ALT1","formal_ALT1_2","","","","","","","","","","","",""
