"rt","stimulus","response","trial_type","trial_index","time_elapsed","internal_node_id","ses_1","ses_2","ses_3","ses_4","ses_5","ses_6","ses_7","ses_8","ses_9","ses_10","coreself_1","coreself_2","coreself_3","coreself_4","coreself_5","coreself_6","coreself_7","coreself_8","coreself_9","coreself_10","SGPS_1","SGPS_2","SGPS_3","SGPS_4","SGPS_5","SGPS_6","SGPS_7","SGPS_8","SGPS_9","NPI1","NPI2","NPI3","NPI4","NPI5","NPI6","NPI7","NPI8","NPI9","NPI10","NPI11","NPI12","NPI13","NPI14","NPI15","hsns_1","hsns_2","hsns_3","hsns_4","hsns_5","trap1","hsns_6","hsns_7","hsns_8","hsns_9","hsns_10","subj_idx","friend_name","ParticipantID","value","success","user_agent","responses","item_order","radio_event_ids","radio_event_times","key_event_times","mouse_event_times","straightlining","zigzagging","honeypot","timeout","failed_images","failed_audio","failed_video","version_attrib","version_target","correct","IAT","screen_id","task_id","RT","condition","word","varname","summary","version_attrib2","version_target2","time_stamp","view_history","response_type","key_press","avg_frame_time","center_x","center_y","correct_response","identity","Image","question_order","correct_answer","trap1_item"
"6722","
   <p><div style = ""color: white;font-size:25px;"">您好，欢迎参加本次实验。</div> </p>
   <p><div style = ""color: white;font-size:25px;"">为充分保障您的权利，请确保您已经知晓并同意《参与实验同意书》以及《数据公开知情同意书》。</div></p>
   <p><div style = ""color: white;font-size:25px;"">如果您未见过上述内容，请咨询实验员。</div></p>
   <p><div style = ""color: white;font-size:25px;"">如果您选择继续实验，则表示您已经清楚两份知情同意书的内容并同意。</div></p>
   <p><div style = ""color: pink;font-size:30px;"">请确保您记得day0的实验编号，您将在本次实验输入该编号，若您忘记，请咨询实验员后作答。</div></p>
   <p><div style = ""color: lightblue;font-size:25px;"">请您尽可能认真地作答，我们将依据您在各问卷和按键任务中的作答质量发放报酬。</div></p>
   <p> <div style = ""color: green;font-size:25px;""><按空格键至下页></div> </p>
   "," ","html-keyboard-response","0","6726","0.0-0.0","3","3","3","3","3","3","3","3","3","3","4","3","2","3","4","4","4","4","4","4","3","4","3","4","4","4","3","4","4","1","0","1","1","0","1","1","1","0","1","1","0","0","0","1","4","4","3","2","2","5","3","4","4","4","2","763058594613825537","徐","581","","","","","","","","","","","","","","","","","","","","","","","","","","","","","","","","","","","","","","","","","",""
"","","","call-function","1","6729","0.0-1.0-0.0","3","3","3","3","3","3","3","3","3","3","4","3","2","3","4","4","4","4","4","4","3","4","3","4","4","4","3","4","4","1","0","1","1","0","1","1","1","0","1","1","0","0","0","1","4","4","3","2","2","5","3","4","4","4","2","763058594613825537","徐","581","","","","","","","","","","","","","","","","","","","","","","","","","","","","","","","","","","","","","","","","","",""
"44435","","{""friend_name"":""徐"",""ParticipantID"":""581""}","survey-html-form","2","51166","0.0-1.0-1.0","3","3","3","3","3","3","3","3","3","3","4","3","2","3","4","4","4","4","4","4","3","4","3","4","4","4","3","4","4","1","0","1","1","0","1","1","1","0","1","1","0","0","0","1","4","4","3","2","2","5","3","4","4","4","2","763058594613825537","徐","581","","","","","","","","","","","","","","","","","","","","","","","","","","","","","","","","","","","","","","","","","",""
"","","","fullscreen","3","58930","0.0-2.0","3","3","3","3","3","3","3","3","3","3","4","3","2","3","4","4","4","4","4","4","3","4","3","4","4","4","3","4","4","1","0","1","1","0","1","1","1","0","1","1","0","0","0","1","4","4","3","2","2","5","3","4","4","4","2","763058594613825537","徐","581","","true","{}","","","","","","","","","","","","","","","","","","","","","","","","","","","","","","","","","","","","","","",""
"88128.70000000019","","{""Q01"":""3"",""Q02"":""3"",""Q03"":""3"",""Q04"":""3"",""Q05"":""3"",""Q06"":""3"",""Q07"":""3"",""Q08"":""3"",""Q09"":""3"",""Q10"":""3""}","survey-template","4","147064","0.0-3.0","3","3","3","3","3","3","3","3","3","3","4","3","2","3","4","4","4","4","4","4","3","4","3","4","4","4","3","4","4","1","0","1","1","0","1","1","1","0","1","1","0","0","0","1","4","4","3","2","2","5","3","4","4","4","2","763058594613825537","徐","581","","","","{""Q01"":""3"",""Q02"":""3"",""Q03"":""3"",""Q04"":""3"",""Q05"":""3"",""Q06"":""3"",""Q07"":""3"",""Q08"":""3"",""Q09"":""3"",""Q10"":""3""}","[0,1,2,3,4,5,6,7,8,9]","[""Q01"",""Q02"",""Q03"",""Q04"",""Q05"",""Q06"",""Q07"",""Q09"",""Q10"",""Q08""]","[9574.200000000186,13447.600000000093,15063.90000000014,17943.600000000093,20232.40000000014,39141.700000000186,40975.5,48431.30000000028,49745.60000000009,58334.89999999991]","[]","[9574.200000000186,13447.600000000093,15063.90000000014,17943.600000000093,20232.40000000014,39141.700000000186,40975.5,48431.30000000028,49745.60000000009,58334.89999999991,88127.20000000019]","0.5","0.5555555555555556","0","","","","","","","","","","","","","","","","","","","","","","","","","","","","","",""
"89759.3999999999","","{""Q01"":""4"",""Q02"":""3"",""Q03"":""2"",""Q04"":""3"",""Q05"":""4"",""Q06"":""4"",""Q07"":""4"",""Q08"":""4"",""Q09"":""4"",""Q10"":""4""}","survey-template","5","236832","0.0-4.0","3","3","3","3","3","3","3","3","3","3","4","3","2","3","4","4","4","4","4","4","3","4","3","4","4","4","3","4","4","1","0","1","1","0","1","1","1","0","1","1","0","0","0","1","4","4","3","2","2","5","3","4","4","4","2","763058594613825537","徐","581","","","","{""Q01"":""4"",""Q02"":""3"",""Q03"":""2"",""Q04"":""3"",""Q05"":""4"",""Q06"":""4"",""Q07"":""4"",""Q08"":""4"",""Q09"":""4"",""Q10"":""4""}","[0,1,2,3,4,5,6,7,8,9]","[""Q03"",""Q05"",""Q01"",""Q02"",""Q04"",""Q06"",""Q07"",""Q07"",""Q08"",""Q09"",""Q10"",""Q07"",""Q07"",""Q07""]","[10388.700000000186,15068.5,17551,18868.600000000093,26789.700000000186,30492.700000000186,33860.5,36092.200000000186,37725.89999999991,40695.10000000009,43261.80000000028,46517.200000000186,52557.30000000028,56221.5]","[]","[10388.700000000186,15068.5,17551,18868.600000000093,25877.5,26789.700000000186,30492.700000000186,33860.5,36092.200000000186,37725.89999999991,40695.10000000009,43261.80000000028,46517.200000000186,52557.30000000028,56221.5,89757.30000000028]","0.4","0.4444444444444444","0","","","","","","","","","","","","","","","","","","","","","","","","","","","","","",""
"","","","preload","6","241034","0.0-5.0","3","3","3","3","3","3","3","3","3","3","4","3","2","3","4","4","4","4","4","4","3","4","3","4","4","4","3","4","4","1","0","1","1","0","1","1","1","0","1","1","0","0","0","1","4","4","3","2","2","5","3","4","4","4","2","763058594613825537","徐","581","","true","","","","","","","","","","","false","[]","[]","[]","","","","","","","","","","","","","","","","","","","","","","","","","",""
"25755","
    <h3>词语分类任务</h3>
    <p>在接下来的任务中，你需要对一系列词语进行分类。</p>
    <p>请先熟悉这些词语，这有利于你完成接下来的任务。</p>
    <table align=""center"" border=1 cellpadding=3 cellspacing=0>
    <tr> <th>类别</th> <th>词语</th> </tr>
    <tr> <td>&emsp;积极&emsp;</td> <td>&emsp;能干、全能、全才、高效、精干、天才&emsp;</td> </tr>
    <tr> <td>&emsp;消极&emsp;</td> <td>&emsp;无能、低能、废物、拙笨、愚钝、蠢笨&emsp;</td> </tr>
    <tr> <td>&emsp;自我&emsp;</td> <td>&emsp;我、我的、自己、自己的、本人、本人的&emsp;</td> </tr>
    <tr> <td>&emsp;他人&emsp;</td> <td>&emsp;他、他的、别人、别人的、他人、他人的&emsp;</td> </tr>
    </table><br/>","0","html-button-response","7","266791","0.0-6.0-0.0-0.0","3","3","3","3","3","3","3","3","3","3","4","3","2","3","4","4","4","4","4","4","3","4","3","4","4","4","3","4","4","1","0","1","1","0","1","1","1","0","1","1","0","0","0","1","4","4","3","2","2","5","3","4","4","4","2","763058594613825537","徐","581","","","","","","","","","","","","","","","","","2","1","","","","","","","","","","","","","","","","","","","","","","","",""
"16710","
    <div class=""tag-bottom"">
    <p> —— 任务1：对“自我”词和“他人”词分类 ——<p/>
    不同词语会出现在屏幕中央，类别标签将始终显示在屏幕上方<p/>   
    <span style=""color:#FFD866""><b>请根据上方标签的提示，尽可能正确并且快速地做出按键反应</b></span><p/>
    当按键错误时屏幕中会出现<span style=""color:red""> X </span>，需要按另一个键纠正才能继续<br/><p/>
    请把双手食指分别放在键盘的“E”键和“I”键上<p/>
    按<空格键>开始
    </p></div>"," ","html-keyboard-response","8","283506","0.0-6.0-0.0-1.0","3","3","3","3","3","3","3","3","3","3","4","3","2","3","4","4","4","4","4","4","3","4","3","4","4","4","3","4","4","1","0","1","1","0","1","1","1","0","1","1","0","0","0","1","4","4","3","2","2","5","3","4","4","4","2","763058594613825537","徐","581","","","","","","","","","","","","","","","","","","","","","","","","","","","","","","","","","","","","","","","","","",""
"null","","null","html-keyboard-response","9","283758","0.0-6.0-0.0-2.0-0.0","3","3","3","3","3","3","3","3","3","3","4","3","2","3","4","4","4","4","4","4","3","4","3","4","4","4","3","4","4","1","0","1","1","0","1","1","1","0","1","1","0","0","0","1","4","4","3","2","2","5","3","4","4","4","2","763058594613825537","徐","581","","","","","","","","","","","","","","","","","","","","","","","","","","","","","","","","","","","","","","","","","",""
"664","<p style=""color:rgb(150, 250, 100); font-size: 35px;"">我的</p>","e","categorize-html","10","284429","0.0-6.0-0.0-2.0-1.0","3","3","3","3","3","3","3","3","3","3","4","3","2","3","4","4","4","4","4","4","3","4","3","4","4","4","3","4","4","1","0","1","1","0","1","1","1","0","1","1","0","0","0","1","4","4","3","2","2","5","3","4","4","4","2","763058594613825537","徐","581","","","","","","","","","","","","","","","","","","","true","1","1","ability","664","self","我的","","","","","","","","","","","","","","","","",""
"null","","null","html-keyboard-response","11","284683","0.0-6.0-0.0-2.0-0.1","3","3","3","3","3","3","3","3","3","3","4","3","2","3","4","4","4","4","4","4","3","4","3","4","4","4","3","4","4","1","0","1","1","0","1","1","1","0","1","1","0","0","0","1","4","4","3","2","2","5","3","4","4","4","2","763058594613825537","徐","581","","","","","","","","","","","","","","","","","","","","","","","","","","","","","","","","","","","","","","","","","",""
"601","<p style=""color:rgb(150, 250, 100); font-size: 35px;"">他</p>","i","categorize-html","12","285289","0.0-6.0-0.0-2.0-1.1","3","3","3","3","3","3","3","3","3","3","4","3","2","3","4","4","4","4","4","4","3","4","3","4","4","4","3","4","4","1","0","1","1","0","1","1","1","0","1","1","0","0","0","1","4","4","3","2","2","5","3","4","4","4","2","763058594613825537","徐","581","","","","","","","","","","","","","","","","","","","true","1","1","ability","601","other","他","","","","","","","","","","","","","","","","",""
"null","","null","html-keyboard-response","13","285542","0.0-6.0-0.0-2.0-0.2","3","3","3","3","3","3","3","3","3","3","4","3","2","3","4","4","4","4","4","4","3","4","3","4","4","4","3","4","4","1","0","1","1","0","1","1","1","0","1","1","0","0","0","1","4","4","3","2","2","5","3","4","4","4","2","763058594613825537","徐","581","","","","","","","","","","","","","","","","","","","","","","","","","","","","","","","","","","","","","","","","","",""
"531","<p style=""color:rgb(150, 250, 100); font-size: 35px;"">我</p>","e","categorize-html","14","286079","0.0-6.0-0.0-2.0-1.2","3","3","3","3","3","3","3","3","3","3","4","3","2","3","4","4","4","4","4","4","3","4","3","4","4","4","3","4","4","1","0","1","1","0","1","1","1","0","1","1","0","0","0","1","4","4","3","2","2","5","3","4","4","4","2","763058594613825537","徐","581","","","","","","","","","","","","","","","","","","","true","1","1","ability","531","self","我","","","","","","","","","","","","","","","","",""
"null","","null","html-keyboard-response","15","286332","0.0-6.0-0.0-2.0-0.3","3","3","3","3","3","3","3","3","3","3","4","3","2","3","4","4","4","4","4","4","3","4","3","4","4","4","3","4","4","1","0","1","1","0","1","1","1","0","1","1","0","0","0","1","4","4","3","2","2","5","3","4","4","4","2","763058594613825537","徐","581","","","","","","","","","","","","","","","","","","","","","","","","","","","","","","","","","","","","","","","","","",""
"573","<p style=""color:rgb(150, 250, 100); font-size: 35px;"">别人</p>","i","categorize-html","16","286910","0.0-6.0-0.0-2.0-1.3","3","3","3","3","3","3","3","3","3","3","4","3","2","3","4","4","4","4","4","4","3","4","3","4","4","4","3","4","4","1","0","1","1","0","1","1","1","0","1","1","0","0","0","1","4","4","3","2","2","5","3","4","4","4","2","763058594613825537","徐","581","","","","","","","","","","","","","","","","","","","true","1","1","ability","573","other","别人","","","","","","","","","","","","","","","","",""
"null","","null","html-keyboard-response","17","287164","0.0-6.0-0.0-2.0-0.4","3","3","3","3","3","3","3","3","3","3","4","3","2","3","4","4","4","4","4","4","3","4","3","4","4","4","3","4","4","1","0","1","1","0","1","1","1","0","1","1","0","0","0","1","4","4","3","2","2","5","3","4","4","4","2","763058594613825537","徐","581","","","","","","","","","","","","","","","","","","","","","","","","","","","","","","","","","","","","","","","","","",""
"526","<p style=""color:rgb(150, 250, 100); font-size: 35px;"">他人的</p>","i","categorize-html","18","287695","0.0-6.0-0.0-2.0-1.4","3","3","3","3","3","3","3","3","3","3","4","3","2","3","4","4","4","4","4","4","3","4","3","4","4","4","3","4","4","1","0","1","1","0","1","1","1","0","1","1","0","0","0","1","4","4","3","2","2","5","3","4","4","4","2","763058594613825537","徐","581","","","","","","","","","","","","","","","","","","","true","1","1","ability","526","other","他人的","","","","","","","","","","","","","","","","",""
"null","","null","html-keyboard-response","19","287946","0.0-6.0-0.0-2.0-0.5","3","3","3","3","3","3","3","3","3","3","4","3","2","3","4","4","4","4","4","4","3","4","3","4","4","4","3","4","4","1","0","1","1","0","1","1","1","0","1","1","0","0","0","1","4","4","3","2","2","5","3","4","4","4","2","763058594613825537","徐","581","","","","","","","","","","","","","","","","","","","","","","","","","","","","","","","","","","","","","","","","","",""
"503","<p style=""color:rgb(150, 250, 100); font-size: 35px;"">本人</p>","e","categorize-html","20","288453","0.0-6.0-0.0-2.0-1.5","3","3","3","3","3","3","3","3","3","3","4","3","2","3","4","4","4","4","4","4","3","4","3","4","4","4","3","4","4","1","0","1","1","0","1","1","1","0","1","1","0","0","0","1","4","4","3","2","2","5","3","4","4","4","2","763058594613825537","徐","581","","","","","","","","","","","","","","","","","","","true","1","1","ability","503","self","本人","","","","","","","","","","","","","","","","",""
"null","","null","html-keyboard-response","21","288705","0.0-6.0-0.0-2.0-0.6","3","3","3","3","3","3","3","3","3","3","4","3","2","3","4","4","4","4","4","4","3","4","3","4","4","4","3","4","4","1","0","1","1","0","1","1","1","0","1","1","0","0","0","1","4","4","3","2","2","5","3","4","4","4","2","763058594613825537","徐","581","","","","","","","","","","","","","","","","","","","","","","","","","","","","","","","","","","","","","","","","","",""
"473","<p style=""color:rgb(150, 250, 100); font-size: 35px;"">他人</p>","i","categorize-html","22","289183","0.0-6.0-0.0-2.0-1.6","3","3","3","3","3","3","3","3","3","3","4","3","2","3","4","4","4","4","4","4","3","4","3","4","4","4","3","4","4","1","0","1","1","0","1","1","1","0","1","1","0","0","0","1","4","4","3","2","2","5","3","4","4","4","2","763058594613825537","徐","581","","","","","","","","","","","","","","","","","","","true","1","1","ability","473","other","他人","","","","","","","","","","","","","","","","",""
"null","","null","html-keyboard-response","23","289435","0.0-6.0-0.0-2.0-0.7","3","3","3","3","3","3","3","3","3","3","4","3","2","3","4","4","4","4","4","4","3","4","3","4","4","4","3","4","4","1","0","1","1","0","1","1","1","0","1","1","0","0","0","1","4","4","3","2","2","5","3","4","4","4","2","763058594613825537","徐","581","","","","","","","","","","","","","","","","","","","","","","","","","","","","","","","","","","","","","","","","","",""
"507","<p style=""color:rgb(150, 250, 100); font-size: 35px;"">他的</p>","i","categorize-html","24","289948","0.0-6.0-0.0-2.0-1.7","3","3","3","3","3","3","3","3","3","3","4","3","2","3","4","4","4","4","4","4","3","4","3","4","4","4","3","4","4","1","0","1","1","0","1","1","1","0","1","1","0","0","0","1","4","4","3","2","2","5","3","4","4","4","2","763058594613825537","徐","581","","","","","","","","","","","","","","","","","","","true","1","1","ability","507","other","他的","","","","","","","","","","","","","","","","",""
"null","","null","html-keyboard-response","25","290201","0.0-6.0-0.0-2.0-0.8","3","3","3","3","3","3","3","3","3","3","4","3","2","3","4","4","4","4","4","4","3","4","3","4","4","4","3","4","4","1","0","1","1","0","1","1","1","0","1","1","0","0","0","1","4","4","3","2","2","5","3","4","4","4","2","763058594613825537","徐","581","","","","","","","","","","","","","","","","","","","","","","","","","","","","","","","","","","","","","","","","","",""
"658","<p style=""color:rgb(150, 250, 100); font-size: 35px;"">本人的</p>","e","categorize-html","26","290864","0.0-6.0-0.0-2.0-1.8","3","3","3","3","3","3","3","3","3","3","4","3","2","3","4","4","4","4","4","4","3","4","3","4","4","4","3","4","4","1","0","1","1","0","1","1","1","0","1","1","0","0","0","1","4","4","3","2","2","5","3","4","4","4","2","763058594613825537","徐","581","","","","","","","","","","","","","","","","","","","true","1","1","ability","658","self","本人的","","","","","","","","","","","","","","","","",""
"null","","null","html-keyboard-response","27","291116","0.0-6.0-0.0-2.0-0.9","3","3","3","3","3","3","3","3","3","3","4","3","2","3","4","4","4","4","4","4","3","4","3","4","4","4","3","4","4","1","0","1","1","0","1","1","1","0","1","1","0","0","0","1","4","4","3","2","2","5","3","4","4","4","2","763058594613825537","徐","581","","","","","","","","","","","","","","","","","","","","","","","","","","","","","","","","","","","","","","","","","",""
"507","<p style=""color:rgb(150, 250, 100); font-size: 35px;"">别人的</p>","i","categorize-html","28","291636","0.0-6.0-0.0-2.0-1.9","3","3","3","3","3","3","3","3","3","3","4","3","2","3","4","4","4","4","4","4","3","4","3","4","4","4","3","4","4","1","0","1","1","0","1","1","1","0","1","1","0","0","0","1","4","4","3","2","2","5","3","4","4","4","2","763058594613825537","徐","581","","","","","","","","","","","","","","","","","","","true","1","1","ability","507","other","别人的","","","","","","","","","","","","","","","","",""
"null","","null","html-keyboard-response","29","291888","0.0-6.0-0.0-2.0-0.10","3","3","3","3","3","3","3","3","3","3","4","3","2","3","4","4","4","4","4","4","3","4","3","4","4","4","3","4","4","1","0","1","1","0","1","1","1","0","1","1","0","0","0","1","4","4","3","2","2","5","3","4","4","4","2","763058594613825537","徐","581","","","","","","","","","","","","","","","","","","","","","","","","","","","","","","","","","","","","","","","","","",""
"479","<p style=""color:rgb(150, 250, 100); font-size: 35px;"">自己</p>","e","categorize-html","30","292373","0.0-6.0-0.0-2.0-1.10","3","3","3","3","3","3","3","3","3","3","4","3","2","3","4","4","4","4","4","4","3","4","3","4","4","4","3","4","4","1","0","1","1","0","1","1","1","0","1","1","0","0","0","1","4","4","3","2","2","5","3","4","4","4","2","763058594613825537","徐","581","","","","","","","","","","","","","","","","","","","true","1","1","ability","479","self","自己","","","","","","","","","","","","","","","","",""
"null","","null","html-keyboard-response","31","292625","0.0-6.0-0.0-2.0-0.11","3","3","3","3","3","3","3","3","3","3","4","3","2","3","4","4","4","4","4","4","3","4","3","4","4","4","3","4","4","1","0","1","1","0","1","1","1","0","1","1","0","0","0","1","4","4","3","2","2","5","3","4","4","4","2","763058594613825537","徐","581","","","","","","","","","","","","","","","","","","","","","","","","","","","","","","","","","","","","","","","","","",""
"474","<p style=""color:rgb(150, 250, 100); font-size: 35px;"">自己的</p>","e","categorize-html","32","293106","0.0-6.0-0.0-2.0-1.11","3","3","3","3","3","3","3","3","3","3","4","3","2","3","4","4","4","4","4","4","3","4","3","4","4","4","3","4","4","1","0","1","1","0","1","1","1","0","1","1","0","0","0","1","4","4","3","2","2","5","3","4","4","4","2","763058594613825537","徐","581","","","","","","","","","","","","","","","","","","","true","1","1","ability","474","self","自己的","","","","","","","","","","","","","","","","",""
"6417","
    <div class=""tag-bottom""><p>
    —— 任务2：对“消极”词和“积极”词分类 ——<p/>   
    <span style=""color:#78DCE8""><b>注意上方，类别标签和需要分类的词语都已经改变</b></span><p/>
    <span style=""color:#FFD866""><b>请根据上方标签的提示，尽可能正确并且快速地做出按键反应</b></span><p/>
    当按键错误时屏幕中会出现<span style=""color:red""> X </span>，需要按另一个键纠正才能继续<br/><p/>
    请把双手食指分别放在键盘的“E”键和“I”键上<p/>
    按<空格键>开始
    </p></div>"," ","html-keyboard-response","33","299524","0.0-6.0-0.0-3.0","3","3","3","3","3","3","3","3","3","3","4","3","2","3","4","4","4","4","4","4","3","4","3","4","4","4","3","4","4","1","0","1","1","0","1","1","1","0","1","1","0","0","0","1","4","4","3","2","2","5","3","4","4","4","2","763058594613825537","徐","581","","","","","","","","","","","","","","","","","","","","","","","","","","","","","","","","","","","","","","","","","",""
"null","","null","html-keyboard-response","34","299776","0.0-6.0-0.0-4.0-0.0","3","3","3","3","3","3","3","3","3","3","4","3","2","3","4","4","4","4","4","4","3","4","3","4","4","4","3","4","4","1","0","1","1","0","1","1","1","0","1","1","0","0","0","1","4","4","3","2","2","5","3","4","4","4","2","763058594613825537","徐","581","","","","","","","","","","","","","","","","","","","","","","","","","","","","","","","","","","","","","","","","","",""
"634","<p style=""color:white; font-size: 35px;"">无能</p>","e","categorize-html","35","300415","0.0-6.0-0.0-4.0-1.0","3","3","3","3","3","3","3","3","3","3","4","3","2","3","4","4","4","4","4","4","3","4","3","4","4","4","3","4","4","1","0","1","1","0","1","1","1","0","1","1","0","0","0","1","4","4","3","2","2","5","3","4","4","4","2","763058594613825537","徐","581","","","","","","","","","","","","","","","","","","","true","2","2","ability","634","negative","无能","","","","","","","","","","","","","","","","",""
"null","","null","html-keyboard-response","36","300667","0.0-6.0-0.0-4.0-0.1","3","3","3","3","3","3","3","3","3","3","4","3","2","3","4","4","4","4","4","4","3","4","3","4","4","4","3","4","4","1","0","1","1","0","1","1","1","0","1","1","0","0","0","1","4","4","3","2","2","5","3","4","4","4","2","763058594613825537","徐","581","","","","","","","","","","","","","","","","","","","","","","","","","","","","","","","","","","","","","","","","","",""
"574","<p style=""color:white; font-size: 35px;"">愚钝</p>","e","categorize-html","37","301247","0.0-6.0-0.0-4.0-1.1","3","3","3","3","3","3","3","3","3","3","4","3","2","3","4","4","4","4","4","4","3","4","3","4","4","4","3","4","4","1","0","1","1","0","1","1","1","0","1","1","0","0","0","1","4","4","3","2","2","5","3","4","4","4","2","763058594613825537","徐","581","","","","","","","","","","","","","","","","","","","true","2","2","ability","574","negative","愚钝","","","","","","","","","","","","","","","","",""
"null","","null","html-keyboard-response","38","301499","0.0-6.0-0.0-4.0-0.2","3","3","3","3","3","3","3","3","3","3","4","3","2","3","4","4","4","4","4","4","3","4","3","4","4","4","3","4","4","1","0","1","1","0","1","1","1","0","1","1","0","0","0","1","4","4","3","2","2","5","3","4","4","4","2","763058594613825537","徐","581","","","","","","","","","","","","","","","","","","","","","","","","","","","","","","","","","","","","","","","","","",""
"616","<p style=""color:white; font-size: 35px;"">能干</p>","i","categorize-html","39","302119","0.0-6.0-0.0-4.0-1.2","3","3","3","3","3","3","3","3","3","3","4","3","2","3","4","4","4","4","4","4","3","4","3","4","4","4","3","4","4","1","0","1","1","0","1","1","1","0","1","1","0","0","0","1","4","4","3","2","2","5","3","4","4","4","2","763058594613825537","徐","581","","","","","","","","","","","","","","","","","","","true","2","2","ability","616","positive","能干","","","","","","","","","","","","","","","","",""
"null","","null","html-keyboard-response","40","302372","0.0-6.0-0.0-4.0-0.3","3","3","3","3","3","3","3","3","3","3","4","3","2","3","4","4","4","4","4","4","3","4","3","4","4","4","3","4","4","1","0","1","1","0","1","1","1","0","1","1","0","0","0","1","4","4","3","2","2","5","3","4","4","4","2","763058594613825537","徐","581","","","","","","","","","","","","","","","","","","","","","","","","","","","","","","","","","","","","","","","","","",""
"515","<p style=""color:white; font-size: 35px;"">精干</p>","i","categorize-html","41","302894","0.0-6.0-0.0-4.0-1.3","3","3","3","3","3","3","3","3","3","3","4","3","2","3","4","4","4","4","4","4","3","4","3","4","4","4","3","4","4","1","0","1","1","0","1","1","1","0","1","1","0","0","0","1","4","4","3","2","2","5","3","4","4","4","2","763058594613825537","徐","581","","","","","","","","","","","","","","","","","","","true","2","2","ability","515","positive","精干","","","","","","","","","","","","","","","","",""
"null","","null","html-keyboard-response","42","303145","0.0-6.0-0.0-4.0-0.4","3","3","3","3","3","3","3","3","3","3","4","3","2","3","4","4","4","4","4","4","3","4","3","4","4","4","3","4","4","1","0","1","1","0","1","1","1","0","1","1","0","0","0","1","4","4","3","2","2","5","3","4","4","4","2","763058594613825537","徐","581","","","","","","","","","","","","","","","","","","","","","","","","","","","","","","","","","","","","","","","","","",""
"547","<p style=""color:white; font-size: 35px;"">蠢笨</p>","e","categorize-html","43","303699","0.0-6.0-0.0-4.0-1.4","3","3","3","3","3","3","3","3","3","3","4","3","2","3","4","4","4","4","4","4","3","4","3","4","4","4","3","4","4","1","0","1","1","0","1","1","1","0","1","1","0","0","0","1","4","4","3","2","2","5","3","4","4","4","2","763058594613825537","徐","581","","","","","","","","","","","","","","","","","","","true","2","2","ability","547","negative","蠢笨","","","","","","","","","","","","","","","","",""
"null","","null","html-keyboard-response","44","303950","0.0-6.0-0.0-4.0-0.5","3","3","3","3","3","3","3","3","3","3","4","3","2","3","4","4","4","4","4","4","3","4","3","4","4","4","3","4","4","1","0","1","1","0","1","1","1","0","1","1","0","0","0","1","4","4","3","2","2","5","3","4","4","4","2","763058594613825537","徐","581","","","","","","","","","","","","","","","","","","","","","","","","","","","","","","","","","","","","","","","","","",""
"614","<p style=""color:white; font-size: 35px;"">低能</p>","e","categorize-html","45","304572","0.0-6.0-0.0-4.0-1.5","3","3","3","3","3","3","3","3","3","3","4","3","2","3","4","4","4","4","4","4","3","4","3","4","4","4","3","4","4","1","0","1","1","0","1","1","1","0","1","1","0","0","0","1","4","4","3","2","2","5","3","4","4","4","2","763058594613825537","徐","581","","","","","","","","","","","","","","","","","","","true","2","2","ability","614","negative","低能","","","","","","","","","","","","","","","","",""
"null","","null","html-keyboard-response","46","304824","0.0-6.0-0.0-4.0-0.6","3","3","3","3","3","3","3","3","3","3","4","3","2","3","4","4","4","4","4","4","3","4","3","4","4","4","3","4","4","1","0","1","1","0","1","1","1","0","1","1","0","0","0","1","4","4","3","2","2","5","3","4","4","4","2","763058594613825537","徐","581","","","","","","","","","","","","","","","","","","","","","","","","","","","","","","","","","","","","","","","","","",""
"564","<p style=""color:white; font-size: 35px;"">废物</p>","e","categorize-html","47","305392","0.0-6.0-0.0-4.0-1.6","3","3","3","3","3","3","3","3","3","3","4","3","2","3","4","4","4","4","4","4","3","4","3","4","4","4","3","4","4","1","0","1","1","0","1","1","1","0","1","1","0","0","0","1","4","4","3","2","2","5","3","4","4","4","2","763058594613825537","徐","581","","","","","","","","","","","","","","","","","","","true","2","2","ability","564","negative","废物","","","","","","","","","","","","","","","","",""
"null","","null","html-keyboard-response","48","305644","0.0-6.0-0.0-4.0-0.7","3","3","3","3","3","3","3","3","3","3","4","3","2","3","4","4","4","4","4","4","3","4","3","4","4","4","3","4","4","1","0","1","1","0","1","1","1","0","1","1","0","0","0","1","4","4","3","2","2","5","3","4","4","4","2","763058594613825537","徐","581","","","","","","","","","","","","","","","","","","","","","","","","","","","","","","","","","","","","","","","","","",""
"493","<p style=""color:white; font-size: 35px;"">全才</p>","i","categorize-html","49","306140","0.0-6.0-0.0-4.0-1.7","3","3","3","3","3","3","3","3","3","3","4","3","2","3","4","4","4","4","4","4","3","4","3","4","4","4","3","4","4","1","0","1","1","0","1","1","1","0","1","1","0","0","0","1","4","4","3","2","2","5","3","4","4","4","2","763058594613825537","徐","581","","","","","","","","","","","","","","","","","","","true","2","2","ability","493","positive","全才","","","","","","","","","","","","","","","","",""
"null","","null","html-keyboard-response","50","306394","0.0-6.0-0.0-4.0-0.8","3","3","3","3","3","3","3","3","3","3","4","3","2","3","4","4","4","4","4","4","3","4","3","4","4","4","3","4","4","1","0","1","1","0","1","1","1","0","1","1","0","0","0","1","4","4","3","2","2","5","3","4","4","4","2","763058594613825537","徐","581","","","","","","","","","","","","","","","","","","","","","","","","","","","","","","","","","","","","","","","","","",""
"584","<p style=""color:white; font-size: 35px;"">全能</p>","i","categorize-html","51","306987","0.0-6.0-0.0-4.0-1.8","3","3","3","3","3","3","3","3","3","3","4","3","2","3","4","4","4","4","4","4","3","4","3","4","4","4","3","4","4","1","0","1","1","0","1","1","1","0","1","1","0","0","0","1","4","4","3","2","2","5","3","4","4","4","2","763058594613825537","徐","581","","","","","","","","","","","","","","","","","","","true","2","2","ability","584","positive","全能","","","","","","","","","","","","","","","","",""
"null","","null","html-keyboard-response","52","307239","0.0-6.0-0.0-4.0-0.9","3","3","3","3","3","3","3","3","3","3","4","3","2","3","4","4","4","4","4","4","3","4","3","4","4","4","3","4","4","1","0","1","1","0","1","1","1","0","1","1","0","0","0","1","4","4","3","2","2","5","3","4","4","4","2","763058594613825537","徐","581","","","","","","","","","","","","","","","","","","","","","","","","","","","","","","","","","","","","","","","","","",""
"483","<p style=""color:white; font-size: 35px;"">高效</p>","i","categorize-html","53","307727","0.0-6.0-0.0-4.0-1.9","3","3","3","3","3","3","3","3","3","3","4","3","2","3","4","4","4","4","4","4","3","4","3","4","4","4","3","4","4","1","0","1","1","0","1","1","1","0","1","1","0","0","0","1","4","4","3","2","2","5","3","4","4","4","2","763058594613825537","徐","581","","","","","","","","","","","","","","","","","","","true","2","2","ability","483","positive","高效","","","","","","","","","","","","","","","","",""
"null","","null","html-keyboard-response","54","307978","0.0-6.0-0.0-4.0-0.10","3","3","3","3","3","3","3","3","3","3","4","3","2","3","4","4","4","4","4","4","3","4","3","4","4","4","3","4","4","1","0","1","1","0","1","1","1","0","1","1","0","0","0","1","4","4","3","2","2","5","3","4","4","4","2","763058594613825537","徐","581","","","","","","","","","","","","","","","","","","","","","","","","","","","","","","","","","","","","","","","","","",""
"543","<p style=""color:white; font-size: 35px;"">拙笨</p>","e","categorize-html","55","308528","0.0-6.0-0.0-4.0-1.10","3","3","3","3","3","3","3","3","3","3","4","3","2","3","4","4","4","4","4","4","3","4","3","4","4","4","3","4","4","1","0","1","1","0","1","1","1","0","1","1","0","0","0","1","4","4","3","2","2","5","3","4","4","4","2","763058594613825537","徐","581","","","","","","","","","","","","","","","","","","","true","2","2","ability","543","negative","拙笨","","","","","","","","","","","","","","","","",""
"null","","null","html-keyboard-response","56","308779","0.0-6.0-0.0-4.0-0.11","3","3","3","3","3","3","3","3","3","3","4","3","2","3","4","4","4","4","4","4","3","4","3","4","4","4","3","4","4","1","0","1","1","0","1","1","1","0","1","1","0","0","0","1","4","4","3","2","2","5","3","4","4","4","2","763058594613825537","徐","581","","","","","","","","","","","","","","","","","","","","","","","","","","","","","","","","","","","","","","","","","",""
"569","<p style=""color:white; font-size: 35px;"">天才</p>","i","categorize-html","57","309354","0.0-6.0-0.0-4.0-1.11","3","3","3","3","3","3","3","3","3","3","4","3","2","3","4","4","4","4","4","4","3","4","3","4","4","4","3","4","4","1","0","1","1","0","1","1","1","0","1","1","0","0","0","1","4","4","3","2","2","5","3","4","4","4","2","763058594613825537","徐","581","","","","","","","","","","","","","","","","","","","true","2","2","ability","569","positive","天才","","","","","","","","","","","","","","","","",""
"8674","
    <div class=""tag-bottom""><p>
    —— 任务3：对“自我/消极”词和“他人/积极”词分类 ——<p/>
    <span style=""color:#78DCE8""><b>注意上方，之前的四类词语将混合在一起交替呈现</b></span><p/>
    <span style=""color:#FFD866""><b>请根据上方标签的提示，尽可能正确并且快速地做出按键反应</b></span><p/>
    当按键错误时屏幕中会出现<span style=""color:red""> X </span>，需要按另一个键纠正才能继续<br/><p/>
    请把双手食指分别放在键盘的“E”键和“I”键上<p/>
    按<空格键>开始
    </p></div>"," ","html-keyboard-response","58","318030","0.0-6.0-0.0-5.0","3","3","3","3","3","3","3","3","3","3","4","3","2","3","4","4","4","4","4","4","3","4","3","4","4","4","3","4","4","1","0","1","1","0","1","1","1","0","1","1","0","0","0","1","4","4","3","2","2","5","3","4","4","4","2","763058594613825537","徐","581","","","","","","","","","","","","","","","","","","","","","","","","","","","","","","","","","","","","","","","","","",""
"null","","null","html-keyboard-response","59","318281","0.0-6.0-0.0-6.0-0.0","3","3","3","3","3","3","3","3","3","3","4","3","2","3","4","4","4","4","4","4","3","4","3","4","4","4","3","4","4","1","0","1","1","0","1","1","1","0","1","1","0","0","0","1","4","4","3","2","2","5","3","4","4","4","2","763058594613825537","徐","581","","","","","","","","","","","","","","","","","","","","","","","","","","","","","","","","","","","","","","","","","",""
"570","<p style=""color:rgb(150, 250, 100); font-size: 35px;"">他的</p>","i","categorize-html","60","318858","0.0-6.0-0.0-6.0-1.0","3","3","3","3","3","3","3","3","3","3","4","3","2","3","4","4","4","4","4","4","3","4","3","4","4","4","3","4","4","1","0","1","1","0","1","1","1","0","1","1","0","0","0","1","4","4","3","2","2","5","3","4","4","4","2","763058594613825537","徐","581","","","","","","","","","","","","","","","","","","","true","3","3","ability","570","other","他的","","","","","","","","","","","","","","","","",""
"null","","null","html-keyboard-response","61","319110","0.0-6.0-0.0-6.0-0.1","3","3","3","3","3","3","3","3","3","3","4","3","2","3","4","4","4","4","4","4","3","4","3","4","4","4","3","4","4","1","0","1","1","0","1","1","1","0","1","1","0","0","0","1","4","4","3","2","2","5","3","4","4","4","2","763058594613825537","徐","581","","","","","","","","","","","","","","","","","","","","","","","","","","","","","","","","","","","","","","","","","",""
"665","<p style=""color:white; font-size: 35px;"">愚钝</p>","e","categorize-html","62","319784","0.0-6.0-0.0-6.0-1.1","3","3","3","3","3","3","3","3","3","3","4","3","2","3","4","4","4","4","4","4","3","4","3","4","4","4","3","4","4","1","0","1","1","0","1","1","1","0","1","1","0","0","0","1","4","4","3","2","2","5","3","4","4","4","2","763058594613825537","徐","581","","","","","","","","","","","","","","","","","","","true","3","3","ability","665","negative","愚钝","","","","","","","","","","","","","","","","",""
"null","","null","html-keyboard-response","63","320035","0.0-6.0-0.0-6.0-0.2","3","3","3","3","3","3","3","3","3","3","4","3","2","3","4","4","4","4","4","4","3","4","3","4","4","4","3","4","4","1","0","1","1","0","1","1","1","0","1","1","0","0","0","1","4","4","3","2","2","5","3","4","4","4","2","763058594613825537","徐","581","","","","","","","","","","","","","","","","","","","","","","","","","","","","","","","","","","","","","","","","","",""
"582","<p style=""color:rgb(150, 250, 100); font-size: 35px;"">我的</p>","e","categorize-html","64","320623","0.0-6.0-0.0-6.0-1.2","3","3","3","3","3","3","3","3","3","3","4","3","2","3","4","4","4","4","4","4","3","4","3","4","4","4","3","4","4","1","0","1","1","0","1","1","1","0","1","1","0","0","0","1","4","4","3","2","2","5","3","4","4","4","2","763058594613825537","徐","581","","","","","","","","","","","","","","","","","","","true","3","3","ability","582","self","我的","","","","","","","","","","","","","","","","",""
"null","","null","html-keyboard-response","65","320874","0.0-6.0-0.0-6.0-0.3","3","3","3","3","3","3","3","3","3","3","4","3","2","3","4","4","4","4","4","4","3","4","3","4","4","4","3","4","4","1","0","1","1","0","1","1","1","0","1","1","0","0","0","1","4","4","3","2","2","5","3","4","4","4","2","763058594613825537","徐","581","","","","","","","","","","","","","","","","","","","","","","","","","","","","","","","","","","","","","","","","","",""
"489","<p style=""color:white; font-size: 35px;"">能干</p>","i","categorize-html","66","321369","0.0-6.0-0.0-6.0-1.3","3","3","3","3","3","3","3","3","3","3","4","3","2","3","4","4","4","4","4","4","3","4","3","4","4","4","3","4","4","1","0","1","1","0","1","1","1","0","1","1","0","0","0","1","4","4","3","2","2","5","3","4","4","4","2","763058594613825537","徐","581","","","","","","","","","","","","","","","","","","","true","3","3","ability","489","positive","能干","","","","","","","","","","","","","","","","",""
"null","","null","html-keyboard-response","67","321620","0.0-6.0-0.0-6.0-0.4","3","3","3","3","3","3","3","3","3","3","4","3","2","3","4","4","4","4","4","4","3","4","3","4","4","4","3","4","4","1","0","1","1","0","1","1","1","0","1","1","0","0","0","1","4","4","3","2","2","5","3","4","4","4","2","763058594613825537","徐","581","","","","","","","","","","","","","","","","","","","","","","","","","","","","","","","","","","","","","","","","","",""
"764","<p style=""color:rgb(150, 250, 100); font-size: 35px;"">自己的</p>","e","categorize-html","68","322394","0.0-6.0-0.0-6.0-1.4","3","3","3","3","3","3","3","3","3","3","4","3","2","3","4","4","4","4","4","4","3","4","3","4","4","4","3","4","4","1","0","1","1","0","1","1","1","0","1","1","0","0","0","1","4","4","3","2","2","5","3","4","4","4","2","763058594613825537","徐","581","","","","","","","","","","","","","","","","","","","true","3","3","ability","764","self","自己的","","","","","","","","","","","","","","","","",""
"null","","null","html-keyboard-response","69","322647","0.0-6.0-0.0-6.0-0.5","3","3","3","3","3","3","3","3","3","3","4","3","2","3","4","4","4","4","4","4","3","4","3","4","4","4","3","4","4","1","0","1","1","0","1","1","1","0","1","1","0","0","0","1","4","4","3","2","2","5","3","4","4","4","2","763058594613825537","徐","581","","","","","","","","","","","","","","","","","","","","","","","","","","","","","","","","","","","","","","","","","",""
"517","<p style=""color:white; font-size: 35px;"">精干</p>","i","categorize-html","70","323171","0.0-6.0-0.0-6.0-1.5","3","3","3","3","3","3","3","3","3","3","4","3","2","3","4","4","4","4","4","4","3","4","3","4","4","4","3","4","4","1","0","1","1","0","1","1","1","0","1","1","0","0","0","1","4","4","3","2","2","5","3","4","4","4","2","763058594613825537","徐","581","","","","","","","","","","","","","","","","","","","true","3","3","ability","517","positive","精干","","","","","","","","","","","","","","","","",""
"null","","null","html-keyboard-response","71","323423","0.0-6.0-0.0-6.0-0.6","3","3","3","3","3","3","3","3","3","3","4","3","2","3","4","4","4","4","4","4","3","4","3","4","4","4","3","4","4","1","0","1","1","0","1","1","1","0","1","1","0","0","0","1","4","4","3","2","2","5","3","4","4","4","2","763058594613825537","徐","581","","","","","","","","","","","","","","","","","","","","","","","","","","","","","","","","","","","","","","","","","",""
"487","<p style=""color:rgb(150, 250, 100); font-size: 35px;"">他人</p>","i","categorize-html","72","323917","0.0-6.0-0.0-6.0-1.6","3","3","3","3","3","3","3","3","3","3","4","3","2","3","4","4","4","4","4","4","3","4","3","4","4","4","3","4","4","1","0","1","1","0","1","1","1","0","1","1","0","0","0","1","4","4","3","2","2","5","3","4","4","4","2","763058594613825537","徐","581","","","","","","","","","","","","","","","","","","","true","3","3","ability","487","other","他人","","","","","","","","","","","","","","","","",""
"null","","null","html-keyboard-response","73","324170","0.0-6.0-0.0-6.0-0.7","3","3","3","3","3","3","3","3","3","3","4","3","2","3","4","4","4","4","4","4","3","4","3","4","4","4","3","4","4","1","0","1","1","0","1","1","1","0","1","1","0","0","0","1","4","4","3","2","2","5","3","4","4","4","2","763058594613825537","徐","581","","","","","","","","","","","","","","","","","","","","","","","","","","","","","","","","","","","","","","","","","",""
"575","<p style=""color:white; font-size: 35px;"">低能</p>","e","categorize-html","74","324757","0.0-6.0-0.0-6.0-1.7","3","3","3","3","3","3","3","3","3","3","4","3","2","3","4","4","4","4","4","4","3","4","3","4","4","4","3","4","4","1","0","1","1","0","1","1","1","0","1","1","0","0","0","1","4","4","3","2","2","5","3","4","4","4","2","763058594613825537","徐","581","","","","","","","","","","","","","","","","","","","true","3","3","ability","575","negative","低能","","","","","","","","","","","","","","","","",""
"null","","null","html-keyboard-response","75","325010","0.0-6.0-0.0-6.0-0.8","3","3","3","3","3","3","3","3","3","3","4","3","2","3","4","4","4","4","4","4","3","4","3","4","4","4","3","4","4","1","0","1","1","0","1","1","1","0","1","1","0","0","0","1","4","4","3","2","2","5","3","4","4","4","2","763058594613825537","徐","581","","","","","","","","","","","","","","","","","","","","","","","","","","","","","","","","","","","","","","","","","",""
"745","<p style=""color:rgb(150, 250, 100); font-size: 35px;"">别人的</p>","i","categorize-html","76","325760","0.0-6.0-0.0-6.0-1.8","3","3","3","3","3","3","3","3","3","3","4","3","2","3","4","4","4","4","4","4","3","4","3","4","4","4","3","4","4","1","0","1","1","0","1","1","1","0","1","1","0","0","0","1","4","4","3","2","2","5","3","4","4","4","2","763058594613825537","徐","581","","","","","","","","","","","","","","","","","","","true","3","3","ability","745","other","别人的","","","","","","","","","","","","","","","","",""
"null","","null","html-keyboard-response","77","326011","0.0-6.0-0.0-6.0-0.9","3","3","3","3","3","3","3","3","3","3","4","3","2","3","4","4","4","4","4","4","3","4","3","4","4","4","3","4","4","1","0","1","1","0","1","1","1","0","1","1","0","0","0","1","4","4","3","2","2","5","3","4","4","4","2","763058594613825537","徐","581","","","","","","","","","","","","","","","","","","","","","","","","","","","","","","","","","","","","","","","","","",""
"585","<p style=""color:white; font-size: 35px;"">天才</p>","i","categorize-html","78","326612","0.0-6.0-0.0-6.0-1.9","3","3","3","3","3","3","3","3","3","3","4","3","2","3","4","4","4","4","4","4","3","4","3","4","4","4","3","4","4","1","0","1","1","0","1","1","1","0","1","1","0","0","0","1","4","4","3","2","2","5","3","4","4","4","2","763058594613825537","徐","581","","","","","","","","","","","","","","","","","","","true","3","3","ability","585","positive","天才","","","","","","","","","","","","","","","","",""
"null","","null","html-keyboard-response","79","326878","0.0-6.0-0.0-6.0-0.10","3","3","3","3","3","3","3","3","3","3","4","3","2","3","4","4","4","4","4","4","3","4","3","4","4","4","3","4","4","1","0","1","1","0","1","1","1","0","1","1","0","0","0","1","4","4","3","2","2","5","3","4","4","4","2","763058594613825537","徐","581","","","","","","","","","","","","","","","","","","","","","","","","","","","","","","","","","","","","","","","","","",""
"564","<p style=""color:rgb(150, 250, 100); font-size: 35px;"">本人</p>","e","categorize-html","80","327456","0.0-6.0-0.0-6.0-1.10","3","3","3","3","3","3","3","3","3","3","4","3","2","3","4","4","4","4","4","4","3","4","3","4","4","4","3","4","4","1","0","1","1","0","1","1","1","0","1","1","0","0","0","1","4","4","3","2","2","5","3","4","4","4","2","763058594613825537","徐","581","","","","","","","","","","","","","","","","","","","true","3","3","ability","564","self","本人","","","","","","","","","","","","","","","","",""
"null","","null","html-keyboard-response","81","327708","0.0-6.0-0.0-6.0-0.11","3","3","3","3","3","3","3","3","3","3","4","3","2","3","4","4","4","4","4","4","3","4","3","4","4","4","3","4","4","1","0","1","1","0","1","1","1","0","1","1","0","0","0","1","4","4","3","2","2","5","3","4","4","4","2","763058594613825537","徐","581","","","","","","","","","","","","","","","","","","","","","","","","","","","","","","","","","","","","","","","","","",""
"666","<p style=""color:white; font-size: 35px;"">无能</p>","e","categorize-html","82","328383","0.0-6.0-0.0-6.0-1.11","3","3","3","3","3","3","3","3","3","3","4","3","2","3","4","4","4","4","4","4","3","4","3","4","4","4","3","4","4","1","0","1","1","0","1","1","1","0","1","1","0","0","0","1","4","4","3","2","2","5","3","4","4","4","2","763058594613825537","徐","581","","","","","","","","","","","","","","","","","","","true","3","3","ability","666","negative","无能","","","","","","","","","","","","","","","","",""
"null","","null","html-keyboard-response","83","328635","0.0-6.0-0.0-6.0-0.12","3","3","3","3","3","3","3","3","3","3","4","3","2","3","4","4","4","4","4","4","3","4","3","4","4","4","3","4","4","1","0","1","1","0","1","1","1","0","1","1","0","0","0","1","4","4","3","2","2","5","3","4","4","4","2","763058594613825537","徐","581","","","","","","","","","","","","","","","","","","","","","","","","","","","","","","","","","","","","","","","","","",""
"490","<p style=""color:rgb(150, 250, 100); font-size: 35px;"">他</p>","i","categorize-html","84","329130","0.0-6.0-0.0-6.0-1.12","3","3","3","3","3","3","3","3","3","3","4","3","2","3","4","4","4","4","4","4","3","4","3","4","4","4","3","4","4","1","0","1","1","0","1","1","1","0","1","1","0","0","0","1","4","4","3","2","2","5","3","4","4","4","2","763058594613825537","徐","581","","","","","","","","","","","","","","","","","","","true","3","3","ability","490","other","他","","","","","","","","","","","","","","","","",""
"null","","null","html-keyboard-response","85","329383","0.0-6.0-0.0-6.0-0.13","3","3","3","3","3","3","3","3","3","3","4","3","2","3","4","4","4","4","4","4","3","4","3","4","4","4","3","4","4","1","0","1","1","0","1","1","1","0","1","1","0","0","0","1","4","4","3","2","2","5","3","4","4","4","2","763058594613825537","徐","581","","","","","","","","","","","","","","","","","","","","","","","","","","","","","","","","","","","","","","","","","",""
"575","<p style=""color:white; font-size: 35px;"">全能</p>","i","categorize-html","86","329967","0.0-6.0-0.0-6.0-1.13","3","3","3","3","3","3","3","3","3","3","4","3","2","3","4","4","4","4","4","4","3","4","3","4","4","4","3","4","4","1","0","1","1","0","1","1","1","0","1","1","0","0","0","1","4","4","3","2","2","5","3","4","4","4","2","763058594613825537","徐","581","","","","","","","","","","","","","","","","","","","true","3","3","ability","575","positive","全能","","","","","","","","","","","","","","","","",""
"null","","null","html-keyboard-response","87","330219","0.0-6.0-0.0-6.0-0.14","3","3","3","3","3","3","3","3","3","3","4","3","2","3","4","4","4","4","4","4","3","4","3","4","4","4","3","4","4","1","0","1","1","0","1","1","1","0","1","1","0","0","0","1","4","4","3","2","2","5","3","4","4","4","2","763058594613825537","徐","581","","","","","","","","","","","","","","","","","","","","","","","","","","","","","","","","","","","","","","","","","",""
"466","<p style=""color:rgb(150, 250, 100); font-size: 35px;"">我</p>","e","categorize-html","88","330689","0.0-6.0-0.0-6.0-1.14","3","3","3","3","3","3","3","3","3","3","4","3","2","3","4","4","4","4","4","4","3","4","3","4","4","4","3","4","4","1","0","1","1","0","1","1","1","0","1","1","0","0","0","1","4","4","3","2","2","5","3","4","4","4","2","763058594613825537","徐","581","","","","","","","","","","","","","","","","","","","true","3","3","ability","466","self","我","","","","","","","","","","","","","","","","",""
"null","","null","html-keyboard-response","89","330943","0.0-6.0-0.0-6.0-0.15","3","3","3","3","3","3","3","3","3","3","4","3","2","3","4","4","4","4","4","4","3","4","3","4","4","4","3","4","4","1","0","1","1","0","1","1","1","0","1","1","0","0","0","1","4","4","3","2","2","5","3","4","4","4","2","763058594613825537","徐","581","","","","","","","","","","","","","","","","","","","","","","","","","","","","","","","","","","","","","","","","","",""
"517","<p style=""color:white; font-size: 35px;"">拙笨</p>","e","categorize-html","90","331466","0.0-6.0-0.0-6.0-1.15","3","3","3","3","3","3","3","3","3","3","4","3","2","3","4","4","4","4","4","4","3","4","3","4","4","4","3","4","4","1","0","1","1","0","1","1","1","0","1","1","0","0","0","1","4","4","3","2","2","5","3","4","4","4","2","763058594613825537","徐","581","","","","","","","","","","","","","","","","","","","true","3","3","ability","517","negative","拙笨","","","","","","","","","","","","","","","","",""
"null","","null","html-keyboard-response","91","331718","0.0-6.0-0.0-6.0-0.16","3","3","3","3","3","3","3","3","3","3","4","3","2","3","4","4","4","4","4","4","3","4","3","4","4","4","3","4","4","1","0","1","1","0","1","1","1","0","1","1","0","0","0","1","4","4","3","2","2","5","3","4","4","4","2","763058594613825537","徐","581","","","","","","","","","","","","","","","","","","","","","","","","","","","","","","","","","","","","","","","","","",""
"520","<p style=""color:rgb(150, 250, 100); font-size: 35px;"">自己</p>","e","categorize-html","92","332244","0.0-6.0-0.0-6.0-1.16","3","3","3","3","3","3","3","3","3","3","4","3","2","3","4","4","4","4","4","4","3","4","3","4","4","4","3","4","4","1","0","1","1","0","1","1","1","0","1","1","0","0","0","1","4","4","3","2","2","5","3","4","4","4","2","763058594613825537","徐","581","","","","","","","","","","","","","","","","","","","true","3","3","ability","520","self","自己","","","","","","","","","","","","","","","","",""
"null","","null","html-keyboard-response","93","332496","0.0-6.0-0.0-6.0-0.17","3","3","3","3","3","3","3","3","3","3","4","3","2","3","4","4","4","4","4","4","3","4","3","4","4","4","3","4","4","1","0","1","1","0","1","1","1","0","1","1","0","0","0","1","4","4","3","2","2","5","3","4","4","4","2","763058594613825537","徐","581","","","","","","","","","","","","","","","","","","","","","","","","","","","","","","","","","","","","","","","","","",""
"568","<p style=""color:white; font-size: 35px;"">高效</p>","i","categorize-html","94","333071","0.0-6.0-0.0-6.0-1.17","3","3","3","3","3","3","3","3","3","3","4","3","2","3","4","4","4","4","4","4","3","4","3","4","4","4","3","4","4","1","0","1","1","0","1","1","1","0","1","1","0","0","0","1","4","4","3","2","2","5","3","4","4","4","2","763058594613825537","徐","581","","","","","","","","","","","","","","","","","","","true","3","3","ability","568","positive","高效","","","","","","","","","","","","","","","","",""
"null","","null","html-keyboard-response","95","333324","0.0-6.0-0.0-6.0-0.18","3","3","3","3","3","3","3","3","3","3","4","3","2","3","4","4","4","4","4","4","3","4","3","4","4","4","3","4","4","1","0","1","1","0","1","1","1","0","1","1","0","0","0","1","4","4","3","2","2","5","3","4","4","4","2","763058594613825537","徐","581","","","","","","","","","","","","","","","","","","","","","","","","","","","","","","","","","","","","","","","","","",""
"514","<p style=""color:rgb(150, 250, 100); font-size: 35px;"">别人</p>","i","categorize-html","96","333843","0.0-6.0-0.0-6.0-1.18","3","3","3","3","3","3","3","3","3","3","4","3","2","3","4","4","4","4","4","4","3","4","3","4","4","4","3","4","4","1","0","1","1","0","1","1","1","0","1","1","0","0","0","1","4","4","3","2","2","5","3","4","4","4","2","763058594613825537","徐","581","","","","","","","","","","","","","","","","","","","true","3","3","ability","514","other","别人","","","","","","","","","","","","","","","","",""
"null","","null","html-keyboard-response","97","334097","0.0-6.0-0.0-6.0-0.19","3","3","3","3","3","3","3","3","3","3","4","3","2","3","4","4","4","4","4","4","3","4","3","4","4","4","3","4","4","1","0","1","1","0","1","1","1","0","1","1","0","0","0","1","4","4","3","2","2","5","3","4","4","4","2","763058594613825537","徐","581","","","","","","","","","","","","","","","","","","","","","","","","","","","","","","","","","","","","","","","","","",""
"624","<p style=""color:white; font-size: 35px;"">废物</p>","e","categorize-html","98","334726","0.0-6.0-0.0-6.0-1.19","3","3","3","3","3","3","3","3","3","3","4","3","2","3","4","4","4","4","4","4","3","4","3","4","4","4","3","4","4","1","0","1","1","0","1","1","1","0","1","1","0","0","0","1","4","4","3","2","2","5","3","4","4","4","2","763058594613825537","徐","581","","","","","","","","","","","","","","","","","","","true","3","3","ability","624","negative","废物","","","","","","","","","","","","","","","","",""
"null","","null","html-keyboard-response","99","334978","0.0-6.0-0.0-6.0-0.20","3","3","3","3","3","3","3","3","3","3","4","3","2","3","4","4","4","4","4","4","3","4","3","4","4","4","3","4","4","1","0","1","1","0","1","1","1","0","1","1","0","0","0","1","4","4","3","2","2","5","3","4","4","4","2","763058594613825537","徐","581","","","","","","","","","","","","","","","","","","","","","","","","","","","","","","","","","","","","","","","","","",""
"640","<p style=""color:rgb(150, 250, 100); font-size: 35px;"">本人的</p>","e","categorize-html","100","335625","0.0-6.0-0.0-6.0-1.20","3","3","3","3","3","3","3","3","3","3","4","3","2","3","4","4","4","4","4","4","3","4","3","4","4","4","3","4","4","1","0","1","1","0","1","1","1","0","1","1","0","0","0","1","4","4","3","2","2","5","3","4","4","4","2","763058594613825537","徐","581","","","","","","","","","","","","","","","","","","","true","3","3","ability","640","self","本人的","","","","","","","","","","","","","","","","",""
"null","","null","html-keyboard-response","101","335877","0.0-6.0-0.0-6.0-0.21","3","3","3","3","3","3","3","3","3","3","4","3","2","3","4","4","4","4","4","4","3","4","3","4","4","4","3","4","4","1","0","1","1","0","1","1","1","0","1","1","0","0","0","1","4","4","3","2","2","5","3","4","4","4","2","763058594613825537","徐","581","","","","","","","","","","","","","","","","","","","","","","","","","","","","","","","","","","","","","","","","","",""
"555","<p style=""color:white; font-size: 35px;"">蠢笨</p>","e","categorize-html","102","336438","0.0-6.0-0.0-6.0-1.21","3","3","3","3","3","3","3","3","3","3","4","3","2","3","4","4","4","4","4","4","3","4","3","4","4","4","3","4","4","1","0","1","1","0","1","1","1","0","1","1","0","0","0","1","4","4","3","2","2","5","3","4","4","4","2","763058594613825537","徐","581","","","","","","","","","","","","","","","","","","","true","3","3","ability","555","negative","蠢笨","","","","","","","","","","","","","","","","",""
"null","","null","html-keyboard-response","103","336690","0.0-6.0-0.0-6.0-0.22","3","3","3","3","3","3","3","3","3","3","4","3","2","3","4","4","4","4","4","4","3","4","3","4","4","4","3","4","4","1","0","1","1","0","1","1","1","0","1","1","0","0","0","1","4","4","3","2","2","5","3","4","4","4","2","763058594613825537","徐","581","","","","","","","","","","","","","","","","","","","","","","","","","","","","","","","","","","","","","","","","","",""
"531","<p style=""color:rgb(150, 250, 100); font-size: 35px;"">他人的</p>","i","categorize-html","104","337225","0.0-6.0-0.0-6.0-1.22","3","3","3","3","3","3","3","3","3","3","4","3","2","3","4","4","4","4","4","4","3","4","3","4","4","4","3","4","4","1","0","1","1","0","1","1","1","0","1","1","0","0","0","1","4","4","3","2","2","5","3","4","4","4","2","763058594613825537","徐","581","","","","","","","","","","","","","","","","","","","true","3","3","ability","531","other","他人的","","","","","","","","","","","","","","","","",""
"null","","null","html-keyboard-response","105","337477","0.0-6.0-0.0-6.0-0.23","3","3","3","3","3","3","3","3","3","3","4","3","2","3","4","4","4","4","4","4","3","4","3","4","4","4","3","4","4","1","0","1","1","0","1","1","1","0","1","1","0","0","0","1","4","4","3","2","2","5","3","4","4","4","2","763058594613825537","徐","581","","","","","","","","","","","","","","","","","","","","","","","","","","","","","","","","","","","","","","","","","",""
"700","<p style=""color:white; font-size: 35px;"">全才</p>","i","categorize-html","106","338182","0.0-6.0-0.0-6.0-1.23","3","3","3","3","3","3","3","3","3","3","4","3","2","3","4","4","4","4","4","4","3","4","3","4","4","4","3","4","4","1","0","1","1","0","1","1","1","0","1","1","0","0","0","1","4","4","3","2","2","5","3","4","4","4","2","763058594613825537","徐","581","","","","","","","","","","","","","","","","","","","true","3","3","ability","700","positive","全才","","","","","","","","","","","","","","","","",""
"9146","
    <div class=""tag-bottom""><p>
    —— 任务4：对“自我/消极”词和“他人/积极”词分类 ——<p/>
    <span style=""color:#78DCE8""><b>与刚才的任务完全相同，请再次对这四类词语分类</b></span><p/>
    <span style=""color:#FFD866""><b>请根据上方标签的提示，尽可能正确并且快速地做出按键反应</b></span><p/>
    当按键错误时屏幕中会出现<span style=""color:red""> X </span>，需要按另一个键纠正才能继续<br/><p/>
    请把双手食指分别放在键盘的“E”键和“I”键上<p/>
    按<空格键>开始
    </p></div>"," ","html-keyboard-response","107","347330","0.0-6.0-0.0-7.0","3","3","3","3","3","3","3","3","3","3","4","3","2","3","4","4","4","4","4","4","3","4","3","4","4","4","3","4","4","1","0","1","1","0","1","1","1","0","1","1","0","0","0","1","4","4","3","2","2","5","3","4","4","4","2","763058594613825537","徐","581","","","","","","","","","","","","","","","","","","","","","","","","","","","","","","","","","","","","","","","","","",""
"null","","null","html-keyboard-response","108","347582","0.0-6.0-0.0-8.0-0.0","3","3","3","3","3","3","3","3","3","3","4","3","2","3","4","4","4","4","4","4","3","4","3","4","4","4","3","4","4","1","0","1","1","0","1","1","1","0","1","1","0","0","0","1","4","4","3","2","2","5","3","4","4","4","2","763058594613825537","徐","581","","","","","","","","","","","","","","","","","","","","","","","","","","","","","","","","","","","","","","","","","",""
"749","<p style=""color:rgb(150, 250, 100); font-size: 35px;"">我的</p>","e","categorize-html","109","348337","0.0-6.0-0.0-8.0-1.0","3","3","3","3","3","3","3","3","3","3","4","3","2","3","4","4","4","4","4","4","3","4","3","4","4","4","3","4","4","1","0","1","1","0","1","1","1","0","1","1","0","0","0","1","4","4","3","2","2","5","3","4","4","4","2","763058594613825537","徐","581","","","","","","","","","","","","","","","","","","","true","4","4","ability","749","self","我的","","","","","","","","","","","","","","","","",""
"null","","null","html-keyboard-response","110","348589","0.0-6.0-0.0-8.0-0.1","3","3","3","3","3","3","3","3","3","3","4","3","2","3","4","4","4","4","4","4","3","4","3","4","4","4","3","4","4","1","0","1","1","0","1","1","1","0","1","1","0","0","0","1","4","4","3","2","2","5","3","4","4","4","2","763058594613825537","徐","581","","","","","","","","","","","","","","","","","","","","","","","","","","","","","","","","","","","","","","","","","",""
"497","<p style=""color:white; font-size: 35px;"">拙笨</p>","e","categorize-html","111","349094","0.0-6.0-0.0-8.0-1.1","3","3","3","3","3","3","3","3","3","3","4","3","2","3","4","4","4","4","4","4","3","4","3","4","4","4","3","4","4","1","0","1","1","0","1","1","1","0","1","1","0","0","0","1","4","4","3","2","2","5","3","4","4","4","2","763058594613825537","徐","581","","","","","","","","","","","","","","","","","","","true","4","4","ability","497","negative","拙笨","","","","","","","","","","","","","","","","",""
"null","","null","html-keyboard-response","112","349346","0.0-6.0-0.0-8.0-0.2","3","3","3","3","3","3","3","3","3","3","4","3","2","3","4","4","4","4","4","4","3","4","3","4","4","4","3","4","4","1","0","1","1","0","1","1","1","0","1","1","0","0","0","1","4","4","3","2","2","5","3","4","4","4","2","763058594613825537","徐","581","","","","","","","","","","","","","","","","","","","","","","","","","","","","","","","","","","","","","","","","","",""
"585","<p style=""color:rgb(150, 250, 100); font-size: 35px;"">他</p>","i","categorize-html","113","349939","0.0-6.0-0.0-8.0-1.2","3","3","3","3","3","3","3","3","3","3","4","3","2","3","4","4","4","4","4","4","3","4","3","4","4","4","3","4","4","1","0","1","1","0","1","1","1","0","1","1","0","0","0","1","4","4","3","2","2","5","3","4","4","4","2","763058594613825537","徐","581","","","","","","","","","","","","","","","","","","","true","4","4","ability","585","other","他","","","","","","","","","","","","","","","","",""
"null","","null","html-keyboard-response","114","350191","0.0-6.0-0.0-8.0-0.3","3","3","3","3","3","3","3","3","3","3","4","3","2","3","4","4","4","4","4","4","3","4","3","4","4","4","3","4","4","1","0","1","1","0","1","1","1","0","1","1","0","0","0","1","4","4","3","2","2","5","3","4","4","4","2","763058594613825537","徐","581","","","","","","","","","","","","","","","","","","","","","","","","","","","","","","","","","","","","","","","","","",""
"507","<p style=""color:white; font-size: 35px;"">全才</p>","i","categorize-html","115","350706","0.0-6.0-0.0-8.0-1.3","3","3","3","3","3","3","3","3","3","3","4","3","2","3","4","4","4","4","4","4","3","4","3","4","4","4","3","4","4","1","0","1","1","0","1","1","1","0","1","1","0","0","0","1","4","4","3","2","2","5","3","4","4","4","2","763058594613825537","徐","581","","","","","","","","","","","","","","","","","","","true","4","4","ability","507","positive","全才","","","","","","","","","","","","","","","","",""
"null","","null","html-keyboard-response","116","350959","0.0-6.0-0.0-8.0-0.4","3","3","3","3","3","3","3","3","3","3","4","3","2","3","4","4","4","4","4","4","3","4","3","4","4","4","3","4","4","1","0","1","1","0","1","1","1","0","1","1","0","0","0","1","4","4","3","2","2","5","3","4","4","4","2","763058594613825537","徐","581","","","","","","","","","","","","","","","","","","","","","","","","","","","","","","","","","","","","","","","","","",""
"482","<p style=""color:rgb(150, 250, 100); font-size: 35px;"">我</p>","e","categorize-html","117","351452","0.0-6.0-0.0-8.0-1.4","3","3","3","3","3","3","3","3","3","3","4","3","2","3","4","4","4","4","4","4","3","4","3","4","4","4","3","4","4","1","0","1","1","0","1","1","1","0","1","1","0","0","0","1","4","4","3","2","2","5","3","4","4","4","2","763058594613825537","徐","581","","","","","","","","","","","","","","","","","","","true","4","4","ability","482","self","我","","","","","","","","","","","","","","","","",""
"null","","null","html-keyboard-response","118","351704","0.0-6.0-0.0-8.0-0.5","3","3","3","3","3","3","3","3","3","3","4","3","2","3","4","4","4","4","4","4","3","4","3","4","4","4","3","4","4","1","0","1","1","0","1","1","1","0","1","1","0","0","0","1","4","4","3","2","2","5","3","4","4","4","2","763058594613825537","徐","581","","","","","","","","","","","","","","","","","","","","","","","","","","","","","","","","","","","","","","","","","",""
"644","<p style=""color:white; font-size: 35px;"">无能</p>","e","categorize-html","119","352356","0.0-6.0-0.0-8.0-1.5","3","3","3","3","3","3","3","3","3","3","4","3","2","3","4","4","4","4","4","4","3","4","3","4","4","4","3","4","4","1","0","1","1","0","1","1","1","0","1","1","0","0","0","1","4","4","3","2","2","5","3","4","4","4","2","763058594613825537","徐","581","","","","","","","","","","","","","","","","","","","true","4","4","ability","644","negative","无能","","","","","","","","","","","","","","","","",""
"null","","null","html-keyboard-response","120","352609","0.0-6.0-0.0-8.0-0.6","3","3","3","3","3","3","3","3","3","3","4","3","2","3","4","4","4","4","4","4","3","4","3","4","4","4","3","4","4","1","0","1","1","0","1","1","1","0","1","1","0","0","0","1","4","4","3","2","2","5","3","4","4","4","2","763058594613825537","徐","581","","","","","","","","","","","","","","","","","","","","","","","","","","","","","","","","","","","","","","","","","",""
"586","<p style=""color:rgb(150, 250, 100); font-size: 35px;"">他</p>","i","categorize-html","121","353206","0.0-6.0-0.0-8.0-1.6","3","3","3","3","3","3","3","3","3","3","4","3","2","3","4","4","4","4","4","4","3","4","3","4","4","4","3","4","4","1","0","1","1","0","1","1","1","0","1","1","0","0","0","1","4","4","3","2","2","5","3","4","4","4","2","763058594613825537","徐","581","","","","","","","","","","","","","","","","","","","true","4","4","ability","586","other","他","","","","","","","","","","","","","","","","",""
"null","","null","html-keyboard-response","122","353459","0.0-6.0-0.0-8.0-0.7","3","3","3","3","3","3","3","3","3","3","4","3","2","3","4","4","4","4","4","4","3","4","3","4","4","4","3","4","4","1","0","1","1","0","1","1","1","0","1","1","0","0","0","1","4","4","3","2","2","5","3","4","4","4","2","763058594613825537","徐","581","","","","","","","","","","","","","","","","","","","","","","","","","","","","","","","","","","","","","","","","","",""
"499","<p style=""color:white; font-size: 35px;"">天才</p>","i","categorize-html","123","353970","0.0-6.0-0.0-8.0-1.7","3","3","3","3","3","3","3","3","3","3","4","3","2","3","4","4","4","4","4","4","3","4","3","4","4","4","3","4","4","1","0","1","1","0","1","1","1","0","1","1","0","0","0","1","4","4","3","2","2","5","3","4","4","4","2","763058594613825537","徐","581","","","","","","","","","","","","","","","","","","","true","4","4","ability","499","positive","天才","","","","","","","","","","","","","","","","",""
"null","","null","html-keyboard-response","124","354223","0.0-6.0-0.0-8.0-0.8","3","3","3","3","3","3","3","3","3","3","4","3","2","3","4","4","4","4","4","4","3","4","3","4","4","4","3","4","4","1","0","1","1","0","1","1","1","0","1","1","0","0","0","1","4","4","3","2","2","5","3","4","4","4","2","763058594613825537","徐","581","","","","","","","","","","","","","","","","","","","","","","","","","","","","","","","","","","","","","","","","","",""
"496","<p style=""color:rgb(150, 250, 100); font-size: 35px;"">自己的</p>","e","categorize-html","125","354725","0.0-6.0-0.0-8.0-1.8","3","3","3","3","3","3","3","3","3","3","4","3","2","3","4","4","4","4","4","4","3","4","3","4","4","4","3","4","4","1","0","1","1","0","1","1","1","0","1","1","0","0","0","1","4","4","3","2","2","5","3","4","4","4","2","763058594613825537","徐","581","","","","","","","","","","","","","","","","","","","true","4","4","ability","496","self","自己的","","","","","","","","","","","","","","","","",""
"null","","null","html-keyboard-response","126","354977","0.0-6.0-0.0-8.0-0.9","3","3","3","3","3","3","3","3","3","3","4","3","2","3","4","4","4","4","4","4","3","4","3","4","4","4","3","4","4","1","0","1","1","0","1","1","1","0","1","1","0","0","0","1","4","4","3","2","2","5","3","4","4","4","2","763058594613825537","徐","581","","","","","","","","","","","","","","","","","","","","","","","","","","","","","","","","","","","","","","","","","",""
"553","<p style=""color:white; font-size: 35px;"">低能</p>","e","categorize-html","127","355536","0.0-6.0-0.0-8.0-1.9","3","3","3","3","3","3","3","3","3","3","4","3","2","3","4","4","4","4","4","4","3","4","3","4","4","4","3","4","4","1","0","1","1","0","1","1","1","0","1","1","0","0","0","1","4","4","3","2","2","5","3","4","4","4","2","763058594613825537","徐","581","","","","","","","","","","","","","","","","","","","true","4","4","ability","553","negative","低能","","","","","","","","","","","","","","","","",""
"null","","null","html-keyboard-response","128","355797","0.0-6.0-0.0-8.0-0.10","3","3","3","3","3","3","3","3","3","3","4","3","2","3","4","4","4","4","4","4","3","4","3","4","4","4","3","4","4","1","0","1","1","0","1","1","1","0","1","1","0","0","0","1","4","4","3","2","2","5","3","4","4","4","2","763058594613825537","徐","581","","","","","","","","","","","","","","","","","","","","","","","","","","","","","","","","","","","","","","","","","",""
"457","<p style=""color:rgb(150, 250, 100); font-size: 35px;"">他人</p>","i","categorize-html","129","356259","0.0-6.0-0.0-8.0-1.10","3","3","3","3","3","3","3","3","3","3","4","3","2","3","4","4","4","4","4","4","3","4","3","4","4","4","3","4","4","1","0","1","1","0","1","1","1","0","1","1","0","0","0","1","4","4","3","2","2","5","3","4","4","4","2","763058594613825537","徐","581","","","","","","","","","","","","","","","","","","","true","4","4","ability","457","other","他人","","","","","","","","","","","","","","","","",""
"null","","null","html-keyboard-response","130","356513","0.0-6.0-0.0-8.0-0.11","3","3","3","3","3","3","3","3","3","3","4","3","2","3","4","4","4","4","4","4","3","4","3","4","4","4","3","4","4","1","0","1","1","0","1","1","1","0","1","1","0","0","0","1","4","4","3","2","2","5","3","4","4","4","2","763058594613825537","徐","581","","","","","","","","","","","","","","","","","","","","","","","","","","","","","","","","","","","","","","","","","",""
"585","<p style=""color:white; font-size: 35px;"">天才</p>","e","categorize-html","131","361418","0.0-6.0-0.0-8.0-1.11","3","3","3","3","3","3","3","3","3","3","4","3","2","3","4","4","4","4","4","4","3","4","3","4","4","4","3","4","4","1","0","1","1","0","1","1","1","0","1","1","0","0","0","1","4","4","3","2","2","5","3","4","4","4","2","763058594613825537","徐","581","","","","","","","","","","","","","","","","","","","false","4","4","ability","1208.1914893617022","positive","天才","","","","","","","","","","","","","","","","",""
"null","","null","html-keyboard-response","132","361670","0.0-6.0-0.0-8.0-0.12","3","3","3","3","3","3","3","3","3","3","4","3","2","3","4","4","4","4","4","4","3","4","3","4","4","4","3","4","4","1","0","1","1","0","1","1","1","0","1","1","0","0","0","1","4","4","3","2","2","5","3","4","4","4","2","763058594613825537","徐","581","","","","","","","","","","","","","","","","","","","","","","","","","","","","","","","","","","","","","","","","","",""
"730","<p style=""color:rgb(150, 250, 100); font-size: 35px;"">本人的</p>","e","categorize-html","133","362409","0.0-6.0-0.0-8.0-1.12","3","3","3","3","3","3","3","3","3","3","4","3","2","3","4","4","4","4","4","4","3","4","3","4","4","4","3","4","4","1","0","1","1","0","1","1","1","0","1","1","0","0","0","1","4","4","3","2","2","5","3","4","4","4","2","763058594613825537","徐","581","","","","","","","","","","","","","","","","","","","true","4","4","ability","730","self","本人的","","","","","","","","","","","","","","","","",""
"null","","null","html-keyboard-response","134","362660","0.0-6.0-0.0-8.0-0.13","3","3","3","3","3","3","3","3","3","3","4","3","2","3","4","4","4","4","4","4","3","4","3","4","4","4","3","4","4","1","0","1","1","0","1","1","1","0","1","1","0","0","0","1","4","4","3","2","2","5","3","4","4","4","2","763058594613825537","徐","581","","","","","","","","","","","","","","","","","","","","","","","","","","","","","","","","","","","","","","","","","",""
"572","<p style=""color:white; font-size: 35px;"">低能</p>","e","categorize-html","135","363238","0.0-6.0-0.0-8.0-1.13","3","3","3","3","3","3","3","3","3","3","4","3","2","3","4","4","4","4","4","4","3","4","3","4","4","4","3","4","4","1","0","1","1","0","1","1","1","0","1","1","0","0","0","1","4","4","3","2","2","5","3","4","4","4","2","763058594613825537","徐","581","","","","","","","","","","","","","","","","","","","true","4","4","ability","572","negative","低能","","","","","","","","","","","","","","","","",""
"null","","null","html-keyboard-response","136","363492","0.0-6.0-0.0-8.0-0.14","3","3","3","3","3","3","3","3","3","3","4","3","2","3","4","4","4","4","4","4","3","4","3","4","4","4","3","4","4","1","0","1","1","0","1","1","1","0","1","1","0","0","0","1","4","4","3","2","2","5","3","4","4","4","2","763058594613825537","徐","581","","","","","","","","","","","","","","","","","","","","","","","","","","","","","","","","","","","","","","","","","",""
"1037","<p style=""color:rgb(150, 250, 100); font-size: 35px;"">别人</p>","i","categorize-html","137","364533","0.0-6.0-0.0-8.0-1.14","3","3","3","3","3","3","3","3","3","3","4","3","2","3","4","4","4","4","4","4","3","4","3","4","4","4","3","4","4","1","0","1","1","0","1","1","1","0","1","1","0","0","0","1","4","4","3","2","2","5","3","4","4","4","2","763058594613825537","徐","581","","","","","","","","","","","","","","","","","","","true","4","4","ability","1037","other","别人","","","","","","","","","","","","","","","","",""
"null","","null","html-keyboard-response","138","364786","0.0-6.0-0.0-8.0-0.15","3","3","3","3","3","3","3","3","3","3","4","3","2","3","4","4","4","4","4","4","3","4","3","4","4","4","3","4","4","1","0","1","1","0","1","1","1","0","1","1","0","0","0","1","4","4","3","2","2","5","3","4","4","4","2","763058594613825537","徐","581","","","","","","","","","","","","","","","","","","","","","","","","","","","","","","","","","","","","","","","","","",""
"526","<p style=""color:white; font-size: 35px;"">高效</p>","i","categorize-html","139","365318","0.0-6.0-0.0-8.0-1.15","3","3","3","3","3","3","3","3","3","3","4","3","2","3","4","4","4","4","4","4","3","4","3","4","4","4","3","4","4","1","0","1","1","0","1","1","1","0","1","1","0","0","0","1","4","4","3","2","2","5","3","4","4","4","2","763058594613825537","徐","581","","","","","","","","","","","","","","","","","","","true","4","4","ability","526","positive","高效","","","","","","","","","","","","","","","","",""
"null","","null","html-keyboard-response","140","365570","0.0-6.0-0.0-8.0-0.16","3","3","3","3","3","3","3","3","3","3","4","3","2","3","4","4","4","4","4","4","3","4","3","4","4","4","3","4","4","1","0","1","1","0","1","1","1","0","1","1","0","0","0","1","4","4","3","2","2","5","3","4","4","4","2","763058594613825537","徐","581","","","","","","","","","","","","","","","","","","","","","","","","","","","","","","","","","","","","","","","","","",""
"633","<p style=""color:rgb(150, 250, 100); font-size: 35px;"">自己</p>","e","categorize-html","141","366208","0.0-6.0-0.0-8.0-1.16","3","3","3","3","3","3","3","3","3","3","4","3","2","3","4","4","4","4","4","4","3","4","3","4","4","4","3","4","4","1","0","1","1","0","1","1","1","0","1","1","0","0","0","1","4","4","3","2","2","5","3","4","4","4","2","763058594613825537","徐","581","","","","","","","","","","","","","","","","","","","true","4","4","ability","633","self","自己","","","","","","","","","","","","","","","","",""
"null","","null","html-keyboard-response","142","366465","0.0-6.0-0.0-8.0-0.17","3","3","3","3","3","3","3","3","3","3","4","3","2","3","4","4","4","4","4","4","3","4","3","4","4","4","3","4","4","1","0","1","1","0","1","1","1","0","1","1","0","0","0","1","4","4","3","2","2","5","3","4","4","4","2","763058594613825537","徐","581","","","","","","","","","","","","","","","","","","","","","","","","","","","","","","","","","","","","","","","","","",""
"1005","<p style=""color:white; font-size: 35px;"">愚钝</p>","e","categorize-html","143","367478","0.0-6.0-0.0-8.0-1.17","3","3","3","3","3","3","3","3","3","3","4","3","2","3","4","4","4","4","4","4","3","4","3","4","4","4","3","4","4","1","0","1","1","0","1","1","1","0","1","1","0","0","0","1","4","4","3","2","2","5","3","4","4","4","2","763058594613825537","徐","581","","","","","","","","","","","","","","","","","","","true","4","4","ability","1005","negative","愚钝","","","","","","","","","","","","","","","","",""
"null","","null","html-keyboard-response","144","367730","0.0-6.0-0.0-8.0-0.18","3","3","3","3","3","3","3","3","3","3","4","3","2","3","4","4","4","4","4","4","3","4","3","4","4","4","3","4","4","1","0","1","1","0","1","1","1","0","1","1","0","0","0","1","4","4","3","2","2","5","3","4","4","4","2","763058594613825537","徐","581","","","","","","","","","","","","","","","","","","","","","","","","","","","","","","","","","","","","","","","","","",""
"503","<p style=""color:rgb(150, 250, 100); font-size: 35px;"">他人的</p>","i","categorize-html","145","368239","0.0-6.0-0.0-8.0-1.18","3","3","3","3","3","3","3","3","3","3","4","3","2","3","4","4","4","4","4","4","3","4","3","4","4","4","3","4","4","1","0","1","1","0","1","1","1","0","1","1","0","0","0","1","4","4","3","2","2","5","3","4","4","4","2","763058594613825537","徐","581","","","","","","","","","","","","","","","","","","","true","4","4","ability","503","other","他人的","","","","","","","","","","","","","","","","",""
"null","","null","html-keyboard-response","146","368492","0.0-6.0-0.0-8.0-0.19","3","3","3","3","3","3","3","3","3","3","4","3","2","3","4","4","4","4","4","4","3","4","3","4","4","4","3","4","4","1","0","1","1","0","1","1","1","0","1","1","0","0","0","1","4","4","3","2","2","5","3","4","4","4","2","763058594613825537","徐","581","","","","","","","","","","","","","","","","","","","","","","","","","","","","","","","","","","","","","","","","","",""
"497","<p style=""color:white; font-size: 35px;"">能干</p>","i","categorize-html","147","368995","0.0-6.0-0.0-8.0-1.19","3","3","3","3","3","3","3","3","3","3","4","3","2","3","4","4","4","4","4","4","3","4","3","4","4","4","3","4","4","1","0","1","1","0","1","1","1","0","1","1","0","0","0","1","4","4","3","2","2","5","3","4","4","4","2","763058594613825537","徐","581","","","","","","","","","","","","","","","","","","","true","4","4","ability","497","positive","能干","","","","","","","","","","","","","","","","",""
"null","","null","html-keyboard-response","148","369247","0.0-6.0-0.0-8.0-0.20","3","3","3","3","3","3","3","3","3","3","4","3","2","3","4","4","4","4","4","4","3","4","3","4","4","4","3","4","4","1","0","1","1","0","1","1","1","0","1","1","0","0","0","1","4","4","3","2","2","5","3","4","4","4","2","763058594613825537","徐","581","","","","","","","","","","","","","","","","","","","","","","","","","","","","","","","","","","","","","","","","","",""
"637","<p style=""color:rgb(150, 250, 100); font-size: 35px;"">他的</p>","i","categorize-html","149","369891","0.0-6.0-0.0-8.0-1.20","3","3","3","3","3","3","3","3","3","3","4","3","2","3","4","4","4","4","4","4","3","4","3","4","4","4","3","4","4","1","0","1","1","0","1","1","1","0","1","1","0","0","0","1","4","4","3","2","2","5","3","4","4","4","2","763058594613825537","徐","581","","","","","","","","","","","","","","","","","","","true","4","4","ability","637","other","他的","","","","","","","","","","","","","","","","",""
"null","","null","html-keyboard-response","150","370142","0.0-6.0-0.0-8.0-0.21","3","3","3","3","3","3","3","3","3","3","4","3","2","3","4","4","4","4","4","4","3","4","3","4","4","4","3","4","4","1","0","1","1","0","1","1","1","0","1","1","0","0","0","1","4","4","3","2","2","5","3","4","4","4","2","763058594613825537","徐","581","","","","","","","","","","","","","","","","","","","","","","","","","","","","","","","","","","","","","","","","","",""
"606","<p style=""color:white; font-size: 35px;"">拙笨</p>","e","categorize-html","151","370753","0.0-6.0-0.0-8.0-1.21","3","3","3","3","3","3","3","3","3","3","4","3","2","3","4","4","4","4","4","4","3","4","3","4","4","4","3","4","4","1","0","1","1","0","1","1","1","0","1","1","0","0","0","1","4","4","3","2","2","5","3","4","4","4","2","763058594613825537","徐","581","","","","","","","","","","","","","","","","","","","true","4","4","ability","606","negative","拙笨","","","","","","","","","","","","","","","","",""
"null","","null","html-keyboard-response","152","371005","0.0-6.0-0.0-8.0-0.22","3","3","3","3","3","3","3","3","3","3","4","3","2","3","4","4","4","4","4","4","3","4","3","4","4","4","3","4","4","1","0","1","1","0","1","1","1","0","1","1","0","0","0","1","4","4","3","2","2","5","3","4","4","4","2","763058594613825537","徐","581","","","","","","","","","","","","","","","","","","","","","","","","","","","","","","","","","","","","","","","","","",""
"517","<p style=""color:rgb(150, 250, 100); font-size: 35px;"">我的</p>","e","categorize-html","153","371530","0.0-6.0-0.0-8.0-1.22","3","3","3","3","3","3","3","3","3","3","4","3","2","3","4","4","4","4","4","4","3","4","3","4","4","4","3","4","4","1","0","1","1","0","1","1","1","0","1","1","0","0","0","1","4","4","3","2","2","5","3","4","4","4","2","763058594613825537","徐","581","","","","","","","","","","","","","","","","","","","true","4","4","ability","517","self","我的","","","","","","","","","","","","","","","","",""
"null","","null","html-keyboard-response","154","371783","0.0-6.0-0.0-8.0-0.23","3","3","3","3","3","3","3","3","3","3","4","3","2","3","4","4","4","4","4","4","3","4","3","4","4","4","3","4","4","1","0","1","1","0","1","1","1","0","1","1","0","0","0","1","4","4","3","2","2","5","3","4","4","4","2","763058594613825537","徐","581","","","","","","","","","","","","","","","","","","","","","","","","","","","","","","","","","","","","","","","","","",""
"663","<p style=""color:white; font-size: 35px;"">精干</p>","i","categorize-html","155","372451","0.0-6.0-0.0-8.0-1.23","3","3","3","3","3","3","3","3","3","3","4","3","2","3","4","4","4","4","4","4","3","4","3","4","4","4","3","4","4","1","0","1","1","0","1","1","1","0","1","1","0","0","0","1","4","4","3","2","2","5","3","4","4","4","2","763058594613825537","徐","581","","","","","","","","","","","","","","","","","","","true","4","4","ability","663","positive","精干","","","","","","","","","","","","","","","","",""
"null","","null","html-keyboard-response","156","372704","0.0-6.0-0.0-8.0-0.24","3","3","3","3","3","3","3","3","3","3","4","3","2","3","4","4","4","4","4","4","3","4","3","4","4","4","3","4","4","1","0","1","1","0","1","1","1","0","1","1","0","0","0","1","4","4","3","2","2","5","3","4","4","4","2","763058594613825537","徐","581","","","","","","","","","","","","","","","","","","","","","","","","","","","","","","","","","","","","","","","","","",""
"547","<p style=""color:rgb(150, 250, 100); font-size: 35px;"">我</p>","e","categorize-html","157","373257","0.0-6.0-0.0-8.0-1.24","3","3","3","3","3","3","3","3","3","3","4","3","2","3","4","4","4","4","4","4","3","4","3","4","4","4","3","4","4","1","0","1","1","0","1","1","1","0","1","1","0","0","0","1","4","4","3","2","2","5","3","4","4","4","2","763058594613825537","徐","581","","","","","","","","","","","","","","","","","","","true","4","4","ability","547","self","我","","","","","","","","","","","","","","","","",""
"null","","null","html-keyboard-response","158","373508","0.0-6.0-0.0-8.0-0.25","3","3","3","3","3","3","3","3","3","3","4","3","2","3","4","4","4","4","4","4","3","4","3","4","4","4","3","4","4","1","0","1","1","0","1","1","1","0","1","1","0","0","0","1","4","4","3","2","2","5","3","4","4","4","2","763058594613825537","徐","581","","","","","","","","","","","","","","","","","","","","","","","","","","","","","","","","","","","","","","","","","",""
"502","<p style=""color:white; font-size: 35px;"">无能</p>","e","categorize-html","159","374018","0.0-6.0-0.0-8.0-1.25","3","3","3","3","3","3","3","3","3","3","4","3","2","3","4","4","4","4","4","4","3","4","3","4","4","4","3","4","4","1","0","1","1","0","1","1","1","0","1","1","0","0","0","1","4","4","3","2","2","5","3","4","4","4","2","763058594613825537","徐","581","","","","","","","","","","","","","","","","","","","true","4","4","ability","502","negative","无能","","","","","","","","","","","","","","","","",""
"null","","null","html-keyboard-response","160","374270","0.0-6.0-0.0-8.0-0.26","3","3","3","3","3","3","3","3","3","3","4","3","2","3","4","4","4","4","4","4","3","4","3","4","4","4","3","4","4","1","0","1","1","0","1","1","1","0","1","1","0","0","0","1","4","4","3","2","2","5","3","4","4","4","2","763058594613825537","徐","581","","","","","","","","","","","","","","","","","","","","","","","","","","","","","","","","","","","","","","","","","",""
"534","<p style=""color:rgb(150, 250, 100); font-size: 35px;"">别人的</p>","i","categorize-html","161","374809","0.0-6.0-0.0-8.0-1.26","3","3","3","3","3","3","3","3","3","3","4","3","2","3","4","4","4","4","4","4","3","4","3","4","4","4","3","4","4","1","0","1","1","0","1","1","1","0","1","1","0","0","0","1","4","4","3","2","2","5","3","4","4","4","2","763058594613825537","徐","581","","","","","","","","","","","","","","","","","","","true","4","4","ability","534","other","别人的","","","","","","","","","","","","","","","","",""
"null","","null","html-keyboard-response","162","375061","0.0-6.0-0.0-8.0-0.27","3","3","3","3","3","3","3","3","3","3","4","3","2","3","4","4","4","4","4","4","3","4","3","4","4","4","3","4","4","1","0","1","1","0","1","1","1","0","1","1","0","0","0","1","4","4","3","2","2","5","3","4","4","4","2","763058594613825537","徐","581","","","","","","","","","","","","","","","","","","","","","","","","","","","","","","","","","","","","","","","","","",""
"866","<p style=""color:white; font-size: 35px;"">全能</p>","i","categorize-html","163","375932","0.0-6.0-0.0-8.0-1.27","3","3","3","3","3","3","3","3","3","3","4","3","2","3","4","4","4","4","4","4","3","4","3","4","4","4","3","4","4","1","0","1","1","0","1","1","1","0","1","1","0","0","0","1","4","4","3","2","2","5","3","4","4","4","2","763058594613825537","徐","581","","","","","","","","","","","","","","","","","","","true","4","4","ability","866","positive","全能","","","","","","","","","","","","","","","","",""
"null","","null","html-keyboard-response","164","376184","0.0-6.0-0.0-8.0-0.28","3","3","3","3","3","3","3","3","3","3","4","3","2","3","4","4","4","4","4","4","3","4","3","4","4","4","3","4","4","1","0","1","1","0","1","1","1","0","1","1","0","0","0","1","4","4","3","2","2","5","3","4","4","4","2","763058594613825537","徐","581","","","","","","","","","","","","","","","","","","","","","","","","","","","","","","","","","","","","","","","","","",""
"477","<p style=""color:rgb(150, 250, 100); font-size: 35px;"">自己</p>","e","categorize-html","165","376671","0.0-6.0-0.0-8.0-1.28","3","3","3","3","3","3","3","3","3","3","4","3","2","3","4","4","4","4","4","4","3","4","3","4","4","4","3","4","4","1","0","1","1","0","1","1","1","0","1","1","0","0","0","1","4","4","3","2","2","5","3","4","4","4","2","763058594613825537","徐","581","","","","","","","","","","","","","","","","","","","true","4","4","ability","477","self","自己","","","","","","","","","","","","","","","","",""
"null","","null","html-keyboard-response","166","376923","0.0-6.0-0.0-8.0-0.29","3","3","3","3","3","3","3","3","3","3","4","3","2","3","4","4","4","4","4","4","3","4","3","4","4","4","3","4","4","1","0","1","1","0","1","1","1","0","1","1","0","0","0","1","4","4","3","2","2","5","3","4","4","4","2","763058594613825537","徐","581","","","","","","","","","","","","","","","","","","","","","","","","","","","","","","","","","","","","","","","","","",""
"553","<p style=""color:white; font-size: 35px;"">蠢笨</p>","e","categorize-html","167","377483","0.0-6.0-0.0-8.0-1.29","3","3","3","3","3","3","3","3","3","3","4","3","2","3","4","4","4","4","4","4","3","4","3","4","4","4","3","4","4","1","0","1","1","0","1","1","1","0","1","1","0","0","0","1","4","4","3","2","2","5","3","4","4","4","2","763058594613825537","徐","581","","","","","","","","","","","","","","","","","","","true","4","4","ability","553","negative","蠢笨","","","","","","","","","","","","","","","","",""
"null","","null","html-keyboard-response","168","377736","0.0-6.0-0.0-8.0-0.30","3","3","3","3","3","3","3","3","3","3","4","3","2","3","4","4","4","4","4","4","3","4","3","4","4","4","3","4","4","1","0","1","1","0","1","1","1","0","1","1","0","0","0","1","4","4","3","2","2","5","3","4","4","4","2","763058594613825537","徐","581","","","","","","","","","","","","","","","","","","","","","","","","","","","","","","","","","","","","","","","","","",""
"568","<p style=""color:rgb(150, 250, 100); font-size: 35px;"">他的</p>","i","categorize-html","169","378308","0.0-6.0-0.0-8.0-1.30","3","3","3","3","3","3","3","3","3","3","4","3","2","3","4","4","4","4","4","4","3","4","3","4","4","4","3","4","4","1","0","1","1","0","1","1","1","0","1","1","0","0","0","1","4","4","3","2","2","5","3","4","4","4","2","763058594613825537","徐","581","","","","","","","","","","","","","","","","","","","true","4","4","ability","568","other","他的","","","","","","","","","","","","","","","","",""
"null","","null","html-keyboard-response","170","378560","0.0-6.0-0.0-8.0-0.31","3","3","3","3","3","3","3","3","3","3","4","3","2","3","4","4","4","4","4","4","3","4","3","4","4","4","3","4","4","1","0","1","1","0","1","1","1","0","1","1","0","0","0","1","4","4","3","2","2","5","3","4","4","4","2","763058594613825537","徐","581","","","","","","","","","","","","","","","","","","","","","","","","","","","","","","","","","","","","","","","","","",""
"489","<p style=""color:white; font-size: 35px;"">全能</p>","i","categorize-html","171","379055","0.0-6.0-0.0-8.0-1.31","3","3","3","3","3","3","3","3","3","3","4","3","2","3","4","4","4","4","4","4","3","4","3","4","4","4","3","4","4","1","0","1","1","0","1","1","1","0","1","1","0","0","0","1","4","4","3","2","2","5","3","4","4","4","2","763058594613825537","徐","581","","","","","","","","","","","","","","","","","","","true","4","4","ability","489","positive","全能","","","","","","","","","","","","","","","","",""
"null","","null","html-keyboard-response","172","379306","0.0-6.0-0.0-8.0-0.32","3","3","3","3","3","3","3","3","3","3","4","3","2","3","4","4","4","4","4","4","3","4","3","4","4","4","3","4","4","1","0","1","1","0","1","1","1","0","1","1","0","0","0","1","4","4","3","2","2","5","3","4","4","4","2","763058594613825537","徐","581","","","","","","","","","","","","","","","","","","","","","","","","","","","","","","","","","","","","","","","","","",""
"504","<p style=""color:rgb(150, 250, 100); font-size: 35px;"">他人的</p>","i","categorize-html","173","379815","0.0-6.0-0.0-8.0-1.32","3","3","3","3","3","3","3","3","3","3","4","3","2","3","4","4","4","4","4","4","3","4","3","4","4","4","3","4","4","1","0","1","1","0","1","1","1","0","1","1","0","0","0","1","4","4","3","2","2","5","3","4","4","4","2","763058594613825537","徐","581","","","","","","","","","","","","","","","","","","","true","4","4","ability","504","other","他人的","","","","","","","","","","","","","","","","",""
"null","","null","html-keyboard-response","174","380068","0.0-6.0-0.0-8.0-0.33","3","3","3","3","3","3","3","3","3","3","4","3","2","3","4","4","4","4","4","4","3","4","3","4","4","4","3","4","4","1","0","1","1","0","1","1","1","0","1","1","0","0","0","1","4","4","3","2","2","5","3","4","4","4","2","763058594613825537","徐","581","","","","","","","","","","","","","","","","","","","","","","","","","","","","","","","","","","","","","","","","","",""
"490","<p style=""color:white; font-size: 35px;"">愚钝</p>","e","categorize-html","175","380572","0.0-6.0-0.0-8.0-1.33","3","3","3","3","3","3","3","3","3","3","4","3","2","3","4","4","4","4","4","4","3","4","3","4","4","4","3","4","4","1","0","1","1","0","1","1","1","0","1","1","0","0","0","1","4","4","3","2","2","5","3","4","4","4","2","763058594613825537","徐","581","","","","","","","","","","","","","","","","","","","true","4","4","ability","490","negative","愚钝","","","","","","","","","","","","","","","","",""
"null","","null","html-keyboard-response","176","380825","0.0-6.0-0.0-8.0-0.34","3","3","3","3","3","3","3","3","3","3","4","3","2","3","4","4","4","4","4","4","3","4","3","4","4","4","3","4","4","1","0","1","1","0","1","1","1","0","1","1","0","0","0","1","4","4","3","2","2","5","3","4","4","4","2","763058594613825537","徐","581","","","","","","","","","","","","","","","","","","","","","","","","","","","","","","","","","","","","","","","","","",""
"881","<p style=""color:rgb(150, 250, 100); font-size: 35px;"">本人的</p>","e","categorize-html","177","381710","0.0-6.0-0.0-8.0-1.34","3","3","3","3","3","3","3","3","3","3","4","3","2","3","4","4","4","4","4","4","3","4","3","4","4","4","3","4","4","1","0","1","1","0","1","1","1","0","1","1","0","0","0","1","4","4","3","2","2","5","3","4","4","4","2","763058594613825537","徐","581","","","","","","","","","","","","","","","","","","","true","4","4","ability","881","self","本人的","","","","","","","","","","","","","","","","",""
"null","","null","html-keyboard-response","178","381963","0.0-6.0-0.0-8.0-0.35","3","3","3","3","3","3","3","3","3","3","4","3","2","3","4","4","4","4","4","4","3","4","3","4","4","4","3","4","4","1","0","1","1","0","1","1","1","0","1","1","0","0","0","1","4","4","3","2","2","5","3","4","4","4","2","763058594613825537","徐","581","","","","","","","","","","","","","","","","","","","","","","","","","","","","","","","","","","","","","","","","","",""
"677","<p style=""color:white; font-size: 35px;"">高效</p>","i","categorize-html","179","382646","0.0-6.0-0.0-8.0-1.35","3","3","3","3","3","3","3","3","3","3","4","3","2","3","4","4","4","4","4","4","3","4","3","4","4","4","3","4","4","1","0","1","1","0","1","1","1","0","1","1","0","0","0","1","4","4","3","2","2","5","3","4","4","4","2","763058594613825537","徐","581","","","","","","","","","","","","","","","","","","","true","4","4","ability","677","positive","高效","","","","","","","","","","","","","","","","",""
"null","","null","html-keyboard-response","180","382899","0.0-6.0-0.0-8.0-0.36","3","3","3","3","3","3","3","3","3","3","4","3","2","3","4","4","4","4","4","4","3","4","3","4","4","4","3","4","4","1","0","1","1","0","1","1","1","0","1","1","0","0","0","1","4","4","3","2","2","5","3","4","4","4","2","763058594613825537","徐","581","","","","","","","","","","","","","","","","","","","","","","","","","","","","","","","","","","","","","","","","","",""
"572","<p style=""color:rgb(150, 250, 100); font-size: 35px;"">本人</p>","e","categorize-html","181","383477","0.0-6.0-0.0-8.0-1.36","3","3","3","3","3","3","3","3","3","3","4","3","2","3","4","4","4","4","4","4","3","4","3","4","4","4","3","4","4","1","0","1","1","0","1","1","1","0","1","1","0","0","0","1","4","4","3","2","2","5","3","4","4","4","2","763058594613825537","徐","581","","","","","","","","","","","","","","","","","","","true","4","4","ability","572","self","本人","","","","","","","","","","","","","","","","",""
"null","","null","html-keyboard-response","182","383730","0.0-6.0-0.0-8.0-0.37","3","3","3","3","3","3","3","3","3","3","4","3","2","3","4","4","4","4","4","4","3","4","3","4","4","4","3","4","4","1","0","1","1","0","1","1","1","0","1","1","0","0","0","1","4","4","3","2","2","5","3","4","4","4","2","763058594613825537","徐","581","","","","","","","","","","","","","","","","","","","","","","","","","","","","","","","","","","","","","","","","","",""
"646","<p style=""color:white; font-size: 35px;"">蠢笨</p>","e","categorize-html","183","384380","0.0-6.0-0.0-8.0-1.37","3","3","3","3","3","3","3","3","3","3","4","3","2","3","4","4","4","4","4","4","3","4","3","4","4","4","3","4","4","1","0","1","1","0","1","1","1","0","1","1","0","0","0","1","4","4","3","2","2","5","3","4","4","4","2","763058594613825537","徐","581","","","","","","","","","","","","","","","","","","","true","4","4","ability","646","negative","蠢笨","","","","","","","","","","","","","","","","",""
"null","","null","html-keyboard-response","184","384633","0.0-6.0-0.0-8.0-0.38","3","3","3","3","3","3","3","3","3","3","4","3","2","3","4","4","4","4","4","4","3","4","3","4","4","4","3","4","4","1","0","1","1","0","1","1","1","0","1","1","0","0","0","1","4","4","3","2","2","5","3","4","4","4","2","763058594613825537","徐","581","","","","","","","","","","","","","","","","","","","","","","","","","","","","","","","","","","","","","","","","","",""
"497","<p style=""color:rgb(150, 250, 100); font-size: 35px;"">别人的</p>","i","categorize-html","185","385137","0.0-6.0-0.0-8.0-1.38","3","3","3","3","3","3","3","3","3","3","4","3","2","3","4","4","4","4","4","4","3","4","3","4","4","4","3","4","4","1","0","1","1","0","1","1","1","0","1","1","0","0","0","1","4","4","3","2","2","5","3","4","4","4","2","763058594613825537","徐","581","","","","","","","","","","","","","","","","","","","true","4","4","ability","497","other","别人的","","","","","","","","","","","","","","","","",""
"null","","null","html-keyboard-response","186","385389","0.0-6.0-0.0-8.0-0.39","3","3","3","3","3","3","3","3","3","3","4","3","2","3","4","4","4","4","4","4","3","4","3","4","4","4","3","4","4","1","0","1","1","0","1","1","1","0","1","1","0","0","0","1","4","4","3","2","2","5","3","4","4","4","2","763058594613825537","徐","581","","","","","","","","","","","","","","","","","","","","","","","","","","","","","","","","","","","","","","","","","",""
"533","<p style=""color:white; font-size: 35px;"">全才</p>","i","categorize-html","187","385929","0.0-6.0-0.0-8.0-1.39","3","3","3","3","3","3","3","3","3","3","4","3","2","3","4","4","4","4","4","4","3","4","3","4","4","4","3","4","4","1","0","1","1","0","1","1","1","0","1","1","0","0","0","1","4","4","3","2","2","5","3","4","4","4","2","763058594613825537","徐","581","","","","","","","","","","","","","","","","","","","true","4","4","ability","533","positive","全才","","","","","","","","","","","","","","","","",""
"null","","null","html-keyboard-response","188","386182","0.0-6.0-0.0-8.0-0.40","3","3","3","3","3","3","3","3","3","3","4","3","2","3","4","4","4","4","4","4","3","4","3","4","4","4","3","4","4","1","0","1","1","0","1","1","1","0","1","1","0","0","0","1","4","4","3","2","2","5","3","4","4","4","2","763058594613825537","徐","581","","","","","","","","","","","","","","","","","","","","","","","","","","","","","","","","","","","","","","","","","",""
"488","<p style=""color:rgb(150, 250, 100); font-size: 35px;"">他人</p>","i","categorize-html","189","386681","0.0-6.0-0.0-8.0-1.40","3","3","3","3","3","3","3","3","3","3","4","3","2","3","4","4","4","4","4","4","3","4","3","4","4","4","3","4","4","1","0","1","1","0","1","1","1","0","1","1","0","0","0","1","4","4","3","2","2","5","3","4","4","4","2","763058594613825537","徐","581","","","","","","","","","","","","","","","","","","","true","4","4","ability","488","other","他人","","","","","","","","","","","","","","","","",""
"null","","null","html-keyboard-response","190","386932","0.0-6.0-0.0-8.0-0.41","3","3","3","3","3","3","3","3","3","3","4","3","2","3","4","4","4","4","4","4","3","4","3","4","4","4","3","4","4","1","0","1","1","0","1","1","1","0","1","1","0","0","0","1","4","4","3","2","2","5","3","4","4","4","2","763058594613825537","徐","581","","","","","","","","","","","","","","","","","","","","","","","","","","","","","","","","","","","","","","","","","",""
"634","<p style=""color:white; font-size: 35px;"">能干</p>","i","categorize-html","191","387576","0.0-6.0-0.0-8.0-1.41","3","3","3","3","3","3","3","3","3","3","4","3","2","3","4","4","4","4","4","4","3","4","3","4","4","4","3","4","4","1","0","1","1","0","1","1","1","0","1","1","0","0","0","1","4","4","3","2","2","5","3","4","4","4","2","763058594613825537","徐","581","","","","","","","","","","","","","","","","","","","true","4","4","ability","634","positive","能干","","","","","","","","","","","","","","","","",""
"null","","null","html-keyboard-response","192","387828","0.0-6.0-0.0-8.0-0.42","3","3","3","3","3","3","3","3","3","3","4","3","2","3","4","4","4","4","4","4","3","4","3","4","4","4","3","4","4","1","0","1","1","0","1","1","1","0","1","1","0","0","0","1","4","4","3","2","2","5","3","4","4","4","2","763058594613825537","徐","581","","","","","","","","","","","","","","","","","","","","","","","","","","","","","","","","","","","","","","","","","",""
