"rt","stimulus","response","trial_type","trial_index","time_elapsed","internal_node_id","ses_1","ses_2","ses_3","ses_4","ses_5","ses_6","ses_7","ses_8","ses_9","ses_10","coreself_1","coreself_2","coreself_3","coreself_4","coreself_5","coreself_6","coreself_7","coreself_8","coreself_9","coreself_10","SGPS_1","SGPS_2","SGPS_3","SGPS_4","SGPS_5","SGPS_6","SGPS_7","SGPS_8","SGPS_9","NPI1","NPI2","NPI3","NPI4","NPI5","NPI6","NPI7","NPI8","NPI9","NPI10","NPI11","NPI12","NPI13","NPI14","NPI15","hsns_1","hsns_2","hsns_3","hsns_4","hsns_5","trap1","hsns_6","hsns_7","hsns_8","hsns_9","hsns_10","subj_idx","friend_name","ParticipantID","value","success","user_agent","responses","item_order","radio_event_ids","radio_event_times","key_event_times","mouse_event_times","straightlining","zigzagging","honeypot","timeout","failed_images","failed_audio","failed_video","version_attrib","version_target","correct","IAT","screen_id","task_id","RT","condition","word","varname","summary","version_attrib2","version_target2","time_stamp","view_history","response_type","key_press","avg_frame_time","center_x","center_y","correct_response","identity","Image","question_order","correct_answer","trap1_item"
"15478","
   <p><div style = ""color: white;font-size:25px;"">您好，欢迎参加本次实验。</div> </p>
   <p><div style = ""color: white;font-size:25px;"">为充分保障您的权利，请确保您已经知晓并同意《参与实验同意书》以及《数据公开知情同意书》。</div></p>
   <p><div style = ""color: white;font-size:25px;"">如果您未见过上述内容，请咨询实验员。</div></p>
   <p><div style = ""color: white;font-size:25px;"">如果您选择继续实验，则表示您已经清楚两份知情同意书的内容并同意。</div></p>
   <p><div style = ""color: pink;font-size:30px;"">请确保您记得day0的实验编号，您将在本次实验输入该编号，若您忘记，请咨询实验员后作答。</div></p>
   <p><div style = ""color: lightblue;font-size:25px;"">请您尽可能认真地作答，我们将依据您在各问卷和按键任务中的作答质量发放报酬。</div></p>
   <p> <div style = ""color: green;font-size:25px;""><按空格键至下页></div> </p>
   "," ","html-keyboard-response","0","15480","0.0-0.0","3","3","3","3","3","3","3","2","3","3","4","2","2","4","3","4","3","3","4","3","4","4","4","4","4","4","4","4","4","1","0","1","1","0","0","0","1","0","1","1","0","1","0","1","4","4","3","2","4","1","4","4","4","2","2","799062502875996161","刘","372","","","","","","","","","","","","","","","","","","","","","","","","","","","","","","","","","","","","","","","","","",""
"","","","call-function","1","15481","0.0-1.0-0.0","3","3","3","3","3","3","3","2","3","3","4","2","2","4","3","4","3","3","4","3","4","4","4","4","4","4","4","4","4","1","0","1","1","0","0","0","1","0","1","1","0","1","0","1","4","4","3","2","4","1","4","4","4","2","2","799062502875996161","刘","372","","","","","","","","","","","","","","","","","","","","","","","","","","","","","","","","","","","","","","","","","",""
"14809","","{""friend_name"":""刘"",""ParticipantID"":""372""}","survey-html-form","2","30291","0.0-1.0-1.0","3","3","3","3","3","3","3","2","3","3","4","2","2","4","3","4","3","3","4","3","4","4","4","4","4","4","4","4","4","1","0","1","1","0","0","0","1","0","1","1","0","1","0","1","4","4","3","2","4","1","4","4","4","2","2","799062502875996161","刘","372","","","","","","","","","","","","","","","","","","","","","","","","","","","","","","","","","","","","","","","","","",""
"","","","fullscreen","3","47603","0.0-2.0","3","3","3","3","3","3","3","2","3","3","4","2","2","4","3","4","3","3","4","3","4","4","4","4","4","4","4","4","4","1","0","1","1","0","0","0","1","0","1","1","0","1","0","1","4","4","3","2","4","1","4","4","4","2","2","799062502875996161","刘","372","","true","{}","","","","","","","","","","","","","","","","","","","","","","","","","","","","","","","","","","","","","","",""
"33017.89999997616","","{""Q01"":""3"",""Q02"":""3"",""Q03"":""3"",""Q04"":""3"",""Q05"":""3"",""Q06"":""3"",""Q07"":""3"",""Q08"":""2"",""Q09"":""3"",""Q10"":""3""}","survey-template","4","80624","0.0-3.0","3","3","3","3","3","3","3","2","3","3","4","2","2","4","3","4","3","3","4","3","4","4","4","4","4","4","4","4","4","1","0","1","1","0","0","0","1","0","1","1","0","1","0","1","4","4","3","2","4","1","4","4","4","2","2","799062502875996161","刘","372","","","","{""Q01"":""3"",""Q02"":""3"",""Q03"":""3"",""Q04"":""3"",""Q05"":""3"",""Q06"":""3"",""Q07"":""3"",""Q08"":""2"",""Q09"":""3"",""Q10"":""3""}","[0,1,2,3,4,5,6,7,8,9]","[""Q01"",""Q02"",""Q03"",""Q04"",""Q05"",""Q06"",""Q07"",""Q08"",""Q10"",""Q09""]","[3550,5934.800000011921,10802.199999988079,12639.100000023842,20139.899999976158,21640,22555.19999998808,28135.19999998808,30685,31546.399999976158]","[]","[3550,5934.800000011921,9542.699999988079,10802.199999988079,12639.100000023842,20139.899999976158,21640,22555.19999998808,28135.19999998808,29965.600000023842,30685,31546.399999976158,33016.89999997616]","0.6","0.5555555555555556","0","","","","","","","","","","","","","","","","","","","","","","","","","","","","","",""
"39235.39999997616","","{""Q01"":""4"",""Q02"":""2"",""Q03"":""2"",""Q04"":""4"",""Q05"":""3"",""Q06"":""4"",""Q07"":""3"",""Q08"":""3"",""Q09"":""4"",""Q10"":""3""}","survey-template","5","119864","0.0-4.0","3","3","3","3","3","3","3","2","3","3","4","2","2","4","3","4","3","3","4","3","4","4","4","4","4","4","4","4","4","1","0","1","1","0","0","0","1","0","1","1","0","1","0","1","4","4","3","2","4","1","4","4","4","2","2","799062502875996161","刘","372","","","","{""Q01"":""4"",""Q02"":""2"",""Q03"":""2"",""Q04"":""4"",""Q05"":""3"",""Q06"":""4"",""Q07"":""3"",""Q08"":""3"",""Q09"":""4"",""Q10"":""3""}","[0,1,2,3,4,5,6,7,8,9]","[""Q01"",""Q02"",""Q03"",""Q04"",""Q05"",""Q06"",""Q07"",""Q08"",""Q09"",""Q10""]","[7373.799999952316,11552.299999952316,13434.799999952316,15339,18061.799999952316,24219.19999998808,32011.599999964237,32798.5,34583.799999952316,38505.799999952316]","[]","[7373.799999952316,11552.299999952316,13434.799999952316,15339,18061.799999952316,24219.19999998808,29926.799999952316,32011.599999964237,32798.5,34583.799999952316,38505.799999952316,39234.09999996424]","0.6","0.5555555555555556","0","","","","","","","","","","","","","","","","","","","","","","","","","","","","","",""
"","","","preload","6","120745","0.0-5.0","3","3","3","3","3","3","3","2","3","3","4","2","2","4","3","4","3","3","4","3","4","4","4","4","4","4","4","4","4","1","0","1","1","0","0","0","1","0","1","1","0","1","0","1","4","4","3","2","4","1","4","4","4","2","2","799062502875996161","刘","372","","true","","","","","","","","","","","false","[]","[]","[]","","","","","","","","","","","","","","","","","","","","","","","","","",""
"13305","
    <h3>词语分类任务</h3>
    <p>在接下来的任务中，你需要对一系列词语进行分类。</p>
    <p>请先熟悉这些词语，这有利于你完成接下来的任务。</p>
    <table align=""center"" border=1 cellpadding=3 cellspacing=0>
    <tr> <th>类别</th> <th>词语</th> </tr>
    <tr> <td>&emsp;积极&emsp;</td> <td>&emsp;能干、全能、全才、高效、精干、天才&emsp;</td> </tr>
    <tr> <td>&emsp;消极&emsp;</td> <td>&emsp;无能、低能、废物、拙笨、愚钝、蠢笨&emsp;</td> </tr>
    <tr> <td>&emsp;自我&emsp;</td> <td>&emsp;我、我的、自己、自己的、本人、本人的&emsp;</td> </tr>
    <tr> <td>&emsp;他人&emsp;</td> <td>&emsp;他、他的、别人、别人的、他人、他人的&emsp;</td> </tr>
    </table><br/>","0","html-button-response","7","134051","0.0-6.0-0.0-0.0","3","3","3","3","3","3","3","2","3","3","4","2","2","4","3","4","3","3","4","3","4","4","4","4","4","4","4","4","4","1","0","1","1","0","0","0","1","0","1","1","0","1","0","1","4","4","3","2","4","1","4","4","4","2","2","799062502875996161","刘","372","","","","","","","","","","","","","","","","","1","2","","","","","","","","","","","","","","","","","","","","","","","",""
"16013","
    <div class=""tag-bottom"">
    <p> —— 任务1：对“他人”词和“自我”词分类 ——<p/>
    不同词语会出现在屏幕中央，类别标签将始终显示在屏幕上方<p/>   
    <span style=""color:#FFD866""><b>请根据上方标签的提示，尽可能正确并且快速地做出按键反应</b></span><p/>
    当按键错误时屏幕中会出现<span style=""color:red""> X </span>，需要按另一个键纠正才能继续<br/><p/>
    请把双手食指分别放在键盘的“E”键和“I”键上<p/>
    按<空格键>开始
    </p></div>"," ","html-keyboard-response","8","150066","0.0-6.0-0.0-1.0","3","3","3","3","3","3","3","2","3","3","4","2","2","4","3","4","3","3","4","3","4","4","4","4","4","4","4","4","4","1","0","1","1","0","0","0","1","0","1","1","0","1","0","1","4","4","3","2","4","1","4","4","4","2","2","799062502875996161","刘","372","","","","","","","","","","","","","","","","","","","","","","","","","","","","","","","","","","","","","","","","","",""
"null","","null","html-keyboard-response","9","150317","0.0-6.0-0.0-2.0-0.0","3","3","3","3","3","3","3","2","3","3","4","2","2","4","3","4","3","3","4","3","4","4","4","4","4","4","4","4","4","1","0","1","1","0","0","0","1","0","1","1","0","1","0","1","4","4","3","2","4","1","4","4","4","2","2","799062502875996161","刘","372","","","","","","","","","","","","","","","","","","","","","","","","","","","","","","","","","","","","","","","","","",""
"1319","<p style=""color:rgb(150, 250, 100); font-size: 35px;"">他</p>","e","categorize-html","10","151640","0.0-6.0-0.0-2.0-1.0","3","3","3","3","3","3","3","2","3","3","4","2","2","4","3","4","3","3","4","3","4","4","4","4","4","4","4","4","4","1","0","1","1","0","0","0","1","0","1","1","0","1","0","1","4","4","3","2","4","1","4","4","4","2","2","799062502875996161","刘","372","","","","","","","","","","","","","","","","","","","true","1","1","ability","1319","other","他","","","","","","","","","","","","","","","","",""
"null","","null","html-keyboard-response","11","151891","0.0-6.0-0.0-2.0-0.1","3","3","3","3","3","3","3","2","3","3","4","2","2","4","3","4","3","3","4","3","4","4","4","4","4","4","4","4","4","1","0","1","1","0","0","0","1","0","1","1","0","1","0","1","4","4","3","2","4","1","4","4","4","2","2","799062502875996161","刘","372","","","","","","","","","","","","","","","","","","","","","","","","","","","","","","","","","","","","","","","","","",""
"568","<p style=""color:rgb(150, 250, 100); font-size: 35px;"">我的</p>","i","categorize-html","12","152461","0.0-6.0-0.0-2.0-1.1","3","3","3","3","3","3","3","2","3","3","4","2","2","4","3","4","3","3","4","3","4","4","4","4","4","4","4","4","4","1","0","1","1","0","0","0","1","0","1","1","0","1","0","1","4","4","3","2","4","1","4","4","4","2","2","799062502875996161","刘","372","","","","","","","","","","","","","","","","","","","true","1","1","ability","568","self","我的","","","","","","","","","","","","","","","","",""
"null","","null","html-keyboard-response","13","152713","0.0-6.0-0.0-2.0-0.2","3","3","3","3","3","3","3","2","3","3","4","2","2","4","3","4","3","3","4","3","4","4","4","4","4","4","4","4","4","1","0","1","1","0","0","0","1","0","1","1","0","1","0","1","4","4","3","2","4","1","4","4","4","2","2","799062502875996161","刘","372","","","","","","","","","","","","","","","","","","","","","","","","","","","","","","","","","","","","","","","","","",""
"487","<p style=""color:rgb(150, 250, 100); font-size: 35px;"">自己</p>","i","categorize-html","14","153202","0.0-6.0-0.0-2.0-1.2","3","3","3","3","3","3","3","2","3","3","4","2","2","4","3","4","3","3","4","3","4","4","4","4","4","4","4","4","4","1","0","1","1","0","0","0","1","0","1","1","0","1","0","1","4","4","3","2","4","1","4","4","4","2","2","799062502875996161","刘","372","","","","","","","","","","","","","","","","","","","true","1","1","ability","487","self","自己","","","","","","","","","","","","","","","","",""
"null","","null","html-keyboard-response","15","153453","0.0-6.0-0.0-2.0-0.3","3","3","3","3","3","3","3","2","3","3","4","2","2","4","3","4","3","3","4","3","4","4","4","4","4","4","4","4","4","1","0","1","1","0","0","0","1","0","1","1","0","1","0","1","4","4","3","2","4","1","4","4","4","2","2","799062502875996161","刘","372","","","","","","","","","","","","","","","","","","","","","","","","","","","","","","","","","","","","","","","","","",""
"516","<p style=""color:rgb(150, 250, 100); font-size: 35px;"">别人的</p>","e","categorize-html","16","153971","0.0-6.0-0.0-2.0-1.3","3","3","3","3","3","3","3","2","3","3","4","2","2","4","3","4","3","3","4","3","4","4","4","4","4","4","4","4","4","1","0","1","1","0","0","0","1","0","1","1","0","1","0","1","4","4","3","2","4","1","4","4","4","2","2","799062502875996161","刘","372","","","","","","","","","","","","","","","","","","","true","1","1","ability","516","other","别人的","","","","","","","","","","","","","","","","",""
"null","","null","html-keyboard-response","17","154222","0.0-6.0-0.0-2.0-0.4","3","3","3","3","3","3","3","2","3","3","4","2","2","4","3","4","3","3","4","3","4","4","4","4","4","4","4","4","4","1","0","1","1","0","0","0","1","0","1","1","0","1","0","1","4","4","3","2","4","1","4","4","4","2","2","799062502875996161","刘","372","","","","","","","","","","","","","","","","","","","","","","","","","","","","","","","","","","","","","","","","","",""
"571","<p style=""color:rgb(150, 250, 100); font-size: 35px;"">他人</p>","e","categorize-html","18","154794","0.0-6.0-0.0-2.0-1.4","3","3","3","3","3","3","3","2","3","3","4","2","2","4","3","4","3","3","4","3","4","4","4","4","4","4","4","4","4","1","0","1","1","0","0","0","1","0","1","1","0","1","0","1","4","4","3","2","4","1","4","4","4","2","2","799062502875996161","刘","372","","","","","","","","","","","","","","","","","","","true","1","1","ability","571","other","他人","","","","","","","","","","","","","","","","",""
"null","","null","html-keyboard-response","19","155046","0.0-6.0-0.0-2.0-0.5","3","3","3","3","3","3","3","2","3","3","4","2","2","4","3","4","3","3","4","3","4","4","4","4","4","4","4","4","4","1","0","1","1","0","0","0","1","0","1","1","0","1","0","1","4","4","3","2","4","1","4","4","4","2","2","799062502875996161","刘","372","","","","","","","","","","","","","","","","","","","","","","","","","","","","","","","","","","","","","","","","","",""
"423","<p style=""color:rgb(150, 250, 100); font-size: 35px;"">本人的</p>","i","categorize-html","20","155471","0.0-6.0-0.0-2.0-1.5","3","3","3","3","3","3","3","2","3","3","4","2","2","4","3","4","3","3","4","3","4","4","4","4","4","4","4","4","4","1","0","1","1","0","0","0","1","0","1","1","0","1","0","1","4","4","3","2","4","1","4","4","4","2","2","799062502875996161","刘","372","","","","","","","","","","","","","","","","","","","true","1","1","ability","423","self","本人的","","","","","","","","","","","","","","","","",""
"null","","null","html-keyboard-response","21","155722","0.0-6.0-0.0-2.0-0.6","3","3","3","3","3","3","3","2","3","3","4","2","2","4","3","4","3","3","4","3","4","4","4","4","4","4","4","4","4","1","0","1","1","0","0","0","1","0","1","1","0","1","0","1","4","4","3","2","4","1","4","4","4","2","2","799062502875996161","刘","372","","","","","","","","","","","","","","","","","","","","","","","","","","","","","","","","","","","","","","","","","",""
"511","<p style=""color:rgb(150, 250, 100); font-size: 35px;"">我</p>","i","categorize-html","22","156235","0.0-6.0-0.0-2.0-1.6","3","3","3","3","3","3","3","2","3","3","4","2","2","4","3","4","3","3","4","3","4","4","4","4","4","4","4","4","4","1","0","1","1","0","0","0","1","0","1","1","0","1","0","1","4","4","3","2","4","1","4","4","4","2","2","799062502875996161","刘","372","","","","","","","","","","","","","","","","","","","true","1","1","ability","511","self","我","","","","","","","","","","","","","","","","",""
"null","","null","html-keyboard-response","23","156486","0.0-6.0-0.0-2.0-0.7","3","3","3","3","3","3","3","2","3","3","4","2","2","4","3","4","3","3","4","3","4","4","4","4","4","4","4","4","4","1","0","1","1","0","0","0","1","0","1","1","0","1","0","1","4","4","3","2","4","1","4","4","4","2","2","799062502875996161","刘","372","","","","","","","","","","","","","","","","","","","","","","","","","","","","","","","","","","","","","","","","","",""
"421","<p style=""color:rgb(150, 250, 100); font-size: 35px;"">自己的</p>","i","categorize-html","24","156909","0.0-6.0-0.0-2.0-1.7","3","3","3","3","3","3","3","2","3","3","4","2","2","4","3","4","3","3","4","3","4","4","4","4","4","4","4","4","4","1","0","1","1","0","0","0","1","0","1","1","0","1","0","1","4","4","3","2","4","1","4","4","4","2","2","799062502875996161","刘","372","","","","","","","","","","","","","","","","","","","true","1","1","ability","421","self","自己的","","","","","","","","","","","","","","","","",""
"null","","null","html-keyboard-response","25","157161","0.0-6.0-0.0-2.0-0.8","3","3","3","3","3","3","3","2","3","3","4","2","2","4","3","4","3","3","4","3","4","4","4","4","4","4","4","4","4","1","0","1","1","0","0","0","1","0","1","1","0","1","0","1","4","4","3","2","4","1","4","4","4","2","2","799062502875996161","刘","372","","","","","","","","","","","","","","","","","","","","","","","","","","","","","","","","","","","","","","","","","",""
"488","<p style=""color:rgb(150, 250, 100); font-size: 35px;"">他的</p>","e","categorize-html","26","157651","0.0-6.0-0.0-2.0-1.8","3","3","3","3","3","3","3","2","3","3","4","2","2","4","3","4","3","3","4","3","4","4","4","4","4","4","4","4","4","1","0","1","1","0","0","0","1","0","1","1","0","1","0","1","4","4","3","2","4","1","4","4","4","2","2","799062502875996161","刘","372","","","","","","","","","","","","","","","","","","","true","1","1","ability","488","other","他的","","","","","","","","","","","","","","","","",""
"null","","null","html-keyboard-response","27","157903","0.0-6.0-0.0-2.0-0.9","3","3","3","3","3","3","3","2","3","3","4","2","2","4","3","4","3","3","4","3","4","4","4","4","4","4","4","4","4","1","0","1","1","0","0","0","1","0","1","1","0","1","0","1","4","4","3","2","4","1","4","4","4","2","2","799062502875996161","刘","372","","","","","","","","","","","","","","","","","","","","","","","","","","","","","","","","","","","","","","","","","",""
"387","<p style=""color:rgb(150, 250, 100); font-size: 35px;"">他人的</p>","e","categorize-html","28","158293","0.0-6.0-0.0-2.0-1.9","3","3","3","3","3","3","3","2","3","3","4","2","2","4","3","4","3","3","4","3","4","4","4","4","4","4","4","4","4","1","0","1","1","0","0","0","1","0","1","1","0","1","0","1","4","4","3","2","4","1","4","4","4","2","2","799062502875996161","刘","372","","","","","","","","","","","","","","","","","","","true","1","1","ability","387","other","他人的","","","","","","","","","","","","","","","","",""
"null","","null","html-keyboard-response","29","158544","0.0-6.0-0.0-2.0-0.10","3","3","3","3","3","3","3","2","3","3","4","2","2","4","3","4","3","3","4","3","4","4","4","4","4","4","4","4","4","1","0","1","1","0","0","0","1","0","1","1","0","1","0","1","4","4","3","2","4","1","4","4","4","2","2","799062502875996161","刘","372","","","","","","","","","","","","","","","","","","","","","","","","","","","","","","","","","","","","","","","","","",""
"367","<p style=""color:rgb(150, 250, 100); font-size: 35px;"">别人</p>","i","categorize-html","30","159583","0.0-6.0-0.0-2.0-1.10","3","3","3","3","3","3","3","2","3","3","4","2","2","4","3","4","3","3","4","3","4","4","4","4","4","4","4","4","4","1","0","1","1","0","0","0","1","0","1","1","0","1","0","1","4","4","3","2","4","1","4","4","4","2","2","799062502875996161","刘","372","","","","","","","","","","","","","","","","","","","false","1","1","ability","367","other","别人","","","","","","","","","","","","","","","","",""
"null","","null","html-keyboard-response","31","159834","0.0-6.0-0.0-2.0-0.11","3","3","3","3","3","3","3","2","3","3","4","2","2","4","3","4","3","3","4","3","4","4","4","4","4","4","4","4","4","1","0","1","1","0","0","0","1","0","1","1","0","1","0","1","4","4","3","2","4","1","4","4","4","2","2","799062502875996161","刘","372","","","","","","","","","","","","","","","","","","","","","","","","","","","","","","","","","","","","","","","","","",""
"598","<p style=""color:rgb(150, 250, 100); font-size: 35px;"">本人</p>","i","categorize-html","32","160434","0.0-6.0-0.0-2.0-1.11","3","3","3","3","3","3","3","2","3","3","4","2","2","4","3","4","3","3","4","3","4","4","4","4","4","4","4","4","4","1","0","1","1","0","0","0","1","0","1","1","0","1","0","1","4","4","3","2","4","1","4","4","4","2","2","799062502875996161","刘","372","","","","","","","","","","","","","","","","","","","true","1","1","ability","598","self","本人","","","","","","","","","","","","","","","","",""
"6095","
    <div class=""tag-bottom""><p>
    —— 任务2：对“积极”词和“消极”词分类 ——<p/>   
    <span style=""color:#78DCE8""><b>注意上方，类别标签和需要分类的词语都已经改变</b></span><p/>
    <span style=""color:#FFD866""><b>请根据上方标签的提示，尽可能正确并且快速地做出按键反应</b></span><p/>
    当按键错误时屏幕中会出现<span style=""color:red""> X </span>，需要按另一个键纠正才能继续<br/><p/>
    请把双手食指分别放在键盘的“E”键和“I”键上<p/>
    按<空格键>开始
    </p></div>"," ","html-keyboard-response","33","166530","0.0-6.0-0.0-3.0","3","3","3","3","3","3","3","2","3","3","4","2","2","4","3","4","3","3","4","3","4","4","4","4","4","4","4","4","4","1","0","1","1","0","0","0","1","0","1","1","0","1","0","1","4","4","3","2","4","1","4","4","4","2","2","799062502875996161","刘","372","","","","","","","","","","","","","","","","","","","","","","","","","","","","","","","","","","","","","","","","","",""
"null","","null","html-keyboard-response","34","166781","0.0-6.0-0.0-4.0-0.0","3","3","3","3","3","3","3","2","3","3","4","2","2","4","3","4","3","3","4","3","4","4","4","4","4","4","4","4","4","1","0","1","1","0","0","0","1","0","1","1","0","1","0","1","4","4","3","2","4","1","4","4","4","2","2","799062502875996161","刘","372","","","","","","","","","","","","","","","","","","","","","","","","","","","","","","","","","","","","","","","","","",""
"741","<p style=""color:white; font-size: 35px;"">拙笨</p>","i","categorize-html","35","167524","0.0-6.0-0.0-4.0-1.0","3","3","3","3","3","3","3","2","3","3","4","2","2","4","3","4","3","3","4","3","4","4","4","4","4","4","4","4","4","1","0","1","1","0","0","0","1","0","1","1","0","1","0","1","4","4","3","2","4","1","4","4","4","2","2","799062502875996161","刘","372","","","","","","","","","","","","","","","","","","","true","2","2","ability","741","negative","拙笨","","","","","","","","","","","","","","","","",""
"null","","null","html-keyboard-response","36","167775","0.0-6.0-0.0-4.0-0.1","3","3","3","3","3","3","3","2","3","3","4","2","2","4","3","4","3","3","4","3","4","4","4","4","4","4","4","4","4","1","0","1","1","0","0","0","1","0","1","1","0","1","0","1","4","4","3","2","4","1","4","4","4","2","2","799062502875996161","刘","372","","","","","","","","","","","","","","","","","","","","","","","","","","","","","","","","","","","","","","","","","",""
"389","<p style=""color:white; font-size: 35px;"">愚钝</p>","i","categorize-html","37","168166","0.0-6.0-0.0-4.0-1.1","3","3","3","3","3","3","3","2","3","3","4","2","2","4","3","4","3","3","4","3","4","4","4","4","4","4","4","4","4","1","0","1","1","0","0","0","1","0","1","1","0","1","0","1","4","4","3","2","4","1","4","4","4","2","2","799062502875996161","刘","372","","","","","","","","","","","","","","","","","","","true","2","2","ability","389","negative","愚钝","","","","","","","","","","","","","","","","",""
"null","","null","html-keyboard-response","38","168418","0.0-6.0-0.0-4.0-0.2","3","3","3","3","3","3","3","2","3","3","4","2","2","4","3","4","3","3","4","3","4","4","4","4","4","4","4","4","4","1","0","1","1","0","0","0","1","0","1","1","0","1","0","1","4","4","3","2","4","1","4","4","4","2","2","799062502875996161","刘","372","","","","","","","","","","","","","","","","","","","","","","","","","","","","","","","","","","","","","","","","","",""
"661","<p style=""color:white; font-size: 35px;"">全能</p>","e","categorize-html","39","169081","0.0-6.0-0.0-4.0-1.2","3","3","3","3","3","3","3","2","3","3","4","2","2","4","3","4","3","3","4","3","4","4","4","4","4","4","4","4","4","1","0","1","1","0","0","0","1","0","1","1","0","1","0","1","4","4","3","2","4","1","4","4","4","2","2","799062502875996161","刘","372","","","","","","","","","","","","","","","","","","","true","2","2","ability","661","positive","全能","","","","","","","","","","","","","","","","",""
"null","","null","html-keyboard-response","40","169332","0.0-6.0-0.0-4.0-0.3","3","3","3","3","3","3","3","2","3","3","4","2","2","4","3","4","3","3","4","3","4","4","4","4","4","4","4","4","4","1","0","1","1","0","0","0","1","0","1","1","0","1","0","1","4","4","3","2","4","1","4","4","4","2","2","799062502875996161","刘","372","","","","","","","","","","","","","","","","","","","","","","","","","","","","","","","","","","","","","","","","","",""
"443","<p style=""color:white; font-size: 35px;"">能干</p>","e","categorize-html","41","169776","0.0-6.0-0.0-4.0-1.3","3","3","3","3","3","3","3","2","3","3","4","2","2","4","3","4","3","3","4","3","4","4","4","4","4","4","4","4","4","1","0","1","1","0","0","0","1","0","1","1","0","1","0","1","4","4","3","2","4","1","4","4","4","2","2","799062502875996161","刘","372","","","","","","","","","","","","","","","","","","","true","2","2","ability","443","positive","能干","","","","","","","","","","","","","","","","",""
"null","","null","html-keyboard-response","42","170027","0.0-6.0-0.0-4.0-0.4","3","3","3","3","3","3","3","2","3","3","4","2","2","4","3","4","3","3","4","3","4","4","4","4","4","4","4","4","4","1","0","1","1","0","0","0","1","0","1","1","0","1","0","1","4","4","3","2","4","1","4","4","4","2","2","799062502875996161","刘","372","","","","","","","","","","","","","","","","","","","","","","","","","","","","","","","","","","","","","","","","","",""
"520","<p style=""color:white; font-size: 35px;"">全才</p>","e","categorize-html","43","170550","0.0-6.0-0.0-4.0-1.4","3","3","3","3","3","3","3","2","3","3","4","2","2","4","3","4","3","3","4","3","4","4","4","4","4","4","4","4","4","1","0","1","1","0","0","0","1","0","1","1","0","1","0","1","4","4","3","2","4","1","4","4","4","2","2","799062502875996161","刘","372","","","","","","","","","","","","","","","","","","","true","2","2","ability","520","positive","全才","","","","","","","","","","","","","","","","",""
"null","","null","html-keyboard-response","44","170801","0.0-6.0-0.0-4.0-0.5","3","3","3","3","3","3","3","2","3","3","4","2","2","4","3","4","3","3","4","3","4","4","4","4","4","4","4","4","4","1","0","1","1","0","0","0","1","0","1","1","0","1","0","1","4","4","3","2","4","1","4","4","4","2","2","799062502875996161","刘","372","","","","","","","","","","","","","","","","","","","","","","","","","","","","","","","","","","","","","","","","","",""
"561","<p style=""color:white; font-size: 35px;"">废物</p>","i","categorize-html","45","171365","0.0-6.0-0.0-4.0-1.5","3","3","3","3","3","3","3","2","3","3","4","2","2","4","3","4","3","3","4","3","4","4","4","4","4","4","4","4","4","1","0","1","1","0","0","0","1","0","1","1","0","1","0","1","4","4","3","2","4","1","4","4","4","2","2","799062502875996161","刘","372","","","","","","","","","","","","","","","","","","","true","2","2","ability","561","negative","废物","","","","","","","","","","","","","","","","",""
"null","","null","html-keyboard-response","46","171616","0.0-6.0-0.0-4.0-0.6","3","3","3","3","3","3","3","2","3","3","4","2","2","4","3","4","3","3","4","3","4","4","4","4","4","4","4","4","4","1","0","1","1","0","0","0","1","0","1","1","0","1","0","1","4","4","3","2","4","1","4","4","4","2","2","799062502875996161","刘","372","","","","","","","","","","","","","","","","","","","","","","","","","","","","","","","","","","","","","","","","","",""
"418","<p style=""color:white; font-size: 35px;"">低能</p>","i","categorize-html","47","172036","0.0-6.0-0.0-4.0-1.6","3","3","3","3","3","3","3","2","3","3","4","2","2","4","3","4","3","3","4","3","4","4","4","4","4","4","4","4","4","1","0","1","1","0","0","0","1","0","1","1","0","1","0","1","4","4","3","2","4","1","4","4","4","2","2","799062502875996161","刘","372","","","","","","","","","","","","","","","","","","","true","2","2","ability","418","negative","低能","","","","","","","","","","","","","","","","",""
"null","","null","html-keyboard-response","48","172287","0.0-6.0-0.0-4.0-0.7","3","3","3","3","3","3","3","2","3","3","4","2","2","4","3","4","3","3","4","3","4","4","4","4","4","4","4","4","4","1","0","1","1","0","0","0","1","0","1","1","0","1","0","1","4","4","3","2","4","1","4","4","4","2","2","799062502875996161","刘","372","","","","","","","","","","","","","","","","","","","","","","","","","","","","","","","","","","","","","","","","","",""
"398","<p style=""color:white; font-size: 35px;"">蠢笨</p>","i","categorize-html","49","172687","0.0-6.0-0.0-4.0-1.7","3","3","3","3","3","3","3","2","3","3","4","2","2","4","3","4","3","3","4","3","4","4","4","4","4","4","4","4","4","1","0","1","1","0","0","0","1","0","1","1","0","1","0","1","4","4","3","2","4","1","4","4","4","2","2","799062502875996161","刘","372","","","","","","","","","","","","","","","","","","","true","2","2","ability","398","negative","蠢笨","","","","","","","","","","","","","","","","",""
"null","","null","html-keyboard-response","50","172940","0.0-6.0-0.0-4.0-0.8","3","3","3","3","3","3","3","2","3","3","4","2","2","4","3","4","3","3","4","3","4","4","4","4","4","4","4","4","4","1","0","1","1","0","0","0","1","0","1","1","0","1","0","1","4","4","3","2","4","1","4","4","4","2","2","799062502875996161","刘","372","","","","","","","","","","","","","","","","","","","","","","","","","","","","","","","","","","","","","","","","","",""
"576","<p style=""color:white; font-size: 35px;"">精干</p>","e","categorize-html","51","173518","0.0-6.0-0.0-4.0-1.8","3","3","3","3","3","3","3","2","3","3","4","2","2","4","3","4","3","3","4","3","4","4","4","4","4","4","4","4","4","1","0","1","1","0","0","0","1","0","1","1","0","1","0","1","4","4","3","2","4","1","4","4","4","2","2","799062502875996161","刘","372","","","","","","","","","","","","","","","","","","","true","2","2","ability","576","positive","精干","","","","","","","","","","","","","","","","",""
"null","","null","html-keyboard-response","52","173769","0.0-6.0-0.0-4.0-0.9","3","3","3","3","3","3","3","2","3","3","4","2","2","4","3","4","3","3","4","3","4","4","4","4","4","4","4","4","4","1","0","1","1","0","0","0","1","0","1","1","0","1","0","1","4","4","3","2","4","1","4","4","4","2","2","799062502875996161","刘","372","","","","","","","","","","","","","","","","","","","","","","","","","","","","","","","","","","","","","","","","","",""
"633","<p style=""color:white; font-size: 35px;"">天才</p>","e","categorize-html","53","174405","0.0-6.0-0.0-4.0-1.9","3","3","3","3","3","3","3","2","3","3","4","2","2","4","3","4","3","3","4","3","4","4","4","4","4","4","4","4","4","1","0","1","1","0","0","0","1","0","1","1","0","1","0","1","4","4","3","2","4","1","4","4","4","2","2","799062502875996161","刘","372","","","","","","","","","","","","","","","","","","","true","2","2","ability","633","positive","天才","","","","","","","","","","","","","","","","",""
"null","","null","html-keyboard-response","54","174656","0.0-6.0-0.0-4.0-0.10","3","3","3","3","3","3","3","2","3","3","4","2","2","4","3","4","3","3","4","3","4","4","4","4","4","4","4","4","4","1","0","1","1","0","0","0","1","0","1","1","0","1","0","1","4","4","3","2","4","1","4","4","4","2","2","799062502875996161","刘","372","","","","","","","","","","","","","","","","","","","","","","","","","","","","","","","","","","","","","","","","","",""
"500","<p style=""color:white; font-size: 35px;"">无能</p>","i","categorize-html","55","175157","0.0-6.0-0.0-4.0-1.10","3","3","3","3","3","3","3","2","3","3","4","2","2","4","3","4","3","3","4","3","4","4","4","4","4","4","4","4","4","1","0","1","1","0","0","0","1","0","1","1","0","1","0","1","4","4","3","2","4","1","4","4","4","2","2","799062502875996161","刘","372","","","","","","","","","","","","","","","","","","","true","2","2","ability","500","negative","无能","","","","","","","","","","","","","","","","",""
"null","","null","html-keyboard-response","56","175408","0.0-6.0-0.0-4.0-0.11","3","3","3","3","3","3","3","2","3","3","4","2","2","4","3","4","3","3","4","3","4","4","4","4","4","4","4","4","4","1","0","1","1","0","0","0","1","0","1","1","0","1","0","1","4","4","3","2","4","1","4","4","4","2","2","799062502875996161","刘","372","","","","","","","","","","","","","","","","","","","","","","","","","","","","","","","","","","","","","","","","","",""
"694","<p style=""color:white; font-size: 35px;"">高效</p>","e","categorize-html","57","176104","0.0-6.0-0.0-4.0-1.11","3","3","3","3","3","3","3","2","3","3","4","2","2","4","3","4","3","3","4","3","4","4","4","4","4","4","4","4","4","1","0","1","1","0","0","0","1","0","1","1","0","1","0","1","4","4","3","2","4","1","4","4","4","2","2","799062502875996161","刘","372","","","","","","","","","","","","","","","","","","","true","2","2","ability","694","positive","高效","","","","","","","","","","","","","","","","",""
"5433","
    <div class=""tag-bottom""><p>
    —— 任务3：对“他人/积极”词和“自我/消极”词分类 ——<p/>
    <span style=""color:#78DCE8""><b>注意上方，之前的四类词语将混合在一起交替呈现</b></span><p/>
    <span style=""color:#FFD866""><b>请根据上方标签的提示，尽可能正确并且快速地做出按键反应</b></span><p/>
    当按键错误时屏幕中会出现<span style=""color:red""> X </span>，需要按另一个键纠正才能继续<br/><p/>
    请把双手食指分别放在键盘的“E”键和“I”键上<p/>
    按<空格键>开始
    </p></div>"," ","html-keyboard-response","58","181537","0.0-6.0-0.0-5.0","3","3","3","3","3","3","3","2","3","3","4","2","2","4","3","4","3","3","4","3","4","4","4","4","4","4","4","4","4","1","0","1","1","0","0","0","1","0","1","1","0","1","0","1","4","4","3","2","4","1","4","4","4","2","2","799062502875996161","刘","372","","","","","","","","","","","","","","","","","","","","","","","","","","","","","","","","","","","","","","","","","",""
"null","","null","html-keyboard-response","59","181788","0.0-6.0-0.0-6.0-0.0","3","3","3","3","3","3","3","2","3","3","4","2","2","4","3","4","3","3","4","3","4","4","4","4","4","4","4","4","4","1","0","1","1","0","0","0","1","0","1","1","0","1","0","1","4","4","3","2","4","1","4","4","4","2","2","799062502875996161","刘","372","","","","","","","","","","","","","","","","","","","","","","","","","","","","","","","","","","","","","","","","","",""
"949","<p style=""color:rgb(150, 250, 100); font-size: 35px;"">我的</p>","i","categorize-html","60","182739","0.0-6.0-0.0-6.0-1.0","3","3","3","3","3","3","3","2","3","3","4","2","2","4","3","4","3","3","4","3","4","4","4","4","4","4","4","4","4","1","0","1","1","0","0","0","1","0","1","1","0","1","0","1","4","4","3","2","4","1","4","4","4","2","2","799062502875996161","刘","372","","","","","","","","","","","","","","","","","","","true","3","3","ability","949","self","我的","","","","","","","","","","","","","","","","",""
"null","","null","html-keyboard-response","61","182991","0.0-6.0-0.0-6.0-0.1","3","3","3","3","3","3","3","2","3","3","4","2","2","4","3","4","3","3","4","3","4","4","4","4","4","4","4","4","4","1","0","1","1","0","0","0","1","0","1","1","0","1","0","1","4","4","3","2","4","1","4","4","4","2","2","799062502875996161","刘","372","","","","","","","","","","","","","","","","","","","","","","","","","","","","","","","","","","","","","","","","","",""
"524","<p style=""color:white; font-size: 35px;"">无能</p>","i","categorize-html","62","183517","0.0-6.0-0.0-6.0-1.1","3","3","3","3","3","3","3","2","3","3","4","2","2","4","3","4","3","3","4","3","4","4","4","4","4","4","4","4","4","1","0","1","1","0","0","0","1","0","1","1","0","1","0","1","4","4","3","2","4","1","4","4","4","2","2","799062502875996161","刘","372","","","","","","","","","","","","","","","","","","","true","3","3","ability","524","negative","无能","","","","","","","","","","","","","","","","",""
"null","","null","html-keyboard-response","63","183768","0.0-6.0-0.0-6.0-0.2","3","3","3","3","3","3","3","2","3","3","4","2","2","4","3","4","3","3","4","3","4","4","4","4","4","4","4","4","4","1","0","1","1","0","0","0","1","0","1","1","0","1","0","1","4","4","3","2","4","1","4","4","4","2","2","799062502875996161","刘","372","","","","","","","","","","","","","","","","","","","","","","","","","","","","","","","","","","","","","","","","","",""
"584","<p style=""color:rgb(150, 250, 100); font-size: 35px;"">别人</p>","e","categorize-html","64","184355","0.0-6.0-0.0-6.0-1.2","3","3","3","3","3","3","3","2","3","3","4","2","2","4","3","4","3","3","4","3","4","4","4","4","4","4","4","4","4","1","0","1","1","0","0","0","1","0","1","1","0","1","0","1","4","4","3","2","4","1","4","4","4","2","2","799062502875996161","刘","372","","","","","","","","","","","","","","","","","","","true","3","3","ability","584","other","别人","","","","","","","","","","","","","","","","",""
"null","","null","html-keyboard-response","65","184606","0.0-6.0-0.0-6.0-0.3","3","3","3","3","3","3","3","2","3","3","4","2","2","4","3","4","3","3","4","3","4","4","4","4","4","4","4","4","4","1","0","1","1","0","0","0","1","0","1","1","0","1","0","1","4","4","3","2","4","1","4","4","4","2","2","799062502875996161","刘","372","","","","","","","","","","","","","","","","","","","","","","","","","","","","","","","","","","","","","","","","","",""
"540","<p style=""color:white; font-size: 35px;"">高效</p>","e","categorize-html","66","185149","0.0-6.0-0.0-6.0-1.3","3","3","3","3","3","3","3","2","3","3","4","2","2","4","3","4","3","3","4","3","4","4","4","4","4","4","4","4","4","1","0","1","1","0","0","0","1","0","1","1","0","1","0","1","4","4","3","2","4","1","4","4","4","2","2","799062502875996161","刘","372","","","","","","","","","","","","","","","","","","","true","3","3","ability","540","positive","高效","","","","","","","","","","","","","","","","",""
"null","","null","html-keyboard-response","67","185400","0.0-6.0-0.0-6.0-0.4","3","3","3","3","3","3","3","2","3","3","4","2","2","4","3","4","3","3","4","3","4","4","4","4","4","4","4","4","4","1","0","1","1","0","0","0","1","0","1","1","0","1","0","1","4","4","3","2","4","1","4","4","4","2","2","799062502875996161","刘","372","","","","","","","","","","","","","","","","","","","","","","","","","","","","","","","","","","","","","","","","","",""
"456","<p style=""color:rgb(150, 250, 100); font-size: 35px;"">本人的</p>","i","categorize-html","68","185858","0.0-6.0-0.0-6.0-1.4","3","3","3","3","3","3","3","2","3","3","4","2","2","4","3","4","3","3","4","3","4","4","4","4","4","4","4","4","4","1","0","1","1","0","0","0","1","0","1","1","0","1","0","1","4","4","3","2","4","1","4","4","4","2","2","799062502875996161","刘","372","","","","","","","","","","","","","","","","","","","true","3","3","ability","456","self","本人的","","","","","","","","","","","","","","","","",""
"null","","null","html-keyboard-response","69","186109","0.0-6.0-0.0-6.0-0.5","3","3","3","3","3","3","3","2","3","3","4","2","2","4","3","4","3","3","4","3","4","4","4","4","4","4","4","4","4","1","0","1","1","0","0","0","1","0","1","1","0","1","0","1","4","4","3","2","4","1","4","4","4","2","2","799062502875996161","刘","372","","","","","","","","","","","","","","","","","","","","","","","","","","","","","","","","","","","","","","","","","",""
"517","<p style=""color:white; font-size: 35px;"">愚钝</p>","i","categorize-html","70","186628","0.0-6.0-0.0-6.0-1.5","3","3","3","3","3","3","3","2","3","3","4","2","2","4","3","4","3","3","4","3","4","4","4","4","4","4","4","4","4","1","0","1","1","0","0","0","1","0","1","1","0","1","0","1","4","4","3","2","4","1","4","4","4","2","2","799062502875996161","刘","372","","","","","","","","","","","","","","","","","","","true","3","3","ability","517","negative","愚钝","","","","","","","","","","","","","","","","",""
"null","","null","html-keyboard-response","71","186880","0.0-6.0-0.0-6.0-0.6","3","3","3","3","3","3","3","2","3","3","4","2","2","4","3","4","3","3","4","3","4","4","4","4","4","4","4","4","4","1","0","1","1","0","0","0","1","0","1","1","0","1","0","1","4","4","3","2","4","1","4","4","4","2","2","799062502875996161","刘","372","","","","","","","","","","","","","","","","","","","","","","","","","","","","","","","","","","","","","","","","","",""
"482","<p style=""color:rgb(150, 250, 100); font-size: 35px;"">他</p>","e","categorize-html","72","187365","0.0-6.0-0.0-6.0-1.6","3","3","3","3","3","3","3","2","3","3","4","2","2","4","3","4","3","3","4","3","4","4","4","4","4","4","4","4","4","1","0","1","1","0","0","0","1","0","1","1","0","1","0","1","4","4","3","2","4","1","4","4","4","2","2","799062502875996161","刘","372","","","","","","","","","","","","","","","","","","","true","3","3","ability","482","other","他","","","","","","","","","","","","","","","","",""
"null","","null","html-keyboard-response","73","187616","0.0-6.0-0.0-6.0-0.7","3","3","3","3","3","3","3","2","3","3","4","2","2","4","3","4","3","3","4","3","4","4","4","4","4","4","4","4","4","1","0","1","1","0","0","0","1","0","1","1","0","1","0","1","4","4","3","2","4","1","4","4","4","2","2","799062502875996161","刘","372","","","","","","","","","","","","","","","","","","","","","","","","","","","","","","","","","","","","","","","","","",""
"562","<p style=""color:white; font-size: 35px;"">全能</p>","e","categorize-html","74","188180","0.0-6.0-0.0-6.0-1.7","3","3","3","3","3","3","3","2","3","3","4","2","2","4","3","4","3","3","4","3","4","4","4","4","4","4","4","4","4","1","0","1","1","0","0","0","1","0","1","1","0","1","0","1","4","4","3","2","4","1","4","4","4","2","2","799062502875996161","刘","372","","","","","","","","","","","","","","","","","","","true","3","3","ability","562","positive","全能","","","","","","","","","","","","","","","","",""
"null","","null","html-keyboard-response","75","188431","0.0-6.0-0.0-6.0-0.8","3","3","3","3","3","3","3","2","3","3","4","2","2","4","3","4","3","3","4","3","4","4","4","4","4","4","4","4","4","1","0","1","1","0","0","0","1","0","1","1","0","1","0","1","4","4","3","2","4","1","4","4","4","2","2","799062502875996161","刘","372","","","","","","","","","","","","","","","","","","","","","","","","","","","","","","","","","","","","","","","","","",""
"365","<p style=""color:rgb(150, 250, 100); font-size: 35px;"">我</p>","i","categorize-html","76","188797","0.0-6.0-0.0-6.0-1.8","3","3","3","3","3","3","3","2","3","3","4","2","2","4","3","4","3","3","4","3","4","4","4","4","4","4","4","4","4","1","0","1","1","0","0","0","1","0","1","1","0","1","0","1","4","4","3","2","4","1","4","4","4","2","2","799062502875996161","刘","372","","","","","","","","","","","","","","","","","","","true","3","3","ability","365","self","我","","","","","","","","","","","","","","","","",""
"null","","null","html-keyboard-response","77","189048","0.0-6.0-0.0-6.0-0.9","3","3","3","3","3","3","3","2","3","3","4","2","2","4","3","4","3","3","4","3","4","4","4","4","4","4","4","4","4","1","0","1","1","0","0","0","1","0","1","1","0","1","0","1","4","4","3","2","4","1","4","4","4","2","2","799062502875996161","刘","372","","","","","","","","","","","","","","","","","","","","","","","","","","","","","","","","","","","","","","","","","",""
"444","<p style=""color:white; font-size: 35px;"">蠢笨</p>","i","categorize-html","78","189494","0.0-6.0-0.0-6.0-1.9","3","3","3","3","3","3","3","2","3","3","4","2","2","4","3","4","3","3","4","3","4","4","4","4","4","4","4","4","4","1","0","1","1","0","0","0","1","0","1","1","0","1","0","1","4","4","3","2","4","1","4","4","4","2","2","799062502875996161","刘","372","","","","","","","","","","","","","","","","","","","true","3","3","ability","444","negative","蠢笨","","","","","","","","","","","","","","","","",""
"null","","null","html-keyboard-response","79","189746","0.0-6.0-0.0-6.0-0.10","3","3","3","3","3","3","3","2","3","3","4","2","2","4","3","4","3","3","4","3","4","4","4","4","4","4","4","4","4","1","0","1","1","0","0","0","1","0","1","1","0","1","0","1","4","4","3","2","4","1","4","4","4","2","2","799062502875996161","刘","372","","","","","","","","","","","","","","","","","","","","","","","","","","","","","","","","","","","","","","","","","",""
"434","<p style=""color:rgb(150, 250, 100); font-size: 35px;"">他人的</p>","e","categorize-html","80","190182","0.0-6.0-0.0-6.0-1.10","3","3","3","3","3","3","3","2","3","3","4","2","2","4","3","4","3","3","4","3","4","4","4","4","4","4","4","4","4","1","0","1","1","0","0","0","1","0","1","1","0","1","0","1","4","4","3","2","4","1","4","4","4","2","2","799062502875996161","刘","372","","","","","","","","","","","","","","","","","","","true","3","3","ability","434","other","他人的","","","","","","","","","","","","","","","","",""
"null","","null","html-keyboard-response","81","190434","0.0-6.0-0.0-6.0-0.11","3","3","3","3","3","3","3","2","3","3","4","2","2","4","3","4","3","3","4","3","4","4","4","4","4","4","4","4","4","1","0","1","1","0","0","0","1","0","1","1","0","1","0","1","4","4","3","2","4","1","4","4","4","2","2","799062502875996161","刘","372","","","","","","","","","","","","","","","","","","","","","","","","","","","","","","","","","","","","","","","","","",""
"343","<p style=""color:white; font-size: 35px;"">精干</p>","e","categorize-html","82","190777","0.0-6.0-0.0-6.0-1.11","3","3","3","3","3","3","3","2","3","3","4","2","2","4","3","4","3","3","4","3","4","4","4","4","4","4","4","4","4","1","0","1","1","0","0","0","1","0","1","1","0","1","0","1","4","4","3","2","4","1","4","4","4","2","2","799062502875996161","刘","372","","","","","","","","","","","","","","","","","","","true","3","3","ability","343","positive","精干","","","","","","","","","","","","","","","","",""
"null","","null","html-keyboard-response","83","191028","0.0-6.0-0.0-6.0-0.12","3","3","3","3","3","3","3","2","3","3","4","2","2","4","3","4","3","3","4","3","4","4","4","4","4","4","4","4","4","1","0","1","1","0","0","0","1","0","1","1","0","1","0","1","4","4","3","2","4","1","4","4","4","2","2","799062502875996161","刘","372","","","","","","","","","","","","","","","","","","","","","","","","","","","","","","","","","","","","","","","","","",""
"470","<p style=""color:rgb(150, 250, 100); font-size: 35px;"">本人</p>","i","categorize-html","84","191500","0.0-6.0-0.0-6.0-1.12","3","3","3","3","3","3","3","2","3","3","4","2","2","4","3","4","3","3","4","3","4","4","4","4","4","4","4","4","4","1","0","1","1","0","0","0","1","0","1","1","0","1","0","1","4","4","3","2","4","1","4","4","4","2","2","799062502875996161","刘","372","","","","","","","","","","","","","","","","","","","true","3","3","ability","470","self","本人","","","","","","","","","","","","","","","","",""
"null","","null","html-keyboard-response","85","191752","0.0-6.0-0.0-6.0-0.13","3","3","3","3","3","3","3","2","3","3","4","2","2","4","3","4","3","3","4","3","4","4","4","4","4","4","4","4","4","1","0","1","1","0","0","0","1","0","1","1","0","1","0","1","4","4","3","2","4","1","4","4","4","2","2","799062502875996161","刘","372","","","","","","","","","","","","","","","","","","","","","","","","","","","","","","","","","","","","","","","","","",""
"365","<p style=""color:white; font-size: 35px;"">低能</p>","i","categorize-html","86","192119","0.0-6.0-0.0-6.0-1.13","3","3","3","3","3","3","3","2","3","3","4","2","2","4","3","4","3","3","4","3","4","4","4","4","4","4","4","4","4","1","0","1","1","0","0","0","1","0","1","1","0","1","0","1","4","4","3","2","4","1","4","4","4","2","2","799062502875996161","刘","372","","","","","","","","","","","","","","","","","","","true","3","3","ability","365","negative","低能","","","","","","","","","","","","","","","","",""
"null","","null","html-keyboard-response","87","192371","0.0-6.0-0.0-6.0-0.14","3","3","3","3","3","3","3","2","3","3","4","2","2","4","3","4","3","3","4","3","4","4","4","4","4","4","4","4","4","1","0","1","1","0","0","0","1","0","1","1","0","1","0","1","4","4","3","2","4","1","4","4","4","2","2","799062502875996161","刘","372","","","","","","","","","","","","","","","","","","","","","","","","","","","","","","","","","","","","","","","","","",""
"354","<p style=""color:rgb(150, 250, 100); font-size: 35px;"">别人的</p>","e","categorize-html","88","192727","0.0-6.0-0.0-6.0-1.14","3","3","3","3","3","3","3","2","3","3","4","2","2","4","3","4","3","3","4","3","4","4","4","4","4","4","4","4","4","1","0","1","1","0","0","0","1","0","1","1","0","1","0","1","4","4","3","2","4","1","4","4","4","2","2","799062502875996161","刘","372","","","","","","","","","","","","","","","","","","","true","3","3","ability","354","other","别人的","","","","","","","","","","","","","","","","",""
"null","","null","html-keyboard-response","89","192978","0.0-6.0-0.0-6.0-0.15","3","3","3","3","3","3","3","2","3","3","4","2","2","4","3","4","3","3","4","3","4","4","4","4","4","4","4","4","4","1","0","1","1","0","0","0","1","0","1","1","0","1","0","1","4","4","3","2","4","1","4","4","4","2","2","799062502875996161","刘","372","","","","","","","","","","","","","","","","","","","","","","","","","","","","","","","","","","","","","","","","","",""
"353","<p style=""color:white; font-size: 35px;"">天才</p>","e","categorize-html","90","193333","0.0-6.0-0.0-6.0-1.15","3","3","3","3","3","3","3","2","3","3","4","2","2","4","3","4","3","3","4","3","4","4","4","4","4","4","4","4","4","1","0","1","1","0","0","0","1","0","1","1","0","1","0","1","4","4","3","2","4","1","4","4","4","2","2","799062502875996161","刘","372","","","","","","","","","","","","","","","","","","","true","3","3","ability","353","positive","天才","","","","","","","","","","","","","","","","",""
"null","","null","html-keyboard-response","91","193585","0.0-6.0-0.0-6.0-0.16","3","3","3","3","3","3","3","2","3","3","4","2","2","4","3","4","3","3","4","3","4","4","4","4","4","4","4","4","4","1","0","1","1","0","0","0","1","0","1","1","0","1","0","1","4","4","3","2","4","1","4","4","4","2","2","799062502875996161","刘","372","","","","","","","","","","","","","","","","","","","","","","","","","","","","","","","","","","","","","","","","","",""
"459","<p style=""color:rgb(150, 250, 100); font-size: 35px;"">他的</p>","e","categorize-html","92","194046","0.0-6.0-0.0-6.0-1.16","3","3","3","3","3","3","3","2","3","3","4","2","2","4","3","4","3","3","4","3","4","4","4","4","4","4","4","4","4","1","0","1","1","0","0","0","1","0","1","1","0","1","0","1","4","4","3","2","4","1","4","4","4","2","2","799062502875996161","刘","372","","","","","","","","","","","","","","","","","","","true","3","3","ability","459","other","他的","","","","","","","","","","","","","","","","",""
"null","","null","html-keyboard-response","93","194298","0.0-6.0-0.0-6.0-0.17","3","3","3","3","3","3","3","2","3","3","4","2","2","4","3","4","3","3","4","3","4","4","4","4","4","4","4","4","4","1","0","1","1","0","0","0","1","0","1","1","0","1","0","1","4","4","3","2","4","1","4","4","4","2","2","799062502875996161","刘","372","","","","","","","","","","","","","","","","","","","","","","","","","","","","","","","","","","","","","","","","","",""
"328","<p style=""color:white; font-size: 35px;"">能干</p>","e","categorize-html","94","194627","0.0-6.0-0.0-6.0-1.17","3","3","3","3","3","3","3","2","3","3","4","2","2","4","3","4","3","3","4","3","4","4","4","4","4","4","4","4","4","1","0","1","1","0","0","0","1","0","1","1","0","1","0","1","4","4","3","2","4","1","4","4","4","2","2","799062502875996161","刘","372","","","","","","","","","","","","","","","","","","","true","3","3","ability","328","positive","能干","","","","","","","","","","","","","","","","",""
"null","","null","html-keyboard-response","95","194878","0.0-6.0-0.0-6.0-0.18","3","3","3","3","3","3","3","2","3","3","4","2","2","4","3","4","3","3","4","3","4","4","4","4","4","4","4","4","4","1","0","1","1","0","0","0","1","0","1","1","0","1","0","1","4","4","3","2","4","1","4","4","4","2","2","799062502875996161","刘","372","","","","","","","","","","","","","","","","","","","","","","","","","","","","","","","","","","","","","","","","","",""
"410","<p style=""color:rgb(150, 250, 100); font-size: 35px;"">自己</p>","i","categorize-html","96","195290","0.0-6.0-0.0-6.0-1.18","3","3","3","3","3","3","3","2","3","3","4","2","2","4","3","4","3","3","4","3","4","4","4","4","4","4","4","4","4","1","0","1","1","0","0","0","1","0","1","1","0","1","0","1","4","4","3","2","4","1","4","4","4","2","2","799062502875996161","刘","372","","","","","","","","","","","","","","","","","","","true","3","3","ability","410","self","自己","","","","","","","","","","","","","","","","",""
"null","","null","html-keyboard-response","97","195542","0.0-6.0-0.0-6.0-0.19","3","3","3","3","3","3","3","2","3","3","4","2","2","4","3","4","3","3","4","3","4","4","4","4","4","4","4","4","4","1","0","1","1","0","0","0","1","0","1","1","0","1","0","1","4","4","3","2","4","1","4","4","4","2","2","799062502875996161","刘","372","","","","","","","","","","","","","","","","","","","","","","","","","","","","","","","","","","","","","","","","","",""
"301","<p style=""color:white; font-size: 35px;"">拙笨</p>","i","categorize-html","98","195846","0.0-6.0-0.0-6.0-1.19","3","3","3","3","3","3","3","2","3","3","4","2","2","4","3","4","3","3","4","3","4","4","4","4","4","4","4","4","4","1","0","1","1","0","0","0","1","0","1","1","0","1","0","1","4","4","3","2","4","1","4","4","4","2","2","799062502875996161","刘","372","","","","","","","","","","","","","","","","","","","true","3","3","ability","301","negative","拙笨","","","","","","","","","","","","","","","","",""
"null","","null","html-keyboard-response","99","196097","0.0-6.0-0.0-6.0-0.20","3","3","3","3","3","3","3","2","3","3","4","2","2","4","3","4","3","3","4","3","4","4","4","4","4","4","4","4","4","1","0","1","1","0","0","0","1","0","1","1","0","1","0","1","4","4","3","2","4","1","4","4","4","2","2","799062502875996161","刘","372","","","","","","","","","","","","","","","","","","","","","","","","","","","","","","","","","","","","","","","","","",""
"300","<p style=""color:rgb(150, 250, 100); font-size: 35px;"">他人</p>","e","categorize-html","100","196399","0.0-6.0-0.0-6.0-1.20","3","3","3","3","3","3","3","2","3","3","4","2","2","4","3","4","3","3","4","3","4","4","4","4","4","4","4","4","4","1","0","1","1","0","0","0","1","0","1","1","0","1","0","1","4","4","3","2","4","1","4","4","4","2","2","799062502875996161","刘","372","","","","","","","","","","","","","","","","","","","true","3","3","ability","300","other","他人","","","","","","","","","","","","","","","","",""
"null","","null","html-keyboard-response","101","196650","0.0-6.0-0.0-6.0-0.21","3","3","3","3","3","3","3","2","3","3","4","2","2","4","3","4","3","3","4","3","4","4","4","4","4","4","4","4","4","1","0","1","1","0","0","0","1","0","1","1","0","1","0","1","4","4","3","2","4","1","4","4","4","2","2","799062502875996161","刘","372","","","","","","","","","","","","","","","","","","","","","","","","","","","","","","","","","","","","","","","","","",""
"664","<p style=""color:white; font-size: 35px;"">废物</p>","i","categorize-html","102","197317","0.0-6.0-0.0-6.0-1.21","3","3","3","3","3","3","3","2","3","3","4","2","2","4","3","4","3","3","4","3","4","4","4","4","4","4","4","4","4","1","0","1","1","0","0","0","1","0","1","1","0","1","0","1","4","4","3","2","4","1","4","4","4","2","2","799062502875996161","刘","372","","","","","","","","","","","","","","","","","","","true","3","3","ability","664","negative","废物","","","","","","","","","","","","","","","","",""
"null","","null","html-keyboard-response","103","197568","0.0-6.0-0.0-6.0-0.22","3","3","3","3","3","3","3","2","3","3","4","2","2","4","3","4","3","3","4","3","4","4","4","4","4","4","4","4","4","1","0","1","1","0","0","0","1","0","1","1","0","1","0","1","4","4","3","2","4","1","4","4","4","2","2","799062502875996161","刘","372","","","","","","","","","","","","","","","","","","","","","","","","","","","","","","","","","","","","","","","","","",""
"556","<p style=""color:rgb(150, 250, 100); font-size: 35px;"">自己的</p>","i","categorize-html","104","198127","0.0-6.0-0.0-6.0-1.22","3","3","3","3","3","3","3","2","3","3","4","2","2","4","3","4","3","3","4","3","4","4","4","4","4","4","4","4","4","1","0","1","1","0","0","0","1","0","1","1","0","1","0","1","4","4","3","2","4","1","4","4","4","2","2","799062502875996161","刘","372","","","","","","","","","","","","","","","","","","","true","3","3","ability","556","self","自己的","","","","","","","","","","","","","","","","",""
"null","","null","html-keyboard-response","105","198378","0.0-6.0-0.0-6.0-0.23","3","3","3","3","3","3","3","2","3","3","4","2","2","4","3","4","3","3","4","3","4","4","4","4","4","4","4","4","4","1","0","1","1","0","0","0","1","0","1","1","0","1","0","1","4","4","3","2","4","1","4","4","4","2","2","799062502875996161","刘","372","","","","","","","","","","","","","","","","","","","","","","","","","","","","","","","","","","","","","","","","","",""
"679","<p style=""color:white; font-size: 35px;"">全才</p>","e","categorize-html","106","199059","0.0-6.0-0.0-6.0-1.23","3","3","3","3","3","3","3","2","3","3","4","2","2","4","3","4","3","3","4","3","4","4","4","4","4","4","4","4","4","1","0","1","1","0","0","0","1","0","1","1","0","1","0","1","4","4","3","2","4","1","4","4","4","2","2","799062502875996161","刘","372","","","","","","","","","","","","","","","","","","","true","3","3","ability","679","positive","全才","","","","","","","","","","","","","","","","",""
"8646","
    <div class=""tag-bottom""><p>
    —— 任务4：对“他人/积极”词和“自我/消极”词分类 ——<p/>
    <span style=""color:#78DCE8""><b>与刚才的任务完全相同，请再次对这四类词语分类</b></span><p/>
    <span style=""color:#FFD866""><b>请根据上方标签的提示，尽可能正确并且快速地做出按键反应</b></span><p/>
    当按键错误时屏幕中会出现<span style=""color:red""> X </span>，需要按另一个键纠正才能继续<br/><p/>
    请把双手食指分别放在键盘的“E”键和“I”键上<p/>
    按<空格键>开始
    </p></div>"," ","html-keyboard-response","107","207706","0.0-6.0-0.0-7.0","3","3","3","3","3","3","3","2","3","3","4","2","2","4","3","4","3","3","4","3","4","4","4","4","4","4","4","4","4","1","0","1","1","0","0","0","1","0","1","1","0","1","0","1","4","4","3","2","4","1","4","4","4","2","2","799062502875996161","刘","372","","","","","","","","","","","","","","","","","","","","","","","","","","","","","","","","","","","","","","","","","",""
"null","","null","html-keyboard-response","108","207957","0.0-6.0-0.0-8.0-0.0","3","3","3","3","3","3","3","2","3","3","4","2","2","4","3","4","3","3","4","3","4","4","4","4","4","4","4","4","4","1","0","1","1","0","0","0","1","0","1","1","0","1","0","1","4","4","3","2","4","1","4","4","4","2","2","799062502875996161","刘","372","","","","","","","","","","","","","","","","","","","","","","","","","","","","","","","","","","","","","","","","","",""
"573","<p style=""color:rgb(150, 250, 100); font-size: 35px;"">他人的</p>","e","categorize-html","109","208533","0.0-6.0-0.0-8.0-1.0","3","3","3","3","3","3","3","2","3","3","4","2","2","4","3","4","3","3","4","3","4","4","4","4","4","4","4","4","4","1","0","1","1","0","0","0","1","0","1","1","0","1","0","1","4","4","3","2","4","1","4","4","4","2","2","799062502875996161","刘","372","","","","","","","","","","","","","","","","","","","true","4","4","ability","573","other","他人的","","","","","","","","","","","","","","","","",""
"null","","null","html-keyboard-response","110","208785","0.0-6.0-0.0-8.0-0.1","3","3","3","3","3","3","3","2","3","3","4","2","2","4","3","4","3","3","4","3","4","4","4","4","4","4","4","4","4","1","0","1","1","0","0","0","1","0","1","1","0","1","0","1","4","4","3","2","4","1","4","4","4","2","2","799062502875996161","刘","372","","","","","","","","","","","","","","","","","","","","","","","","","","","","","","","","","","","","","","","","","",""
"436","<p style=""color:white; font-size: 35px;"">能干</p>","e","categorize-html","111","209225","0.0-6.0-0.0-8.0-1.1","3","3","3","3","3","3","3","2","3","3","4","2","2","4","3","4","3","3","4","3","4","4","4","4","4","4","4","4","4","1","0","1","1","0","0","0","1","0","1","1","0","1","0","1","4","4","3","2","4","1","4","4","4","2","2","799062502875996161","刘","372","","","","","","","","","","","","","","","","","","","true","4","4","ability","436","positive","能干","","","","","","","","","","","","","","","","",""
"null","","null","html-keyboard-response","112","209475","0.0-6.0-0.0-8.0-0.2","3","3","3","3","3","3","3","2","3","3","4","2","2","4","3","4","3","3","4","3","4","4","4","4","4","4","4","4","4","1","0","1","1","0","0","0","1","0","1","1","0","1","0","1","4","4","3","2","4","1","4","4","4","2","2","799062502875996161","刘","372","","","","","","","","","","","","","","","","","","","","","","","","","","","","","","","","","","","","","","","","","",""
"538","<p style=""color:rgb(150, 250, 100); font-size: 35px;"">自己的</p>","i","categorize-html","113","210016","0.0-6.0-0.0-8.0-1.2","3","3","3","3","3","3","3","2","3","3","4","2","2","4","3","4","3","3","4","3","4","4","4","4","4","4","4","4","4","1","0","1","1","0","0","0","1","0","1","1","0","1","0","1","4","4","3","2","4","1","4","4","4","2","2","799062502875996161","刘","372","","","","","","","","","","","","","","","","","","","true","4","4","ability","538","self","自己的","","","","","","","","","","","","","","","","",""
"null","","null","html-keyboard-response","114","210268","0.0-6.0-0.0-8.0-0.3","3","3","3","3","3","3","3","2","3","3","4","2","2","4","3","4","3","3","4","3","4","4","4","4","4","4","4","4","4","1","0","1","1","0","0","0","1","0","1","1","0","1","0","1","4","4","3","2","4","1","4","4","4","2","2","799062502875996161","刘","372","","","","","","","","","","","","","","","","","","","","","","","","","","","","","","","","","","","","","","","","","",""
"378","<p style=""color:white; font-size: 35px;"">拙笨</p>","i","categorize-html","115","210650","0.0-6.0-0.0-8.0-1.3","3","3","3","3","3","3","3","2","3","3","4","2","2","4","3","4","3","3","4","3","4","4","4","4","4","4","4","4","4","1","0","1","1","0","0","0","1","0","1","1","0","1","0","1","4","4","3","2","4","1","4","4","4","2","2","799062502875996161","刘","372","","","","","","","","","","","","","","","","","","","true","4","4","ability","378","negative","拙笨","","","","","","","","","","","","","","","","",""
"null","","null","html-keyboard-response","116","210901","0.0-6.0-0.0-8.0-0.4","3","3","3","3","3","3","3","2","3","3","4","2","2","4","3","4","3","3","4","3","4","4","4","4","4","4","4","4","4","1","0","1","1","0","0","0","1","0","1","1","0","1","0","1","4","4","3","2","4","1","4","4","4","2","2","799062502875996161","刘","372","","","","","","","","","","","","","","","","","","","","","","","","","","","","","","","","","","","","","","","","","",""
"408","<p style=""color:rgb(150, 250, 100); font-size: 35px;"">他</p>","e","categorize-html","117","211310","0.0-6.0-0.0-8.0-1.4","3","3","3","3","3","3","3","2","3","3","4","2","2","4","3","4","3","3","4","3","4","4","4","4","4","4","4","4","4","1","0","1","1","0","0","0","1","0","1","1","0","1","0","1","4","4","3","2","4","1","4","4","4","2","2","799062502875996161","刘","372","","","","","","","","","","","","","","","","","","","true","4","4","ability","408","other","他","","","","","","","","","","","","","","","","",""
"null","","null","html-keyboard-response","118","211561","0.0-6.0-0.0-8.0-0.5","3","3","3","3","3","3","3","2","3","3","4","2","2","4","3","4","3","3","4","3","4","4","4","4","4","4","4","4","4","1","0","1","1","0","0","0","1","0","1","1","0","1","0","1","4","4","3","2","4","1","4","4","4","2","2","799062502875996161","刘","372","","","","","","","","","","","","","","","","","","","","","","","","","","","","","","","","","","","","","","","","","",""
"442","<p style=""color:white; font-size: 35px;"">低能</p>","e","categorize-html","119","212721","0.0-6.0-0.0-8.0-1.5","3","3","3","3","3","3","3","2","3","3","4","2","2","4","3","4","3","3","4","3","4","4","4","4","4","4","4","4","4","1","0","1","1","0","0","0","1","0","1","1","0","1","0","1","4","4","3","2","4","1","4","4","4","2","2","799062502875996161","刘","372","","","","","","","","","","","","","","","","","","","false","4","4","ability","1103.840909090909","negative","低能","","","","","","","","","","","","","","","","",""
"null","","null","html-keyboard-response","120","212971","0.0-6.0-0.0-8.0-0.6","3","3","3","3","3","3","3","2","3","3","4","2","2","4","3","4","3","3","4","3","4","4","4","4","4","4","4","4","4","1","0","1","1","0","0","0","1","0","1","1","0","1","0","1","4","4","3","2","4","1","4","4","4","2","2","799062502875996161","刘","372","","","","","","","","","","","","","","","","","","","","","","","","","","","","","","","","","","","","","","","","","",""
"414","<p style=""color:rgb(150, 250, 100); font-size: 35px;"">本人的</p>","e","categorize-html","121","213900","0.0-6.0-0.0-8.0-1.6","3","3","3","3","3","3","3","2","3","3","4","2","2","4","3","4","3","3","4","3","4","4","4","4","4","4","4","4","4","1","0","1","1","0","0","0","1","0","1","1","0","1","0","1","4","4","3","2","4","1","4","4","4","2","2","799062502875996161","刘","372","","","","","","","","","","","","","","","","","","","false","4","4","ability","1103.840909090909","self","本人的","","","","","","","","","","","","","","","","",""
"null","","null","html-keyboard-response","122","214151","0.0-6.0-0.0-8.0-0.7","3","3","3","3","3","3","3","2","3","3","4","2","2","4","3","4","3","3","4","3","4","4","4","4","4","4","4","4","4","1","0","1","1","0","0","0","1","0","1","1","0","1","0","1","4","4","3","2","4","1","4","4","4","2","2","799062502875996161","刘","372","","","","","","","","","","","","","","","","","","","","","","","","","","","","","","","","","","","","","","","","","",""
"536","<p style=""color:white; font-size: 35px;"">能干</p>","e","categorize-html","123","214689","0.0-6.0-0.0-8.0-1.7","3","3","3","3","3","3","3","2","3","3","4","2","2","4","3","4","3","3","4","3","4","4","4","4","4","4","4","4","4","1","0","1","1","0","0","0","1","0","1","1","0","1","0","1","4","4","3","2","4","1","4","4","4","2","2","799062502875996161","刘","372","","","","","","","","","","","","","","","","","","","true","4","4","ability","536","positive","能干","","","","","","","","","","","","","","","","",""
"null","","null","html-keyboard-response","124","214940","0.0-6.0-0.0-8.0-0.8","3","3","3","3","3","3","3","2","3","3","4","2","2","4","3","4","3","3","4","3","4","4","4","4","4","4","4","4","4","1","0","1","1","0","0","0","1","0","1","1","0","1","0","1","4","4","3","2","4","1","4","4","4","2","2","799062502875996161","刘","372","","","","","","","","","","","","","","","","","","","","","","","","","","","","","","","","","","","","","","","","","",""
"356","<p style=""color:rgb(150, 250, 100); font-size: 35px;"">我的</p>","i","categorize-html","125","215298","0.0-6.0-0.0-8.0-1.8","3","3","3","3","3","3","3","2","3","3","4","2","2","4","3","4","3","3","4","3","4","4","4","4","4","4","4","4","4","1","0","1","1","0","0","0","1","0","1","1","0","1","0","1","4","4","3","2","4","1","4","4","4","2","2","799062502875996161","刘","372","","","","","","","","","","","","","","","","","","","true","4","4","ability","356","self","我的","","","","","","","","","","","","","","","","",""
"null","","null","html-keyboard-response","126","215550","0.0-6.0-0.0-8.0-0.9","3","3","3","3","3","3","3","2","3","3","4","2","2","4","3","4","3","3","4","3","4","4","4","4","4","4","4","4","4","1","0","1","1","0","0","0","1","0","1","1","0","1","0","1","4","4","3","2","4","1","4","4","4","2","2","799062502875996161","刘","372","","","","","","","","","","","","","","","","","","","","","","","","","","","","","","","","","","","","","","","","","",""
"480","<p style=""color:white; font-size: 35px;"">天才</p>","e","categorize-html","127","216033","0.0-6.0-0.0-8.0-1.9","3","3","3","3","3","3","3","2","3","3","4","2","2","4","3","4","3","3","4","3","4","4","4","4","4","4","4","4","4","1","0","1","1","0","0","0","1","0","1","1","0","1","0","1","4","4","3","2","4","1","4","4","4","2","2","799062502875996161","刘","372","","","","","","","","","","","","","","","","","","","true","4","4","ability","480","positive","天才","","","","","","","","","","","","","","","","",""
"null","","null","html-keyboard-response","128","216284","0.0-6.0-0.0-8.0-0.10","3","3","3","3","3","3","3","2","3","3","4","2","2","4","3","4","3","3","4","3","4","4","4","4","4","4","4","4","4","1","0","1","1","0","0","0","1","0","1","1","0","1","0","1","4","4","3","2","4","1","4","4","4","2","2","799062502875996161","刘","372","","","","","","","","","","","","","","","","","","","","","","","","","","","","","","","","","","","","","","","","","",""
"553","<p style=""color:rgb(150, 250, 100); font-size: 35px;"">别人</p>","e","categorize-html","129","216838","0.0-6.0-0.0-8.0-1.10","3","3","3","3","3","3","3","2","3","3","4","2","2","4","3","4","3","3","4","3","4","4","4","4","4","4","4","4","4","1","0","1","1","0","0","0","1","0","1","1","0","1","0","1","4","4","3","2","4","1","4","4","4","2","2","799062502875996161","刘","372","","","","","","","","","","","","","","","","","","","true","4","4","ability","553","other","别人","","","","","","","","","","","","","","","","",""
"null","","null","html-keyboard-response","130","217090","0.0-6.0-0.0-8.0-0.11","3","3","3","3","3","3","3","2","3","3","4","2","2","4","3","4","3","3","4","3","4","4","4","4","4","4","4","4","4","1","0","1","1","0","0","0","1","0","1","1","0","1","0","1","4","4","3","2","4","1","4","4","4","2","2","799062502875996161","刘","372","","","","","","","","","","","","","","","","","","","","","","","","","","","","","","","","","","","","","","","","","",""
"843","<p style=""color:white; font-size: 35px;"">低能</p>","i","categorize-html","131","217935","0.0-6.0-0.0-8.0-1.11","3","3","3","3","3","3","3","2","3","3","4","2","2","4","3","4","3","3","4","3","4","4","4","4","4","4","4","4","4","1","0","1","1","0","0","0","1","0","1","1","0","1","0","1","4","4","3","2","4","1","4","4","4","2","2","799062502875996161","刘","372","","","","","","","","","","","","","","","","","","","true","4","4","ability","843","negative","低能","","","","","","","","","","","","","","","","",""
"null","","null","html-keyboard-response","132","218186","0.0-6.0-0.0-8.0-0.12","3","3","3","3","3","3","3","2","3","3","4","2","2","4","3","4","3","3","4","3","4","4","4","4","4","4","4","4","4","1","0","1","1","0","0","0","1","0","1","1","0","1","0","1","4","4","3","2","4","1","4","4","4","2","2","799062502875996161","刘","372","","","","","","","","","","","","","","","","","","","","","","","","","","","","","","","","","","","","","","","","","",""
"572","<p style=""color:rgb(150, 250, 100); font-size: 35px;"">我</p>","i","categorize-html","133","218760","0.0-6.0-0.0-8.0-1.12","3","3","3","3","3","3","3","2","3","3","4","2","2","4","3","4","3","3","4","3","4","4","4","4","4","4","4","4","4","1","0","1","1","0","0","0","1","0","1","1","0","1","0","1","4","4","3","2","4","1","4","4","4","2","2","799062502875996161","刘","372","","","","","","","","","","","","","","","","","","","true","4","4","ability","572","self","我","","","","","","","","","","","","","","","","",""
"null","","null","html-keyboard-response","134","219011","0.0-6.0-0.0-8.0-0.13","3","3","3","3","3","3","3","2","3","3","4","2","2","4","3","4","3","3","4","3","4","4","4","4","4","4","4","4","4","1","0","1","1","0","0","0","1","0","1","1","0","1","0","1","4","4","3","2","4","1","4","4","4","2","2","799062502875996161","刘","372","","","","","","","","","","","","","","","","","","","","","","","","","","","","","","","","","","","","","","","","","",""
"553","<p style=""color:white; font-size: 35px;"">废物</p>","i","categorize-html","135","219567","0.0-6.0-0.0-8.0-1.13","3","3","3","3","3","3","3","2","3","3","4","2","2","4","3","4","3","3","4","3","4","4","4","4","4","4","4","4","4","1","0","1","1","0","0","0","1","0","1","1","0","1","0","1","4","4","3","2","4","1","4","4","4","2","2","799062502875996161","刘","372","","","","","","","","","","","","","","","","","","","true","4","4","ability","553","negative","废物","","","","","","","","","","","","","","","","",""
"null","","null","html-keyboard-response","136","219818","0.0-6.0-0.0-8.0-0.14","3","3","3","3","3","3","3","2","3","3","4","2","2","4","3","4","3","3","4","3","4","4","4","4","4","4","4","4","4","1","0","1","1","0","0","0","1","0","1","1","0","1","0","1","4","4","3","2","4","1","4","4","4","2","2","799062502875996161","刘","372","","","","","","","","","","","","","","","","","","","","","","","","","","","","","","","","","","","","","","","","","",""
"434","<p style=""color:rgb(150, 250, 100); font-size: 35px;"">别人</p>","e","categorize-html","137","220254","0.0-6.0-0.0-8.0-1.14","3","3","3","3","3","3","3","2","3","3","4","2","2","4","3","4","3","3","4","3","4","4","4","4","4","4","4","4","4","1","0","1","1","0","0","0","1","0","1","1","0","1","0","1","4","4","3","2","4","1","4","4","4","2","2","799062502875996161","刘","372","","","","","","","","","","","","","","","","","","","true","4","4","ability","434","other","别人","","","","","","","","","","","","","","","","",""
"null","","null","html-keyboard-response","138","220505","0.0-6.0-0.0-8.0-0.15","3","3","3","3","3","3","3","2","3","3","4","2","2","4","3","4","3","3","4","3","4","4","4","4","4","4","4","4","4","1","0","1","1","0","0","0","1","0","1","1","0","1","0","1","4","4","3","2","4","1","4","4","4","2","2","799062502875996161","刘","372","","","","","","","","","","","","","","","","","","","","","","","","","","","","","","","","","","","","","","","","","",""
"328","<p style=""color:white; font-size: 35px;"">高效</p>","e","categorize-html","139","220836","0.0-6.0-0.0-8.0-1.15","3","3","3","3","3","3","3","2","3","3","4","2","2","4","3","4","3","3","4","3","4","4","4","4","4","4","4","4","4","1","0","1","1","0","0","0","1","0","1","1","0","1","0","1","4","4","3","2","4","1","4","4","4","2","2","799062502875996161","刘","372","","","","","","","","","","","","","","","","","","","true","4","4","ability","328","positive","高效","","","","","","","","","","","","","","","","",""
"null","","null","html-keyboard-response","140","221087","0.0-6.0-0.0-8.0-0.16","3","3","3","3","3","3","3","2","3","3","4","2","2","4","3","4","3","3","4","3","4","4","4","4","4","4","4","4","4","1","0","1","1","0","0","0","1","0","1","1","0","1","0","1","4","4","3","2","4","1","4","4","4","2","2","799062502875996161","刘","372","","","","","","","","","","","","","","","","","","","","","","","","","","","","","","","","","","","","","","","","","",""
"408","<p style=""color:rgb(150, 250, 100); font-size: 35px;"">他人的</p>","e","categorize-html","141","221498","0.0-6.0-0.0-8.0-1.16","3","3","3","3","3","3","3","2","3","3","4","2","2","4","3","4","3","3","4","3","4","4","4","4","4","4","4","4","4","1","0","1","1","0","0","0","1","0","1","1","0","1","0","1","4","4","3","2","4","1","4","4","4","2","2","799062502875996161","刘","372","","","","","","","","","","","","","","","","","","","true","4","4","ability","408","other","他人的","","","","","","","","","","","","","","","","",""
"null","","null","html-keyboard-response","142","221750","0.0-6.0-0.0-8.0-0.17","3","3","3","3","3","3","3","2","3","3","4","2","2","4","3","4","3","3","4","3","4","4","4","4","4","4","4","4","4","1","0","1","1","0","0","0","1","0","1","1","0","1","0","1","4","4","3","2","4","1","4","4","4","2","2","799062502875996161","刘","372","","","","","","","","","","","","","","","","","","","","","","","","","","","","","","","","","","","","","","","","","",""
"529","<p style=""color:white; font-size: 35px;"">无能</p>","i","categorize-html","143","222281","0.0-6.0-0.0-8.0-1.17","3","3","3","3","3","3","3","2","3","3","4","2","2","4","3","4","3","3","4","3","4","4","4","4","4","4","4","4","4","1","0","1","1","0","0","0","1","0","1","1","0","1","0","1","4","4","3","2","4","1","4","4","4","2","2","799062502875996161","刘","372","","","","","","","","","","","","","","","","","","","true","4","4","ability","529","negative","无能","","","","","","","","","","","","","","","","",""
"null","","null","html-keyboard-response","144","222533","0.0-6.0-0.0-8.0-0.18","3","3","3","3","3","3","3","2","3","3","4","2","2","4","3","4","3","3","4","3","4","4","4","4","4","4","4","4","4","1","0","1","1","0","0","0","1","0","1","1","0","1","0","1","4","4","3","2","4","1","4","4","4","2","2","799062502875996161","刘","372","","","","","","","","","","","","","","","","","","","","","","","","","","","","","","","","","","","","","","","","","",""
"618","<p style=""color:rgb(150, 250, 100); font-size: 35px;"">我的</p>","i","categorize-html","145","223151","0.0-6.0-0.0-8.0-1.18","3","3","3","3","3","3","3","2","3","3","4","2","2","4","3","4","3","3","4","3","4","4","4","4","4","4","4","4","4","1","0","1","1","0","0","0","1","0","1","1","0","1","0","1","4","4","3","2","4","1","4","4","4","2","2","799062502875996161","刘","372","","","","","","","","","","","","","","","","","","","true","4","4","ability","618","self","我的","","","","","","","","","","","","","","","","",""
"null","","null","html-keyboard-response","146","223403","0.0-6.0-0.0-8.0-0.19","3","3","3","3","3","3","3","2","3","3","4","2","2","4","3","4","3","3","4","3","4","4","4","4","4","4","4","4","4","1","0","1","1","0","0","0","1","0","1","1","0","1","0","1","4","4","3","2","4","1","4","4","4","2","2","799062502875996161","刘","372","","","","","","","","","","","","","","","","","","","","","","","","","","","","","","","","","","","","","","","","","",""
"555","<p style=""color:white; font-size: 35px;"">全能</p>","e","categorize-html","147","223960","0.0-6.0-0.0-8.0-1.19","3","3","3","3","3","3","3","2","3","3","4","2","2","4","3","4","3","3","4","3","4","4","4","4","4","4","4","4","4","1","0","1","1","0","0","0","1","0","1","1","0","1","0","1","4","4","3","2","4","1","4","4","4","2","2","799062502875996161","刘","372","","","","","","","","","","","","","","","","","","","true","4","4","ability","555","positive","全能","","","","","","","","","","","","","","","","",""
"null","","null","html-keyboard-response","148","224211","0.0-6.0-0.0-8.0-0.20","3","3","3","3","3","3","3","2","3","3","4","2","2","4","3","4","3","3","4","3","4","4","4","4","4","4","4","4","4","1","0","1","1","0","0","0","1","0","1","1","0","1","0","1","4","4","3","2","4","1","4","4","4","2","2","799062502875996161","刘","372","","","","","","","","","","","","","","","","","","","","","","","","","","","","","","","","","","","","","","","","","",""
"537","<p style=""color:rgb(150, 250, 100); font-size: 35px;"">本人</p>","i","categorize-html","149","224749","0.0-6.0-0.0-8.0-1.20","3","3","3","3","3","3","3","2","3","3","4","2","2","4","3","4","3","3","4","3","4","4","4","4","4","4","4","4","4","1","0","1","1","0","0","0","1","0","1","1","0","1","0","1","4","4","3","2","4","1","4","4","4","2","2","799062502875996161","刘","372","","","","","","","","","","","","","","","","","","","true","4","4","ability","537","self","本人","","","","","","","","","","","","","","","","",""
"null","","null","html-keyboard-response","150","225001","0.0-6.0-0.0-8.0-0.21","3","3","3","3","3","3","3","2","3","3","4","2","2","4","3","4","3","3","4","3","4","4","4","4","4","4","4","4","4","1","0","1","1","0","0","0","1","0","1","1","0","1","0","1","4","4","3","2","4","1","4","4","4","2","2","799062502875996161","刘","372","","","","","","","","","","","","","","","","","","","","","","","","","","","","","","","","","","","","","","","","","",""
"1271","<p style=""color:white; font-size: 35px;"">天才</p>","e","categorize-html","151","226274","0.0-6.0-0.0-8.0-1.21","3","3","3","3","3","3","3","2","3","3","4","2","2","4","3","4","3","3","4","3","4","4","4","4","4","4","4","4","4","1","0","1","1","0","0","0","1","0","1","1","0","1","0","1","4","4","3","2","4","1","4","4","4","2","2","799062502875996161","刘","372","","","","","","","","","","","","","","","","","","","true","4","4","ability","1271","positive","天才","","","","","","","","","","","","","","","","",""
"null","","null","html-keyboard-response","152","226525","0.0-6.0-0.0-8.0-0.22","3","3","3","3","3","3","3","2","3","3","4","2","2","4","3","4","3","3","4","3","4","4","4","4","4","4","4","4","4","1","0","1","1","0","0","0","1","0","1","1","0","1","0","1","4","4","3","2","4","1","4","4","4","2","2","799062502875996161","刘","372","","","","","","","","","","","","","","","","","","","","","","","","","","","","","","","","","","","","","","","","","",""
"400","<p style=""color:rgb(150, 250, 100); font-size: 35px;"">他</p>","e","categorize-html","153","226927","0.0-6.0-0.0-8.0-1.22","3","3","3","3","3","3","3","2","3","3","4","2","2","4","3","4","3","3","4","3","4","4","4","4","4","4","4","4","4","1","0","1","1","0","0","0","1","0","1","1","0","1","0","1","4","4","3","2","4","1","4","4","4","2","2","799062502875996161","刘","372","","","","","","","","","","","","","","","","","","","true","4","4","ability","400","other","他","","","","","","","","","","","","","","","","",""
"null","","null","html-keyboard-response","154","227178","0.0-6.0-0.0-8.0-0.23","3","3","3","3","3","3","3","2","3","3","4","2","2","4","3","4","3","3","4","3","4","4","4","4","4","4","4","4","4","1","0","1","1","0","0","0","1","0","1","1","0","1","0","1","4","4","3","2","4","1","4","4","4","2","2","799062502875996161","刘","372","","","","","","","","","","","","","","","","","","","","","","","","","","","","","","","","","","","","","","","","","",""
"484","<p style=""color:white; font-size: 35px;"">蠢笨</p>","i","categorize-html","155","227662","0.0-6.0-0.0-8.0-1.23","3","3","3","3","3","3","3","2","3","3","4","2","2","4","3","4","3","3","4","3","4","4","4","4","4","4","4","4","4","1","0","1","1","0","0","0","1","0","1","1","0","1","0","1","4","4","3","2","4","1","4","4","4","2","2","799062502875996161","刘","372","","","","","","","","","","","","","","","","","","","true","4","4","ability","484","negative","蠢笨","","","","","","","","","","","","","","","","",""
"null","","null","html-keyboard-response","156","227913","0.0-6.0-0.0-8.0-0.24","3","3","3","3","3","3","3","2","3","3","4","2","2","4","3","4","3","3","4","3","4","4","4","4","4","4","4","4","4","1","0","1","1","0","0","0","1","0","1","1","0","1","0","1","4","4","3","2","4","1","4","4","4","2","2","799062502875996161","刘","372","","","","","","","","","","","","","","","","","","","","","","","","","","","","","","","","","","","","","","","","","",""
"450","<p style=""color:rgb(150, 250, 100); font-size: 35px;"">本人的</p>","i","categorize-html","157","228366","0.0-6.0-0.0-8.0-1.24","3","3","3","3","3","3","3","2","3","3","4","2","2","4","3","4","3","3","4","3","4","4","4","4","4","4","4","4","4","1","0","1","1","0","0","0","1","0","1","1","0","1","0","1","4","4","3","2","4","1","4","4","4","2","2","799062502875996161","刘","372","","","","","","","","","","","","","","","","","","","true","4","4","ability","450","self","本人的","","","","","","","","","","","","","","","","",""
"null","","null","html-keyboard-response","158","228616","0.0-6.0-0.0-8.0-0.25","3","3","3","3","3","3","3","2","3","3","4","2","2","4","3","4","3","3","4","3","4","4","4","4","4","4","4","4","4","1","0","1","1","0","0","0","1","0","1","1","0","1","0","1","4","4","3","2","4","1","4","4","4","2","2","799062502875996161","刘","372","","","","","","","","","","","","","","","","","","","","","","","","","","","","","","","","","","","","","","","","","",""
"462","<p style=""color:white; font-size: 35px;"">废物</p>","i","categorize-html","159","229081","0.0-6.0-0.0-8.0-1.25","3","3","3","3","3","3","3","2","3","3","4","2","2","4","3","4","3","3","4","3","4","4","4","4","4","4","4","4","4","1","0","1","1","0","0","0","1","0","1","1","0","1","0","1","4","4","3","2","4","1","4","4","4","2","2","799062502875996161","刘","372","","","","","","","","","","","","","","","","","","","true","4","4","ability","462","negative","废物","","","","","","","","","","","","","","","","",""
"null","","null","html-keyboard-response","160","229331","0.0-6.0-0.0-8.0-0.26","3","3","3","3","3","3","3","2","3","3","4","2","2","4","3","4","3","3","4","3","4","4","4","4","4","4","4","4","4","1","0","1","1","0","0","0","1","0","1","1","0","1","0","1","4","4","3","2","4","1","4","4","4","2","2","799062502875996161","刘","372","","","","","","","","","","","","","","","","","","","","","","","","","","","","","","","","","","","","","","","","","",""
"415","<p style=""color:rgb(150, 250, 100); font-size: 35px;"">他的</p>","e","categorize-html","161","229748","0.0-6.0-0.0-8.0-1.26","3","3","3","3","3","3","3","2","3","3","4","2","2","4","3","4","3","3","4","3","4","4","4","4","4","4","4","4","4","1","0","1","1","0","0","0","1","0","1","1","0","1","0","1","4","4","3","2","4","1","4","4","4","2","2","799062502875996161","刘","372","","","","","","","","","","","","","","","","","","","true","4","4","ability","415","other","他的","","","","","","","","","","","","","","","","",""
"null","","null","html-keyboard-response","162","229999","0.0-6.0-0.0-8.0-0.27","3","3","3","3","3","3","3","2","3","3","4","2","2","4","3","4","3","3","4","3","4","4","4","4","4","4","4","4","4","1","0","1","1","0","0","0","1","0","1","1","0","1","0","1","4","4","3","2","4","1","4","4","4","2","2","799062502875996161","刘","372","","","","","","","","","","","","","","","","","","","","","","","","","","","","","","","","","","","","","","","","","",""
"355","<p style=""color:white; font-size: 35px;"">全能</p>","e","categorize-html","163","230356","0.0-6.0-0.0-8.0-1.27","3","3","3","3","3","3","3","2","3","3","4","2","2","4","3","4","3","3","4","3","4","4","4","4","4","4","4","4","4","1","0","1","1","0","0","0","1","0","1","1","0","1","0","1","4","4","3","2","4","1","4","4","4","2","2","799062502875996161","刘","372","","","","","","","","","","","","","","","","","","","true","4","4","ability","355","positive","全能","","","","","","","","","","","","","","","","",""
"null","","null","html-keyboard-response","164","230606","0.0-6.0-0.0-8.0-0.28","3","3","3","3","3","3","3","2","3","3","4","2","2","4","3","4","3","3","4","3","4","4","4","4","4","4","4","4","4","1","0","1","1","0","0","0","1","0","1","1","0","1","0","1","4","4","3","2","4","1","4","4","4","2","2","799062502875996161","刘","372","","","","","","","","","","","","","","","","","","","","","","","","","","","","","","","","","","","","","","","","","",""
"463","<p style=""color:rgb(150, 250, 100); font-size: 35px;"">自己</p>","i","categorize-html","165","231070","0.0-6.0-0.0-8.0-1.28","3","3","3","3","3","3","3","2","3","3","4","2","2","4","3","4","3","3","4","3","4","4","4","4","4","4","4","4","4","1","0","1","1","0","0","0","1","0","1","1","0","1","0","1","4","4","3","2","4","1","4","4","4","2","2","799062502875996161","刘","372","","","","","","","","","","","","","","","","","","","true","4","4","ability","463","self","自己","","","","","","","","","","","","","","","","",""
"null","","null","html-keyboard-response","166","231322","0.0-6.0-0.0-8.0-0.29","3","3","3","3","3","3","3","2","3","3","4","2","2","4","3","4","3","3","4","3","4","4","4","4","4","4","4","4","4","1","0","1","1","0","0","0","1","0","1","1","0","1","0","1","4","4","3","2","4","1","4","4","4","2","2","799062502875996161","刘","372","","","","","","","","","","","","","","","","","","","","","","","","","","","","","","","","","","","","","","","","","",""
"524","<p style=""color:white; font-size: 35px;"">精干</p>","e","categorize-html","167","231848","0.0-6.0-0.0-8.0-1.29","3","3","3","3","3","3","3","2","3","3","4","2","2","4","3","4","3","3","4","3","4","4","4","4","4","4","4","4","4","1","0","1","1","0","0","0","1","0","1","1","0","1","0","1","4","4","3","2","4","1","4","4","4","2","2","799062502875996161","刘","372","","","","","","","","","","","","","","","","","","","true","4","4","ability","524","positive","精干","","","","","","","","","","","","","","","","",""
"null","","null","html-keyboard-response","168","232099","0.0-6.0-0.0-8.0-0.30","3","3","3","3","3","3","3","2","3","3","4","2","2","4","3","4","3","3","4","3","4","4","4","4","4","4","4","4","4","1","0","1","1","0","0","0","1","0","1","1","0","1","0","1","4","4","3","2","4","1","4","4","4","2","2","799062502875996161","刘","372","","","","","","","","","","","","","","","","","","","","","","","","","","","","","","","","","","","","","","","","","",""
"860","<p style=""color:rgb(150, 250, 100); font-size: 35px;"">别人的</p>","e","categorize-html","169","232961","0.0-6.0-0.0-8.0-1.30","3","3","3","3","3","3","3","2","3","3","4","2","2","4","3","4","3","3","4","3","4","4","4","4","4","4","4","4","4","1","0","1","1","0","0","0","1","0","1","1","0","1","0","1","4","4","3","2","4","1","4","4","4","2","2","799062502875996161","刘","372","","","","","","","","","","","","","","","","","","","true","4","4","ability","860","other","别人的","","","","","","","","","","","","","","","","",""
"null","","null","html-keyboard-response","170","233213","0.0-6.0-0.0-8.0-0.31","3","3","3","3","3","3","3","2","3","3","4","2","2","4","3","4","3","3","4","3","4","4","4","4","4","4","4","4","4","1","0","1","1","0","0","0","1","0","1","1","0","1","0","1","4","4","3","2","4","1","4","4","4","2","2","799062502875996161","刘","372","","","","","","","","","","","","","","","","","","","","","","","","","","","","","","","","","","","","","","","","","",""
"503","<p style=""color:white; font-size: 35px;"">愚钝</p>","i","categorize-html","171","233718","0.0-6.0-0.0-8.0-1.31","3","3","3","3","3","3","3","2","3","3","4","2","2","4","3","4","3","3","4","3","4","4","4","4","4","4","4","4","4","1","0","1","1","0","0","0","1","0","1","1","0","1","0","1","4","4","3","2","4","1","4","4","4","2","2","799062502875996161","刘","372","","","","","","","","","","","","","","","","","","","true","4","4","ability","503","negative","愚钝","","","","","","","","","","","","","","","","",""
"null","","null","html-keyboard-response","172","233970","0.0-6.0-0.0-8.0-0.32","3","3","3","3","3","3","3","2","3","3","4","2","2","4","3","4","3","3","4","3","4","4","4","4","4","4","4","4","4","1","0","1","1","0","0","0","1","0","1","1","0","1","0","1","4","4","3","2","4","1","4","4","4","2","2","799062502875996161","刘","372","","","","","","","","","","","","","","","","","","","","","","","","","","","","","","","","","","","","","","","","","",""
"477","<p style=""color:rgb(150, 250, 100); font-size: 35px;"">自己</p>","i","categorize-html","173","234449","0.0-6.0-0.0-8.0-1.32","3","3","3","3","3","3","3","2","3","3","4","2","2","4","3","4","3","3","4","3","4","4","4","4","4","4","4","4","4","1","0","1","1","0","0","0","1","0","1","1","0","1","0","1","4","4","3","2","4","1","4","4","4","2","2","799062502875996161","刘","372","","","","","","","","","","","","","","","","","","","true","4","4","ability","477","self","自己","","","","","","","","","","","","","","","","",""
"null","","null","html-keyboard-response","174","234701","0.0-6.0-0.0-8.0-0.33","3","3","3","3","3","3","3","2","3","3","4","2","2","4","3","4","3","3","4","3","4","4","4","4","4","4","4","4","4","1","0","1","1","0","0","0","1","0","1","1","0","1","0","1","4","4","3","2","4","1","4","4","4","2","2","799062502875996161","刘","372","","","","","","","","","","","","","","","","","","","","","","","","","","","","","","","","","","","","","","","","","",""
"419","<p style=""color:white; font-size: 35px;"">全才</p>","e","categorize-html","175","235122","0.0-6.0-0.0-8.0-1.33","3","3","3","3","3","3","3","2","3","3","4","2","2","4","3","4","3","3","4","3","4","4","4","4","4","4","4","4","4","1","0","1","1","0","0","0","1","0","1","1","0","1","0","1","4","4","3","2","4","1","4","4","4","2","2","799062502875996161","刘","372","","","","","","","","","","","","","","","","","","","true","4","4","ability","419","positive","全才","","","","","","","","","","","","","","","","",""
"null","","null","html-keyboard-response","176","235373","0.0-6.0-0.0-8.0-0.34","3","3","3","3","3","3","3","2","3","3","4","2","2","4","3","4","3","3","4","3","4","4","4","4","4","4","4","4","4","1","0","1","1","0","0","0","1","0","1","1","0","1","0","1","4","4","3","2","4","1","4","4","4","2","2","799062502875996161","刘","372","","","","","","","","","","","","","","","","","","","","","","","","","","","","","","","","","","","","","","","","","",""
"365","<p style=""color:rgb(150, 250, 100); font-size: 35px;"">他人</p>","e","categorize-html","177","235741","0.0-6.0-0.0-8.0-1.34","3","3","3","3","3","3","3","2","3","3","4","2","2","4","3","4","3","3","4","3","4","4","4","4","4","4","4","4","4","1","0","1","1","0","0","0","1","0","1","1","0","1","0","1","4","4","3","2","4","1","4","4","4","2","2","799062502875996161","刘","372","","","","","","","","","","","","","","","","","","","true","4","4","ability","365","other","他人","","","","","","","","","","","","","","","","",""
"null","","null","html-keyboard-response","178","235992","0.0-6.0-0.0-8.0-0.35","3","3","3","3","3","3","3","2","3","3","4","2","2","4","3","4","3","3","4","3","4","4","4","4","4","4","4","4","4","1","0","1","1","0","0","0","1","0","1","1","0","1","0","1","4","4","3","2","4","1","4","4","4","2","2","799062502875996161","刘","372","","","","","","","","","","","","","","","","","","","","","","","","","","","","","","","","","","","","","","","","","",""
"444","<p style=""color:white; font-size: 35px;"">无能</p>","e","categorize-html","179","236842","0.0-6.0-0.0-8.0-1.35","3","3","3","3","3","3","3","2","3","3","4","2","2","4","3","4","3","3","4","3","4","4","4","4","4","4","4","4","4","1","0","1","1","0","0","0","1","0","1","1","0","1","0","1","4","4","3","2","4","1","4","4","4","2","2","799062502875996161","刘","372","","","","","","","","","","","","","","","","","","","false","4","4","ability","1103.840909090909","negative","无能","","","","","","","","","","","","","","","","",""
"null","","null","html-keyboard-response","180","237093","0.0-6.0-0.0-8.0-0.36","3","3","3","3","3","3","3","2","3","3","4","2","2","4","3","4","3","3","4","3","4","4","4","4","4","4","4","4","4","1","0","1","1","0","0","0","1","0","1","1","0","1","0","1","4","4","3","2","4","1","4","4","4","2","2","799062502875996161","刘","372","","","","","","","","","","","","","","","","","","","","","","","","","","","","","","","","","","","","","","","","","",""
"413","<p style=""color:rgb(150, 250, 100); font-size: 35px;"">自己的</p>","i","categorize-html","181","237508","0.0-6.0-0.0-8.0-1.36","3","3","3","3","3","3","3","2","3","3","4","2","2","4","3","4","3","3","4","3","4","4","4","4","4","4","4","4","4","1","0","1","1","0","0","0","1","0","1","1","0","1","0","1","4","4","3","2","4","1","4","4","4","2","2","799062502875996161","刘","372","","","","","","","","","","","","","","","","","","","true","4","4","ability","413","self","自己的","","","","","","","","","","","","","","","","",""
"null","","null","html-keyboard-response","182","237760","0.0-6.0-0.0-8.0-0.37","3","3","3","3","3","3","3","2","3","3","4","2","2","4","3","4","3","3","4","3","4","4","4","4","4","4","4","4","4","1","0","1","1","0","0","0","1","0","1","1","0","1","0","1","4","4","3","2","4","1","4","4","4","2","2","799062502875996161","刘","372","","","","","","","","","","","","","","","","","","","","","","","","","","","","","","","","","","","","","","","","","",""
"491","<p style=""color:white; font-size: 35px;"">愚钝</p>","i","categorize-html","183","238253","0.0-6.0-0.0-8.0-1.37","3","3","3","3","3","3","3","2","3","3","4","2","2","4","3","4","3","3","4","3","4","4","4","4","4","4","4","4","4","1","0","1","1","0","0","0","1","0","1","1","0","1","0","1","4","4","3","2","4","1","4","4","4","2","2","799062502875996161","刘","372","","","","","","","","","","","","","","","","","","","true","4","4","ability","491","negative","愚钝","","","","","","","","","","","","","","","","",""
"null","","null","html-keyboard-response","184","238504","0.0-6.0-0.0-8.0-0.38","3","3","3","3","3","3","3","2","3","3","4","2","2","4","3","4","3","3","4","3","4","4","4","4","4","4","4","4","4","1","0","1","1","0","0","0","1","0","1","1","0","1","0","1","4","4","3","2","4","1","4","4","4","2","2","799062502875996161","刘","372","","","","","","","","","","","","","","","","","","","","","","","","","","","","","","","","","","","","","","","","","",""
"379","<p style=""color:rgb(150, 250, 100); font-size: 35px;"">他人</p>","e","categorize-html","185","238884","0.0-6.0-0.0-8.0-1.38","3","3","3","3","3","3","3","2","3","3","4","2","2","4","3","4","3","3","4","3","4","4","4","4","4","4","4","4","4","1","0","1","1","0","0","0","1","0","1","1","0","1","0","1","4","4","3","2","4","1","4","4","4","2","2","799062502875996161","刘","372","","","","","","","","","","","","","","","","","","","true","4","4","ability","379","other","他人","","","","","","","","","","","","","","","","",""
"null","","null","html-keyboard-response","186","239136","0.0-6.0-0.0-8.0-0.39","3","3","3","3","3","3","3","2","3","3","4","2","2","4","3","4","3","3","4","3","4","4","4","4","4","4","4","4","4","1","0","1","1","0","0","0","1","0","1","1","0","1","0","1","4","4","3","2","4","1","4","4","4","2","2","799062502875996161","刘","372","","","","","","","","","","","","","","","","","","","","","","","","","","","","","","","","","","","","","","","","","",""
"293","<p style=""color:white; font-size: 35px;"">全才</p>","e","categorize-html","187","239431","0.0-6.0-0.0-8.0-1.39","3","3","3","3","3","3","3","2","3","3","4","2","2","4","3","4","3","3","4","3","4","4","4","4","4","4","4","4","4","1","0","1","1","0","0","0","1","0","1","1","0","1","0","1","4","4","3","2","4","1","4","4","4","2","2","799062502875996161","刘","372","","","","","","","","","","","","","","","","","","","true","4","4","ability","293","positive","全才","","","","","","","","","","","","","","","","",""
"null","","null","html-keyboard-response","188","239683","0.0-6.0-0.0-8.0-0.40","3","3","3","3","3","3","3","2","3","3","4","2","2","4","3","4","3","3","4","3","4","4","4","4","4","4","4","4","4","1","0","1","1","0","0","0","1","0","1","1","0","1","0","1","4","4","3","2","4","1","4","4","4","2","2","799062502875996161","刘","372","","","","","","","","","","","","","","","","","","","","","","","","","","","","","","","","","","","","","","","","","",""
"412","<p style=""color:rgb(150, 250, 100); font-size: 35px;"">我</p>","i","categorize-html","189","240096","0.0-6.0-0.0-8.0-1.40","3","3","3","3","3","3","3","2","3","3","4","2","2","4","3","4","3","3","4","3","4","4","4","4","4","4","4","4","4","1","0","1","1","0","0","0","1","0","1","1","0","1","0","1","4","4","3","2","4","1","4","4","4","2","2","799062502875996161","刘","372","","","","","","","","","","","","","","","","","","","true","4","4","ability","412","self","我","","","","","","","","","","","","","","","","",""
"null","","null","html-keyboard-response","190","240348","0.0-6.0-0.0-8.0-0.41","3","3","3","3","3","3","3","2","3","3","4","2","2","4","3","4","3","3","4","3","4","4","4","4","4","4","4","4","4","1","0","1","1","0","0","0","1","0","1","1","0","1","0","1","4","4","3","2","4","1","4","4","4","2","2","799062502875996161","刘","372","","","","","","","","","","","","","","","","","","","","","","","","","","","","","","","","","","","","","","","","","",""
"353","<p style=""color:white; font-size: 35px;"">蠢笨</p>","i","categorize-html","191","240704","0.0-6.0-0.0-8.0-1.41","3","3","3","3","3","3","3","2","3","3","4","2","2","4","3","4","3","3","4","3","4","4","4","4","4","4","4","4","4","1","0","1","1","0","0","0","1","0","1","1","0","1","0","1","4","4","3","2","4","1","4","4","4","2","2","799062502875996161","刘","372","","","","","","","","","","","","","","","","","","","true","4","4","ability","353","negative","蠢笨","","","","","","","","","","","","","","","","",""
"null","","null","html-keyboard-response","192","240955","0.0-6.0-0.0-8.0-0.42","3","3","3","3","3","3","3","2","3","3","4","2","2","4","3","4","3","3","4","3","4","4","4","4","4","4","4","4","4","1","0","1","1","0","0","0","1","0","1","1","0","1","0","1","4","4","3","2","4","1","4","4","4","2","2","799062502875996161","刘","372","","","","","","","","","","","","","","","","","","","","","","","","","","","","","","","","","","","","","","","","","",""
"492","<p style=""color:rgb(150, 250, 100); font-size: 35px;"">他的</p>","e","categorize-html","193","241448","0.0-6.0-0.0-8.0-1.42","3","3","3","3","3","3","3","2","3","3","4","2","2","4","3","4","3","3","4","3","4","4","4","4","4","4","4","4","4","1","0","1","1","0","0","0","1","0","1","1","0","1","0","1","4","4","3","2","4","1","4","4","4","2","2","799062502875996161","刘","372","","","","","","","","","","","","","","","","","","","true","4","4","ability","492","other","他的","","","","","","","","","","","","","","","","",""
