"rt","stimulus","response","trial_type","trial_index","time_elapsed","internal_node_id","ses_1","ses_2","ses_3","ses_4","ses_5","ses_6","ses_7","ses_8","ses_9","ses_10","coreself_1","coreself_2","coreself_3","coreself_4","coreself_5","coreself_6","coreself_7","coreself_8","coreself_9","coreself_10","SGPS_1","SGPS_2","SGPS_3","SGPS_4","SGPS_5","SGPS_6","SGPS_7","SGPS_8","SGPS_9","NPI1","NPI2","NPI3","NPI4","NPI5","NPI6","NPI7","NPI8","NPI9","NPI10","NPI11","NPI12","NPI13","NPI14","NPI15","hsns_1","hsns_2","hsns_3","hsns_4","hsns_5","trap1","hsns_6","hsns_7","hsns_8","hsns_9","hsns_10","subj_idx","friend_name","ParticipantID","value","success","user_agent","responses","item_order","radio_event_ids","radio_event_times","key_event_times","mouse_event_times","straightlining","zigzagging","honeypot","timeout","failed_images","failed_audio","failed_video","view_history","response_type","key_press","avg_frame_time","center_x","center_y","correct_response","correct","identity","Image","word","condition","task_id","screen_id","time_stamp","version_attrib","version_target","IAT","RT","varname","summary","version_attrib2","version_target2","question_order","correct_answer","trap1_item"
"11222","
   <p><div style = ""color: white;font-size:25px;"">您好，欢迎参加本次实验。</div> </p>
   <p><div style = ""color: white;font-size:25px;"">为充分保障您的权利，请确保您已经知晓并同意《参与实验同意书》以及《数据公开知情同意书》。</div></p>
   <p><div style = ""color: white;font-size:25px;"">如果您未见过上述内容，请咨询实验员。</div></p>
   <p><div style = ""color: white;font-size:25px;"">如果您选择继续实验，则表示您已经清楚两份知情同意书的内容并同意。</div></p>
   <p><div style = ""color: pink;font-size:30px;"">请确保您记得day0的实验编号，您将在本次实验输入该编号，若您忘记，请咨询实验员后作答。</div></p>
   <p><div style = ""color: lightblue;font-size:25px;"">请您尽可能认真地作答，我们将依据您在各问卷和按键任务中的作答质量发放报酬。</div></p>
   <p> <div style = ""color: green;font-size:25px;""><按空格键至下页></div> </p>
   "," ","html-keyboard-response","0","11229","0.0-0.0","3","4","3","3","3","4","3","2","3","3","4","4","4","4","4","5","4","4","4","4","2","1","2","2","2","2","2","4","2","0","1","0","0","0","0","0","1","0","0","0","1","0","0","0","4","2","2","2","1","4","4","5","4","4","2","763057227551739906","颜","374","","","","","","","","","","","","","","","","","","","","","","","","","","","","","","","","","","","","","","","","","",""
"","","","call-function","1","11231","0.0-1.0-0.0","3","4","3","3","3","4","3","2","3","3","4","4","4","4","4","5","4","4","4","4","2","1","2","2","2","2","2","4","2","0","1","0","0","0","0","0","1","0","0","0","1","0","0","0","4","2","2","2","1","4","4","5","4","4","2","763057227551739906","颜","374","","","","","","","","","","","","","","","","","","","","","","","","","","","","","","","","","","","","","","","","","",""
"43239","","{""friend_name"":""颜"",""ParticipantID"":""374""}","survey-html-form","2","54472","0.0-1.0-1.0","3","4","3","3","3","4","3","2","3","3","4","4","4","4","4","5","4","4","4","4","2","1","2","2","2","2","2","4","2","0","1","0","0","0","0","0","1","0","0","0","1","0","0","0","4","2","2","2","1","4","4","5","4","4","2","763057227551739906","颜","374","","","","","","","","","","","","","","","","","","","","","","","","","","","","","","","","","","","","","","","","","",""
"","","","fullscreen","3","57134","0.0-2.0","3","4","3","3","3","4","3","2","3","3","4","4","4","4","4","5","4","4","4","4","2","1","2","2","2","2","2","4","2","0","1","0","0","0","0","0","1","0","0","0","1","0","0","0","4","2","2","2","1","4","4","5","4","4","2","763057227551739906","颜","374","","true","{}","","","","","","","","","","","","","","","","","","","","","","","","","","","","","","","","","","","","","","",""
"13301.5","","{""Q01"":""3"",""Q02"":""4"",""Q03"":""3"",""Q04"":""3"",""Q05"":""3"",""Q06"":""4"",""Q07"":""3"",""Q08"":""2"",""Q09"":""3"",""Q10"":""3""}","survey-template","4","70442","0.0-3.0","3","4","3","3","3","4","3","2","3","3","4","4","4","4","4","5","4","4","4","4","2","1","2","2","2","2","2","4","2","0","1","0","0","0","0","0","1","0","0","0","1","0","0","0","4","2","2","2","1","4","4","5","4","4","2","763057227551739906","颜","374","","","","{""Q01"":""3"",""Q02"":""4"",""Q03"":""3"",""Q04"":""3"",""Q05"":""3"",""Q06"":""4"",""Q07"":""3"",""Q08"":""2"",""Q09"":""3"",""Q10"":""3""}","[0,1,2,3,4,5,6,7,8,9]","[""Q01"",""Q02"",""Q03"",""Q04"",""Q05"",""Q06"",""Q07"",""Q08"",""Q09"",""Q10""]","[2684.5,3627.2999999970198,5099.099999997765,5859.29999999702,7059,7979.599999997765,9331.199999999255,10163.199999999255,11203.29999999702,12491.199999999255]","[]","[2684.5,3627.2999999970198,5099.099999997765,5859.29999999702,7059,7979.599999997765,9331.199999999255,10163.199999999255,11203.29999999702,12003.199999999255,12491.199999999255,13299.199999999255]","0.4","0.5555555555555556","0","","","","","","","","","","","","","","","","","","","","","","","","","","","","","",""
"16348.099999997765","","{""Q01"":""4"",""Q02"":""4"",""Q03"":""4"",""Q04"":""4"",""Q05"":""4"",""Q06"":""5"",""Q07"":""4"",""Q08"":""4"",""Q09"":""4"",""Q10"":""4""}","survey-template","5","86803","0.0-4.0","3","4","3","3","3","4","3","2","3","3","4","4","4","4","4","5","4","4","4","4","2","1","2","2","2","2","2","4","2","0","1","0","0","0","0","0","1","0","0","0","1","0","0","0","4","2","2","2","1","4","4","5","4","4","2","763057227551739906","颜","374","","","","{""Q01"":""4"",""Q02"":""4"",""Q03"":""4"",""Q04"":""4"",""Q05"":""4"",""Q06"":""5"",""Q07"":""4"",""Q08"":""4"",""Q09"":""4"",""Q10"":""4""}","[0,1,2,3,4,5,6,7,8,9]","[""Q01"",""Q02"",""Q03"",""Q04"",""Q05"",""Q06"",""Q07"",""Q08"",""Q09"",""Q10""]","[1809.699999999255,2729.5,4217.199999999255,7881.699999999255,8842.5,10409.699999999255,11617.300000000745,13897.699999999255,14825.699999999255,15721.599999997765]","[]","[1809.699999999255,2729.5,4217.199999999255,5977.699999999255,7881.699999999255,8842.5,10409.699999999255,11617.300000000745,13113.699999999255,13897.699999999255,14825.699999999255,15721.599999997765,16345.39999999851]","0.6","0","0","","","","","","","","","","","","","","","","","","","","","","","","","","","","","",""
"","","","preload","6","87126","0.0-5.0","3","4","3","3","3","4","3","2","3","3","4","4","4","4","4","5","4","4","4","4","2","1","2","2","2","2","2","4","2","0","1","0","0","0","0","0","1","0","0","0","1","0","0","0","4","2","2","2","1","4","4","5","4","4","2","763057227551739906","颜","374","","true","","","","","","","","","","","false","[]","[]","[]","","","","","","","","","","","","","","","","","","","","","","","","","",""
"23215","","","instructions","7","110343","0.0-6.0","3","4","3","3","3","4","3","2","3","3","4","4","4","4","4","5","4","4","4","4","2","1","2","2","2","2","2","4","2","0","1","0","0","0","0","0","1","0","0","0","1","0","0","0","4","2","2","2","1","4","4","5","4","4","2","763057227551739906","颜","374","","","","","","","","","","","","","","","","","[{""page_index"":0,""viewing_time"":23214}]","","","","","","","","","","","","","","","","","","","","","","","","",""
"58109","","","instructions","8","168455","0.0-7.0-0.0-0.0","3","4","3","3","3","4","3","2","3","3","4","4","4","4","4","5","4","4","4","4","2","1","2","2","2","2","2","4","2","0","1","0","0","0","0","0","1","0","0","0","1","0","0","0","4","2","2","2","1","4","4","5","4","4","2","763057227551739906","颜","374","","","","","","","","","","","","","","","","","[{""page_index"":0,""viewing_time"":46941},{""page_index"":1,""viewing_time"":9050},{""page_index"":2,""viewing_time"":2118}]","","","","","","","","","","","","","","","","","","","","","","","","",""
"789","","f","psychophysics","9","170251","0.0-7.0-0.0-1.0-0.0-0.0","3","4","3","3","3","4","3","2","3","3","4","4","4","4","4","5","4","4","4","4","2","1","2","2","2","2","2","4","2","0","1","0","0","0","0","0","1","0","0","0","1","0","0","0","4","2","2","2","1","4","4","5","4","4","2","763057227551739906","颜","374","","","","match","","","","","","","","","","","","","","key","f","16.667084905660474","683","380","j","false","nonmatch","img/pentagon.png","梯形","五边","ALT1_1","prac_ALT1_1","","","","","","","","","","","",""
"null","<span style='color:red; font-size: 70px;'>错误! </span>","null","html-keyboard-response","10","170754","0.0-7.0-0.0-1.0-0.0-1.0","3","4","3","3","3","4","3","2","3","3","4","4","4","4","4","5","4","4","4","4","2","1","2","2","2","2","2","4","2","0","1","0","0","0","0","0","1","0","0","0","1","0","0","0","4","2","2","2","1","4","4","5","4","4","2","763057227551739906","颜","374","","","","","","","","","","","","","","","","","","","","","","","","","","","","","","feedback_test","","","","","","","","","","","",""
"290","","j","psychophysics","11","172047","0.0-7.0-0.0-1.0-0.0-0.1","3","4","3","3","3","4","3","2","3","3","4","4","4","4","4","5","4","4","4","4","2","1","2","2","2","2","2","4","2","0","1","0","0","0","0","0","1","0","0","0","1","0","0","0","4","2","2","2","1","4","4","5","4","4","2","763057227551739906","颜","374","","","","nonmatch","","","","","","","","","","","","","","key","j","16.66761842105265","683","380","f","false","match","img/diamond.png","菱形","菱形","ALT1_1","prac_ALT1_1","","","","","","","","","","","",""
"null","<span style='color:red; font-size: 70px;'>错误! </span>","null","html-keyboard-response","12","172550","0.0-7.0-0.0-1.0-0.0-1.1","3","4","3","3","3","4","3","2","3","3","4","4","4","4","4","5","4","4","4","4","2","1","2","2","2","2","2","4","2","0","1","0","0","0","0","0","1","0","0","0","1","0","0","0","4","2","2","2","1","4","4","5","4","4","2","763057227551739906","颜","374","","","","","","","","","","","","","","","","","","","","","","","","","","","","","","feedback_test","","","","","","","","","","","",""
"223","","f","psychophysics","13","173775","0.0-7.0-0.0-1.0-0.0-0.2","3","4","3","3","3","4","3","2","3","3","4","4","4","4","4","5","4","4","4","4","2","1","2","2","2","2","2","4","2","0","1","0","0","0","0","0","1","0","0","0","1","0","0","0","4","2","2","2","1","4","4","5","4","4","2","763057227551739906","颜","374","","","","match","","","","","","","","","","","","","","key","f","16.666152777778027","683","380","f","true","match","img/pentagon.png","五边","五边","ALT1_1","prac_ALT1_1","","","","","","","","","","","",""
"null","<span style='color:GreenYellow; font-size: 70px;'>正确! </span>","null","html-keyboard-response","14","174277","0.0-7.0-0.0-1.0-0.0-1.2","3","4","3","3","3","4","3","2","3","3","4","4","4","4","4","5","4","4","4","4","2","1","2","2","2","2","2","4","2","0","1","0","0","0","0","0","1","0","0","0","1","0","0","0","4","2","2","2","1","4","4","5","4","4","2","763057227551739906","颜","374","","","","","","","","","","","","","","","","","","","","","","","","","","","","","","feedback_test","","","","","","","","","","","",""
"282","","f","psychophysics","15","175562","0.0-7.0-0.0-1.0-0.0-0.3","3","4","3","3","3","4","3","2","3","3","4","4","4","4","4","5","4","4","4","4","2","1","2","2","2","2","2","4","2","0","1","0","0","0","0","0","1","0","0","0","1","0","0","0","4","2","2","2","1","4","4","5","4","4","2","763057227551739906","颜","374","","","","match","","","","","","","","","","","","","","key","f","16.667763157894736","683","380","j","false","nonmatch","img/trapezoid.png","菱形","梯形","ALT1_1","prac_ALT1_1","","","","","","","","","","","",""
"null","<span style='color:red; font-size: 70px;'>错误! </span>","null","html-keyboard-response","16","176064","0.0-7.0-0.0-1.0-0.0-1.3","3","4","3","3","3","4","3","2","3","3","4","4","4","4","4","5","4","4","4","4","2","1","2","2","2","2","2","4","2","0","1","0","0","0","0","0","1","0","0","0","1","0","0","0","4","2","2","2","1","4","4","5","4","4","2","763057227551739906","颜","374","","","","","","","","","","","","","","","","","","","","","","","","","","","","","","feedback_test","","","","","","","","","","","",""
"248","","j","psychophysics","17","177315","0.0-7.0-0.0-1.0-0.0-0.4","3","4","3","3","3","4","3","2","3","3","4","4","4","4","4","5","4","4","4","4","2","1","2","2","2","2","2","4","2","0","1","0","0","0","0","0","1","0","0","0","1","0","0","0","4","2","2","2","1","4","4","5","4","4","2","763057227551739906","颜","374","","","","nonmatch","","","","","","","","","","","","","","key","j","16.66627027027032","683","380","j","true","nonmatch","img/ellipse.png","菱形","椭圆","ALT1_1","prac_ALT1_1","","","","","","","","","","","",""
"null","<span style='color:GreenYellow; font-size: 70px;'>正确! </span>","null","html-keyboard-response","18","177817","0.0-7.0-0.0-1.0-0.0-1.4","3","4","3","3","3","4","3","2","3","3","4","4","4","4","4","5","4","4","4","4","2","1","2","2","2","2","2","4","2","0","1","0","0","0","0","0","1","0","0","0","1","0","0","0","4","2","2","2","1","4","4","5","4","4","2","763057227551739906","颜","374","","","","","","","","","","","","","","","","","","","","","","","","","","","","","","feedback_test","","","","","","","","","","","",""
"299","","f","psychophysics","19","179119","0.0-7.0-0.0-1.0-0.0-0.5","3","4","3","3","3","4","3","2","3","3","4","4","4","4","4","5","4","4","4","4","2","1","2","2","2","2","2","4","2","0","1","0","0","0","0","0","1","0","0","0","1","0","0","0","4","2","2","2","1","4","4","5","4","4","2","763057227551739906","颜","374","","","","match","","","","","","","","","","","","","","key","f","16.66514285714305","683","380","j","false","nonmatch","img/diamond.png","椭圆","菱形","ALT1_1","prac_ALT1_1","","","","","","","","","","","",""
"null","<span style='color:red; font-size: 70px;'>错误! </span>","null","html-keyboard-response","20","179620","0.0-7.0-0.0-1.0-0.0-1.5","3","4","3","3","3","4","3","2","3","3","4","4","4","4","4","5","4","4","4","4","2","1","2","2","2","2","2","4","2","0","1","0","0","0","0","0","1","0","0","0","1","0","0","0","4","2","2","2","1","4","4","5","4","4","2","763057227551739906","颜","374","","","","","","","","","","","","","","","","","","","","","","","","","","","","","","feedback_test","","","","","","","","","","","",""
"260","","j","psychophysics","21","180883","0.0-7.0-0.0-1.0-0.0-0.6","3","4","3","3","3","4","3","2","3","3","4","4","4","4","4","5","4","4","4","4","2","1","2","2","2","2","2","4","2","0","1","0","0","0","0","0","1","0","0","0","1","0","0","0","4","2","2","2","1","4","4","5","4","4","2","763057227551739906","颜","374","","","","nonmatch","","","","","","","","","","","","","","key","j","16.66709333333342","683","380","j","true","nonmatch","img/trapezoid.png","椭圆","梯形","ALT1_1","prac_ALT1_1","","","","","","","","","","","",""
"null","<span style='color:GreenYellow; font-size: 70px;'>正确! </span>","null","html-keyboard-response","22","181385","0.0-7.0-0.0-1.0-0.0-1.6","3","4","3","3","3","4","3","2","3","3","4","4","4","4","4","5","4","4","4","4","2","1","2","2","2","2","2","4","2","0","1","0","0","0","0","0","1","0","0","0","1","0","0","0","4","2","2","2","1","4","4","5","4","4","2","763057227551739906","颜","374","","","","","","","","","","","","","","","","","","","","","","","","","","","","","","feedback_test","","","","","","","","","","","",""
"271","","f","psychophysics","23","182658","0.0-7.0-0.0-1.0-0.0-0.7","3","4","3","3","3","4","3","2","3","3","4","4","4","4","4","5","4","4","4","4","2","1","2","2","2","2","2","4","2","0","1","0","0","0","0","0","1","0","0","0","1","0","0","0","4","2","2","2","1","4","4","5","4","4","2","763057227551739906","颜","374","","","","match","","","","","","","","","","","","","","key","f","16.6671199999998","683","380","f","true","match","img/diamond.png","菱形","菱形","ALT1_1","prac_ALT1_1","","","","","","","","","","","",""
"null","<span style='color:GreenYellow; font-size: 70px;'>正确! </span>","null","html-keyboard-response","24","183161","0.0-7.0-0.0-1.0-0.0-1.7","3","4","3","3","3","4","3","2","3","3","4","4","4","4","4","5","4","4","4","4","2","1","2","2","2","2","2","4","2","0","1","0","0","0","0","0","1","0","0","0","1","0","0","0","4","2","2","2","1","4","4","5","4","4","2","763057227551739906","颜","374","","","","","","","","","","","","","","","","","","","","","","","","","","","","","","feedback_test","","","","","","","","","","","",""
"261","","j","psychophysics","25","184426","0.0-7.0-0.0-1.0-0.0-0.8","3","4","3","3","3","4","3","2","3","3","4","4","4","4","4","5","4","4","4","4","2","1","2","2","2","2","2","4","2","0","1","0","0","0","0","0","1","0","0","0","1","0","0","0","4","2","2","2","1","4","4","5","4","4","2","763057227551739906","颜","374","","","","nonmatch","","","","","","","","","","","","","","key","j","16.667533333333363","683","380","f","false","match","img/trapezoid.png","梯形","梯形","ALT1_1","prac_ALT1_1","","","","","","","","","","","",""
"null","<span style='color:red; font-size: 70px;'>错误! </span>","null","html-keyboard-response","26","184929","0.0-7.0-0.0-1.0-0.0-1.8","3","4","3","3","3","4","3","2","3","3","4","4","4","4","4","5","4","4","4","4","2","1","2","2","2","2","2","4","2","0","1","0","0","0","0","0","1","0","0","0","1","0","0","0","4","2","2","2","1","4","4","5","4","4","2","763057227551739906","颜","374","","","","","","","","","","","","","","","","","","","","","","","","","","","","","","feedback_test","","","","","","","","","","","",""
"380","","f","psychophysics","27","186311","0.0-7.0-0.0-1.0-0.0-0.9","3","4","3","3","3","4","3","2","3","3","4","4","4","4","4","5","4","4","4","4","2","1","2","2","2","2","2","4","2","0","1","0","0","0","0","0","1","0","0","0","1","0","0","0","4","2","2","2","1","4","4","5","4","4","2","763057227551739906","颜","374","","","","match","","","","","","","","","","","","","","key","f","16.666567901234547","683","380","j","false","nonmatch","img/diamond.png","梯形","菱形","ALT1_1","prac_ALT1_1","","","","","","","","","","","",""
"null","<span style='color:red; font-size: 70px;'>错误! </span>","null","html-keyboard-response","28","186812","0.0-7.0-0.0-1.0-0.0-1.9","3","4","3","3","3","4","3","2","3","3","4","4","4","4","4","5","4","4","4","4","2","1","2","2","2","2","2","4","2","0","1","0","0","0","0","0","1","0","0","0","1","0","0","0","4","2","2","2","1","4","4","5","4","4","2","763057227551739906","颜","374","","","","","","","","","","","","","","","","","","","","","","","","","","","","","","feedback_test","","","","","","","","","","","",""
"241","","j","psychophysics","29","188055","0.0-7.0-0.0-1.0-0.0-0.10","3","4","3","3","3","4","3","2","3","3","4","4","4","4","4","5","4","4","4","4","2","1","2","2","2","2","2","4","2","0","1","0","0","0","0","0","1","0","0","0","1","0","0","0","4","2","2","2","1","4","4","5","4","4","2","763057227551739906","颜","374","","","","nonmatch","","","","","","","","","","","","","","key","j","16.666986301369896","683","380","j","true","nonmatch","img/trapezoid.png","五边","梯形","ALT1_1","prac_ALT1_1","","","","","","","","","","","",""
"null","<span style='color:GreenYellow; font-size: 70px;'>正确! </span>","null","html-keyboard-response","30","188558","0.0-7.0-0.0-1.0-0.0-1.10","3","4","3","3","3","4","3","2","3","3","4","4","4","4","4","5","4","4","4","4","2","1","2","2","2","2","2","4","2","0","1","0","0","0","0","0","1","0","0","0","1","0","0","0","4","2","2","2","1","4","4","5","4","4","2","763057227551739906","颜","374","","","","","","","","","","","","","","","","","","","","","","","","","","","","","","feedback_test","","","","","","","","","","","",""
"329","","j","psychophysics","31","189891","0.0-7.0-0.0-1.0-0.0-0.11","3","4","3","3","3","4","3","2","3","3","4","4","4","4","4","5","4","4","4","4","2","1","2","2","2","2","2","4","2","0","1","0","0","0","0","0","1","0","0","0","1","0","0","0","4","2","2","2","1","4","4","5","4","4","2","763057227551739906","颜","374","","","","nonmatch","","","","","","","","","","","","","","key","j","16.6670379746835","683","380","f","false","match","img/trapezoid.png","梯形","梯形","ALT1_1","prac_ALT1_1","","","","","","","","","","","",""
"null","<span style='color:red; font-size: 70px;'>错误! </span>","null","html-keyboard-response","32","190393","0.0-7.0-0.0-1.0-0.0-1.11","3","4","3","3","3","4","3","2","3","3","4","4","4","4","4","5","4","4","4","4","2","1","2","2","2","2","2","4","2","0","1","0","0","0","0","0","1","0","0","0","1","0","0","0","4","2","2","2","1","4","4","5","4","4","2","763057227551739906","颜","374","","","","","","","","","","","","","","","","","","","","","","","","","","","","","","feedback_test","","","","","","","","","","","",""
"268","","f","psychophysics","33","191664","0.0-7.0-0.0-1.0-0.0-0.12","3","4","3","3","3","4","3","2","3","3","4","4","4","4","4","5","4","4","4","4","2","1","2","2","2","2","2","4","2","0","1","0","0","0","0","0","1","0","0","0","1","0","0","0","4","2","2","2","1","4","4","5","4","4","2","763057227551739906","颜","374","","","","match","","","","","","","","","","","","","","key","f","16.667131578947238","683","380","j","false","nonmatch","img/diamond.png","五边","菱形","ALT1_1","prac_ALT1_1","","","","","","","","","","","",""
"null","<span style='color:red; font-size: 70px;'>错误! </span>","null","html-keyboard-response","34","192167","0.0-7.0-0.0-1.0-0.0-1.12","3","4","3","3","3","4","3","2","3","3","4","4","4","4","4","5","4","4","4","4","2","1","2","2","2","2","2","4","2","0","1","0","0","0","0","0","1","0","0","0","1","0","0","0","4","2","2","2","1","4","4","5","4","4","2","763057227551739906","颜","374","","","","","","","","","","","","","","","","","","","","","","","","","","","","","","feedback_test","","","","","","","","","","","",""
"347","","j","psychophysics","35","193516","0.0-7.0-0.0-1.0-0.0-0.13","3","4","3","3","3","4","3","2","3","3","4","4","4","4","4","5","4","4","4","4","2","1","2","2","2","2","2","4","2","0","1","0","0","0","0","0","1","0","0","0","1","0","0","0","4","2","2","2","1","4","4","5","4","4","2","763057227551739906","颜","374","","","","nonmatch","","","","","","","","","","","","","","key","j","16.665999999999986","683","380","f","false","match","img/ellipse.png","椭圆","椭圆","ALT1_1","prac_ALT1_1","","","","","","","","","","","",""
"null","<span style='color:red; font-size: 70px;'>错误! </span>","null","html-keyboard-response","36","194019","0.0-7.0-0.0-1.0-0.0-1.13","3","4","3","3","3","4","3","2","3","3","4","4","4","4","4","5","4","4","4","4","2","1","2","2","2","2","2","4","2","0","1","0","0","0","0","0","1","0","0","0","1","0","0","0","4","2","2","2","1","4","4","5","4","4","2","763057227551739906","颜","374","","","","","","","","","","","","","","","","","","","","","","","","","","","","","","feedback_test","","","","","","","","","","","",""
"315","","j","psychophysics","37","195336","0.0-7.0-0.0-1.0-0.0-0.14","3","4","3","3","3","4","3","2","3","3","4","4","4","4","4","5","4","4","4","4","2","1","2","2","2","2","2","4","2","0","1","0","0","0","0","0","1","0","0","0","1","0","0","0","4","2","2","2","1","4","4","5","4","4","2","763057227551739906","颜","374","","","","nonmatch","","","","","","","","","","","","","","key","j","16.667038461538585","683","380","f","false","match","img/pentagon.png","五边","五边","ALT1_1","prac_ALT1_1","","","","","","","","","","","",""
"null","<span style='color:red; font-size: 70px;'>错误! </span>","null","html-keyboard-response","38","195839","0.0-7.0-0.0-1.0-0.0-1.14","3","4","3","3","3","4","3","2","3","3","4","4","4","4","4","5","4","4","4","4","2","1","2","2","2","2","2","4","2","0","1","0","0","0","0","0","1","0","0","0","1","0","0","0","4","2","2","2","1","4","4","5","4","4","2","763057227551739906","颜","374","","","","","","","","","","","","","","","","","","","","","","","","","","","","","","feedback_test","","","","","","","","","","","",""
"258","","f","psychophysics","39","197100","0.0-7.0-0.0-1.0-0.0-0.15","3","4","3","3","3","4","3","2","3","3","4","4","4","4","4","5","4","4","4","4","2","1","2","2","2","2","2","4","2","0","1","0","0","0","0","0","1","0","0","0","1","0","0","0","4","2","2","2","1","4","4","5","4","4","2","763057227551739906","颜","374","","","","match","","","","","","","","","","","","","","key","f","16.667960000000118","683","380","f","true","match","img/pentagon.png","五边","五边","ALT1_1","prac_ALT1_1","","","","","","","","","","","",""
"null","<span style='color:GreenYellow; font-size: 70px;'>正确! </span>","null","html-keyboard-response","40","197603","0.0-7.0-0.0-1.0-0.0-1.15","3","4","3","3","3","4","3","2","3","3","4","4","4","4","4","5","4","4","4","4","2","1","2","2","2","2","2","4","2","0","1","0","0","0","0","0","1","0","0","0","1","0","0","0","4","2","2","2","1","4","4","5","4","4","2","763057227551739906","颜","374","","","","","","","","","","","","","","","","","","","","","","","","","","","","","","feedback_test","","","","","","","","","","","",""
"242","","j","psychophysics","41","198848","0.0-7.0-0.0-1.0-0.0-0.16","3","4","3","3","3","4","3","2","3","3","4","4","4","4","4","5","4","4","4","4","2","1","2","2","2","2","2","4","2","0","1","0","0","0","0","0","1","0","0","0","1","0","0","0","4","2","2","2","1","4","4","5","4","4","2","763057227551739906","颜","374","","","","nonmatch","","","","","","","","","","","","","","key","j","16.66633783783795","683","380","j","true","nonmatch","img/pentagon.png","菱形","五边","ALT1_1","prac_ALT1_1","","","","","","","","","","","",""
"null","<span style='color:GreenYellow; font-size: 70px;'>正确! </span>","null","html-keyboard-response","42","199351","0.0-7.0-0.0-1.0-0.0-1.16","3","4","3","3","3","4","3","2","3","3","4","4","4","4","4","5","4","4","4","4","2","1","2","2","2","2","2","4","2","0","1","0","0","0","0","0","1","0","0","0","1","0","0","0","4","2","2","2","1","4","4","5","4","4","2","763057227551739906","颜","374","","","","","","","","","","","","","","","","","","","","","","","","","","","","","","feedback_test","","","","","","","","","","","",""
"296","","f","psychophysics","43","200650","0.0-7.0-0.0-1.0-0.0-0.17","3","4","3","3","3","4","3","2","3","3","4","4","4","4","4","5","4","4","4","4","2","1","2","2","2","2","2","4","2","0","1","0","0","0","0","0","1","0","0","0","1","0","0","0","4","2","2","2","1","4","4","5","4","4","2","763057227551739906","颜","374","","","","match","","","","","","","","","","","","","","key","f","16.669350649350754","683","380","f","true","match","img/trapezoid.png","梯形","梯形","ALT1_1","prac_ALT1_1","","","","","","","","","","","",""
"null","<span style='color:GreenYellow; font-size: 70px;'>正确! </span>","null","html-keyboard-response","44","201152","0.0-7.0-0.0-1.0-0.0-1.17","3","4","3","3","3","4","3","2","3","3","4","4","4","4","4","5","4","4","4","4","2","1","2","2","2","2","2","4","2","0","1","0","0","0","0","0","1","0","0","0","1","0","0","0","4","2","2","2","1","4","4","5","4","4","2","763057227551739906","颜","374","","","","","","","","","","","","","","","","","","","","","","","","","","","","","","feedback_test","","","","","","","","","","","",""
"249","","j","psychophysics","45","202403","0.0-7.0-0.0-1.0-0.0-0.18","3","4","3","3","3","4","3","2","3","3","4","4","4","4","4","5","4","4","4","4","2","1","2","2","2","2","2","4","2","0","1","0","0","0","0","0","1","0","0","0","1","0","0","0","4","2","2","2","1","4","4","5","4","4","2","763057227551739906","颜","374","","","","nonmatch","","","","","","","","","","","","","","key","j","16.66789189189188","683","380","f","false","match","img/ellipse.png","椭圆","椭圆","ALT1_1","prac_ALT1_1","","","","","","","","","","","",""
"null","<span style='color:red; font-size: 70px;'>错误! </span>","null","html-keyboard-response","46","202904","0.0-7.0-0.0-1.0-0.0-1.18","3","4","3","3","3","4","3","2","3","3","4","4","4","4","4","5","4","4","4","4","2","1","2","2","2","2","2","4","2","0","1","0","0","0","0","0","1","0","0","0","1","0","0","0","4","2","2","2","1","4","4","5","4","4","2","763057227551739906","颜","374","","","","","","","","","","","","","","","","","","","","","","","","","","","","","","feedback_test","","","","","","","","","","","",""
"387","","j","psychophysics","47","204294","0.0-7.0-0.0-1.0-0.0-0.19","3","4","3","3","3","4","3","2","3","3","4","4","4","4","4","5","4","4","4","4","2","1","2","2","2","2","2","4","2","0","1","0","0","0","0","0","1","0","0","0","1","0","0","0","4","2","2","2","1","4","4","5","4","4","2","763057227551739906","颜","374","","","","nonmatch","","","","","","","","","","","","","","key","j","16.667048780487498","683","380","j","true","nonmatch","img/pentagon.png","椭圆","五边","ALT1_1","prac_ALT1_1","","","","","","","","","","","",""
"null","<span style='color:GreenYellow; font-size: 70px;'>正确! </span>","null","html-keyboard-response","48","204795","0.0-7.0-0.0-1.0-0.0-1.19","3","4","3","3","3","4","3","2","3","3","4","4","4","4","4","5","4","4","4","4","2","1","2","2","2","2","2","4","2","0","1","0","0","0","0","0","1","0","0","0","1","0","0","0","4","2","2","2","1","4","4","5","4","4","2","763057227551739906","颜","374","","","","","","","","","","","","","","","","","","","","","","","","","","","","","","feedback_test","","","","","","","","","","","",""
"98","","j","psychophysics","49","205894","0.0-7.0-0.0-1.0-0.0-0.20","3","4","3","3","3","4","3","2","3","3","4","4","4","4","4","5","4","4","4","4","2","1","2","2","2","2","2","4","2","0","1","0","0","0","0","0","1","0","0","0","1","0","0","0","4","2","2","2","1","4","4","5","4","4","2","763057227551739906","颜","374","","","","nonmatch","","","","","","","","","","","","","","key","j","16.665999999999713","683","380","f","false","match","img/diamond.png","菱形","菱形","ALT1_1","prac_ALT1_1","","","","","","","","","","","",""
"null","<span style='color:yellow; font-size: 70px;'>过快! </span>","null","html-keyboard-response","50","206396","0.0-7.0-0.0-1.0-0.0-1.20","3","4","3","3","3","4","3","2","3","3","4","4","4","4","4","5","4","4","4","4","2","1","2","2","2","2","2","4","2","0","1","0","0","0","0","0","1","0","0","0","1","0","0","0","4","2","2","2","1","4","4","5","4","4","2","763057227551739906","颜","374","","","","","","","","","","","","","","","","","","","","","","","","","","","","","","feedback_test","","","","","","","","","","","",""
"265","","j","psychophysics","51","207663","0.0-7.0-0.0-1.0-0.0-0.21","3","4","3","3","3","4","3","2","3","3","4","4","4","4","4","5","4","4","4","4","2","1","2","2","2","2","2","4","2","0","1","0","0","0","0","0","1","0","0","0","1","0","0","0","4","2","2","2","1","4","4","5","4","4","2","763057227551739906","颜","374","","","","nonmatch","","","","","","","","","","","","","","key","j","16.667600000000093","683","380","j","true","nonmatch","img/ellipse.png","梯形","椭圆","ALT1_1","prac_ALT1_1","","","","","","","","","","","",""
"null","<span style='color:GreenYellow; font-size: 70px;'>正确! </span>","null","html-keyboard-response","52","208166","0.0-7.0-0.0-1.0-0.0-1.21","3","4","3","3","3","4","3","2","3","3","4","4","4","4","4","5","4","4","4","4","2","1","2","2","2","2","2","4","2","0","1","0","0","0","0","0","1","0","0","0","1","0","0","0","4","2","2","2","1","4","4","5","4","4","2","763057227551739906","颜","374","","","","","","","","","","","","","","","","","","","","","","","","","","","","","","feedback_test","","","","","","","","","","","",""
"183","","f","psychophysics","53","209352","0.0-7.0-0.0-1.0-0.0-0.22","3","4","3","3","3","4","3","2","3","3","4","4","4","4","4","5","4","4","4","4","2","1","2","2","2","2","2","4","2","0","1","0","0","0","0","0","1","0","0","0","1","0","0","0","4","2","2","2","1","4","4","5","4","4","2","763057227551739906","颜","374","","","","match","","","","","","","","","","","","","","key","f","16.66697142857135","683","380","j","false","nonmatch","img/ellipse.png","五边","椭圆","ALT1_1","prac_ALT1_1","","","","","","","","","","","",""
"null","<span style='color:yellow; font-size: 70px;'>过快! </span>","null","html-keyboard-response","54","209853","0.0-7.0-0.0-1.0-0.0-1.22","3","4","3","3","3","4","3","2","3","3","4","4","4","4","4","5","4","4","4","4","2","1","2","2","2","2","2","4","2","0","1","0","0","0","0","0","1","0","0","0","1","0","0","0","4","2","2","2","1","4","4","5","4","4","2","763057227551739906","颜","374","","","","","","","","","","","","","","","","","","","","","","","","","","","","","","feedback_test","","","","","","","","","","","",""
"232","","j","psychophysics","55","211088","0.0-7.0-0.0-1.0-0.0-0.23","3","4","3","3","3","4","3","2","3","3","4","4","4","4","4","5","4","4","4","4","2","1","2","2","2","2","2","4","2","0","1","0","0","0","0","0","1","0","0","0","1","0","0","0","4","2","2","2","1","4","4","5","4","4","2","763057227551739906","颜","374","","","","nonmatch","","","","","","","","","","","","","","key","j","16.6665753424658","683","380","f","false","match","img/ellipse.png","椭圆","椭圆","ALT1_1","prac_ALT1_1","","","","","","","","","","","",""
"null","<span style='color:red; font-size: 70px;'>错误! </span>","null","html-keyboard-response","56","211589","0.0-7.0-0.0-1.0-0.0-1.23","3","4","3","3","3","4","3","2","3","3","4","4","4","4","4","5","4","4","4","4","2","1","2","2","2","2","2","4","2","0","1","0","0","0","0","0","1","0","0","0","1","0","0","0","4","2","2","2","1","4","4","5","4","4","2","763057227551739906","颜","374","","","","","","","","","","","","","","","","","","","","","","","","","","","","","","feedback_test","","","","","","","","","","","",""
"265","","f","psychophysics","57","212857","0.0-7.0-0.0-1.0-0.0-0.24","3","4","3","3","3","4","3","2","3","3","4","4","4","4","4","5","4","4","4","4","2","1","2","2","2","2","2","4","2","0","1","0","0","0","0","0","1","0","0","0","1","0","0","0","4","2","2","2","1","4","4","5","4","4","2","763057227551739906","颜","374","","","","match","","","","","","","","","","","","","","key","f","16.66637333333337","683","380","f","true","match","img/trapezoid.png","梯形","梯形","ALT1_1","prac_ALT1_1","","","","","","","","","","","",""
"null","<span style='color:GreenYellow; font-size: 70px;'>正确! </span>","null","html-keyboard-response","58","213358","0.0-7.0-0.0-1.0-0.0-1.24","3","4","3","3","3","4","3","2","3","3","4","4","4","4","4","5","4","4","4","4","2","1","2","2","2","2","2","4","2","0","1","0","0","0","0","0","1","0","0","0","1","0","0","0","4","2","2","2","1","4","4","5","4","4","2","763057227551739906","颜","374","","","","","","","","","","","","","","","","","","","","","","","","","","","","","","feedback_test","","","","","","","","","","","",""
"247","","j","psychophysics","59","214608","0.0-7.0-0.0-1.0-0.0-0.25","3","4","3","3","3","4","3","2","3","3","4","4","4","4","4","5","4","4","4","4","2","1","2","2","2","2","2","4","2","0","1","0","0","0","0","0","1","0","0","0","1","0","0","0","4","2","2","2","1","4","4","5","4","4","2","763057227551739906","颜","374","","","","nonmatch","","","","","","","","","","","","","","key","j","16.6670810810811","683","380","j","true","nonmatch","img/pentagon.png","椭圆","五边","ALT1_1","prac_ALT1_1","","","","","","","","","","","",""
"null","<span style='color:GreenYellow; font-size: 70px;'>正确! </span>","null","html-keyboard-response","60","215110","0.0-7.0-0.0-1.0-0.0-1.25","3","4","3","3","3","4","3","2","3","3","4","4","4","4","4","5","4","4","4","4","2","1","2","2","2","2","2","4","2","0","1","0","0","0","0","0","1","0","0","0","1","0","0","0","4","2","2","2","1","4","4","5","4","4","2","763057227551739906","颜","374","","","","","","","","","","","","","","","","","","","","","","","","","","","","","","feedback_test","","","","","","","","","","","",""
"236","","f","psychophysics","61","216347","0.0-7.0-0.0-1.0-0.0-0.26","3","4","3","3","3","4","3","2","3","3","4","4","4","4","4","5","4","4","4","4","2","1","2","2","2","2","2","4","2","0","1","0","0","0","0","0","1","0","0","0","1","0","0","0","4","2","2","2","1","4","4","5","4","4","2","763057227551739906","颜","374","","","","match","","","","","","","","","","","","","","key","f","16.666189189188927","683","380","f","true","match","img/diamond.png","菱形","菱形","ALT1_1","prac_ALT1_1","","","","","","","","","","","",""
"null","<span style='color:GreenYellow; font-size: 70px;'>正确! </span>","null","html-keyboard-response","62","216850","0.0-7.0-0.0-1.0-0.0-1.26","3","4","3","3","3","4","3","2","3","3","4","4","4","4","4","5","4","4","4","4","2","1","2","2","2","2","2","4","2","0","1","0","0","0","0","0","1","0","0","0","1","0","0","0","4","2","2","2","1","4","4","5","4","4","2","763057227551739906","颜","374","","","","","","","","","","","","","","","","","","","","","","","","","","","","","","feedback_test","","","","","","","","","","","",""
"null","","null","psychophysics","63","219056","0.0-7.0-0.0-1.0-0.0-0.27","3","4","3","3","3","4","3","2","3","3","4","4","4","4","4","5","4","4","4","4","2","1","2","2","2","2","2","4","2","0","1","0","0","0","0","0","1","0","0","0","1","0","0","0","4","2","2","2","1","4","4","5","4","4","2","763057227551739906","颜","374","","","","null","","","","","","","","","","","","","","key","null","16.666442748091633","683","380","f","false","match","img/diamond.png","菱形","菱形","ALT1_1","prac_ALT1_1","","","","","","","","","","","",""
"null","<span class='add_' style='color:yellow; font-size: 70px;'> 太慢! </span>","null","html-keyboard-response","64","219558","0.0-7.0-0.0-1.0-0.0-1.27","3","4","3","3","3","4","3","2","3","3","4","4","4","4","4","5","4","4","4","4","2","1","2","2","2","2","2","4","2","0","1","0","0","0","0","0","1","0","0","0","1","0","0","0","4","2","2","2","1","4","4","5","4","4","2","763057227551739906","颜","374","","","","","","","","","","","","","","","","","","","","","","","","","","","","","","feedback_test","","","","","","","","","","","",""
"249","","f","psychophysics","65","220809","0.0-7.0-0.0-1.0-0.0-0.28","3","4","3","3","3","4","3","2","3","3","4","4","4","4","4","5","4","4","4","4","2","1","2","2","2","2","2","4","2","0","1","0","0","0","0","0","1","0","0","0","1","0","0","0","4","2","2","2","1","4","4","5","4","4","2","763057227551739906","颜","374","","","","match","","","","","","","","","","","","","","key","f","16.66809459459477","683","380","j","false","nonmatch","img/ellipse.png","五边","椭圆","ALT1_1","prac_ALT1_1","","","","","","","","","","","",""
"null","<span style='color:red; font-size: 70px;'>错误! </span>","null","html-keyboard-response","66","221310","0.0-7.0-0.0-1.0-0.0-1.28","3","4","3","3","3","4","3","2","3","3","4","4","4","4","4","5","4","4","4","4","2","1","2","2","2","2","2","4","2","0","1","0","0","0","0","0","1","0","0","0","1","0","0","0","4","2","2","2","1","4","4","5","4","4","2","763057227551739906","颜","374","","","","","","","","","","","","","","","","","","","","","","","","","","","","","","feedback_test","","","","","","","","","","","",""
"287","","j","psychophysics","67","222600","0.0-7.0-0.0-1.0-0.0-0.29","3","4","3","3","3","4","3","2","3","3","4","4","4","4","4","5","4","4","4","4","2","1","2","2","2","2","2","4","2","0","1","0","0","0","0","0","1","0","0","0","1","0","0","0","4","2","2","2","1","4","4","5","4","4","2","763057227551739906","颜","374","","","","nonmatch","","","","","","","","","","","","","","key","j","16.64926315789451","683","380","f","false","match","img/diamond.png","菱形","菱形","ALT1_1","prac_ALT1_1","","","","","","","","","","","",""
"null","<span style='color:red; font-size: 70px;'>错误! </span>","null","html-keyboard-response","68","223103","0.0-7.0-0.0-1.0-0.0-1.29","3","4","3","3","3","4","3","2","3","3","4","4","4","4","4","5","4","4","4","4","2","1","2","2","2","2","2","4","2","0","1","0","0","0","0","0","1","0","0","0","1","0","0","0","4","2","2","2","1","4","4","5","4","4","2","763057227551739906","颜","374","","","","","","","","","","","","","","","","","","","","","","","","","","","","","","feedback_test","","","","","","","","","","","",""
"247","","f","psychophysics","69","224353","0.0-7.0-0.0-1.0-0.0-0.30","3","4","3","3","3","4","3","2","3","3","4","4","4","4","4","5","4","4","4","4","2","1","2","2","2","2","2","4","2","0","1","0","0","0","0","0","1","0","0","0","1","0","0","0","4","2","2","2","1","4","4","5","4","4","2","763057227551739906","颜","374","","","","match","","","","","","","","","","","","","","key","f","16.66709459459486","683","380","f","true","match","img/ellipse.png","椭圆","椭圆","ALT1_1","prac_ALT1_1","","","","","","","","","","","",""
"null","<span style='color:GreenYellow; font-size: 70px;'>正确! </span>","null","html-keyboard-response","70","224855","0.0-7.0-0.0-1.0-0.0-1.30","3","4","3","3","3","4","3","2","3","3","4","4","4","4","4","5","4","4","4","4","2","1","2","2","2","2","2","4","2","0","1","0","0","0","0","0","1","0","0","0","1","0","0","0","4","2","2","2","1","4","4","5","4","4","2","763057227551739906","颜","374","","","","","","","","","","","","","","","","","","","","","","","","","","","","","","feedback_test","","","","","","","","","","","",""
"324","","j","psychophysics","71","226181","0.0-7.0-0.0-1.0-0.0-0.31","3","4","3","3","3","4","3","2","3","3","4","4","4","4","4","5","4","4","4","4","2","1","2","2","2","2","2","4","2","0","1","0","0","0","0","0","1","0","0","0","1","0","0","0","4","2","2","2","1","4","4","5","4","4","2","763057227551739906","颜","374","","","","nonmatch","","","","","","","","","","","","","","key","j","16.666810126582092","683","380","j","true","nonmatch","img/diamond.png","梯形","菱形","ALT1_1","prac_ALT1_1","","","","","","","","","","","",""
"null","<span style='color:GreenYellow; font-size: 70px;'>正确! </span>","null","html-keyboard-response","72","226683","0.0-7.0-0.0-1.0-0.0-1.31","3","4","3","3","3","4","3","2","3","3","4","4","4","4","4","5","4","4","4","4","2","1","2","2","2","2","2","4","2","0","1","0","0","0","0","0","1","0","0","0","1","0","0","0","4","2","2","2","1","4","4","5","4","4","2","763057227551739906","颜","374","","","","","","","","","","","","","","","","","","","","","","","","","","","","","","feedback_test","","","","","","","","","","","",""
"361","","f","psychophysics","73","228047","0.0-7.0-0.0-1.0-0.0-0.32","3","4","3","3","3","4","3","2","3","3","4","4","4","4","4","5","4","4","4","4","2","1","2","2","2","2","2","4","2","0","1","0","0","0","0","0","1","0","0","0","1","0","0","0","4","2","2","2","1","4","4","5","4","4","2","763057227551739906","颜","374","","","","match","","","","","","","","","","","","","","key","f","16.666061728395075","683","380","j","false","nonmatch","img/trapezoid.png","菱形","梯形","ALT1_1","prac_ALT1_1","","","","","","","","","","","",""
"null","<span style='color:red; font-size: 70px;'>错误! </span>","null","html-keyboard-response","74","228550","0.0-7.0-0.0-1.0-0.0-1.32","3","4","3","3","3","4","3","2","3","3","4","4","4","4","4","5","4","4","4","4","2","1","2","2","2","2","2","4","2","0","1","0","0","0","0","0","1","0","0","0","1","0","0","0","4","2","2","2","1","4","4","5","4","4","2","763057227551739906","颜","374","","","","","","","","","","","","","","","","","","","","","","","","","","","","","","feedback_test","","","","","","","","","","","",""
"33","","j","psychophysics","75","229585","0.0-7.0-0.0-1.0-0.0-0.33","3","4","3","3","3","4","3","2","3","3","4","4","4","4","4","5","4","4","4","4","2","1","2","2","2","2","2","4","2","0","1","0","0","0","0","0","1","0","0","0","1","0","0","0","4","2","2","2","1","4","4","5","4","4","2","763057227551739906","颜","374","","","","nonmatch","","","","","","","","","","","","","","key","j","16.66578333333358","683","380","j","true","nonmatch","img/pentagon.png","菱形","五边","ALT1_1","prac_ALT1_1","","","","","","","","","","","",""
"null","<span style='color:yellow; font-size: 70px;'>过快! </span>","null","html-keyboard-response","76","230089","0.0-7.0-0.0-1.0-0.0-1.33","3","4","3","3","3","4","3","2","3","3","4","4","4","4","4","5","4","4","4","4","2","1","2","2","2","2","2","4","2","0","1","0","0","0","0","0","1","0","0","0","1","0","0","0","4","2","2","2","1","4","4","5","4","4","2","763057227551739906","颜","374","","","","","","","","","","","","","","","","","","","","","","","","","","","","","","feedback_test","","","","","","","","","","","",""
"339","","f","psychophysics","77","231430","0.0-7.0-0.0-1.0-0.0-0.34","3","4","3","3","3","4","3","2","3","3","4","4","4","4","4","5","4","4","4","4","2","1","2","2","2","2","2","4","2","0","1","0","0","0","0","0","1","0","0","0","1","0","0","0","4","2","2","2","1","4","4","5","4","4","2","763057227551739906","颜","374","","","","match","","","","","","","","","","","","","","key","f","16.66656249999978","683","380","f","true","match","img/trapezoid.png","梯形","梯形","ALT1_1","prac_ALT1_1","","","","","","","","","","","",""
"null","<span style='color:GreenYellow; font-size: 70px;'>正确! </span>","null","html-keyboard-response","78","231933","0.0-7.0-0.0-1.0-0.0-1.34","3","4","3","3","3","4","3","2","3","3","4","4","4","4","4","5","4","4","4","4","2","1","2","2","2","2","2","4","2","0","1","0","0","0","0","0","1","0","0","0","1","0","0","0","4","2","2","2","1","4","4","5","4","4","2","763057227551739906","颜","374","","","","","","","","","","","","","","","","","","","","","","","","","","","","","","feedback_test","","","","","","","","","","","",""
"330","","j","psychophysics","79","233265","0.0-7.0-0.0-1.0-0.0-0.35","3","4","3","3","3","4","3","2","3","3","4","4","4","4","4","5","4","4","4","4","2","1","2","2","2","2","2","4","2","0","1","0","0","0","0","0","1","0","0","0","1","0","0","0","4","2","2","2","1","4","4","5","4","4","2","763057227551739906","颜","374","","","","nonmatch","","","","","","","","","","","","","","key","j","16.666430379746664","683","380","j","true","nonmatch","img/diamond.png","五边","菱形","ALT1_1","prac_ALT1_1","","","","","","","","","","","",""
"null","<span style='color:GreenYellow; font-size: 70px;'>正确! </span>","null","html-keyboard-response","80","233768","0.0-7.0-0.0-1.0-0.0-1.35","3","4","3","3","3","4","3","2","3","3","4","4","4","4","4","5","4","4","4","4","2","1","2","2","2","2","2","4","2","0","1","0","0","0","0","0","1","0","0","0","1","0","0","0","4","2","2","2","1","4","4","5","4","4","2","763057227551739906","颜","374","","","","","","","","","","","","","","","","","","","","","","","","","","","","","","feedback_test","","","","","","","","","","","",""
"317","","f","psychophysics","81","235087","0.0-7.0-0.0-1.0-0.0-0.36","3","4","3","3","3","4","3","2","3","3","4","4","4","4","4","5","4","4","4","4","2","1","2","2","2","2","2","4","2","0","1","0","0","0","0","0","1","0","0","0","1","0","0","0","4","2","2","2","1","4","4","5","4","4","2","763057227551739906","颜","374","","","","match","","","","","","","","","","","","","","key","f","16.66697435897442","683","380","f","true","match","img/trapezoid.png","梯形","梯形","ALT1_1","prac_ALT1_1","","","","","","","","","","","",""
"null","<span style='color:GreenYellow; font-size: 70px;'>正确! </span>","null","html-keyboard-response","82","235588","0.0-7.0-0.0-1.0-0.0-1.36","3","4","3","3","3","4","3","2","3","3","4","4","4","4","4","5","4","4","4","4","2","1","2","2","2","2","2","4","2","0","1","0","0","0","0","0","1","0","0","0","1","0","0","0","4","2","2","2","1","4","4","5","4","4","2","763057227551739906","颜","374","","","","","","","","","","","","","","","","","","","","","","","","","","","","","","feedback_test","","","","","","","","","","","",""
"318","","j","psychophysics","83","236909","0.0-7.0-0.0-1.0-0.0-0.37","3","4","3","3","3","4","3","2","3","3","4","4","4","4","4","5","4","4","4","4","2","1","2","2","2","2","2","4","2","0","1","0","0","0","0","0","1","0","0","0","1","0","0","0","4","2","2","2","1","4","4","5","4","4","2","763057227551739906","颜","374","","","","nonmatch","","","","","","","","","","","","","","key","j","16.666961538461365","683","380","j","true","nonmatch","img/ellipse.png","梯形","椭圆","ALT1_1","prac_ALT1_1","","","","","","","","","","","",""
"null","<span style='color:GreenYellow; font-size: 70px;'>正确! </span>","null","html-keyboard-response","84","237411","0.0-7.0-0.0-1.0-0.0-1.37","3","4","3","3","3","4","3","2","3","3","4","4","4","4","4","5","4","4","4","4","2","1","2","2","2","2","2","4","2","0","1","0","0","0","0","0","1","0","0","0","1","0","0","0","4","2","2","2","1","4","4","5","4","4","2","763057227551739906","颜","374","","","","","","","","","","","","","","","","","","","","","","","","","","","","","","feedback_test","","","","","","","","","","","",""
"303","","f","psychophysics","85","238716","0.0-7.0-0.0-1.0-0.0-0.38","3","4","3","3","3","4","3","2","3","3","4","4","4","4","4","5","4","4","4","4","2","1","2","2","2","2","2","4","2","0","1","0","0","0","0","0","1","0","0","0","1","0","0","0","4","2","2","2","1","4","4","5","4","4","2","763057227551739906","颜","374","","","","match","","","","","","","","","","","","","","key","f","16.666493506493598","683","380","j","false","nonmatch","img/ellipse.png","菱形","椭圆","ALT1_1","prac_ALT1_1","","","","","","","","","","","",""
"null","<span style='color:red; font-size: 70px;'>错误! </span>","null","html-keyboard-response","86","239217","0.0-7.0-0.0-1.0-0.0-1.38","3","4","3","3","3","4","3","2","3","3","4","4","4","4","4","5","4","4","4","4","2","1","2","2","2","2","2","4","2","0","1","0","0","0","0","0","1","0","0","0","1","0","0","0","4","2","2","2","1","4","4","5","4","4","2","763057227551739906","颜","374","","","","","","","","","","","","","","","","","","","","","","","","","","","","","","feedback_test","","","","","","","","","","","",""
"254","","j","psychophysics","87","240475","0.0-7.0-0.0-1.0-0.0-0.39","3","4","3","3","3","4","3","2","3","3","4","4","4","4","4","5","4","4","4","4","2","1","2","2","2","2","2","4","2","0","1","0","0","0","0","0","1","0","0","0","1","0","0","0","4","2","2","2","1","4","4","5","4","4","2","763057227551739906","颜","374","","","","nonmatch","","","","","","","","","","","","","","key","j","16.66721621621636","683","380","f","false","match","img/ellipse.png","椭圆","椭圆","ALT1_1","prac_ALT1_1","","","","","","","","","","","",""
"null","<span style='color:red; font-size: 70px;'>错误! </span>","null","html-keyboard-response","88","240978","0.0-7.0-0.0-1.0-0.0-1.39","3","4","3","3","3","4","3","2","3","3","4","4","4","4","4","5","4","4","4","4","2","1","2","2","2","2","2","4","2","0","1","0","0","0","0","0","1","0","0","0","1","0","0","0","4","2","2","2","1","4","4","5","4","4","2","763057227551739906","颜","374","","","","","","","","","","","","","","","","","","","","","","","","","","","","","","feedback_test","","","","","","","","","","","",""
"366","","j","psychophysics","89","242347","0.0-7.0-0.0-1.0-0.0-0.40","3","4","3","3","3","4","3","2","3","3","4","4","4","4","4","5","4","4","4","4","2","1","2","2","2","2","2","4","2","0","1","0","0","0","0","0","1","0","0","0","1","0","0","0","4","2","2","2","1","4","4","5","4","4","2","763057227551739906","颜","374","","","","nonmatch","","","","","","","","","","","","","","key","j","16.66638271604955","683","380","f","false","match","img/pentagon.png","五边","五边","ALT1_1","prac_ALT1_1","","","","","","","","","","","",""
"null","<span style='color:red; font-size: 70px;'>错误! </span>","null","html-keyboard-response","90","242848","0.0-7.0-0.0-1.0-0.0-1.40","3","4","3","3","3","4","3","2","3","3","4","4","4","4","4","5","4","4","4","4","2","1","2","2","2","2","2","4","2","0","1","0","0","0","0","0","1","0","0","0","1","0","0","0","4","2","2","2","1","4","4","5","4","4","2","763057227551739906","颜","374","","","","","","","","","","","","","","","","","","","","","","","","","","","","","","feedback_test","","","","","","","","","","","",""
"237","","j","psychophysics","91","244089","0.0-7.0-0.0-1.0-0.0-0.41","3","4","3","3","3","4","3","2","3","3","4","4","4","4","4","5","4","4","4","4","2","1","2","2","2","2","2","4","2","0","1","0","0","0","0","0","1","0","0","0","1","0","0","0","4","2","2","2","1","4","4","5","4","4","2","763057227551739906","颜","374","","","","nonmatch","","","","","","","","","","","","","","key","j","16.66656164383581","683","380","f","false","match","img/ellipse.png","椭圆","椭圆","ALT1_1","prac_ALT1_1","","","","","","","","","","","",""
"null","<span style='color:red; font-size: 70px;'>错误! </span>","null","html-keyboard-response","92","244592","0.0-7.0-0.0-1.0-0.0-1.41","3","4","3","3","3","4","3","2","3","3","4","4","4","4","4","5","4","4","4","4","2","1","2","2","2","2","2","4","2","0","1","0","0","0","0","0","1","0","0","0","1","0","0","0","4","2","2","2","1","4","4","5","4","4","2","763057227551739906","颜","374","","","","","","","","","","","","","","","","","","","","","","","","","","","","","","feedback_test","","","","","","","","","","","",""
"237","","f","psychophysics","93","245831","0.0-7.0-0.0-1.0-0.0-0.42","3","4","3","3","3","4","3","2","3","3","4","4","4","4","4","5","4","4","4","4","2","1","2","2","2","2","2","4","2","0","1","0","0","0","0","0","1","0","0","0","1","0","0","0","4","2","2","2","1","4","4","5","4","4","2","763057227551739906","颜","374","","","","match","","","","","","","","","","","","","","key","f","16.66594594594593","683","380","j","false","nonmatch","img/diamond.png","椭圆","菱形","ALT1_1","prac_ALT1_1","","","","","","","","","","","",""
"null","<span style='color:red; font-size: 70px;'>错误! </span>","null","html-keyboard-response","94","246333","0.0-7.0-0.0-1.0-0.0-1.42","3","4","3","3","3","4","3","2","3","3","4","4","4","4","4","5","4","4","4","4","2","1","2","2","2","2","2","4","2","0","1","0","0","0","0","0","1","0","0","0","1","0","0","0","4","2","2","2","1","4","4","5","4","4","2","763057227551739906","颜","374","","","","","","","","","","","","","","","","","","","","","","","","","","","","","","feedback_test","","","","","","","","","","","",""
"308","","j","psychophysics","95","247645","0.0-7.0-0.0-1.0-0.0-0.43","3","4","3","3","3","4","3","2","3","3","4","4","4","4","4","5","4","4","4","4","2","1","2","2","2","2","2","4","2","0","1","0","0","0","0","0","1","0","0","0","1","0","0","0","4","2","2","2","1","4","4","5","4","4","2","763057227551739906","颜","374","","","","nonmatch","","","","","","","","","","","","","","key","j","16.66711538461543","683","380","j","true","nonmatch","img/pentagon.png","梯形","五边","ALT1_1","prac_ALT1_1","","","","","","","","","","","",""
"null","<span style='color:GreenYellow; font-size: 70px;'>正确! </span>","null","html-keyboard-response","96","248148","0.0-7.0-0.0-1.0-0.0-1.43","3","4","3","3","3","4","3","2","3","3","4","4","4","4","4","5","4","4","4","4","2","1","2","2","2","2","2","4","2","0","1","0","0","0","0","0","1","0","0","0","1","0","0","0","4","2","2","2","1","4","4","5","4","4","2","763057227551739906","颜","374","","","","","","","","","","","","","","","","","","","","","","","","","","","","","","feedback_test","","","","","","","","","","","",""
"276","","j","psychophysics","97","249428","0.0-7.0-0.0-1.0-0.0-0.44","3","4","3","3","3","4","3","2","3","3","4","4","4","4","4","5","4","4","4","4","2","1","2","2","2","2","2","4","2","0","1","0","0","0","0","0","1","0","0","0","1","0","0","0","4","2","2","2","1","4","4","5","4","4","2","763057227551739906","颜","374","","","","nonmatch","","","","","","","","","","","","","","key","j","16.66722368421056","683","380","f","false","match","img/pentagon.png","五边","五边","ALT1_1","prac_ALT1_1","","","","","","","","","","","",""
"null","<span style='color:red; font-size: 70px;'>错误! </span>","null","html-keyboard-response","98","249931","0.0-7.0-0.0-1.0-0.0-1.44","3","4","3","3","3","4","3","2","3","3","4","4","4","4","4","5","4","4","4","4","2","1","2","2","2","2","2","4","2","0","1","0","0","0","0","0","1","0","0","0","1","0","0","0","4","2","2","2","1","4","4","5","4","4","2","763057227551739906","颜","374","","","","","","","","","","","","","","","","","","","","","","","","","","","","","","feedback_test","","","","","","","","","","","",""
"251","","f","psychophysics","99","251185","0.0-7.0-0.0-1.0-0.0-0.45","3","4","3","3","3","4","3","2","3","3","4","4","4","4","4","5","4","4","4","4","2","1","2","2","2","2","2","4","2","0","1","0","0","0","0","0","1","0","0","0","1","0","0","0","4","2","2","2","1","4","4","5","4","4","2","763057227551739906","颜","374","","","","match","","","","","","","","","","","","","","key","f","16.66610810810832","683","380","f","true","match","img/pentagon.png","五边","五边","ALT1_1","prac_ALT1_1","","","","","","","","","","","",""
"null","<span style='color:GreenYellow; font-size: 70px;'>正确! </span>","null","html-keyboard-response","100","251686","0.0-7.0-0.0-1.0-0.0-1.45","3","4","3","3","3","4","3","2","3","3","4","4","4","4","4","5","4","4","4","4","2","1","2","2","2","2","2","4","2","0","1","0","0","0","0","0","1","0","0","0","1","0","0","0","4","2","2","2","1","4","4","5","4","4","2","763057227551739906","颜","374","","","","","","","","","","","","","","","","","","","","","","","","","","","","","","feedback_test","","","","","","","","","","","",""
"277","","j","psychophysics","101","252965","0.0-7.0-0.0-1.0-0.0-0.46","3","4","3","3","3","4","3","2","3","3","4","4","4","4","4","5","4","4","4","4","2","1","2","2","2","2","2","4","2","0","1","0","0","0","0","0","1","0","0","0","1","0","0","0","4","2","2","2","1","4","4","5","4","4","2","763057227551739906","颜","374","","","","nonmatch","","","","","","","","","","","","","","key","j","16.66655263157889","683","380","j","true","nonmatch","img/trapezoid.png","五边","梯形","ALT1_1","prac_ALT1_1","","","","","","","","","","","",""
"null","<span style='color:GreenYellow; font-size: 70px;'>正确! </span>","null","html-keyboard-response","102","253467","0.0-7.0-0.0-1.0-0.0-1.46","3","4","3","3","3","4","3","2","3","3","4","4","4","4","4","5","4","4","4","4","2","1","2","2","2","2","2","4","2","0","1","0","0","0","0","0","1","0","0","0","1","0","0","0","4","2","2","2","1","4","4","5","4","4","2","763057227551739906","颜","374","","","","","","","","","","","","","","","","","","","","","","","","","","","","","","feedback_test","","","","","","","","","","","",""
"244","","j","psychophysics","103","254714","0.0-7.0-0.0-1.0-0.0-0.47","3","4","3","3","3","4","3","2","3","3","4","4","4","4","4","5","4","4","4","4","2","1","2","2","2","2","2","4","2","0","1","0","0","0","0","0","1","0","0","0","1","0","0","0","4","2","2","2","1","4","4","5","4","4","2","763057227551739906","颜","374","","","","nonmatch","","","","","","","","","","","","","","key","j","16.66714864864873","683","380","j","true","nonmatch","img/trapezoid.png","椭圆","梯形","ALT1_1","prac_ALT1_1","","","","","","","","","","","",""
"null","<span style='color:GreenYellow; font-size: 70px;'>正确! </span>","null","html-keyboard-response","104","255216","0.0-7.0-0.0-1.0-0.0-1.47","3","4","3","3","3","4","3","2","3","3","4","4","4","4","4","5","4","4","4","4","2","1","2","2","2","2","2","4","2","0","1","0","0","0","0","0","1","0","0","0","1","0","0","0","4","2","2","2","1","4","4","5","4","4","2","763057227551739906","颜","374","","","","","","","","","","","","","","","","","","","","","","","","","","","","","","feedback_test","","","","","","","","","","","",""
"3010","<style>.context{color:white; font-size: 35px; line-height:40px}</style>                            <div><p class='context'>您正确回答了50% 的试次。</p><p class='context'>您的平均反应时为268毫秒。</p><p class='context'>按空格键继续。</p></div>"," ","html-keyboard-response","105","258230","0.0-7.0-0.0-1.0-1.0-0.0","3","4","3","3","3","4","3","2","3","3","4","4","4","4","4","5","4","4","4","4","2","1","2","2","2","2","2","4","2","0","1","0","0","0","0","0","1","0","0","0","1","0","0","0","4","2","2","2","1","4","4","5","4","4","2","763057227551739906","颜","374","","","","","","","","","","","","","","","","","","","","","","","","","","","","","","","","","","","","","","","","","",""
"8108","","","instructions","106","266343","0.0-7.0-0.0-1.0-1.0-1.0","3","4","3","3","3","4","3","2","3","3","4","4","4","4","4","5","4","4","4","4","2","1","2","2","2","2","2","4","2","0","1","0","0","0","0","0","1","0","0","0","1","0","0","0","4","2","2","2","1","4","4","5","4","4","2","763057227551739906","颜","374","","","","","","","","","","","","","","","","","[{""page_index"":0,""viewing_time"":3381},{""page_index"":1,""viewing_time"":3046},{""page_index"":2,""viewing_time"":1681}]","","","","","","","","","","","","","","","","","","","","","","","","",""
"354","","j","psychophysics","107","267702","0.0-7.0-0.0-1.1-0.1-0.48","3","4","3","3","3","4","3","2","3","3","4","4","4","4","4","5","4","4","4","4","2","1","2","2","2","2","2","4","2","0","1","0","0","0","0","0","1","0","0","0","1","0","0","0","4","2","2","2","1","4","4","5","4","4","2","763057227551739906","颜","374","","","","nonmatch","","","","","","","","","","","","","","key","j","16.667162500000266","683","380","f","false","match","img/diamond.png","菱形","菱形","ALT1_1","prac_ALT1_1","","","","","","","","","","","",""
"null","<span style='color:red; font-size: 70px;'>错误! </span>","null","html-keyboard-response","108","268204","0.0-7.0-0.0-1.1-0.1-1.48","3","4","3","3","3","4","3","2","3","3","4","4","4","4","4","5","4","4","4","4","2","1","2","2","2","2","2","4","2","0","1","0","0","0","0","0","1","0","0","0","1","0","0","0","4","2","2","2","1","4","4","5","4","4","2","763057227551739906","颜","374","","","","","","","","","","","","","","","","","","","","","","","","","","","","","","feedback_test","","","","","","","","","","","",""
"253","","j","psychophysics","109","269459","0.0-7.0-0.0-1.1-0.1-0.49","3","4","3","3","3","4","3","2","3","3","4","4","4","4","4","5","4","4","4","4","2","1","2","2","2","2","2","4","2","0","1","0","0","0","0","0","1","0","0","0","1","0","0","0","4","2","2","2","1","4","4","5","4","4","2","763057227551739906","颜","374","","","","nonmatch","","","","","","","","","","","","","","key","j","16.666837837838102","683","380","f","false","match","img/pentagon.png","五边","五边","ALT1_1","prac_ALT1_1","","","","","","","","","","","",""
"null","<span style='color:red; font-size: 70px;'>错误! </span>","null","html-keyboard-response","110","269962","0.0-7.0-0.0-1.1-0.1-1.49","3","4","3","3","3","4","3","2","3","3","4","4","4","4","4","5","4","4","4","4","2","1","2","2","2","2","2","4","2","0","1","0","0","0","0","0","1","0","0","0","1","0","0","0","4","2","2","2","1","4","4","5","4","4","2","763057227551739906","颜","374","","","","","","","","","","","","","","","","","","","","","","","","","","","","","","feedback_test","","","","","","","","","","","",""
"277","","j","psychophysics","111","271243","0.0-7.0-0.0-1.1-0.1-0.50","3","4","3","3","3","4","3","2","3","3","4","4","4","4","4","5","4","4","4","4","2","1","2","2","2","2","2","4","2","0","1","0","0","0","0","0","1","0","0","0","1","0","0","0","4","2","2","2","1","4","4","5","4","4","2","763057227551739906","颜","374","","","","nonmatch","","","","","","","","","","","","","","key","j","16.66794666666615","683","380","f","false","match","img/pentagon.png","五边","五边","ALT1_1","prac_ALT1_1","","","","","","","","","","","",""
"null","<span style='color:red; font-size: 70px;'>错误! </span>","null","html-keyboard-response","112","271744","0.0-7.0-0.0-1.1-0.1-1.50","3","4","3","3","3","4","3","2","3","3","4","4","4","4","4","5","4","4","4","4","2","1","2","2","2","2","2","4","2","0","1","0","0","0","0","0","1","0","0","0","1","0","0","0","4","2","2","2","1","4","4","5","4","4","2","763057227551739906","颜","374","","","","","","","","","","","","","","","","","","","","","","","","","","","","","","feedback_test","","","","","","","","","","","",""
"186","","f","psychophysics","113","272932","0.0-7.0-0.0-1.1-0.1-0.51","3","4","3","3","3","4","3","2","3","3","4","4","4","4","4","5","4","4","4","4","2","1","2","2","2","2","2","4","2","0","1","0","0","0","0","0","1","0","0","0","1","0","0","0","4","2","2","2","1","4","4","5","4","4","2","763057227551739906","颜","374","","","","match","","","","","","","","","","","","","","key","f","16.666542857142797","683","380","j","false","nonmatch","img/diamond.png","五边","菱形","ALT1_1","prac_ALT1_1","","","","","","","","","","","",""
"null","<span style='color:yellow; font-size: 70px;'>过快! </span>","null","html-keyboard-response","114","273435","0.0-7.0-0.0-1.1-0.1-1.51","3","4","3","3","3","4","3","2","3","3","4","4","4","4","4","5","4","4","4","4","2","1","2","2","2","2","2","4","2","0","1","0","0","0","0","0","1","0","0","0","1","0","0","0","4","2","2","2","1","4","4","5","4","4","2","763057227551739906","颜","374","","","","","","","","","","","","","","","","","","","","","","","","","","","","","","feedback_test","","","","","","","","","","","",""
"281","","j","psychophysics","115","274718","0.0-7.0-0.0-1.1-0.1-0.52","3","4","3","3","3","4","3","2","3","3","4","4","4","4","4","5","4","4","4","4","2","1","2","2","2","2","2","4","2","0","1","0","0","0","0","0","1","0","0","0","1","0","0","0","4","2","2","2","1","4","4","5","4","4","2","763057227551739906","颜","374","","","","nonmatch","","","","","","","","","","","","","","key","j","16.666355263157655","683","380","f","false","match","img/ellipse.png","椭圆","椭圆","ALT1_1","prac_ALT1_1","","","","","","","","","","","",""
"null","<span style='color:red; font-size: 70px;'>错误! </span>","null","html-keyboard-response","116","275220","0.0-7.0-0.0-1.1-0.1-1.52","3","4","3","3","3","4","3","2","3","3","4","4","4","4","4","5","4","4","4","4","2","1","2","2","2","2","2","4","2","0","1","0","0","0","0","0","1","0","0","0","1","0","0","0","4","2","2","2","1","4","4","5","4","4","2","763057227551739906","颜","374","","","","","","","","","","","","","","","","","","","","","","","","","","","","","","feedback_test","","","","","","","","","","","",""
"180","","j","psychophysics","117","276403","0.0-7.0-0.0-1.1-0.1-0.53","3","4","3","3","3","4","3","2","3","3","4","4","4","4","4","5","4","4","4","4","2","1","2","2","2","2","2","4","2","0","1","0","0","0","0","0","1","0","0","0","1","0","0","0","4","2","2","2","1","4","4","5","4","4","2","763057227551739906","颜","374","","","","nonmatch","","","","","","","","","","","","","","key","j","16.666971428571767","683","380","j","true","nonmatch","img/pentagon.png","椭圆","五边","ALT1_1","prac_ALT1_1","","","","","","","","","","","",""
"null","<span style='color:yellow; font-size: 70px;'>过快! </span>","null","html-keyboard-response","118","276904","0.0-7.0-0.0-1.1-0.1-1.53","3","4","3","3","3","4","3","2","3","3","4","4","4","4","4","5","4","4","4","4","2","1","2","2","2","2","2","4","2","0","1","0","0","0","0","0","1","0","0","0","1","0","0","0","4","2","2","2","1","4","4","5","4","4","2","763057227551739906","颜","374","","","","","","","","","","","","","","","","","","","","","","","","","","","","","","feedback_test","","","","","","","","","","","",""
"0","","f","psychophysics","119","277908","0.0-7.0-0.0-1.1-0.1-0.54","3","4","3","3","3","4","3","2","3","3","4","4","4","4","4","5","4","4","4","4","2","1","2","2","2","2","2","4","2","0","1","0","0","0","0","0","1","0","0","0","1","0","0","0","4","2","2","2","1","4","4","5","4","4","2","763057227551739906","颜","374","","","","match","","","","","","","","","","","","","","key","f","16.668813559322388","683","380","f","true","match","img/trapezoid.png","梯形","梯形","ALT1_1","prac_ALT1_1","","","","","","","","","","","",""
"null","<span style='color:yellow; font-size: 70px;'>过快! </span>","null","html-keyboard-response","120","278410","0.0-7.0-0.0-1.1-0.1-1.54","3","4","3","3","3","4","3","2","3","3","4","4","4","4","4","5","4","4","4","4","2","1","2","2","2","2","2","4","2","0","1","0","0","0","0","0","1","0","0","0","1","0","0","0","4","2","2","2","1","4","4","5","4","4","2","763057227551739906","颜","374","","","","","","","","","","","","","","","","","","","","","","","","","","","","","","feedback_test","","","","","","","","","","","",""
"363","","j","psychophysics","121","279776","0.0-7.0-0.0-1.1-0.1-0.55","3","4","3","3","3","4","3","2","3","3","4","4","4","4","4","5","4","4","4","4","2","1","2","2","2","2","2","4","2","0","1","0","0","0","0","0","1","0","0","0","1","0","0","0","4","2","2","2","1","4","4","5","4","4","2","763057227551739906","颜","374","","","","nonmatch","","","","","","","","","","","","","","key","j","16.667575000000216","683","380","f","false","match","img/ellipse.png","椭圆","椭圆","ALT1_1","prac_ALT1_1","","","","","","","","","","","",""
"null","<span style='color:red; font-size: 70px;'>错误! </span>","null","html-keyboard-response","122","280277","0.0-7.0-0.0-1.1-0.1-1.55","3","4","3","3","3","4","3","2","3","3","4","4","4","4","4","5","4","4","4","4","2","1","2","2","2","2","2","4","2","0","1","0","0","0","0","0","1","0","0","0","1","0","0","0","4","2","2","2","1","4","4","5","4","4","2","763057227551739906","颜","374","","","","","","","","","","","","","","","","","","","","","","","","","","","","","","feedback_test","","","","","","","","","","","",""
"281","","f","psychophysics","123","281560","0.0-7.0-0.0-1.1-0.1-0.56","3","4","3","3","3","4","3","2","3","3","4","4","4","4","4","5","4","4","4","4","2","1","2","2","2","2","2","4","2","0","1","0","0","0","0","0","1","0","0","0","1","0","0","0","4","2","2","2","1","4","4","5","4","4","2","763057227551739906","颜","374","","","","match","","","","","","","","","","","","","","key","f","16.666131578947994","683","380","f","true","match","img/trapezoid.png","梯形","梯形","ALT1_1","prac_ALT1_1","","","","","","","","","","","",""
"null","<span style='color:GreenYellow; font-size: 70px;'>正确! </span>","null","html-keyboard-response","124","282063","0.0-7.0-0.0-1.1-0.1-1.56","3","4","3","3","3","4","3","2","3","3","4","4","4","4","4","5","4","4","4","4","2","1","2","2","2","2","2","4","2","0","1","0","0","0","0","0","1","0","0","0","1","0","0","0","4","2","2","2","1","4","4","5","4","4","2","763057227551739906","颜","374","","","","","","","","","","","","","","","","","","","","","","","","","","","","","","feedback_test","","","","","","","","","","","",""
"228","","j","psychophysics","125","283293","0.0-7.0-0.0-1.1-0.1-0.57","3","4","3","3","3","4","3","2","3","3","4","4","4","4","4","5","4","4","4","4","2","1","2","2","2","2","2","4","2","0","1","0","0","0","0","0","1","0","0","0","1","0","0","0","4","2","2","2","1","4","4","5","4","4","2","763057227551739906","颜","374","","","","nonmatch","","","","","","","","","","","","","","key","j","16.666287671232418","683","380","j","true","nonmatch","img/trapezoid.png","五边","梯形","ALT1_1","prac_ALT1_1","","","","","","","","","","","",""
"null","<span style='color:GreenYellow; font-size: 70px;'>正确! </span>","null","html-keyboard-response","126","283795","0.0-7.0-0.0-1.1-0.1-1.57","3","4","3","3","3","4","3","2","3","3","4","4","4","4","4","5","4","4","4","4","2","1","2","2","2","2","2","4","2","0","1","0","0","0","0","0","1","0","0","0","1","0","0","0","4","2","2","2","1","4","4","5","4","4","2","763057227551739906","颜","374","","","","","","","","","","","","","","","","","","","","","","","","","","","","","","feedback_test","","","","","","","","","","","",""
"282","","j","psychophysics","127","285079","0.0-7.0-0.0-1.1-0.1-0.58","3","4","3","3","3","4","3","2","3","3","4","4","4","4","4","5","4","4","4","4","2","1","2","2","2","2","2","4","2","0","1","0","0","0","0","0","1","0","0","0","1","0","0","0","4","2","2","2","1","4","4","5","4","4","2","763057227551739906","颜","374","","","","nonmatch","","","","","","","","","","","","","","key","j","16.66614473684259","683","380","j","true","nonmatch","img/pentagon.png","梯形","五边","ALT1_1","prac_ALT1_1","","","","","","","","","","","",""
"null","<span style='color:GreenYellow; font-size: 70px;'>正确! </span>","null","html-keyboard-response","128","285580","0.0-7.0-0.0-1.1-0.1-1.58","3","4","3","3","3","4","3","2","3","3","4","4","4","4","4","5","4","4","4","4","2","1","2","2","2","2","2","4","2","0","1","0","0","0","0","0","1","0","0","0","1","0","0","0","4","2","2","2","1","4","4","5","4","4","2","763057227551739906","颜","374","","","","","","","","","","","","","","","","","","","","","","","","","","","","","","feedback_test","","","","","","","","","","","",""
"46","","j","psychophysics","129","286629","0.0-7.0-0.0-1.1-0.1-0.59","3","4","3","3","3","4","3","2","3","3","4","4","4","4","4","5","4","4","4","4","2","1","2","2","2","2","2","4","2","0","1","0","0","0","0","0","1","0","0","0","1","0","0","0","4","2","2","2","1","4","4","5","4","4","2","763057227551739906","颜","374","","","","nonmatch","","","","","","","","","","","","","","key","j","16.666564516128876","683","380","j","true","nonmatch","img/trapezoid.png","菱形","梯形","ALT1_1","prac_ALT1_1","","","","","","","","","","","",""
"null","<span style='color:yellow; font-size: 70px;'>过快! </span>","null","html-keyboard-response","130","287132","0.0-7.0-0.0-1.1-0.1-1.59","3","4","3","3","3","4","3","2","3","3","4","4","4","4","4","5","4","4","4","4","2","1","2","2","2","2","2","4","2","0","1","0","0","0","0","0","1","0","0","0","1","0","0","0","4","2","2","2","1","4","4","5","4","4","2","763057227551739906","颜","374","","","","","","","","","","","","","","","","","","","","","","","","","","","","","","feedback_test","","","","","","","","","","","",""
"236","","j","psychophysics","131","288371","0.0-7.0-0.0-1.1-0.1-0.60","3","4","3","3","3","4","3","2","3","3","4","4","4","4","4","5","4","4","4","4","2","1","2","2","2","2","2","4","2","0","1","0","0","0","0","0","1","0","0","0","1","0","0","0","4","2","2","2","1","4","4","5","4","4","2","763057227551739906","颜","374","","","","nonmatch","","","","","","","","","","","","","","key","j","16.66669863013691","683","380","j","true","nonmatch","img/ellipse.png","五边","椭圆","ALT1_1","prac_ALT1_1","","","","","","","","","","","",""
"null","<span style='color:GreenYellow; font-size: 70px;'>正确! </span>","null","html-keyboard-response","132","288872","0.0-7.0-0.0-1.1-0.1-1.60","3","4","3","3","3","4","3","2","3","3","4","4","4","4","4","5","4","4","4","4","2","1","2","2","2","2","2","4","2","0","1","0","0","0","0","0","1","0","0","0","1","0","0","0","4","2","2","2","1","4","4","5","4","4","2","763057227551739906","颜","374","","","","","","","","","","","","","","","","","","","","","","","","","","","","","","feedback_test","","","","","","","","","","","",""
"153","","j","psychophysics","133","290028","0.0-7.0-0.0-1.1-0.1-0.61","3","4","3","3","3","4","3","2","3","3","4","4","4","4","4","5","4","4","4","4","2","1","2","2","2","2","2","4","2","0","1","0","0","0","0","0","1","0","0","0","1","0","0","0","4","2","2","2","1","4","4","5","4","4","2","763057227551739906","颜","374","","","","nonmatch","","","","","","","","","","","","","","key","j","16.66662318840542","683","380","f","false","match","img/diamond.png","菱形","菱形","ALT1_1","prac_ALT1_1","","","","","","","","","","","",""
"null","<span style='color:yellow; font-size: 70px;'>过快! </span>","null","html-keyboard-response","134","290529","0.0-7.0-0.0-1.1-0.1-1.61","3","4","3","3","3","4","3","2","3","3","4","4","4","4","4","5","4","4","4","4","2","1","2","2","2","2","2","4","2","0","1","0","0","0","0","0","1","0","0","0","1","0","0","0","4","2","2","2","1","4","4","5","4","4","2","763057227551739906","颜","374","","","","","","","","","","","","","","","","","","","","","","","","","","","","","","feedback_test","","","","","","","","","","","",""
"279","","f","psychophysics","135","291811","0.0-7.0-0.0-1.1-0.1-0.62","3","4","3","3","3","4","3","2","3","3","4","4","4","4","4","5","4","4","4","4","2","1","2","2","2","2","2","4","2","0","1","0","0","0","0","0","1","0","0","0","1","0","0","0","4","2","2","2","1","4","4","5","4","4","2","763057227551739906","颜","374","","","","match","","","","","","","","","","","","","","key","f","16.666223684210166","683","380","j","false","nonmatch","img/pentagon.png","菱形","五边","ALT1_1","prac_ALT1_1","","","","","","","","","","","",""
"null","<span style='color:red; font-size: 70px;'>错误! </span>","null","html-keyboard-response","136","292314","0.0-7.0-0.0-1.1-0.1-1.62","3","4","3","3","3","4","3","2","3","3","4","4","4","4","4","5","4","4","4","4","2","1","2","2","2","2","2","4","2","0","1","0","0","0","0","0","1","0","0","0","1","0","0","0","4","2","2","2","1","4","4","5","4","4","2","763057227551739906","颜","374","","","","","","","","","","","","","","","","","","","","","","","","","","","","","","feedback_test","","","","","","","","","","","",""
"221","","j","psychophysics","137","293538","0.0-7.0-0.0-1.1-0.1-0.63","3","4","3","3","3","4","3","2","3","3","4","4","4","4","4","5","4","4","4","4","2","1","2","2","2","2","2","4","2","0","1","0","0","0","0","0","1","0","0","0","1","0","0","0","4","2","2","2","1","4","4","5","4","4","2","763057227551739906","颜","374","","","","nonmatch","","","","","","","","","","","","","","key","j","16.666930555555155","683","380","j","true","nonmatch","img/ellipse.png","梯形","椭圆","ALT1_1","prac_ALT1_1","","","","","","","","","","","",""
"null","<span style='color:GreenYellow; font-size: 70px;'>正确! </span>","null","html-keyboard-response","138","294041","0.0-7.0-0.0-1.1-0.1-1.63","3","4","3","3","3","4","3","2","3","3","4","4","4","4","4","5","4","4","4","4","2","1","2","2","2","2","2","4","2","0","1","0","0","0","0","0","1","0","0","0","1","0","0","0","4","2","2","2","1","4","4","5","4","4","2","763057227551739906","颜","374","","","","","","","","","","","","","","","","","","","","","","","","","","","","","","feedback_test","","","","","","","","","","","",""
"91","","f","psychophysics","139","295134","0.0-7.0-0.0-1.1-0.1-0.64","3","4","3","3","3","4","3","2","3","3","4","4","4","4","4","5","4","4","4","4","2","1","2","2","2","2","2","4","2","0","1","0","0","0","0","0","1","0","0","0","1","0","0","0","4","2","2","2","1","4","4","5","4","4","2","763057227551739906","颜","374","","","","match","","","","","","","","","","","","","","key","f","16.667374999999993","683","380","j","false","nonmatch","img/ellipse.png","菱形","椭圆","ALT1_1","prac_ALT1_1","","","","","","","","","","","",""
"null","<span style='color:yellow; font-size: 70px;'>过快! </span>","null","html-keyboard-response","140","295636","0.0-7.0-0.0-1.1-0.1-1.64","3","4","3","3","3","4","3","2","3","3","4","4","4","4","4","5","4","4","4","4","2","1","2","2","2","2","2","4","2","0","1","0","0","0","0","0","1","0","0","0","1","0","0","0","4","2","2","2","1","4","4","5","4","4","2","763057227551739906","颜","374","","","","","","","","","","","","","","","","","","","","","","","","","","","","","","feedback_test","","","","","","","","","","","",""
"120","","j","psychophysics","141","296760","0.0-7.0-0.0-1.1-0.1-0.65","3","4","3","3","3","4","3","2","3","3","4","4","4","4","4","5","4","4","4","4","2","1","2","2","2","2","2","4","2","0","1","0","0","0","0","0","1","0","0","0","1","0","0","0","4","2","2","2","1","4","4","5","4","4","2","763057227551739906","颜","374","","","","nonmatch","","","","","","","","","","","","","","key","j","16.666552238805746","683","380","f","false","match","img/ellipse.png","椭圆","椭圆","ALT1_1","prac_ALT1_1","","","","","","","","","","","",""
"null","<span style='color:yellow; font-size: 70px;'>过快! </span>","null","html-keyboard-response","142","297262","0.0-7.0-0.0-1.1-0.1-1.65","3","4","3","3","3","4","3","2","3","3","4","4","4","4","4","5","4","4","4","4","2","1","2","2","2","2","2","4","2","0","1","0","0","0","0","0","1","0","0","0","1","0","0","0","4","2","2","2","1","4","4","5","4","4","2","763057227551739906","颜","374","","","","","","","","","","","","","","","","","","","","","","","","","","","","","","feedback_test","","","","","","","","","","","",""
"184","","f","psychophysics","143","298448","0.0-7.0-0.0-1.1-0.1-0.66","3","4","3","3","3","4","3","2","3","3","4","4","4","4","4","5","4","4","4","4","2","1","2","2","2","2","2","4","2","0","1","0","0","0","0","0","1","0","0","0","1","0","0","0","4","2","2","2","1","4","4","5","4","4","2","763057227551739906","颜","374","","","","match","","","","","","","","","","","","","","key","f","16.66722857142865","683","380","f","true","match","img/diamond.png","菱形","菱形","ALT1_1","prac_ALT1_1","","","","","","","","","","","",""
"null","<span style='color:yellow; font-size: 70px;'>过快! </span>","null","html-keyboard-response","144","298949","0.0-7.0-0.0-1.1-0.1-1.66","3","4","3","3","3","4","3","2","3","3","4","4","4","4","4","5","4","4","4","4","2","1","2","2","2","2","2","4","2","0","1","0","0","0","0","0","1","0","0","0","1","0","0","0","4","2","2","2","1","4","4","5","4","4","2","763057227551739906","颜","374","","","","","","","","","","","","","","","","","","","","","","","","","","","","","","feedback_test","","","","","","","","","","","",""
"219","","j","psychophysics","145","300171","0.0-7.0-0.0-1.1-0.1-0.67","3","4","3","3","3","4","3","2","3","3","4","4","4","4","4","5","4","4","4","4","2","1","2","2","2","2","2","4","2","0","1","0","0","0","0","0","1","0","0","0","1","0","0","0","4","2","2","2","1","4","4","5","4","4","2","763057227551739906","颜","374","","","","nonmatch","","","","","","","","","","","","","","key","j","16.666583333333417","683","380","j","true","nonmatch","img/diamond.png","梯形","菱形","ALT1_1","prac_ALT1_1","","","","","","","","","","","",""
"null","<span style='color:GreenYellow; font-size: 70px;'>正确! </span>","null","html-keyboard-response","146","300674","0.0-7.0-0.0-1.1-0.1-1.67","3","4","3","3","3","4","3","2","3","3","4","4","4","4","4","5","4","4","4","4","2","1","2","2","2","2","2","4","2","0","1","0","0","0","0","0","1","0","0","0","1","0","0","0","4","2","2","2","1","4","4","5","4","4","2","763057227551739906","颜","374","","","","","","","","","","","","","","","","","","","","","","","","","","","","","","feedback_test","","","","","","","","","","","",""
"249","","j","psychophysics","147","301925","0.0-7.0-0.0-1.1-0.1-0.68","3","4","3","3","3","4","3","2","3","3","4","4","4","4","4","5","4","4","4","4","2","1","2","2","2","2","2","4","2","0","1","0","0","0","0","0","1","0","0","0","1","0","0","0","4","2","2","2","1","4","4","5","4","4","2","763057227551739906","颜","374","","","","nonmatch","","","","","","","","","","","","","","key","j","16.666068493150977","683","380","j","true","nonmatch","img/diamond.png","椭圆","菱形","ALT1_1","prac_ALT1_1","","","","","","","","","","","",""
"null","<span style='color:GreenYellow; font-size: 70px;'>正确! </span>","null","html-keyboard-response","148","302427","0.0-7.0-0.0-1.1-0.1-1.68","3","4","3","3","3","4","3","2","3","3","4","4","4","4","4","5","4","4","4","4","2","1","2","2","2","2","2","4","2","0","1","0","0","0","0","0","1","0","0","0","1","0","0","0","4","2","2","2","1","4","4","5","4","4","2","763057227551739906","颜","374","","","","","","","","","","","","","","","","","","","","","","","","","","","","","","feedback_test","","","","","","","","","","","",""
"296","","j","psychophysics","149","303725","0.0-7.0-0.0-1.1-0.1-0.69","3","4","3","3","3","4","3","2","3","3","4","4","4","4","4","5","4","4","4","4","2","1","2","2","2","2","2","4","2","0","1","0","0","0","0","0","1","0","0","0","1","0","0","0","4","2","2","2","1","4","4","5","4","4","2","763057227551739906","颜","374","","","","nonmatch","","","","","","","","","","","","","","key","j","16.66648051948075","683","380","j","true","nonmatch","img/trapezoid.png","椭圆","梯形","ALT1_1","prac_ALT1_1","","","","","","","","","","","",""
"null","<span style='color:GreenYellow; font-size: 70px;'>正确! </span>","null","html-keyboard-response","150","304228","0.0-7.0-0.0-1.1-0.1-1.69","3","4","3","3","3","4","3","2","3","3","4","4","4","4","4","5","4","4","4","4","2","1","2","2","2","2","2","4","2","0","1","0","0","0","0","0","1","0","0","0","1","0","0","0","4","2","2","2","1","4","4","5","4","4","2","763057227551739906","颜","374","","","","","","","","","","","","","","","","","","","","","","","","","","","","","","feedback_test","","","","","","","","","","","",""
"null","","null","psychophysics","151","306433","0.0-7.0-0.0-1.1-0.1-0.70","3","4","3","3","3","4","3","2","3","3","4","4","4","4","4","5","4","4","4","4","2","1","2","2","2","2","2","4","2","0","1","0","0","0","0","0","1","0","0","0","1","0","0","0","4","2","2","2","1","4","4","5","4","4","2","763057227551739906","颜","374","","","","null","","","","","","","","","","","","","","key","null","16.666221374045534","683","380","f","false","match","img/pentagon.png","五边","五边","ALT1_1","prac_ALT1_1","","","","","","","","","","","",""
"null","<span class='add_' style='color:yellow; font-size: 70px;'> 太慢! </span>","null","html-keyboard-response","152","306935","0.0-7.0-0.0-1.1-0.1-1.70","3","4","3","3","3","4","3","2","3","3","4","4","4","4","4","5","4","4","4","4","2","1","2","2","2","2","2","4","2","0","1","0","0","0","0","0","1","0","0","0","1","0","0","0","4","2","2","2","1","4","4","5","4","4","2","763057227551739906","颜","374","","","","","","","","","","","","","","","","","","","","","","","","","","","","","","feedback_test","","","","","","","","","","","",""
"287","","j","psychophysics","153","308225","0.0-7.0-0.0-1.1-0.1-0.71","3","4","3","3","3","4","3","2","3","3","4","4","4","4","4","5","4","4","4","4","2","1","2","2","2","2","2","4","2","0","1","0","0","0","0","0","1","0","0","0","1","0","0","0","4","2","2","2","1","4","4","5","4","4","2","763057227551739906","颜","374","","","","nonmatch","","","","","","","","","","","","","","key","j","16.666974025974262","683","380","f","false","match","img/trapezoid.png","梯形","梯形","ALT1_1","prac_ALT1_1","","","","","","","","","","","",""
"null","<span style='color:red; font-size: 70px;'>错误! </span>","null","html-keyboard-response","154","308728","0.0-7.0-0.0-1.1-0.1-1.71","3","4","3","3","3","4","3","2","3","3","4","4","4","4","4","5","4","4","4","4","2","1","2","2","2","2","2","4","2","0","1","0","0","0","0","0","1","0","0","0","1","0","0","0","4","2","2","2","1","4","4","5","4","4","2","763057227551739906","颜","374","","","","","","","","","","","","","","","","","","","","","","","","","","","","","","feedback_test","","","","","","","","","","","",""
"309","","f","psychophysics","155","310041","0.0-7.0-0.0-1.1-0.1-0.72","3","4","3","3","3","4","3","2","3","3","4","4","4","4","4","5","4","4","4","4","2","1","2","2","2","2","2","4","2","0","1","0","0","0","0","0","1","0","0","0","1","0","0","0","4","2","2","2","1","4","4","5","4","4","2","763057227551739906","颜","374","","","","match","","","","","","","","","","","","","","key","f","16.66671428571428","683","380","j","false","nonmatch","img/pentagon.png","椭圆","五边","ALT1_1","prac_ALT1_1","","","","","","","","","","","",""
"null","<span style='color:red; font-size: 70px;'>错误! </span>","null","html-keyboard-response","156","310542","0.0-7.0-0.0-1.1-0.1-1.72","3","4","3","3","3","4","3","2","3","3","4","4","4","4","4","5","4","4","4","4","2","1","2","2","2","2","2","4","2","0","1","0","0","0","0","0","1","0","0","0","1","0","0","0","4","2","2","2","1","4","4","5","4","4","2","763057227551739906","颜","374","","","","","","","","","","","","","","","","","","","","","","","","","","","","","","feedback_test","","","","","","","","","","","",""
"910","","j","psychophysics","157","312456","0.0-7.0-0.0-1.1-0.1-0.73","3","4","3","3","3","4","3","2","3","3","4","4","4","4","4","5","4","4","4","4","2","1","2","2","2","2","2","4","2","0","1","0","0","0","0","0","1","0","0","0","1","0","0","0","4","2","2","2","1","4","4","5","4","4","2","763057227551739906","颜","374","","","","nonmatch","","","","","","","","","","","","","","key","j","16.66601769911461","683","380","j","true","nonmatch","img/trapezoid.png","菱形","梯形","ALT1_1","prac_ALT1_1","","","","","","","","","","","",""
"null","<span style='color:GreenYellow; font-size: 70px;'>正确! </span>","null","html-keyboard-response","158","312958","0.0-7.0-0.0-1.1-0.1-1.73","3","4","3","3","3","4","3","2","3","3","4","4","4","4","4","5","4","4","4","4","2","1","2","2","2","2","2","4","2","0","1","0","0","0","0","0","1","0","0","0","1","0","0","0","4","2","2","2","1","4","4","5","4","4","2","763057227551739906","颜","374","","","","","","","","","","","","","","","","","","","","","","","","","","","","","","feedback_test","","","","","","","","","","","",""
"974","","j","psychophysics","159","314934","0.0-7.0-0.0-1.1-0.1-0.74","3","4","3","3","3","4","3","2","3","3","4","4","4","4","4","5","4","4","4","4","2","1","2","2","2","2","2","4","2","0","1","0","0","0","0","0","1","0","0","0","1","0","0","0","4","2","2","2","1","4","4","5","4","4","2","763057227551739906","颜","374","","","","nonmatch","","","","","","","","","","","","","","key","j","16.666000000000174","683","380","f","false","match","img/trapezoid.png","梯形","梯形","ALT1_1","prac_ALT1_1","","","","","","","","","","","",""
"null","<span style='color:red; font-size: 70px;'>错误! </span>","null","html-keyboard-response","160","315437","0.0-7.0-0.0-1.1-0.1-1.74","3","4","3","3","3","4","3","2","3","3","4","4","4","4","4","5","4","4","4","4","2","1","2","2","2","2","2","4","2","0","1","0","0","0","0","0","1","0","0","0","1","0","0","0","4","2","2","2","1","4","4","5","4","4","2","763057227551739906","颜","374","","","","","","","","","","","","","","","","","","","","","","","","","","","","","","feedback_test","","","","","","","","","","","",""
"null","","null","psychophysics","161","317641","0.0-7.0-0.0-1.1-0.1-0.75","3","4","3","3","3","4","3","2","3","3","4","4","4","4","4","5","4","4","4","4","2","1","2","2","2","2","2","4","2","0","1","0","0","0","0","0","1","0","0","0","1","0","0","0","4","2","2","2","1","4","4","5","4","4","2","763057227551739906","颜","374","","","","null","","","","","","","","","","","","","","key","null","16.666378787878784","683","380","j","false","nonmatch","img/pentagon.png","梯形","五边","ALT1_1","prac_ALT1_1","","","","","","","","","","","",""
"null","<span class='add_' style='color:yellow; font-size: 70px;'> 太慢! </span>","null","html-keyboard-response","162","318144","0.0-7.0-0.0-1.1-0.1-1.75","3","4","3","3","3","4","3","2","3","3","4","4","4","4","4","5","4","4","4","4","2","1","2","2","2","2","2","4","2","0","1","0","0","0","0","0","1","0","0","0","1","0","0","0","4","2","2","2","1","4","4","5","4","4","2","763057227551739906","颜","374","","","","","","","","","","","","","","","","","","","","","","","","","","","","","","feedback_test","","","","","","","","","","","",""
"747","","j","psychophysics","163","319894","0.0-7.0-0.0-1.1-0.1-0.76","3","4","3","3","3","4","3","2","3","3","4","4","4","4","4","5","4","4","4","4","2","1","2","2","2","2","2","4","2","0","1","0","0","0","0","0","1","0","0","0","1","0","0","0","4","2","2","2","1","4","4","5","4","4","2","763057227551739906","颜","374","","","","nonmatch","","","","","","","","","","","","","","key","j","16.666355769231114","683","380","f","false","match","img/ellipse.png","椭圆","椭圆","ALT1_1","prac_ALT1_1","","","","","","","","","","","",""
"null","<span style='color:red; font-size: 70px;'>错误! </span>","null","html-keyboard-response","164","320397","0.0-7.0-0.0-1.1-0.1-1.76","3","4","3","3","3","4","3","2","3","3","4","4","4","4","4","5","4","4","4","4","2","1","2","2","2","2","2","4","2","0","1","0","0","0","0","0","1","0","0","0","1","0","0","0","4","2","2","2","1","4","4","5","4","4","2","763057227551739906","颜","374","","","","","","","","","","","","","","","","","","","","","","","","","","","","","","feedback_test","","","","","","","","","","","",""
"758","","f","psychophysics","165","322158","0.0-7.0-0.0-1.1-0.1-0.77","3","4","3","3","3","4","3","2","3","3","4","4","4","4","4","5","4","4","4","4","2","1","2","2","2","2","2","4","2","0","1","0","0","0","0","0","1","0","0","0","1","0","0","0","4","2","2","2","1","4","4","5","4","4","2","763057227551739906","颜","374","","","","match","","","","","","","","","","","","","","key","f","16.666904761904984","683","380","f","true","match","img/diamond.png","菱形","菱形","ALT1_1","prac_ALT1_1","","","","","","","","","","","",""
"null","<span style='color:GreenYellow; font-size: 70px;'>正确! </span>","null","html-keyboard-response","166","322660","0.0-7.0-0.0-1.1-0.1-1.77","3","4","3","3","3","4","3","2","3","3","4","4","4","4","4","5","4","4","4","4","2","1","2","2","2","2","2","4","2","0","1","0","0","0","0","0","1","0","0","0","1","0","0","0","4","2","2","2","1","4","4","5","4","4","2","763057227551739906","颜","374","","","","","","","","","","","","","","","","","","","","","","","","","","","","","","feedback_test","","","","","","","","","","","",""
"605","","j","psychophysics","167","324268","0.0-7.0-0.0-1.1-0.1-0.78","3","4","3","3","3","4","3","2","3","3","4","4","4","4","4","5","4","4","4","4","2","1","2","2","2","2","2","4","2","0","1","0","0","0","0","0","1","0","0","0","1","0","0","0","4","2","2","2","1","4","4","5","4","4","2","763057227551739906","颜","374","","","","nonmatch","","","","","","","","","","","","","","key","j","16.66651578947387","683","380","f","false","match","img/trapezoid.png","梯形","梯形","ALT1_1","prac_ALT1_1","","","","","","","","","","","",""
"null","<span style='color:red; font-size: 70px;'>错误! </span>","null","html-keyboard-response","168","324769","0.0-7.0-0.0-1.1-0.1-1.78","3","4","3","3","3","4","3","2","3","3","4","4","4","4","4","5","4","4","4","4","2","1","2","2","2","2","2","4","2","0","1","0","0","0","0","0","1","0","0","0","1","0","0","0","4","2","2","2","1","4","4","5","4","4","2","763057227551739906","颜","374","","","","","","","","","","","","","","","","","","","","","","","","","","","","","","feedback_test","","","","","","","","","","","",""
"480","","f","psychophysics","169","326251","0.0-7.0-0.0-1.1-0.1-0.79","3","4","3","3","3","4","3","2","3","3","4","4","4","4","4","5","4","4","4","4","2","1","2","2","2","2","2","4","2","0","1","0","0","0","0","0","1","0","0","0","1","0","0","0","4","2","2","2","1","4","4","5","4","4","2","763057227551739906","颜","374","","","","match","","","","","","","","","","","","","","key","f","16.6670113636362","683","380","j","false","nonmatch","img/ellipse.png","五边","椭圆","ALT1_1","prac_ALT1_1","","","","","","","","","","","",""
"null","<span style='color:red; font-size: 70px;'>错误! </span>","null","html-keyboard-response","170","326753","0.0-7.0-0.0-1.1-0.1-1.79","3","4","3","3","3","4","3","2","3","3","4","4","4","4","4","5","4","4","4","4","2","1","2","2","2","2","2","4","2","0","1","0","0","0","0","0","1","0","0","0","1","0","0","0","4","2","2","2","1","4","4","5","4","4","2","763057227551739906","颜","374","","","","","","","","","","","","","","","","","","","","","","","","","","","","","","feedback_test","","","","","","","","","","","",""
"485","","f","psychophysics","171","328242","0.0-7.0-0.0-1.1-0.1-0.80","3","4","3","3","3","4","3","2","3","3","4","4","4","4","4","5","4","4","4","4","2","1","2","2","2","2","2","4","2","0","1","0","0","0","0","0","1","0","0","0","1","0","0","0","4","2","2","2","1","4","4","5","4","4","2","763057227551739906","颜","374","","","","match","","","","","","","","","","","","","","key","f","16.666685393258007","683","380","f","true","match","img/ellipse.png","椭圆","椭圆","ALT1_1","prac_ALT1_1","","","","","","","","","","","",""
"null","<span style='color:GreenYellow; font-size: 70px;'>正确! </span>","null","html-keyboard-response","172","328745","0.0-7.0-0.0-1.1-0.1-1.80","3","4","3","3","3","4","3","2","3","3","4","4","4","4","4","5","4","4","4","4","2","1","2","2","2","2","2","4","2","0","1","0","0","0","0","0","1","0","0","0","1","0","0","0","4","2","2","2","1","4","4","5","4","4","2","763057227551739906","颜","374","","","","","","","","","","","","","","","","","","","","","","","","","","","","","","feedback_test","","","","","","","","","","","",""
"365","","j","psychophysics","173","330111","0.0-7.0-0.0-1.1-0.1-0.81","3","4","3","3","3","4","3","2","3","3","4","4","4","4","4","5","4","4","4","4","2","1","2","2","2","2","2","4","2","0","1","0","0","0","0","0","1","0","0","0","1","0","0","0","4","2","2","2","1","4","4","5","4","4","2","763057227551739906","颜","374","","","","nonmatch","","","","","","","","","","","","","","key","j","16.666802469135785","683","380","j","true","nonmatch","img/trapezoid.png","五边","梯形","ALT1_1","prac_ALT1_1","","","","","","","","","","","",""
"null","<span style='color:GreenYellow; font-size: 70px;'>正确! </span>","null","html-keyboard-response","174","330613","0.0-7.0-0.0-1.1-0.1-1.81","3","4","3","3","3","4","3","2","3","3","4","4","4","4","4","5","4","4","4","4","2","1","2","2","2","2","2","4","2","0","1","0","0","0","0","0","1","0","0","0","1","0","0","0","4","2","2","2","1","4","4","5","4","4","2","763057227551739906","颜","374","","","","","","","","","","","","","","","","","","","","","","","","","","","","","","feedback_test","","","","","","","","","","","",""
"612","","f","psychophysics","175","332227","0.0-7.0-0.0-1.1-0.1-0.82","3","4","3","3","3","4","3","2","3","3","4","4","4","4","4","5","4","4","4","4","2","1","2","2","2","2","2","4","2","0","1","0","0","0","0","0","1","0","0","0","1","0","0","0","4","2","2","2","1","4","4","5","4","4","2","763057227551739906","颜","374","","","","match","","","","","","","","","","","","","","key","f","16.66733333333347","683","380","f","true","match","img/diamond.png","菱形","菱形","ALT1_1","prac_ALT1_1","","","","","","","","","","","",""
"null","<span style='color:GreenYellow; font-size: 70px;'>正确! </span>","null","html-keyboard-response","176","332729","0.0-7.0-0.0-1.1-0.1-1.82","3","4","3","3","3","4","3","2","3","3","4","4","4","4","4","5","4","4","4","4","2","1","2","2","2","2","2","4","2","0","1","0","0","0","0","0","1","0","0","0","1","0","0","0","4","2","2","2","1","4","4","5","4","4","2","763057227551739906","颜","374","","","","","","","","","","","","","","","","","","","","","","","","","","","","","","feedback_test","","","","","","","","","","","",""
"440","","j","psychophysics","177","334171","0.0-7.0-0.0-1.1-0.1-0.83","3","4","3","3","3","4","3","2","3","3","4","4","4","4","4","5","4","4","4","4","2","1","2","2","2","2","2","4","2","0","1","0","0","0","0","0","1","0","0","0","1","0","0","0","4","2","2","2","1","4","4","5","4","4","2","763057227551739906","颜","374","","","","nonmatch","","","","","","","","","","","","","","key","j","16.66832941176493","683","380","f","false","match","img/diamond.png","菱形","菱形","ALT1_1","prac_ALT1_1","","","","","","","","","","","",""
"null","<span style='color:red; font-size: 70px;'>错误! </span>","null","html-keyboard-response","178","334675","0.0-7.0-0.0-1.1-0.1-1.83","3","4","3","3","3","4","3","2","3","3","4","4","4","4","4","5","4","4","4","4","2","1","2","2","2","2","2","4","2","0","1","0","0","0","0","0","1","0","0","0","1","0","0","0","4","2","2","2","1","4","4","5","4","4","2","763057227551739906","颜","374","","","","","","","","","","","","","","","","","","","","","","","","","","","","","","feedback_test","","","","","","","","","","","",""
"434","","f","psychophysics","179","336112","0.0-7.0-0.0-1.1-0.1-0.84","3","4","3","3","3","4","3","2","3","3","4","4","4","4","4","5","4","4","4","4","2","1","2","2","2","2","2","4","2","0","1","0","0","0","0","0","1","0","0","0","1","0","0","0","4","2","2","2","1","4","4","5","4","4","2","763057227551739906","颜","374","","","","match","","","","","","","","","","","","","","key","f","16.66671764705919","683","380","j","false","nonmatch","img/diamond.png","椭圆","菱形","ALT1_1","prac_ALT1_1","","","","","","","","","","","",""
"null","<span style='color:red; font-size: 70px;'>错误! </span>","null","html-keyboard-response","180","336614","0.0-7.0-0.0-1.1-0.1-1.84","3","4","3","3","3","4","3","2","3","3","4","4","4","4","4","5","4","4","4","4","2","1","2","2","2","2","2","4","2","0","1","0","0","0","0","0","1","0","0","0","1","0","0","0","4","2","2","2","1","4","4","5","4","4","2","763057227551739906","颜","374","","","","","","","","","","","","","","","","","","","","","","","","","","","","","","feedback_test","","","","","","","","","","","",""
"277","","j","psychophysics","181","337893","0.0-7.0-0.0-1.1-0.1-0.85","3","4","3","3","3","4","3","2","3","3","4","4","4","4","4","5","4","4","4","4","2","1","2","2","2","2","2","4","2","0","1","0","0","0","0","0","1","0","0","0","1","0","0","0","4","2","2","2","1","4","4","5","4","4","2","763057227551739906","颜","374","","","","nonmatch","","","","","","","","","","","","","","key","j","16.667118421052646","683","380","j","true","nonmatch","img/diamond.png","五边","菱形","ALT1_1","prac_ALT1_1","","","","","","","","","","","",""
