"rt","stimulus","response","trial_type","trial_index","time_elapsed","internal_node_id","ses_1","ses_2","ses_3","ses_4","ses_5","ses_6","ses_7","ses_8","ses_9","ses_10","coreself_1","coreself_2","coreself_3","coreself_4","coreself_5","coreself_6","coreself_7","coreself_8","coreself_9","coreself_10","SGPS_1","SGPS_2","SGPS_3","SGPS_4","SGPS_5","SGPS_6","SGPS_7","SGPS_8","SGPS_9","NPI1","NPI2","NPI3","NPI4","NPI5","NPI6","NPI7","NPI8","NPI9","NPI10","NPI11","NPI12","NPI13","NPI14","NPI15","hsns_1","hsns_2","hsns_3","hsns_4","hsns_5","trap1","hsns_6","hsns_7","hsns_8","hsns_9","hsns_10","subj_idx","friend_name","ParticipantID","value","success","user_agent","responses","item_order","radio_event_ids","radio_event_times","key_event_times","mouse_event_times","straightlining","zigzagging","honeypot","timeout","failed_images","failed_audio","failed_video","view_history","response_type","key_press","avg_frame_time","center_x","center_y","correct_response","correct","identity","Image","word","condition","task_id","screen_id","time_stamp","version_attrib2","version_target2","IAT","RT","varname","summary","version_attrib","version_target","question_order","correct_answer","trap1_item"
"3741","
   <p><div style = ""color: white;font-size:25px;"">您好，欢迎参加本次实验。</div> </p>
   <p><div style = ""color: white;font-size:25px;"">为充分保障您的权利，请确保您已经知晓并同意《参与实验同意书》以及《数据公开知情同意书》。</div></p>
   <p><div style = ""color: white;font-size:25px;"">如果您未见过上述内容，请咨询实验员。</div></p>
   <p><div style = ""color: white;font-size:25px;"">如果您选择继续实验，则表示您已经清楚两份知情同意书的内容并同意。</div></p>
   <p><div style = ""color: pink;font-size:30px;"">请确保您记得day0的实验编号，您将在本次实验输入该编号，若您忘记，请咨询实验员后作答。</div></p>
   <p><div style = ""color: lightblue;font-size:25px;"">请您尽可能认真地作答，我们将依据您在各问卷和按键任务中的作答质量发放报酬。</div></p>
   <p> <div style = ""color: green;font-size:25px;""><按空格键至下页></div> </p>
   "," ","html-keyboard-response","0","3743","0.0-0.0","3","3","4","3","3","3","3","4","4","4","4","4","4","4","4","4","4","4","4","4","4","4","4","4","4","4","1","4","2","1","0","1","0","0","0","0","1","1","1","0","0","1","0","0","5","2","4","1","4","","4","2","1","1","1","726773976101027840","岳","281","","","","","","","","","","","","","","","","","","","","","","","","","","","","","","","","","","","","","","","","","",""
"","","","call-function","1","3744","0.0-1.0-0.0","3","3","4","3","3","3","3","4","4","4","4","4","4","4","4","4","4","4","4","4","4","4","4","4","4","4","1","4","2","1","0","1","0","0","0","0","1","1","1","0","0","1","0","0","5","2","4","1","4","","4","2","1","1","1","726773976101027840","岳","281","","","","","","","","","","","","","","","","","","","","","","","","","","","","","","","","","","","","","","","","","",""
"22947","","{""friend_name"":""岳"",""ParticipantID"":""281""}","survey-html-form","2","26691","0.0-1.0-1.0","3","3","4","3","3","3","3","4","4","4","4","4","4","4","4","4","4","4","4","4","4","4","4","4","4","4","1","4","2","1","0","1","0","0","0","0","1","1","1","0","0","1","0","0","5","2","4","1","4","","4","2","1","1","1","726773976101027840","岳","281","","","","","","","","","","","","","","","","","","","","","","","","","","","","","","","","","","","","","","","","","",""
"","","","fullscreen","3","31078","0.0-2.0","3","3","4","3","3","3","3","4","4","4","4","4","4","4","4","4","4","4","4","4","4","4","4","4","4","4","1","4","2","1","0","1","0","0","0","0","1","1","1","0","0","1","0","0","5","2","4","1","4","","4","2","1","1","1","726773976101027840","岳","281","","true","{}","","","","","","","","","","","","","","","","","","","","","","","","","","","","","","","","","","","","","","",""
"21156.899999976158","","{""Q01"":""3"",""Q02"":""3"",""Q03"":""4"",""Q04"":""3"",""Q05"":""3"",""Q06"":""3"",""Q07"":""3"",""Q08"":""4"",""Q09"":""4"",""Q10"":""4""}","survey-template","4","52237","0.0-3.0","3","3","4","3","3","3","3","4","4","4","4","4","4","4","4","4","4","4","4","4","4","4","4","4","4","4","1","4","2","1","0","1","0","0","0","0","1","1","1","0","0","1","0","0","5","2","4","1","4","","4","2","1","1","1","726773976101027840","岳","281","","","","{""Q01"":""3"",""Q02"":""3"",""Q03"":""4"",""Q04"":""3"",""Q05"":""3"",""Q06"":""3"",""Q07"":""3"",""Q08"":""4"",""Q09"":""4"",""Q10"":""4""}","[0,1,2,3,4,5,6,7,8,9]","[""Q01"",""Q02"",""Q03"",""Q04"",""Q05"",""Q06"",""Q07"",""Q08"",""Q09"",""Q10""]","[4066,5246.199999928474,8640.199999928474,9535.799999952316,12352,13210,14470.600000023842,17193.699999928474,19518,20243.899999976158]","[]","[4066,5246.199999928474,6675.899999976158,7824.100000023842,8640.199999928474,9535.799999952316,12352,13210,14470.600000023842,17193.699999928474,19518,20243.899999976158,21155.899999976158]","0.5","0.2222222222222222","0","","","","","","","","","","","","","","","","","","","","","","","","","","","","","",""
"17772.300000071526","","{""Q01"":""4"",""Q02"":""4"",""Q03"":""4"",""Q04"":""4"",""Q05"":""4"",""Q06"":""4"",""Q07"":""4"",""Q08"":""4"",""Q09"":""4"",""Q10"":""4""}","survey-template","5","70013","0.0-4.0","3","3","4","3","3","3","3","4","4","4","4","4","4","4","4","4","4","4","4","4","4","4","4","4","4","4","1","4","2","1","0","1","0","0","0","0","1","1","1","0","0","1","0","0","5","2","4","1","4","","4","2","1","1","1","726773976101027840","岳","281","","","","{""Q01"":""4"",""Q02"":""4"",""Q03"":""4"",""Q04"":""4"",""Q05"":""4"",""Q06"":""4"",""Q07"":""4"",""Q08"":""4"",""Q09"":""4"",""Q10"":""4""}","[0,1,2,3,4,5,6,7,8,9]","[""Q01"",""Q02"",""Q03"",""Q04"",""Q05"",""Q06"",""Q07"",""Q08"",""Q09"",""Q10""]","[2435,4931.100000023842,6085.300000071526,7093.200000047684,8861,9545.300000071526,11837.300000071526,13003.100000023842,14106.900000095367,16951.200000047684]","[]","[2435,4931.100000023842,6085.300000071526,7093.200000047684,8861,9545.300000071526,11837.300000071526,13003.100000023842,14106.900000095367,16267.300000071526,16951.200000047684,17771.400000095367]","0.6","0","0","","","","","","","","","","","","","","","","","","","","","","","","","","","","","",""
"","","","preload","6","70028","0.0-5.0","3","3","4","3","3","3","3","4","4","4","4","4","4","4","4","4","4","4","4","4","4","4","4","4","4","4","1","4","2","1","0","1","0","0","0","0","1","1","1","0","0","1","0","0","5","2","4","1","4","","4","2","1","1","1","726773976101027840","岳","281","","true","","","","","","","","","","","false","[]","[]","[]","","","","","","","","","","","","","","","","","","","","","","","","","",""
"13752","","","instructions","7","83780","0.0-6.0","3","3","4","3","3","3","3","4","4","4","4","4","4","4","4","4","4","4","4","4","4","4","4","4","4","4","1","4","2","1","0","1","0","0","0","0","1","1","1","0","0","1","0","0","5","2","4","1","4","","4","2","1","1","1","726773976101027840","岳","281","","","","","","","","","","","","","","","","","[{""page_index"":0,""viewing_time"":13751}]","","","","","","","","","","","","","","","","","","","","","","","","",""
"45513","","","instructions","8","129294","0.0-7.0-1.0-0.0","3","3","4","3","3","3","3","4","4","4","4","4","4","4","4","4","4","4","4","4","4","4","4","4","4","4","1","4","2","1","0","1","0","0","0","0","1","1","1","0","0","1","0","0","5","2","4","1","4","","4","2","1","1","1","726773976101027840","岳","281","","","","","","","","","","","","","","","","","[{""page_index"":0,""viewing_time"":31781},{""page_index"":1,""viewing_time"":10957},{""page_index"":2,""viewing_time"":2775}]","","","","","","","","","","","","","","","","","","","","","","","","",""
"801","","j","psychophysics","9","131099","0.0-7.0-1.0-1.0-0.0-0.0","3","3","4","3","3","3","3","4","4","4","4","4","4","4","4","4","4","4","4","4","4","4","4","4","4","4","1","4","2","1","0","1","0","0","0","0","1","1","1","0","0","1","0","0","5","2","4","1","4","","4","2","1","1","1","726773976101027840","岳","281","","","","match","","","","","","","","","","","","","","key","j","16.669710280373966","731.4285714285714","453.42857142857144","j","true","match","img/ellipse.png","椭圆","椭圆","ALT1_2","prac_ALT1_2","","","","","","","","","","","",""
"null","<span style='color:GreenYellow; font-size: 70px;'>正确! </span>","null","html-keyboard-response","10","131601","0.0-7.0-1.0-1.0-0.0-1.0","3","3","4","3","3","3","3","4","4","4","4","4","4","4","4","4","4","4","4","4","4","4","4","4","4","4","1","4","2","1","0","1","0","0","0","0","1","1","1","0","0","1","0","0","5","2","4","1","4","","4","2","1","1","1","726773976101027840","岳","281","","","","","","","","","","","","","","","","","","","","","","","","","","","","","","feedback_test","","","","","","","","","","","",""
"793","","j","psychophysics","11","133395","0.0-7.0-1.0-1.0-0.0-0.1","3","3","4","3","3","3","3","4","4","4","4","4","4","4","4","4","4","4","4","4","4","4","4","4","4","4","1","4","2","1","0","1","0","0","0","0","1","1","1","0","0","1","0","0","5","2","4","1","4","","4","2","1","1","1","726773976101027840","岳","281","","","","match","","","","","","","","","","","","","","key","j","16.665700934579537","731.4285714285714","453.42857142857144","j","true","match","img/pentagon.png","五边","五边","ALT1_2","prac_ALT1_2","","","","","","","","","","","",""
"null","<span style='color:GreenYellow; font-size: 70px;'>正确! </span>","null","html-keyboard-response","12","133897","0.0-7.0-1.0-1.0-0.0-1.1","3","3","4","3","3","3","3","4","4","4","4","4","4","4","4","4","4","4","4","4","4","4","4","4","4","4","1","4","2","1","0","1","0","0","0","0","1","1","1","0","0","1","0","0","5","2","4","1","4","","4","2","1","1","1","726773976101027840","岳","281","","","","","","","","","","","","","","","","","","","","","","","","","","","","","","feedback_test","","","","","","","","","","","",""
"723","","f","psychophysics","13","135621","0.0-7.0-1.0-1.0-0.0-0.2","3","3","4","3","3","3","3","4","4","4","4","4","4","4","4","4","4","4","4","4","4","4","4","4","4","4","1","4","2","1","0","1","0","0","0","0","1","1","1","0","0","1","0","0","5","2","4","1","4","","4","2","1","1","1","726773976101027840","岳","281","","","","nonmatch","","","","","","","","","","","","","","key","f","16.66894117647048","731.4285714285714","453.42857142857144","f","true","nonmatch","img/square.png","五边","方形","ALT1_2","prac_ALT1_2","","","","","","","","","","","",""
"null","<span style='color:GreenYellow; font-size: 70px;'>正确! </span>","null","html-keyboard-response","14","136122","0.0-7.0-1.0-1.0-0.0-1.2","3","3","4","3","3","3","3","4","4","4","4","4","4","4","4","4","4","4","4","4","4","4","4","4","4","4","1","4","2","1","0","1","0","0","0","0","1","1","1","0","0","1","0","0","5","2","4","1","4","","4","2","1","1","1","726773976101027840","岳","281","","","","","","","","","","","","","","","","","","","","","","","","","","","","","","feedback_test","","","","","","","","","","","",""
"776","","f","psychophysics","15","137899","0.0-7.0-1.0-1.0-0.0-0.3","3","3","4","3","3","3","3","4","4","4","4","4","4","4","4","4","4","4","4","4","4","4","4","4","4","4","1","4","2","1","0","1","0","0","0","0","1","1","1","0","0","1","0","0","5","2","4","1","4","","4","2","1","1","1","726773976101027840","岳","281","","","","nonmatch","","","","","","","","","","","","","","key","f","16.669141509434","731.4285714285714","453.42857142857144","j","false","match","img/trapezoid.png","梯形","梯形","ALT1_2","prac_ALT1_2","","","","","","","","","","","",""
"null","<span style='color:red; font-size: 70px;'>错误! </span>","null","html-keyboard-response","16","138401","0.0-7.0-1.0-1.0-0.0-1.3","3","3","4","3","3","3","3","4","4","4","4","4","4","4","4","4","4","4","4","4","4","4","4","4","4","4","1","4","2","1","0","1","0","0","0","0","1","1","1","0","0","1","0","0","5","2","4","1","4","","4","2","1","1","1","726773976101027840","岳","281","","","","","","","","","","","","","","","","","","","","","","","","","","","","","","feedback_test","","","","","","","","","","","",""
"null","","null","psychophysics","17","140609","0.0-7.0-1.0-1.0-0.0-0.4","3","3","4","3","3","3","3","4","4","4","4","4","4","4","4","4","4","4","4","4","4","4","4","4","4","4","1","4","2","1","0","1","0","0","0","0","1","1","1","0","0","1","0","0","5","2","4","1","4","","4","2","1","1","1","726773976101027840","岳","281","","","","null","","","","","","","","","","","","","","key","null","16.665801526717566","731.4285714285714","453.42857142857144","f","false","nonmatch","img/pentagon.png","梯形","五边","ALT1_2","prac_ALT1_2","","","","","","","","","","","",""
"null","<span class='add_' style='color:yellow; font-size: 70px;'> 太慢! </span>","null","html-keyboard-response","18","141111","0.0-7.0-1.0-1.0-0.0-1.4","3","3","4","3","3","3","3","4","4","4","4","4","4","4","4","4","4","4","4","4","4","4","4","4","4","4","1","4","2","1","0","1","0","0","0","0","1","1","1","0","0","1","0","0","5","2","4","1","4","","4","2","1","1","1","726773976101027840","岳","281","","","","","","","","","","","","","","","","","","","","","","","","","","","","","","feedback_test","","","","","","","","","","","",""
"770","","j","psychophysics","19","142882","0.0-7.0-1.0-1.0-0.0-0.5","3","3","4","3","3","3","3","4","4","4","4","4","4","4","4","4","4","4","4","4","4","4","4","4","4","4","1","4","2","1","0","1","0","0","0","0","1","1","1","0","0","1","0","0","5","2","4","1","4","","4","2","1","1","1","726773976101027840","岳","281","","","","match","","","","","","","","","","","","","","key","j","16.664209523809507","731.4285714285714","453.42857142857144","f","false","nonmatch","img/trapezoid.png","五边","梯形","ALT1_2","prac_ALT1_2","","","","","","","","","","","",""
"null","<span style='color:red; font-size: 70px;'>错误! </span>","null","html-keyboard-response","20","143384","0.0-7.0-1.0-1.0-0.0-1.5","3","3","4","3","3","3","3","4","4","4","4","4","4","4","4","4","4","4","4","4","4","4","4","4","4","4","1","4","2","1","0","1","0","0","0","0","1","1","1","0","0","1","0","0","5","2","4","1","4","","4","2","1","1","1","726773976101027840","岳","281","","","","","","","","","","","","","","","","","","","","","","","","","","","","","","feedback_test","","","","","","","","","","","",""
"895","","f","psychophysics","21","145280","0.0-7.0-1.0-1.0-0.0-0.6","3","3","4","3","3","3","3","4","4","4","4","4","4","4","4","4","4","4","4","4","4","4","4","4","4","4","1","4","2","1","0","1","0","0","0","0","1","1","1","0","0","1","0","0","5","2","4","1","4","","4","2","1","1","1","726773976101027840","岳","281","","","","nonmatch","","","","","","","","","","","","","","key","f","16.66837168141604","731.4285714285714","453.42857142857144","f","true","nonmatch","img/trapezoid.png","椭圆","梯形","ALT1_2","prac_ALT1_2","","","","","","","","","","","",""
"null","<span style='color:GreenYellow; font-size: 70px;'>正确! </span>","null","html-keyboard-response","22","145781","0.0-7.0-1.0-1.0-0.0-1.6","3","3","4","3","3","3","3","4","4","4","4","4","4","4","4","4","4","4","4","4","4","4","4","4","4","4","1","4","2","1","0","1","0","0","0","0","1","1","1","0","0","1","0","0","5","2","4","1","4","","4","2","1","1","1","726773976101027840","岳","281","","","","","","","","","","","","","","","","","","","","","","","","","","","","","","feedback_test","","","","","","","","","","","",""
"819","","j","psychophysics","23","147601","0.0-7.0-1.0-1.0-0.0-0.7","3","3","4","3","3","3","3","4","4","4","4","4","4","4","4","4","4","4","4","4","4","4","4","4","4","4","1","4","2","1","0","1","0","0","0","0","1","1","1","0","0","1","0","0","5","2","4","1","4","","4","2","1","1","1","726773976101027840","岳","281","","","","match","","","","","","","","","","","","","","key","j","16.66622222222213","731.4285714285714","453.42857142857144","f","false","nonmatch","img/pentagon.png","方形","五边","ALT1_2","prac_ALT1_2","","","","","","","","","","","",""
"null","<span style='color:red; font-size: 70px;'>错误! </span>","null","html-keyboard-response","24","148102","0.0-7.0-1.0-1.0-0.0-1.7","3","3","4","3","3","3","3","4","4","4","4","4","4","4","4","4","4","4","4","4","4","4","4","4","4","4","1","4","2","1","0","1","0","0","0","0","1","1","1","0","0","1","0","0","5","2","4","1","4","","4","2","1","1","1","726773976101027840","岳","281","","","","","","","","","","","","","","","","","","","","","","","","","","","","","","feedback_test","","","","","","","","","","","",""
"1023","","f","psychophysics","25","150127","0.0-7.0-1.0-1.0-0.0-0.8","3","3","4","3","3","3","3","4","4","4","4","4","4","4","4","4","4","4","4","4","4","4","4","4","4","4","1","4","2","1","0","1","0","0","0","0","1","1","1","0","0","1","0","0","5","2","4","1","4","","4","2","1","1","1","726773976101027840","岳","281","","","","nonmatch","","","","","","","","","","","","","","key","f","16.66623966942165","731.4285714285714","453.42857142857144","f","true","nonmatch","img/pentagon.png","椭圆","五边","ALT1_2","prac_ALT1_2","","","","","","","","","","","",""
"null","<span style='color:GreenYellow; font-size: 70px;'>正确! </span>","null","html-keyboard-response","26","150628","0.0-7.0-1.0-1.0-0.0-1.8","3","3","4","3","3","3","3","4","4","4","4","4","4","4","4","4","4","4","4","4","4","4","4","4","4","4","1","4","2","1","0","1","0","0","0","0","1","1","1","0","0","1","0","0","5","2","4","1","4","","4","2","1","1","1","726773976101027840","岳","281","","","","","","","","","","","","","","","","","","","","","","","","","","","","","","feedback_test","","","","","","","","","","","",""
"745","","j","psychophysics","27","152374","0.0-7.0-1.0-1.0-0.0-0.9","3","3","4","3","3","3","3","4","4","4","4","4","4","4","4","4","4","4","4","4","4","4","4","4","4","4","1","4","2","1","0","1","0","0","0","0","1","1","1","0","0","1","0","0","5","2","4","1","4","","4","2","1","1","1","726773976101027840","岳","281","","","","match","","","","","","","","","","","","","","key","j","16.665533980582694","731.4285714285714","453.42857142857144","j","true","match","img/pentagon.png","五边","五边","ALT1_2","prac_ALT1_2","","","","","","","","","","","",""
"null","<span style='color:GreenYellow; font-size: 70px;'>正确! </span>","null","html-keyboard-response","28","152875","0.0-7.0-1.0-1.0-0.0-1.9","3","3","4","3","3","3","3","4","4","4","4","4","4","4","4","4","4","4","4","4","4","4","4","4","4","4","1","4","2","1","0","1","0","0","0","0","1","1","1","0","0","1","0","0","5","2","4","1","4","","4","2","1","1","1","726773976101027840","岳","281","","","","","","","","","","","","","","","","","","","","","","","","","","","","","","feedback_test","","","","","","","","","","","",""
"798","","j","psychophysics","29","154675","0.0-7.0-1.0-1.0-0.0-0.10","3","3","4","3","3","3","3","4","4","4","4","4","4","4","4","4","4","4","4","4","4","4","4","4","4","4","1","4","2","1","0","1","0","0","0","0","1","1","1","0","0","1","0","0","5","2","4","1","4","","4","2","1","1","1","726773976101027840","岳","281","","","","match","","","","","","","","","","","","","","key","j","16.665841121495284","731.4285714285714","453.42857142857144","j","true","match","img/square.png","方形","方形","ALT1_2","prac_ALT1_2","","","","","","","","","","","",""
"null","<span style='color:GreenYellow; font-size: 70px;'>正确! </span>","null","html-keyboard-response","30","155176","0.0-7.0-1.0-1.0-0.0-1.10","3","3","4","3","3","3","3","4","4","4","4","4","4","4","4","4","4","4","4","4","4","4","4","4","4","4","1","4","2","1","0","1","0","0","0","0","1","1","1","0","0","1","0","0","5","2","4","1","4","","4","2","1","1","1","726773976101027840","岳","281","","","","","","","","","","","","","","","","","","","","","","","","","","","","","","feedback_test","","","","","","","","","","","",""
"941","","j","psychophysics","31","157119","0.0-7.0-1.0-1.0-0.0-0.11","3","3","4","3","3","3","3","4","4","4","4","4","4","4","4","4","4","4","4","4","4","4","4","4","4","4","1","4","2","1","0","1","0","0","0","0","1","1","1","0","0","1","0","0","5","2","4","1","4","","4","2","1","1","1","726773976101027840","岳","281","","","","match","","","","","","","","","","","","","","key","j","16.66905172413781","731.4285714285714","453.42857142857144","f","false","nonmatch","img/ellipse.png","梯形","椭圆","ALT1_2","prac_ALT1_2","","","","","","","","","","","",""
"null","<span style='color:red; font-size: 70px;'>错误! </span>","null","html-keyboard-response","32","157620","0.0-7.0-1.0-1.0-0.0-1.11","3","3","4","3","3","3","3","4","4","4","4","4","4","4","4","4","4","4","4","4","4","4","4","4","4","4","1","4","2","1","0","1","0","0","0","0","1","1","1","0","0","1","0","0","5","2","4","1","4","","4","2","1","1","1","726773976101027840","岳","281","","","","","","","","","","","","","","","","","","","","","","","","","","","","","","feedback_test","","","","","","","","","","","",""
"949","","j","psychophysics","33","159570","0.0-7.0-1.0-1.0-0.0-0.12","3","3","4","3","3","3","3","4","4","4","4","4","4","4","4","4","4","4","4","4","4","4","4","4","4","4","1","4","2","1","0","1","0","0","0","0","1","1","1","0","0","1","0","0","5","2","4","1","4","","4","2","1","1","1","726773976101027840","岳","281","","","","match","","","","","","","","","","","","","","key","j","16.665817391304248","731.4285714285714","453.42857142857144","j","true","match","img/ellipse.png","椭圆","椭圆","ALT1_2","prac_ALT1_2","","","","","","","","","","","",""
"null","<span style='color:GreenYellow; font-size: 70px;'>正确! </span>","null","html-keyboard-response","34","160071","0.0-7.0-1.0-1.0-0.0-1.12","3","3","4","3","3","3","3","4","4","4","4","4","4","4","4","4","4","4","4","4","4","4","4","4","4","4","1","4","2","1","0","1","0","0","0","0","1","1","1","0","0","1","0","0","5","2","4","1","4","","4","2","1","1","1","726773976101027840","岳","281","","","","","","","","","","","","","","","","","","","","","","","","","","","","","","feedback_test","","","","","","","","","","","",""
"731","","j","psychophysics","35","161803","0.0-7.0-1.0-1.0-0.0-0.13","3","3","4","3","3","3","3","4","4","4","4","4","4","4","4","4","4","4","4","4","4","4","4","4","4","4","1","4","2","1","0","1","0","0","0","0","1","1","1","0","0","1","0","0","5","2","4","1","4","","4","2","1","1","1","726773976101027840","岳","281","","","","match","","","","","","","","","","","","","","key","j","16.669436893203788","731.4285714285714","453.42857142857144","j","true","match","img/square.png","方形","方形","ALT1_2","prac_ALT1_2","","","","","","","","","","","",""
"null","<span style='color:GreenYellow; font-size: 70px;'>正确! </span>","null","html-keyboard-response","36","162305","0.0-7.0-1.0-1.0-0.0-1.13","3","3","4","3","3","3","3","4","4","4","4","4","4","4","4","4","4","4","4","4","4","4","4","4","4","4","1","4","2","1","0","1","0","0","0","0","1","1","1","0","0","1","0","0","5","2","4","1","4","","4","2","1","1","1","726773976101027840","岳","281","","","","","","","","","","","","","","","","","","","","","","","","","","","","","","feedback_test","","","","","","","","","","","",""
"895","","j","psychophysics","37","164201","0.0-7.0-1.0-1.0-0.0-0.14","3","3","4","3","3","3","3","4","4","4","4","4","4","4","4","4","4","4","4","4","4","4","4","4","4","4","1","4","2","1","0","1","0","0","0","0","1","1","1","0","0","1","0","0","5","2","4","1","4","","4","2","1","1","1","726773976101027840","岳","281","","","","match","","","","","","","","","","","","","","key","j","16.668637168141693","731.4285714285714","453.42857142857144","j","true","match","img/trapezoid.png","梯形","梯形","ALT1_2","prac_ALT1_2","","","","","","","","","","","",""
"null","<span style='color:GreenYellow; font-size: 70px;'>正确! </span>","null","html-keyboard-response","38","164702","0.0-7.0-1.0-1.0-0.0-1.14","3","3","4","3","3","3","3","4","4","4","4","4","4","4","4","4","4","4","4","4","4","4","4","4","4","4","1","4","2","1","0","1","0","0","0","0","1","1","1","0","0","1","0","0","5","2","4","1","4","","4","2","1","1","1","726773976101027840","岳","281","","","","","","","","","","","","","","","","","","","","","","","","","","","","","","feedback_test","","","","","","","","","","","",""
"683","","f","psychophysics","39","166386","0.0-7.0-1.0-1.0-0.0-0.15","3","3","4","3","3","3","3","4","4","4","4","4","4","4","4","4","4","4","4","4","4","4","4","4","4","4","1","4","2","1","0","1","0","0","0","0","1","1","1","0","0","1","0","0","5","2","4","1","4","","4","2","1","1","1","726773976101027840","岳","281","","","","nonmatch","","","","","","","","","","","","","","key","f","16.666909090908845","731.4285714285714","453.42857142857144","f","true","nonmatch","img/ellipse.png","五边","椭圆","ALT1_2","prac_ALT1_2","","","","","","","","","","","",""
"null","<span style='color:GreenYellow; font-size: 70px;'>正确! </span>","null","html-keyboard-response","40","166887","0.0-7.0-1.0-1.0-0.0-1.15","3","3","4","3","3","3","3","4","4","4","4","4","4","4","4","4","4","4","4","4","4","4","4","4","4","4","1","4","2","1","0","1","0","0","0","0","1","1","1","0","0","1","0","0","5","2","4","1","4","","4","2","1","1","1","726773976101027840","岳","281","","","","","","","","","","","","","","","","","","","","","","","","","","","","","","feedback_test","","","","","","","","","","","",""
"null","","null","psychophysics","41","169095","0.0-7.0-1.0-1.0-0.0-0.16","3","3","4","3","3","3","3","4","4","4","4","4","4","4","4","4","4","4","4","4","4","4","4","4","4","4","1","4","2","1","0","1","0","0","0","0","1","1","1","0","0","1","0","0","5","2","4","1","4","","4","2","1","1","1","726773976101027840","岳","281","","","","null","","","","","","","","","","","","","","key","null","16.668511450381768","731.4285714285714","453.42857142857144","f","false","nonmatch","img/square.png","椭圆","方形","ALT1_2","prac_ALT1_2","","","","","","","","","","","",""
"null","<span class='add_' style='color:yellow; font-size: 70px;'> 太慢! </span>","null","html-keyboard-response","42","169597","0.0-7.0-1.0-1.0-0.0-1.16","3","3","4","3","3","3","3","4","4","4","4","4","4","4","4","4","4","4","4","4","4","4","4","4","4","4","1","4","2","1","0","1","0","0","0","0","1","1","1","0","0","1","0","0","5","2","4","1","4","","4","2","1","1","1","726773976101027840","岳","281","","","","","","","","","","","","","","","","","","","","","","","","","","","","","","feedback_test","","","","","","","","","","","",""
"780","","f","psychophysics","43","171378","0.0-7.0-1.0-1.0-0.0-0.17","3","3","4","3","3","3","3","4","4","4","4","4","4","4","4","4","4","4","4","4","4","4","4","4","4","4","1","4","2","1","0","1","0","0","0","0","1","1","1","0","0","1","0","0","5","2","4","1","4","","4","2","1","1","1","726773976101027840","岳","281","","","","nonmatch","","","","","","","","","","","","","","key","f","16.6681226415094","731.4285714285714","453.42857142857144","f","true","nonmatch","img/ellipse.png","方形","椭圆","ALT1_2","prac_ALT1_2","","","","","","","","","","","",""
"null","<span style='color:GreenYellow; font-size: 70px;'>正确! </span>","null","html-keyboard-response","44","171880","0.0-7.0-1.0-1.0-0.0-1.17","3","3","4","3","3","3","3","4","4","4","4","4","4","4","4","4","4","4","4","4","4","4","4","4","4","4","1","4","2","1","0","1","0","0","0","0","1","1","1","0","0","1","0","0","5","2","4","1","4","","4","2","1","1","1","726773976101027840","岳","281","","","","","","","","","","","","","","","","","","","","","","","","","","","","","","feedback_test","","","","","","","","","","","",""
"751","","j","psychophysics","45","173633","0.0-7.0-1.0-1.0-0.0-0.18","3","3","4","3","3","3","3","4","4","4","4","4","4","4","4","4","4","4","4","4","4","4","4","4","4","4","1","4","2","1","0","1","0","0","0","0","1","1","1","0","0","1","0","0","5","2","4","1","4","","4","2","1","1","1","726773976101027840","岳","281","","","","match","","","","","","","","","","","","","","key","j","16.66882692307683","731.4285714285714","453.42857142857144","j","true","match","img/pentagon.png","五边","五边","ALT1_2","prac_ALT1_2","","","","","","","","","","","",""
"null","<span style='color:GreenYellow; font-size: 70px;'>正确! </span>","null","html-keyboard-response","46","174134","0.0-7.0-1.0-1.0-0.0-1.18","3","3","4","3","3","3","3","4","4","4","4","4","4","4","4","4","4","4","4","4","4","4","4","4","4","4","1","4","2","1","0","1","0","0","0","0","1","1","1","0","0","1","0","0","5","2","4","1","4","","4","2","1","1","1","726773976101027840","岳","281","","","","","","","","","","","","","","","","","","","","","","","","","","","","","","feedback_test","","","","","","","","","","","",""
"876","","j","psychophysics","47","176011","0.0-7.0-1.0-1.0-0.0-0.19","3","3","4","3","3","3","3","4","4","4","4","4","4","4","4","4","4","4","4","4","4","4","4","4","4","4","1","4","2","1","0","1","0","0","0","0","1","1","1","0","0","1","0","0","5","2","4","1","4","","4","2","1","1","1","726773976101027840","岳","281","","","","match","","","","","","","","","","","","","","key","j","16.66851785714295","731.4285714285714","453.42857142857144","j","true","match","img/ellipse.png","椭圆","椭圆","ALT1_2","prac_ALT1_2","","","","","","","","","","","",""
"null","<span style='color:GreenYellow; font-size: 70px;'>正确! </span>","null","html-keyboard-response","48","176512","0.0-7.0-1.0-1.0-0.0-1.19","3","3","4","3","3","3","3","4","4","4","4","4","4","4","4","4","4","4","4","4","4","4","4","4","4","4","1","4","2","1","0","1","0","0","0","0","1","1","1","0","0","1","0","0","5","2","4","1","4","","4","2","1","1","1","726773976101027840","岳","281","","","","","","","","","","","","","","","","","","","","","","","","","","","","","","feedback_test","","","","","","","","","","","",""
"760","","j","psychophysics","49","178273","0.0-7.0-1.0-1.0-0.0-0.20","3","3","4","3","3","3","3","4","4","4","4","4","4","4","4","4","4","4","4","4","4","4","4","4","4","4","1","4","2","1","0","1","0","0","0","0","1","1","1","0","0","1","0","0","5","2","4","1","4","","4","2","1","1","1","726773976101027840","岳","281","","","","match","","","","","","","","","","","","","","key","j","16.668788461538497","731.4285714285714","453.42857142857144","j","true","match","img/square.png","方形","方形","ALT1_2","prac_ALT1_2","","","","","","","","","","","",""
"null","<span style='color:GreenYellow; font-size: 70px;'>正确! </span>","null","html-keyboard-response","50","178774","0.0-7.0-1.0-1.0-0.0-1.20","3","3","4","3","3","3","3","4","4","4","4","4","4","4","4","4","4","4","4","4","4","4","4","4","4","4","1","4","2","1","0","1","0","0","0","0","1","1","1","0","0","1","0","0","5","2","4","1","4","","4","2","1","1","1","726773976101027840","岳","281","","","","","","","","","","","","","","","","","","","","","","","","","","","","","","feedback_test","","","","","","","","","","","",""
"700","","f","psychophysics","51","180475","0.0-7.0-1.0-1.0-0.0-0.21","3","3","4","3","3","3","3","4","4","4","4","4","4","4","4","4","4","4","4","4","4","4","4","4","4","4","1","4","2","1","0","1","0","0","0","0","1","1","1","0","0","1","0","0","5","2","4","1","4","","4","2","1","1","1","726773976101027840","岳","281","","","","nonmatch","","","","","","","","","","","","","","key","f","16.666019801980017","731.4285714285714","453.42857142857144","f","true","nonmatch","img/square.png","梯形","方形","ALT1_2","prac_ALT1_2","","","","","","","","","","","",""
"null","<span style='color:GreenYellow; font-size: 70px;'>正确! </span>","null","html-keyboard-response","52","180976","0.0-7.0-1.0-1.0-0.0-1.21","3","3","4","3","3","3","3","4","4","4","4","4","4","4","4","4","4","4","4","4","4","4","4","4","4","4","1","4","2","1","0","1","0","0","0","0","1","1","1","0","0","1","0","0","5","2","4","1","4","","4","2","1","1","1","726773976101027840","岳","281","","","","","","","","","","","","","","","","","","","","","","","","","","","","","","feedback_test","","","","","","","","","","","",""
"779","","j","psychophysics","53","182755","0.0-7.0-1.0-1.0-0.0-0.22","3","3","4","3","3","3","3","4","4","4","4","4","4","4","4","4","4","4","4","4","4","4","4","4","4","4","1","4","2","1","0","1","0","0","0","0","1","1","1","0","0","1","0","0","5","2","4","1","4","","4","2","1","1","1","726773976101027840","岳","281","","","","match","","","","","","","","","","","","","","key","j","16.664914285714207","731.4285714285714","453.42857142857144","j","true","match","img/trapezoid.png","梯形","梯形","ALT1_2","prac_ALT1_2","","","","","","","","","","","",""
"null","<span style='color:GreenYellow; font-size: 70px;'>正确! </span>","null","html-keyboard-response","54","183256","0.0-7.0-1.0-1.0-0.0-1.22","3","3","4","3","3","3","3","4","4","4","4","4","4","4","4","4","4","4","4","4","4","4","4","4","4","4","1","4","2","1","0","1","0","0","0","0","1","1","1","0","0","1","0","0","5","2","4","1","4","","4","2","1","1","1","726773976101027840","岳","281","","","","","","","","","","","","","","","","","","","","","","","","","","","","","","feedback_test","","","","","","","","","","","",""
"933","","f","psychophysics","55","185191","0.0-7.0-1.0-1.0-0.0-0.23","3","3","4","3","3","3","3","4","4","4","4","4","4","4","4","4","4","4","4","4","4","4","4","4","4","4","1","4","2","1","0","1","0","0","0","0","1","1","1","0","0","1","0","0","5","2","4","1","4","","4","2","1","1","1","726773976101027840","岳","281","","","","nonmatch","","","","","","","","","","","","","","key","f","16.667904347825907","731.4285714285714","453.42857142857144","f","true","nonmatch","img/trapezoid.png","方形","梯形","ALT1_2","prac_ALT1_2","","","","","","","","","","","",""
"null","<span style='color:GreenYellow; font-size: 70px;'>正确! </span>","null","html-keyboard-response","56","185692","0.0-7.0-1.0-1.0-0.0-1.23","3","3","4","3","3","3","3","4","4","4","4","4","4","4","4","4","4","4","4","4","4","4","4","4","4","4","1","4","2","1","0","1","0","0","0","0","1","1","1","0","0","1","0","0","5","2","4","1","4","","4","2","1","1","1","726773976101027840","岳","281","","","","","","","","","","","","","","","","","","","","","","","","","","","","","","feedback_test","","","","","","","","","","","",""
"740","","j","psychophysics","57","187434","0.0-7.0-1.0-1.0-0.0-0.24","3","3","4","3","3","3","3","4","4","4","4","4","4","4","4","4","4","4","4","4","4","4","4","4","4","4","1","4","2","1","0","1","0","0","0","0","1","1","1","0","0","1","0","0","5","2","4","1","4","","4","2","1","1","1","726773976101027840","岳","281","","","","match","","","","","","","","","","","","","","key","j","16.66740384615388","731.4285714285714","453.42857142857144","j","true","match","img/ellipse.png","椭圆","椭圆","ALT1_2","prac_ALT1_2","","","","","","","","","","","",""
"null","<span style='color:GreenYellow; font-size: 70px;'>正确! </span>","null","html-keyboard-response","58","187935","0.0-7.0-1.0-1.0-0.0-1.24","3","3","4","3","3","3","3","4","4","4","4","4","4","4","4","4","4","4","4","4","4","4","4","4","4","4","1","4","2","1","0","1","0","0","0","0","1","1","1","0","0","1","0","0","5","2","4","1","4","","4","2","1","1","1","726773976101027840","岳","281","","","","","","","","","","","","","","","","","","","","","","","","","","","","","","feedback_test","","","","","","","","","","","",""
"934","","f","psychophysics","59","189870","0.0-7.0-1.0-1.0-0.0-0.25","3","3","4","3","3","3","3","4","4","4","4","4","4","4","4","4","4","4","4","4","4","4","4","4","4","4","1","4","2","1","0","1","0","0","0","0","1","1","1","0","0","1","0","0","5","2","4","1","4","","4","2","1","1","1","726773976101027840","岳","281","","","","nonmatch","","","","","","","","","","","","","","key","f","16.66398245614025","731.4285714285714","453.42857142857144","f","true","nonmatch","img/trapezoid.png","方形","梯形","ALT1_2","prac_ALT1_2","","","","","","","","","","","",""
"null","<span style='color:GreenYellow; font-size: 70px;'>正确! </span>","null","html-keyboard-response","60","190370","0.0-7.0-1.0-1.0-0.0-1.25","3","3","4","3","3","3","3","4","4","4","4","4","4","4","4","4","4","4","4","4","4","4","4","4","4","4","1","4","2","1","0","1","0","0","0","0","1","1","1","0","0","1","0","0","5","2","4","1","4","","4","2","1","1","1","726773976101027840","岳","281","","","","","","","","","","","","","","","","","","","","","","","","","","","","","","feedback_test","","","","","","","","","","","",""
"null","","null","psychophysics","61","192579","0.0-7.0-1.0-1.0-0.0-0.26","3","3","4","3","3","3","3","4","4","4","4","4","4","4","4","4","4","4","4","4","4","4","4","4","4","4","1","4","2","1","0","1","0","0","0","0","1","1","1","0","0","1","0","0","5","2","4","1","4","","4","2","1","1","1","726773976101027840","岳","281","","","","null","","","","","","","","","","","","","","key","null","16.669427480916085","731.4285714285714","453.42857142857144","j","false","match","img/trapezoid.png","梯形","梯形","ALT1_2","prac_ALT1_2","","","","","","","","","","","",""
"null","<span class='add_' style='color:yellow; font-size: 70px;'> 太慢! </span>","null","html-keyboard-response","62","193080","0.0-7.0-1.0-1.0-0.0-1.26","3","3","4","3","3","3","3","4","4","4","4","4","4","4","4","4","4","4","4","4","4","4","4","4","4","4","1","4","2","1","0","1","0","0","0","0","1","1","1","0","0","1","0","0","5","2","4","1","4","","4","2","1","1","1","726773976101027840","岳","281","","","","","","","","","","","","","","","","","","","","","","","","","","","","","","feedback_test","","","","","","","","","","","",""
"590","","j","psychophysics","63","194671","0.0-7.0-1.0-1.0-0.0-0.27","3","3","4","3","3","3","3","4","4","4","4","4","4","4","4","4","4","4","4","4","4","4","4","4","4","4","1","4","2","1","0","1","0","0","0","0","1","1","1","0","0","1","0","0","5","2","4","1","4","","4","2","1","1","1","726773976101027840","岳","281","","","","match","","","","","","","","","","","","","","key","j","16.669726315789585","731.4285714285714","453.42857142857144","j","true","match","img/square.png","方形","方形","ALT1_2","prac_ALT1_2","","","","","","","","","","","",""
"null","<span style='color:GreenYellow; font-size: 70px;'>正确! </span>","null","html-keyboard-response","64","195172","0.0-7.0-1.0-1.0-0.0-1.27","3","3","4","3","3","3","3","4","4","4","4","4","4","4","4","4","4","4","4","4","4","4","4","4","4","4","1","4","2","1","0","1","0","0","0","0","1","1","1","0","0","1","0","0","5","2","4","1","4","","4","2","1","1","1","726773976101027840","岳","281","","","","","","","","","","","","","","","","","","","","","","","","","","","","","","feedback_test","","","","","","","","","","","",""
"859","","f","psychophysics","65","197032","0.0-7.0-1.0-1.0-0.0-0.28","3","3","4","3","3","3","3","4","4","4","4","4","4","4","4","4","4","4","4","4","4","4","4","4","4","4","1","4","2","1","0","1","0","0","0","0","1","1","1","0","0","1","0","0","5","2","4","1","4","","4","2","1","1","1","726773976101027840","岳","281","","","","nonmatch","","","","","","","","","","","","","","key","f","16.66579090909112","731.4285714285714","453.42857142857144","f","true","nonmatch","img/trapezoid.png","椭圆","梯形","ALT1_2","prac_ALT1_2","","","","","","","","","","","",""
"null","<span style='color:GreenYellow; font-size: 70px;'>正确! </span>","null","html-keyboard-response","66","197533","0.0-7.0-1.0-1.0-0.0-1.28","3","3","4","3","3","3","3","4","4","4","4","4","4","4","4","4","4","4","4","4","4","4","4","4","4","4","1","4","2","1","0","1","0","0","0","0","1","1","1","0","0","1","0","0","5","2","4","1","4","","4","2","1","1","1","726773976101027840","岳","281","","","","","","","","","","","","","","","","","","","","","","","","","","","","","","feedback_test","","","","","","","","","","","",""
"673","","j","psychophysics","67","199208","0.0-7.0-1.0-1.0-0.0-0.29","3","3","4","3","3","3","3","4","4","4","4","4","4","4","4","4","4","4","4","4","4","4","4","4","4","4","1","4","2","1","0","1","0","0","0","0","1","1","1","0","0","1","0","0","5","2","4","1","4","","4","2","1","1","1","726773976101027840","岳","281","","","","match","","","","","","","","","","","","","","key","j","16.66648484848503","731.4285714285714","453.42857142857144","j","true","match","img/ellipse.png","椭圆","椭圆","ALT1_2","prac_ALT1_2","","","","","","","","","","","",""
"null","<span style='color:GreenYellow; font-size: 70px;'>正确! </span>","null","html-keyboard-response","68","199710","0.0-7.0-1.0-1.0-0.0-1.29","3","3","4","3","3","3","3","4","4","4","4","4","4","4","4","4","4","4","4","4","4","4","4","4","4","4","1","4","2","1","0","1","0","0","0","0","1","1","1","0","0","1","0","0","5","2","4","1","4","","4","2","1","1","1","726773976101027840","岳","281","","","","","","","","","","","","","","","","","","","","","","","","","","","","","","feedback_test","","","","","","","","","","","",""
"749","","j","psychophysics","69","201460","0.0-7.0-1.0-1.0-0.0-0.30","3","3","4","3","3","3","3","4","4","4","4","4","4","4","4","4","4","4","4","4","4","4","4","4","4","4","1","4","2","1","0","1","0","0","0","0","1","1","1","0","0","1","0","0","5","2","4","1","4","","4","2","1","1","1","726773976101027840","岳","281","","","","match","","","","","","","","","","","","","","key","j","16.66809708737877","731.4285714285714","453.42857142857144","f","false","nonmatch","img/pentagon.png","方形","五边","ALT1_2","prac_ALT1_2","","","","","","","","","","","",""
"null","<span style='color:red; font-size: 70px;'>错误! </span>","null","html-keyboard-response","70","201961","0.0-7.0-1.0-1.0-0.0-1.30","3","3","4","3","3","3","3","4","4","4","4","4","4","4","4","4","4","4","4","4","4","4","4","4","4","4","1","4","2","1","0","1","0","0","0","0","1","1","1","0","0","1","0","0","5","2","4","1","4","","4","2","1","1","1","726773976101027840","岳","281","","","","","","","","","","","","","","","","","","","","","","","","","","","","","","feedback_test","","","","","","","","","","","",""
"724","","j","psychophysics","71","203686","0.0-7.0-1.0-1.0-0.0-0.31","3","3","4","3","3","3","3","4","4","4","4","4","4","4","4","4","4","4","4","4","4","4","4","4","4","4","1","4","2","1","0","1","0","0","0","0","1","1","1","0","0","1","0","0","5","2","4","1","4","","4","2","1","1","1","726773976101027840","岳","281","","","","match","","","","","","","","","","","","","","key","j","16.665509803921406","731.4285714285714","453.42857142857144","j","true","match","img/pentagon.png","五边","五边","ALT1_2","prac_ALT1_2","","","","","","","","","","","",""
"null","<span style='color:GreenYellow; font-size: 70px;'>正确! </span>","null","html-keyboard-response","72","204187","0.0-7.0-1.0-1.0-0.0-1.31","3","3","4","3","3","3","3","4","4","4","4","4","4","4","4","4","4","4","4","4","4","4","4","4","4","4","1","4","2","1","0","1","0","0","0","0","1","1","1","0","0","1","0","0","5","2","4","1","4","","4","2","1","1","1","726773976101027840","岳","281","","","","","","","","","","","","","","","","","","","","","","","","","","","","","","feedback_test","","","","","","","","","","","",""
"915","","f","psychophysics","73","206104","0.0-7.0-1.0-1.0-0.0-0.32","3","3","4","3","3","3","3","4","4","4","4","4","4","4","4","4","4","4","4","4","4","4","4","4","4","4","1","4","2","1","0","1","0","0","0","0","1","1","1","0","0","1","0","0","5","2","4","1","4","","4","2","1","1","1","726773976101027840","岳","281","","","","nonmatch","","","","","","","","","","","","","","key","f","16.669192982456146","731.4285714285714","453.42857142857144","j","false","match","img/square.png","方形","方形","ALT1_2","prac_ALT1_2","","","","","","","","","","","",""
"null","<span style='color:red; font-size: 70px;'>错误! </span>","null","html-keyboard-response","74","206605","0.0-7.0-1.0-1.0-0.0-1.32","3","3","4","3","3","3","3","4","4","4","4","4","4","4","4","4","4","4","4","4","4","4","4","4","4","4","1","4","2","1","0","1","0","0","0","0","1","1","1","0","0","1","0","0","5","2","4","1","4","","4","2","1","1","1","726773976101027840","岳","281","","","","","","","","","","","","","","","","","","","","","","","","","","","","","","feedback_test","","","","","","","","","","","",""
"1032","","f","psychophysics","75","208639","0.0-7.0-1.0-1.0-0.0-0.33","3","3","4","3","3","3","3","4","4","4","4","4","4","4","4","4","4","4","4","4","4","4","4","4","4","4","1","4","2","1","0","1","0","0","0","0","1","1","1","0","0","1","0","0","5","2","4","1","4","","4","2","1","1","1","726773976101027840","岳","281","","","","nonmatch","","","","","","","","","","","","","","key","f","16.66213333333338","731.4285714285714","453.42857142857144","f","true","nonmatch","img/square.png","五边","方形","ALT1_2","prac_ALT1_2","","","","","","","","","","","",""
"null","<span style='color:GreenYellow; font-size: 70px;'>正确! </span>","null","html-keyboard-response","76","209140","0.0-7.0-1.0-1.0-0.0-1.33","3","3","4","3","3","3","3","4","4","4","4","4","4","4","4","4","4","4","4","4","4","4","4","4","4","4","1","4","2","1","0","1","0","0","0","0","1","1","1","0","0","1","0","0","5","2","4","1","4","","4","2","1","1","1","726773976101027840","岳","281","","","","","","","","","","","","","","","","","","","","","","","","","","","","","","feedback_test","","","","","","","","","","","",""
"903","","f","psychophysics","77","211044","0.0-7.0-1.0-1.0-0.0-0.34","3","3","4","3","3","3","3","4","4","4","4","4","4","4","4","4","4","4","4","4","4","4","4","4","4","4","1","4","2","1","0","1","0","0","0","0","1","1","1","0","0","1","0","0","5","2","4","1","4","","4","2","1","1","1","726773976101027840","岳","281","","","","nonmatch","","","","","","","","","","","","","","key","f","16.666796460176975","731.4285714285714","453.42857142857144","f","true","nonmatch","img/trapezoid.png","五边","梯形","ALT1_2","prac_ALT1_2","","","","","","","","","","","",""
"null","<span style='color:GreenYellow; font-size: 70px;'>正确! </span>","null","html-keyboard-response","78","211545","0.0-7.0-1.0-1.0-0.0-1.34","3","3","4","3","3","3","3","4","4","4","4","4","4","4","4","4","4","4","4","4","4","4","4","4","4","4","1","4","2","1","0","1","0","0","0","0","1","1","1","0","0","1","0","0","5","2","4","1","4","","4","2","1","1","1","726773976101027840","岳","281","","","","","","","","","","","","","","","","","","","","","","","","","","","","","","feedback_test","","","","","","","","","","","",""
"788","","f","psychophysics","79","213334","0.0-7.0-1.0-1.0-0.0-0.35","3","3","4","3","3","3","3","4","4","4","4","4","4","4","4","4","4","4","4","4","4","4","4","4","4","4","1","4","2","1","0","1","0","0","0","0","1","1","1","0","0","1","0","0","5","2","4","1","4","","4","2","1","1","1","726773976101027840","岳","281","","","","nonmatch","","","","","","","","","","","","","","key","f","16.669537735848966","731.4285714285714","453.42857142857144","f","true","nonmatch","img/ellipse.png","五边","椭圆","ALT1_2","prac_ALT1_2","","","","","","","","","","","",""
"null","<span style='color:GreenYellow; font-size: 70px;'>正确! </span>","null","html-keyboard-response","80","213834","0.0-7.0-1.0-1.0-0.0-1.35","3","3","4","3","3","3","3","4","4","4","4","4","4","4","4","4","4","4","4","4","4","4","4","4","4","4","1","4","2","1","0","1","0","0","0","0","1","1","1","0","0","1","0","0","5","2","4","1","4","","4","2","1","1","1","726773976101027840","岳","281","","","","","","","","","","","","","","","","","","","","","","","","","","","","","","feedback_test","","","","","","","","","","","",""
"768","","f","psychophysics","81","215603","0.0-7.0-1.0-1.0-0.0-0.36","3","3","4","3","3","3","3","4","4","4","4","4","4","4","4","4","4","4","4","4","4","4","4","4","4","4","1","4","2","1","0","1","0","0","0","0","1","1","1","0","0","1","0","0","5","2","4","1","4","","4","2","1","1","1","726773976101027840","岳","281","","","","nonmatch","","","","","","","","","","","","","","key","f","16.664676190476165","731.4285714285714","453.42857142857144","f","true","nonmatch","img/square.png","椭圆","方形","ALT1_2","prac_ALT1_2","","","","","","","","","","","",""
"null","<span style='color:GreenYellow; font-size: 70px;'>正确! </span>","null","html-keyboard-response","82","216103","0.0-7.0-1.0-1.0-0.0-1.36","3","3","4","3","3","3","3","4","4","4","4","4","4","4","4","4","4","4","4","4","4","4","4","4","4","4","1","4","2","1","0","1","0","0","0","0","1","1","1","0","0","1","0","0","5","2","4","1","4","","4","2","1","1","1","726773976101027840","岳","281","","","","","","","","","","","","","","","","","","","","","","","","","","","","","","feedback_test","","","","","","","","","","","",""
"720","","f","psychophysics","83","217825","0.0-7.0-1.0-1.0-0.0-0.37","3","3","4","3","3","3","3","4","4","4","4","4","4","4","4","4","4","4","4","4","4","4","4","4","4","4","1","4","2","1","0","1","0","0","0","0","1","1","1","0","0","1","0","0","5","2","4","1","4","","4","2","1","1","1","726773976101027840","岳","281","","","","nonmatch","","","","","","","","","","","","","","key","f","16.665578431372506","731.4285714285714","453.42857142857144","f","true","nonmatch","img/pentagon.png","椭圆","五边","ALT1_2","prac_ALT1_2","","","","","","","","","","","",""
"null","<span style='color:GreenYellow; font-size: 70px;'>正确! </span>","null","html-keyboard-response","84","218328","0.0-7.0-1.0-1.0-0.0-1.37","3","3","4","3","3","3","3","4","4","4","4","4","4","4","4","4","4","4","4","4","4","4","4","4","4","4","1","4","2","1","0","1","0","0","0","0","1","1","1","0","0","1","0","0","5","2","4","1","4","","4","2","1","1","1","726773976101027840","岳","281","","","","","","","","","","","","","","","","","","","","","","","","","","","","","","feedback_test","","","","","","","","","","","",""
"903","","f","psychophysics","85","220233","0.0-7.0-1.0-1.0-0.0-0.38","3","3","4","3","3","3","3","4","4","4","4","4","4","4","4","4","4","4","4","4","4","4","4","4","4","4","1","4","2","1","0","1","0","0","0","0","1","1","1","0","0","1","0","0","5","2","4","1","4","","4","2","1","1","1","726773976101027840","岳","281","","","","nonmatch","","","","","","","","","","","","","","key","f","16.666771929824456","731.4285714285714","453.42857142857144","f","true","nonmatch","img/pentagon.png","梯形","五边","ALT1_2","prac_ALT1_2","","","","","","","","","","","",""
"null","<span style='color:GreenYellow; font-size: 70px;'>正确! </span>","null","html-keyboard-response","86","220736","0.0-7.0-1.0-1.0-0.0-1.38","3","3","4","3","3","3","3","4","4","4","4","4","4","4","4","4","4","4","4","4","4","4","4","4","4","4","1","4","2","1","0","1","0","0","0","0","1","1","1","0","0","1","0","0","5","2","4","1","4","","4","2","1","1","1","726773976101027840","岳","281","","","","","","","","","","","","","","","","","","","","","","","","","","","","","","feedback_test","","","","","","","","","","","",""
"824","","j","psychophysics","87","222561","0.0-7.0-1.0-1.0-0.0-0.39","3","3","4","3","3","3","3","4","4","4","4","4","4","4","4","4","4","4","4","4","4","4","4","4","4","4","1","4","2","1","0","1","0","0","0","0","1","1","1","0","0","1","0","0","5","2","4","1","4","","4","2","1","1","1","726773976101027840","岳","281","","","","match","","","","","","","","","","","","","","key","j","16.663999999999994","731.4285714285714","453.42857142857144","j","true","match","img/trapezoid.png","梯形","梯形","ALT1_2","prac_ALT1_2","","","","","","","","","","","",""
"null","<span style='color:GreenYellow; font-size: 70px;'>正确! </span>","null","html-keyboard-response","88","223063","0.0-7.0-1.0-1.0-0.0-1.39","3","3","4","3","3","3","3","4","4","4","4","4","4","4","4","4","4","4","4","4","4","4","4","4","4","4","1","4","2","1","0","1","0","0","0","0","1","1","1","0","0","1","0","0","5","2","4","1","4","","4","2","1","1","1","726773976101027840","岳","281","","","","","","","","","","","","","","","","","","","","","","","","","","","","","","feedback_test","","","","","","","","","","","",""
"848","","j","psychophysics","89","224913","0.0-7.0-1.0-1.0-0.0-0.40","3","3","4","3","3","3","3","4","4","4","4","4","4","4","4","4","4","4","4","4","4","4","4","4","4","4","1","4","2","1","0","1","0","0","0","0","1","1","1","0","0","1","0","0","5","2","4","1","4","","4","2","1","1","1","726773976101027840","岳","281","","","","match","","","","","","","","","","","","","","key","j","16.666681818181743","731.4285714285714","453.42857142857144","j","true","match","img/pentagon.png","五边","五边","ALT1_2","prac_ALT1_2","","","","","","","","","","","",""
"null","<span style='color:GreenYellow; font-size: 70px;'>正确! </span>","null","html-keyboard-response","90","225414","0.0-7.0-1.0-1.0-0.0-1.40","3","3","4","3","3","3","3","4","4","4","4","4","4","4","4","4","4","4","4","4","4","4","4","4","4","4","1","4","2","1","0","1","0","0","0","0","1","1","1","0","0","1","0","0","5","2","4","1","4","","4","2","1","1","1","726773976101027840","岳","281","","","","","","","","","","","","","","","","","","","","","","","","","","","","","","feedback_test","","","","","","","","","","","",""
"556","","j","psychophysics","91","226971","0.0-7.0-1.0-1.0-0.0-0.41","3","3","4","3","3","3","3","4","4","4","4","4","4","4","4","4","4","4","4","4","4","4","4","4","4","4","1","4","2","1","0","1","0","0","0","0","1","1","1","0","0","1","0","0","5","2","4","1","4","","4","2","1","1","1","726773976101027840","岳","281","","","","match","","","","","","","","","","","","","","key","j","16.66869892473101","731.4285714285714","453.42857142857144","j","true","match","img/square.png","方形","方形","ALT1_2","prac_ALT1_2","","","","","","","","","","","",""
"null","<span style='color:GreenYellow; font-size: 70px;'>正确! </span>","null","html-keyboard-response","92","227473","0.0-7.0-1.0-1.0-0.0-1.41","3","3","4","3","3","3","3","4","4","4","4","4","4","4","4","4","4","4","4","4","4","4","4","4","4","4","1","4","2","1","0","1","0","0","0","0","1","1","1","0","0","1","0","0","5","2","4","1","4","","4","2","1","1","1","726773976101027840","岳","281","","","","","","","","","","","","","","","","","","","","","","","","","","","","","","feedback_test","","","","","","","","","","","",""
"895","","j","psychophysics","93","229370","0.0-7.0-1.0-1.0-0.0-0.42","3","3","4","3","3","3","3","4","4","4","4","4","4","4","4","4","4","4","4","4","4","4","4","4","4","4","1","4","2","1","0","1","0","0","0","0","1","1","1","0","0","1","0","0","5","2","4","1","4","","4","2","1","1","1","726773976101027840","岳","281","","","","match","","","","","","","","","","","","","","key","j","16.667723214285747","731.4285714285714","453.42857142857144","f","false","nonmatch","img/ellipse.png","梯形","椭圆","ALT1_2","prac_ALT1_2","","","","","","","","","","","",""
"null","<span style='color:red; font-size: 70px;'>错误! </span>","null","html-keyboard-response","94","229870","0.0-7.0-1.0-1.0-0.0-1.42","3","3","4","3","3","3","3","4","4","4","4","4","4","4","4","4","4","4","4","4","4","4","4","4","4","4","1","4","2","1","0","1","0","0","0","0","1","1","1","0","0","1","0","0","5","2","4","1","4","","4","2","1","1","1","726773976101027840","岳","281","","","","","","","","","","","","","","","","","","","","","","","","","","","","","","feedback_test","","","","","","","","","","","",""
"787","","f","psychophysics","95","231658","0.0-7.0-1.0-1.0-0.0-0.43","3","3","4","3","3","3","3","4","4","4","4","4","4","4","4","4","4","4","4","4","4","4","4","4","4","4","1","4","2","1","0","1","0","0","0","0","1","1","1","0","0","1","0","0","5","2","4","1","4","","4","2","1","1","1","726773976101027840","岳","281","","","","nonmatch","","","","","","","","","","","","","","key","f","16.66340566037732","731.4285714285714","453.42857142857144","f","true","nonmatch","img/square.png","梯形","方形","ALT1_2","prac_ALT1_2","","","","","","","","","","","",""
"null","<span style='color:GreenYellow; font-size: 70px;'>正确! </span>","null","html-keyboard-response","96","232159","0.0-7.0-1.0-1.0-0.0-1.43","3","3","4","3","3","3","3","4","4","4","4","4","4","4","4","4","4","4","4","4","4","4","4","4","4","4","1","4","2","1","0","1","0","0","0","0","1","1","1","0","0","1","0","0","5","2","4","1","4","","4","2","1","1","1","726773976101027840","岳","281","","","","","","","","","","","","","","","","","","","","","","","","","","","","","","feedback_test","","","","","","","","","","","",""
"660","","f","psychophysics","97","233821","0.0-7.0-1.0-1.0-0.0-0.44","3","3","4","3","3","3","3","4","4","4","4","4","4","4","4","4","4","4","4","4","4","4","4","4","4","4","1","4","2","1","0","1","0","0","0","0","1","1","1","0","0","1","0","0","5","2","4","1","4","","4","2","1","1","1","726773976101027840","岳","281","","","","nonmatch","","","","","","","","","","","","","","key","f","16.6677070707071","731.4285714285714","453.42857142857144","f","true","nonmatch","img/ellipse.png","方形","椭圆","ALT1_2","prac_ALT1_2","","","","","","","","","","","",""
"null","<span style='color:GreenYellow; font-size: 70px;'>正确! </span>","null","html-keyboard-response","98","234322","0.0-7.0-1.0-1.0-0.0-1.44","3","3","4","3","3","3","3","4","4","4","4","4","4","4","4","4","4","4","4","4","4","4","4","4","4","4","1","4","2","1","0","1","0","0","0","0","1","1","1","0","0","1","0","0","5","2","4","1","4","","4","2","1","1","1","726773976101027840","岳","281","","","","","","","","","","","","","","","","","","","","","","","","","","","","","","feedback_test","","","","","","","","","","","",""
"668","","j","psychophysics","99","235991","0.0-7.0-1.0-1.0-0.0-0.45","3","3","4","3","3","3","3","4","4","4","4","4","4","4","4","4","4","4","4","4","4","4","4","4","4","4","1","4","2","1","0","1","0","0","0","0","1","1","1","0","0","1","0","0","5","2","4","1","4","","4","2","1","1","1","726773976101027840","岳","281","","","","match","","","","","","","","","","","","","","key","j","16.664616161616074","731.4285714285714","453.42857142857144","j","true","match","img/ellipse.png","椭圆","椭圆","ALT1_2","prac_ALT1_2","","","","","","","","","","","",""
"null","<span style='color:GreenYellow; font-size: 70px;'>正确! </span>","null","html-keyboard-response","100","236492","0.0-7.0-1.0-1.0-0.0-1.45","3","3","4","3","3","3","3","4","4","4","4","4","4","4","4","4","4","4","4","4","4","4","4","4","4","4","1","4","2","1","0","1","0","0","0","0","1","1","1","0","0","1","0","0","5","2","4","1","4","","4","2","1","1","1","726773976101027840","岳","281","","","","","","","","","","","","","","","","","","","","","","","","","","","","","","feedback_test","","","","","","","","","","","",""
"813","","j","psychophysics","101","238307","0.0-7.0-1.0-1.0-0.0-0.46","3","3","4","3","3","3","3","4","4","4","4","4","4","4","4","4","4","4","4","4","4","4","4","4","4","4","1","4","2","1","0","1","0","0","0","0","1","1","1","0","0","1","0","0","5","2","4","1","4","","4","2","1","1","1","726773976101027840","岳","281","","","","match","","","","","","","","","","","","","","key","j","16.66650925925933","731.4285714285714","453.42857142857144","j","true","match","img/trapezoid.png","梯形","梯形","ALT1_2","prac_ALT1_2","","","","","","","","","","","",""
"null","<span style='color:GreenYellow; font-size: 70px;'>正确! </span>","null","html-keyboard-response","102","238808","0.0-7.0-1.0-1.0-0.0-1.46","3","3","4","3","3","3","3","4","4","4","4","4","4","4","4","4","4","4","4","4","4","4","4","4","4","4","1","4","2","1","0","1","0","0","0","0","1","1","1","0","0","1","0","0","5","2","4","1","4","","4","2","1","1","1","726773976101027840","岳","281","","","","","","","","","","","","","","","","","","","","","","","","","","","","","","feedback_test","","","","","","","","","","","",""
"604","","j","psychophysics","103","240412","0.0-7.0-1.0-1.0-0.0-0.47","3","3","4","3","3","3","3","4","4","4","4","4","4","4","4","4","4","4","4","4","4","4","4","4","4","4","1","4","2","1","0","1","0","0","0","0","1","1","1","0","0","1","0","0","5","2","4","1","4","","4","2","1","1","1","726773976101027840","岳","281","","","","match","","","","","","","","","","","","","","key","j","16.665368421052854","731.4285714285714","453.42857142857144","j","true","match","img/pentagon.png","五边","五边","ALT1_2","prac_ALT1_2","","","","","","","","","","","",""
"null","<span style='color:GreenYellow; font-size: 70px;'>正确! </span>","null","html-keyboard-response","104","240913","0.0-7.0-1.0-1.0-0.0-1.47","3","3","4","3","3","3","3","4","4","4","4","4","4","4","4","4","4","4","4","4","4","4","4","4","4","4","1","4","2","1","0","1","0","0","0","0","1","1","1","0","0","1","0","0","5","2","4","1","4","","4","2","1","1","1","726773976101027840","岳","281","","","","","","","","","","","","","","","","","","","","","","","","","","","","","","feedback_test","","","","","","","","","","","",""
"8949","<style>.context{color:white; font-size: 35px; line-height:40px}</style>                          <div><p class='context'>您正确回答了79% 的试次。</p><p class='context'>您的平均反应时为790毫秒。</p><p class='context'>恭喜您完成练习。按空格键进入正式实验。</p><p class='footer' style='font-size: 35px; line-height:40px;'>请在进入正式实验实验之前将您的<span style='color: lightgreen;'>食指</span>放在电脑键盘的相应键位上进行按键。</p>"," ","html-keyboard-response","105","249864","0.0-7.0-1.0-2.0","3","3","4","3","3","3","3","4","4","4","4","4","4","4","4","4","4","4","4","4","4","4","4","4","4","4","1","4","2","1","0","1","0","0","0","0","1","1","1","0","0","1","0","0","5","2","4","1","4","","4","2","1","1","1","726773976101027840","岳","281","","","","","","","","","","","","","","","","","","","","","","","","","","","","","","","","","","","","","","","","","",""
"2713","
  <p style='color: white; font-size: 22px'>请您将手指放在按键上，准备进入正式的匹配任务。</p>
  <p> <div style = ""color: green""><按空格键进入下一阶段的匹配任务></div></p>
  "," ","html-keyboard-response","106","252580","0.0-7.0-1.0-3.0","3","3","4","3","3","3","3","4","4","4","4","4","4","4","4","4","4","4","4","4","4","4","4","4","4","4","1","4","2","1","0","1","0","0","0","0","1","1","1","0","0","1","0","0","5","2","4","1","4","","4","2","1","1","1","726773976101027840","岳","281","","","","","","","","","","","","","","","","","","","","","","","","","","","","","","","","","","","","","","","","","",""
"989","","f","psychophysics","107","254570","0.0-7.0-1.0-4.0-0.0-0.0","3","3","4","3","3","3","3","4","4","4","4","4","4","4","4","4","4","4","4","4","4","4","4","4","4","4","1","4","2","1","0","1","0","0","0","0","1","1","1","0","0","1","0","0","5","2","4","1","4","","4","2","1","1","1","726773976101027840","岳","281","","","","nonmatch","","","","","","","","","","","","","","key","f","16.66844067796601","731.4285714285714","453.42857142857144","f","true","nonmatch","img/square.png","梯形","方形","ALT1","formal_ALT1_2","","","","","","","","","","","",""
"null","<span style='color:GreenYellow; font-size: 70px;'>正确! </span>","null","html-keyboard-response","108","255071","0.0-7.0-1.0-4.0-0.0-1.0","3","3","4","3","3","3","3","4","4","4","4","4","4","4","4","4","4","4","4","4","4","4","4","4","4","4","1","4","2","1","0","1","0","0","0","0","1","1","1","0","0","1","0","0","5","2","4","1","4","","4","2","1","1","1","726773976101027840","岳","281","","","","","","","","","","","","","","","","","","","","","","","","","","","","","","feedback_test","","","","","","","","","","","",""
"663","","f","psychophysics","109","256734","0.0-7.0-1.0-4.0-0.0-0.1","3","3","4","3","3","3","3","4","4","4","4","4","4","4","4","4","4","4","4","4","4","4","4","4","4","4","1","4","2","1","0","1","0","0","0","0","1","1","1","0","0","1","0","0","5","2","4","1","4","","4","2","1","1","1","726773976101027840","岳","281","","","","nonmatch","","","","","","","","","","","","","","key","f","16.665520408163466","731.4285714285714","453.42857142857144","f","true","nonmatch","img/ellipse.png","方形","椭圆","ALT1","formal_ALT1_2","","","","","","","","","","","",""
"null","<span style='color:GreenYellow; font-size: 70px;'>正确! </span>","null","html-keyboard-response","110","257235","0.0-7.0-1.0-4.0-0.0-1.1","3","3","4","3","3","3","3","4","4","4","4","4","4","4","4","4","4","4","4","4","4","4","4","4","4","4","1","4","2","1","0","1","0","0","0","0","1","1","1","0","0","1","0","0","5","2","4","1","4","","4","2","1","1","1","726773976101027840","岳","281","","","","","","","","","","","","","","","","","","","","","","","","","","","","","","feedback_test","","","","","","","","","","","",""
"982","","f","psychophysics","111","259218","0.0-7.0-1.0-4.0-0.0-0.2","3","3","4","3","3","3","3","4","4","4","4","4","4","4","4","4","4","4","4","4","4","4","4","4","4","4","1","4","2","1","0","1","0","0","0","0","1","1","1","0","0","1","0","0","5","2","4","1","4","","4","2","1","1","1","726773976101027840","岳","281","","","","nonmatch","","","","","","","","","","","","","","key","f","16.665282051282205","731.4285714285714","453.42857142857144","f","true","nonmatch","img/pentagon.png","梯形","五边","ALT1","formal_ALT1_2","","","","","","","","","","","",""
"null","<span style='color:GreenYellow; font-size: 70px;'>正确! </span>","null","html-keyboard-response","112","259734","0.0-7.0-1.0-4.0-0.0-1.2","3","3","4","3","3","3","3","4","4","4","4","4","4","4","4","4","4","4","4","4","4","4","4","4","4","4","1","4","2","1","0","1","0","0","0","0","1","1","1","0","0","1","0","0","5","2","4","1","4","","4","2","1","1","1","726773976101027840","岳","281","","","","","","","","","","","","","","","","","","","","","","","","","","","","","","feedback_test","","","","","","","","","","","",""
"615","","j","psychophysics","113","261351","0.0-7.0-1.0-4.0-0.0-0.3","3","3","4","3","3","3","3","4","4","4","4","4","4","4","4","4","4","4","4","4","4","4","4","4","4","4","1","4","2","1","0","1","0","0","0","0","1","1","1","0","0","1","0","0","5","2","4","1","4","","4","2","1","1","1","726773976101027840","岳","281","","","","match","","","","","","","","","","","","","","key","j","16.670749999999924","731.4285714285714","453.42857142857144","j","true","match","img/trapezoid.png","梯形","梯形","ALT1","formal_ALT1_2","","","","","","","","","","","",""
"null","<span style='color:GreenYellow; font-size: 70px;'>正确! </span>","null","html-keyboard-response","114","261852","0.0-7.0-1.0-4.0-0.0-1.3","3","3","4","3","3","3","3","4","4","4","4","4","4","4","4","4","4","4","4","4","4","4","4","4","4","4","1","4","2","1","0","1","0","0","0","0","1","1","1","0","0","1","0","0","5","2","4","1","4","","4","2","1","1","1","726773976101027840","岳","281","","","","","","","","","","","","","","","","","","","","","","","","","","","","","","feedback_test","","","","","","","","","","","",""
"738","","f","psychophysics","115","263591","0.0-7.0-1.0-4.0-0.0-0.4","3","3","4","3","3","3","3","4","4","4","4","4","4","4","4","4","4","4","4","4","4","4","4","4","4","4","1","4","2","1","0","1","0","0","0","0","1","1","1","0","0","1","0","0","5","2","4","1","4","","4","2","1","1","1","726773976101027840","岳","281","","","","nonmatch","","","","","","","","","","","","","","key","f","16.669728155339417","731.4285714285714","453.42857142857144","f","true","nonmatch","img/square.png","椭圆","方形","ALT1","formal_ALT1_2","","","","","","","","","","","",""
"null","<span style='color:GreenYellow; font-size: 70px;'>正确! </span>","null","html-keyboard-response","116","264092","0.0-7.0-1.0-4.0-0.0-1.4","3","3","4","3","3","3","3","4","4","4","4","4","4","4","4","4","4","4","4","4","4","4","4","4","4","4","1","4","2","1","0","1","0","0","0","0","1","1","1","0","0","1","0","0","5","2","4","1","4","","4","2","1","1","1","726773976101027840","岳","281","","","","","","","","","","","","","","","","","","","","","","","","","","","","","","feedback_test","","","","","","","","","","","",""
"728","","j","psychophysics","117","265822","0.0-7.0-1.0-4.0-0.0-0.5","3","3","4","3","3","3","3","4","4","4","4","4","4","4","4","4","4","4","4","4","4","4","4","4","4","4","1","4","2","1","0","1","0","0","0","0","1","1","1","0","0","1","0","0","5","2","4","1","4","","4","2","1","1","1","726773976101027840","岳","281","","","","match","","","","","","","","","","","","","","key","j","16.668883495145813","731.4285714285714","453.42857142857144","j","true","match","img/ellipse.png","椭圆","椭圆","ALT1","formal_ALT1_2","","","","","","","","","","","",""
"null","<span style='color:GreenYellow; font-size: 70px;'>正确! </span>","null","html-keyboard-response","118","266325","0.0-7.0-1.0-4.0-0.0-1.5","3","3","4","3","3","3","3","4","4","4","4","4","4","4","4","4","4","4","4","4","4","4","4","4","4","4","1","4","2","1","0","1","0","0","0","0","1","1","1","0","0","1","0","0","5","2","4","1","4","","4","2","1","1","1","726773976101027840","岳","281","","","","","","","","","","","","","","","","","","","","","","","","","","","","","","feedback_test","","","","","","","","","","","",""
"817","","j","psychophysics","119","268144","0.0-7.0-1.0-4.0-0.0-0.6","3","3","4","3","3","3","3","4","4","4","4","4","4","4","4","4","4","4","4","4","4","4","4","4","4","4","1","4","2","1","0","1","0","0","0","0","1","1","1","0","0","1","0","0","5","2","4","1","4","","4","2","1","1","1","726773976101027840","岳","281","","","","match","","","","","","","","","","","","","","key","j","16.667616822429885","731.4285714285714","453.42857142857144","f","false","nonmatch","img/trapezoid.png","五边","梯形","ALT1","formal_ALT1_2","","","","","","","","","","","",""
"null","<span style='color:red; font-size: 70px;'>错误! </span>","null","html-keyboard-response","120","268645","0.0-7.0-1.0-4.0-0.0-1.6","3","3","4","3","3","3","3","4","4","4","4","4","4","4","4","4","4","4","4","4","4","4","4","4","4","4","1","4","2","1","0","1","0","0","0","0","1","1","1","0","0","1","0","0","5","2","4","1","4","","4","2","1","1","1","726773976101027840","岳","281","","","","","","","","","","","","","","","","","","","","","","","","","","","","","","feedback_test","","","","","","","","","","","",""
"659","","j","psychophysics","121","270305","0.0-7.0-1.0-4.0-0.0-0.7","3","3","4","3","3","3","3","4","4","4","4","4","4","4","4","4","4","4","4","4","4","4","4","4","4","4","1","4","2","1","0","1","0","0","0","0","1","1","1","0","0","1","0","0","5","2","4","1","4","","4","2","1","1","1","726773976101027840","岳","281","","","","match","","","","","","","","","","","","","","key","j","16.66341836734708","731.4285714285714","453.42857142857144","j","true","match","img/square.png","方形","方形","ALT1","formal_ALT1_2","","","","","","","","","","","",""
"null","<span style='color:GreenYellow; font-size: 70px;'>正确! </span>","null","html-keyboard-response","122","270806","0.0-7.0-1.0-4.0-0.0-1.7","3","3","4","3","3","3","3","4","4","4","4","4","4","4","4","4","4","4","4","4","4","4","4","4","4","4","1","4","2","1","0","1","0","0","0","0","1","1","1","0","0","1","0","0","5","2","4","1","4","","4","2","1","1","1","726773976101027840","岳","281","","","","","","","","","","","","","","","","","","","","","","","","","","","","","","feedback_test","","","","","","","","","","","",""
"638","","f","psychophysics","123","272445","0.0-7.0-1.0-4.0-0.0-0.8","3","3","4","3","3","3","3","4","4","4","4","4","4","4","4","4","4","4","4","4","4","4","4","4","4","4","1","4","2","1","0","1","0","0","0","0","1","1","1","0","0","1","0","0","5","2","4","1","4","","4","2","1","1","1","726773976101027840","岳","281","","","","nonmatch","","","","","","","","","","","","","","key","f","16.66719587628859","731.4285714285714","453.42857142857144","f","true","nonmatch","img/square.png","五边","方形","ALT1","formal_ALT1_2","","","","","","","","","","","",""
"null","<span style='color:GreenYellow; font-size: 70px;'>正确! </span>","null","html-keyboard-response","124","272946","0.0-7.0-1.0-4.0-0.0-1.8","3","3","4","3","3","3","3","4","4","4","4","4","4","4","4","4","4","4","4","4","4","4","4","4","4","4","1","4","2","1","0","1","0","0","0","0","1","1","1","0","0","1","0","0","5","2","4","1","4","","4","2","1","1","1","726773976101027840","岳","281","","","","","","","","","","","","","","","","","","","","","","","","","","","","","","feedback_test","","","","","","","","","","","",""
"847","","f","psychophysics","125","274794","0.0-7.0-1.0-4.0-0.0-0.9","3","3","4","3","3","3","3","4","4","4","4","4","4","4","4","4","4","4","4","4","4","4","4","4","4","4","1","4","2","1","0","1","0","0","0","0","1","1","1","0","0","1","0","0","5","2","4","1","4","","4","2","1","1","1","726773976101027840","岳","281","","","","nonmatch","","","","","","","","","","","","","","key","f","16.668499999999767","731.4285714285714","453.42857142857144","f","true","nonmatch","img/trapezoid.png","方形","梯形","ALT1","formal_ALT1_2","","","","","","","","","","","",""
"null","<span style='color:GreenYellow; font-size: 70px;'>正确! </span>","null","html-keyboard-response","126","275295","0.0-7.0-1.0-4.0-0.0-1.9","3","3","4","3","3","3","3","4","4","4","4","4","4","4","4","4","4","4","4","4","4","4","4","4","4","4","1","4","2","1","0","1","0","0","0","0","1","1","1","0","0","1","0","0","5","2","4","1","4","","4","2","1","1","1","726773976101027840","岳","281","","","","","","","","","","","","","","","","","","","","","","","","","","","","","","feedback_test","","","","","","","","","","","",""
"625","","f","psychophysics","127","276922","0.0-7.0-1.0-4.0-0.0-0.10","3","3","4","3","3","3","3","4","4","4","4","4","4","4","4","4","4","4","4","4","4","4","4","4","4","4","1","4","2","1","0","1","0","0","0","0","1","1","1","0","0","1","0","0","5","2","4","1","4","","4","2","1","1","1","726773976101027840","岳","281","","","","nonmatch","","","","","","","","","","","","","","key","f","16.669041666666697","731.4285714285714","453.42857142857144","j","false","match","img/trapezoid.png","梯形","梯形","ALT1","formal_ALT1_2","","","","","","","","","","","",""
"null","<span style='color:red; font-size: 70px;'>错误! </span>","null","html-keyboard-response","128","277423","0.0-7.0-1.0-4.0-0.0-1.10","3","3","4","3","3","3","3","4","4","4","4","4","4","4","4","4","4","4","4","4","4","4","4","4","4","4","1","4","2","1","0","1","0","0","0","0","1","1","1","0","0","1","0","0","5","2","4","1","4","","4","2","1","1","1","726773976101027840","岳","281","","","","","","","","","","","","","","","","","","","","","","","","","","","","","","feedback_test","","","","","","","","","","","",""
"826","","j","psychophysics","129","279251","0.0-7.0-1.0-4.0-0.0-0.11","3","3","4","3","3","3","3","4","4","4","4","4","4","4","4","4","4","4","4","4","4","4","4","4","4","4","1","4","2","1","0","1","0","0","0","0","1","1","1","0","0","1","0","0","5","2","4","1","4","","4","2","1","1","1","726773976101027840","岳","281","","","","match","","","","","","","","","","","","","","key","j","16.66652777777765","731.4285714285714","453.42857142857144","j","true","match","img/ellipse.png","椭圆","椭圆","ALT1","formal_ALT1_2","","","","","","","","","","","",""
"null","<span style='color:GreenYellow; font-size: 70px;'>正确! </span>","null","html-keyboard-response","130","279752","0.0-7.0-1.0-4.0-0.0-1.11","3","3","4","3","3","3","3","4","4","4","4","4","4","4","4","4","4","4","4","4","4","4","4","4","4","4","1","4","2","1","0","1","0","0","0","0","1","1","1","0","0","1","0","0","5","2","4","1","4","","4","2","1","1","1","726773976101027840","岳","281","","","","","","","","","","","","","","","","","","","","","","","","","","","","","","feedback_test","","","","","","","","","","","",""
"906","","f","psychophysics","131","281659","0.0-7.0-1.0-4.0-0.0-0.12","3","3","4","3","3","3","3","4","4","4","4","4","4","4","4","4","4","4","4","4","4","4","4","4","4","4","1","4","2","1","0","1","0","0","0","0","1","1","1","0","0","1","0","0","5","2","4","1","4","","4","2","1","1","1","726773976101027840","岳","281","","","","nonmatch","","","","","","","","","","","","","","key","f","16.666973451327582","731.4285714285714","453.42857142857144","f","true","nonmatch","img/pentagon.png","椭圆","五边","ALT1","formal_ALT1_2","","","","","","","","","","","",""
"null","<span style='color:GreenYellow; font-size: 70px;'>正确! </span>","null","html-keyboard-response","132","282160","0.0-7.0-1.0-4.0-0.0-1.12","3","3","4","3","3","3","3","4","4","4","4","4","4","4","4","4","4","4","4","4","4","4","4","4","4","4","1","4","2","1","0","1","0","0","0","0","1","1","1","0","0","1","0","0","5","2","4","1","4","","4","2","1","1","1","726773976101027840","岳","281","","","","","","","","","","","","","","","","","","","","","","","","","","","","","","feedback_test","","","","","","","","","","","",""
"647","","j","psychophysics","133","283809","0.0-7.0-1.0-4.0-0.0-0.13","3","3","4","3","3","3","3","4","4","4","4","4","4","4","4","4","4","4","4","4","4","4","4","4","4","4","1","4","2","1","0","1","0","0","0","0","1","1","1","0","0","1","0","0","5","2","4","1","4","","4","2","1","1","1","726773976101027840","岳","281","","","","match","","","","","","","","","","","","","","key","j","16.661783505154332","731.4285714285714","453.42857142857144","j","true","match","img/square.png","方形","方形","ALT1","formal_ALT1_2","","","","","","","","","","","",""
"null","<span style='color:GreenYellow; font-size: 70px;'>正确! </span>","null","html-keyboard-response","134","284309","0.0-7.0-1.0-4.0-0.0-1.13","3","3","4","3","3","3","3","4","4","4","4","4","4","4","4","4","4","4","4","4","4","4","4","4","4","4","1","4","2","1","0","1","0","0","0","0","1","1","1","0","0","1","0","0","5","2","4","1","4","","4","2","1","1","1","726773976101027840","岳","281","","","","","","","","","","","","","","","","","","","","","","","","","","","","","","feedback_test","","","","","","","","","","","",""
"787","","f","psychophysics","135","286098","0.0-7.0-1.0-4.0-0.0-0.14","3","3","4","3","3","3","3","4","4","4","4","4","4","4","4","4","4","4","4","4","4","4","4","4","4","4","1","4","2","1","0","1","0","0","0","0","1","1","1","0","0","1","0","0","5","2","4","1","4","","4","2","1","1","1","726773976101027840","岳","281","","","","nonmatch","","","","","","","","","","","","","","key","f","16.66659433962305","731.4285714285714","453.42857142857144","f","true","nonmatch","img/pentagon.png","方形","五边","ALT1","formal_ALT1_2","","","","","","","","","","","",""
"null","<span style='color:GreenYellow; font-size: 70px;'>正确! </span>","null","html-keyboard-response","136","286598","0.0-7.0-1.0-4.0-0.0-1.14","3","3","4","3","3","3","3","4","4","4","4","4","4","4","4","4","4","4","4","4","4","4","4","4","4","4","1","4","2","1","0","1","0","0","0","0","1","1","1","0","0","1","0","0","5","2","4","1","4","","4","2","1","1","1","726773976101027840","岳","281","","","","","","","","","","","","","","","","","","","","","","","","","","","","","","feedback_test","","","","","","","","","","","",""
"611","","j","psychophysics","137","288211","0.0-7.0-1.0-4.0-0.0-0.15","3","3","4","3","3","3","3","4","4","4","4","4","4","4","4","4","4","4","4","4","4","4","4","4","4","4","1","4","2","1","0","1","0","0","0","0","1","1","1","0","0","1","0","0","5","2","4","1","4","","4","2","1","1","1","726773976101027840","岳","281","","","","match","","","","","","","","","","","","","","key","j","16.66686315789488","731.4285714285714","453.42857142857144","j","true","match","img/square.png","方形","方形","ALT1","formal_ALT1_2","","","","","","","","","","","",""
"null","<span style='color:GreenYellow; font-size: 70px;'>正确! </span>","null","html-keyboard-response","138","288711","0.0-7.0-1.0-4.0-0.0-1.15","3","3","4","3","3","3","3","4","4","4","4","4","4","4","4","4","4","4","4","4","4","4","4","4","4","4","1","4","2","1","0","1","0","0","0","0","1","1","1","0","0","1","0","0","5","2","4","1","4","","4","2","1","1","1","726773976101027840","岳","281","","","","","","","","","","","","","","","","","","","","","","","","","","","","","","feedback_test","","","","","","","","","","","",""
"698","","j","psychophysics","139","290411","0.0-7.0-1.0-4.0-0.0-0.16","3","3","4","3","3","3","3","4","4","4","4","4","4","4","4","4","4","4","4","4","4","4","4","4","4","4","1","4","2","1","0","1","0","0","0","0","1","1","1","0","0","1","0","0","5","2","4","1","4","","4","2","1","1","1","726773976101027840","岳","281","","","","match","","","","","","","","","","","","","","key","j","16.669287128712853","731.4285714285714","453.42857142857144","j","true","match","img/pentagon.png","五边","五边","ALT1","formal_ALT1_2","","","","","","","","","","","",""
"null","<span style='color:GreenYellow; font-size: 70px;'>正确! </span>","null","html-keyboard-response","140","290911","0.0-7.0-1.0-4.0-0.0-1.16","3","3","4","3","3","3","3","4","4","4","4","4","4","4","4","4","4","4","4","4","4","4","4","4","4","4","1","4","2","1","0","1","0","0","0","0","1","1","1","0","0","1","0","0","5","2","4","1","4","","4","2","1","1","1","726773976101027840","岳","281","","","","","","","","","","","","","","","","","","","","","","","","","","","","","","feedback_test","","","","","","","","","","","",""
"625","","f","psychophysics","141","292537","0.0-7.0-1.0-4.0-0.0-0.17","3","3","4","3","3","3","3","4","4","4","4","4","4","4","4","4","4","4","4","4","4","4","4","4","4","4","1","4","2","1","0","1","0","0","0","0","1","1","1","0","0","1","0","0","5","2","4","1","4","","4","2","1","1","1","726773976101027840","岳","281","","","","nonmatch","","","","","","","","","","","","","","key","f","16.665437499999825","731.4285714285714","453.42857142857144","f","true","nonmatch","img/ellipse.png","五边","椭圆","ALT1","formal_ALT1_2","","","","","","","","","","","",""
"null","<span style='color:GreenYellow; font-size: 70px;'>正确! </span>","null","html-keyboard-response","142","293038","0.0-7.0-1.0-4.0-0.0-1.17","3","3","4","3","3","3","3","4","4","4","4","4","4","4","4","4","4","4","4","4","4","4","4","4","4","4","1","4","2","1","0","1","0","0","0","0","1","1","1","0","0","1","0","0","5","2","4","1","4","","4","2","1","1","1","726773976101027840","岳","281","","","","","","","","","","","","","","","","","","","","","","","","","","","","","","feedback_test","","","","","","","","","","","",""
"686","","j","psychophysics","143","294727","0.0-7.0-1.0-4.0-0.0-0.18","3","3","4","3","3","3","3","4","4","4","4","4","4","4","4","4","4","4","4","4","4","4","4","4","4","4","1","4","2","1","0","1","0","0","0","0","1","1","1","0","0","1","0","0","5","2","4","1","4","","4","2","1","1","1","726773976101027840","岳","281","","","","match","","","","","","","","","","","","","","key","j","16.66588999999978","731.4285714285714","453.42857142857144","j","true","match","img/pentagon.png","五边","五边","ALT1","formal_ALT1_2","","","","","","","","","","","",""
"null","<span style='color:GreenYellow; font-size: 70px;'>正确! </span>","null","html-keyboard-response","144","295230","0.0-7.0-1.0-4.0-0.0-1.18","3","3","4","3","3","3","3","4","4","4","4","4","4","4","4","4","4","4","4","4","4","4","4","4","4","4","1","4","2","1","0","1","0","0","0","0","1","1","1","0","0","1","0","0","5","2","4","1","4","","4","2","1","1","1","726773976101027840","岳","281","","","","","","","","","","","","","","","","","","","","","","","","","","","","","","feedback_test","","","","","","","","","","","",""
"655","","j","psychophysics","145","296887","0.0-7.0-1.0-4.0-0.0-0.19","3","3","4","3","3","3","3","4","4","4","4","4","4","4","4","4","4","4","4","4","4","4","4","4","4","4","1","4","2","1","0","1","0","0","0","0","1","1","1","0","0","1","0","0","5","2","4","1","4","","4","2","1","1","1","726773976101027840","岳","281","","","","match","","","","","","","","","","","","","","key","j","16.669585858585755","731.4285714285714","453.42857142857144","f","false","nonmatch","img/ellipse.png","梯形","椭圆","ALT1","formal_ALT1_2","","","","","","","","","","","",""
"null","<span style='color:red; font-size: 70px;'>错误! </span>","null","html-keyboard-response","146","297388","0.0-7.0-1.0-4.0-0.0-1.19","3","3","4","3","3","3","3","4","4","4","4","4","4","4","4","4","4","4","4","4","4","4","4","4","4","4","1","4","2","1","0","1","0","0","0","0","1","1","1","0","0","1","0","0","5","2","4","1","4","","4","2","1","1","1","726773976101027840","岳","281","","","","","","","","","","","","","","","","","","","","","","","","","","","","","","feedback_test","","","","","","","","","","","",""
"818","","j","psychophysics","147","299208","0.0-7.0-1.0-4.0-0.0-0.20","3","3","4","3","3","3","3","4","4","4","4","4","4","4","4","4","4","4","4","4","4","4","4","4","4","4","1","4","2","1","0","1","0","0","0","0","1","1","1","0","0","1","0","0","5","2","4","1","4","","4","2","1","1","1","726773976101027840","岳","281","","","","match","","","","","","","","","","","","","","key","j","16.666588785046837","731.4285714285714","453.42857142857144","j","true","match","img/trapezoid.png","梯形","梯形","ALT1","formal_ALT1_2","","","","","","","","","","","",""
"null","<span style='color:GreenYellow; font-size: 70px;'>正确! </span>","null","html-keyboard-response","148","299709","0.0-7.0-1.0-4.0-0.0-1.20","3","3","4","3","3","3","3","4","4","4","4","4","4","4","4","4","4","4","4","4","4","4","4","4","4","4","1","4","2","1","0","1","0","0","0","0","1","1","1","0","0","1","0","0","5","2","4","1","4","","4","2","1","1","1","726773976101027840","岳","281","","","","","","","","","","","","","","","","","","","","","","","","","","","","","","feedback_test","","","","","","","","","","","",""
"682","","j","psychophysics","149","301392","0.0-7.0-1.0-4.0-0.0-0.21","3","3","4","3","3","3","3","4","4","4","4","4","4","4","4","4","4","4","4","4","4","4","4","4","4","4","1","4","2","1","0","1","0","0","0","0","1","1","1","0","0","1","0","0","5","2","4","1","4","","4","2","1","1","1","726773976101027840","岳","281","","","","match","","","","","","","","","","","","","","key","j","16.669310000000404","731.4285714285714","453.42857142857144","j","true","match","img/pentagon.png","五边","五边","ALT1","formal_ALT1_2","","","","","","","","","","","",""
"null","<span style='color:GreenYellow; font-size: 70px;'>正确! </span>","null","html-keyboard-response","150","301893","0.0-7.0-1.0-4.0-0.0-1.21","3","3","4","3","3","3","3","4","4","4","4","4","4","4","4","4","4","4","4","4","4","4","4","4","4","4","1","4","2","1","0","1","0","0","0","0","1","1","1","0","0","1","0","0","5","2","4","1","4","","4","2","1","1","1","726773976101027840","岳","281","","","","","","","","","","","","","","","","","","","","","","","","","","","","","","feedback_test","","","","","","","","","","","",""
"756","","f","psychophysics","151","303650","0.0-7.0-1.0-4.0-0.0-0.22","3","3","4","3","3","3","3","4","4","4","4","4","4","4","4","4","4","4","4","4","4","4","4","4","4","4","1","4","2","1","0","1","0","0","0","0","1","1","1","0","0","1","0","0","5","2","4","1","4","","4","2","1","1","1","726773976101027840","岳","281","","","","nonmatch","","","","","","","","","","","","","","key","f","16.666730769231016","731.4285714285714","453.42857142857144","f","true","nonmatch","img/trapezoid.png","椭圆","梯形","ALT1","formal_ALT1_2","","","","","","","","","","","",""
"null","<span style='color:GreenYellow; font-size: 70px;'>正确! </span>","null","html-keyboard-response","152","304151","0.0-7.0-1.0-4.0-0.0-1.22","3","3","4","3","3","3","3","4","4","4","4","4","4","4","4","4","4","4","4","4","4","4","4","4","4","4","1","4","2","1","0","1","0","0","0","0","1","1","1","0","0","1","0","0","5","2","4","1","4","","4","2","1","1","1","726773976101027840","岳","281","","","","","","","","","","","","","","","","","","","","","","","","","","","","","","feedback_test","","","","","","","","","","","",""
"608","","j","psychophysics","153","305761","0.0-7.0-1.0-4.0-0.0-0.23","3","3","4","3","3","3","3","4","4","4","4","4","4","4","4","4","4","4","4","4","4","4","4","4","4","4","1","4","2","1","0","1","0","0","0","0","1","1","1","0","0","1","0","0","5","2","4","1","4","","4","2","1","1","1","726773976101027840","岳","281","","","","match","","","","","","","","","","","","","","key","j","16.666231578946924","731.4285714285714","453.42857142857144","j","true","match","img/ellipse.png","椭圆","椭圆","ALT1","formal_ALT1_2","","","","","","","","","","","",""
"null","<span style='color:GreenYellow; font-size: 70px;'>正确! </span>","null","html-keyboard-response","154","306263","0.0-7.0-1.0-4.0-0.0-1.23","3","3","4","3","3","3","3","4","4","4","4","4","4","4","4","4","4","4","4","4","4","4","4","4","4","4","1","4","2","1","0","1","0","0","0","0","1","1","1","0","0","1","0","0","5","2","4","1","4","","4","2","1","1","1","726773976101027840","岳","281","","","","","","","","","","","","","","","","","","","","","","","","","","","","","","feedback_test","","","","","","","","","","","",""
"686","","f","psychophysics","155","307951","0.0-7.0-1.0-4.0-0.0-0.24","3","3","4","3","3","3","3","4","4","4","4","4","4","4","4","4","4","4","4","4","4","4","4","4","4","4","1","4","2","1","0","1","0","0","0","0","1","1","1","0","0","1","0","0","5","2","4","1","4","","4","2","1","1","1","726773976101027840","岳","281","","","","nonmatch","","","","","","","","","","","","","","key","f","16.662939999999946","731.4285714285714","453.42857142857144","f","true","nonmatch","img/square.png","椭圆","方形","ALT1","formal_ALT1_2","","","","","","","","","","","",""
"null","<span style='color:GreenYellow; font-size: 70px;'>正确! </span>","null","html-keyboard-response","156","308451","0.0-7.0-1.0-4.0-0.0-1.24","3","3","4","3","3","3","3","4","4","4","4","4","4","4","4","4","4","4","4","4","4","4","4","4","4","4","1","4","2","1","0","1","0","0","0","0","1","1","1","0","0","1","0","0","5","2","4","1","4","","4","2","1","1","1","726773976101027840","岳","281","","","","","","","","","","","","","","","","","","","","","","","","","","","","","","feedback_test","","","","","","","","","","","",""
"640","","j","psychophysics","157","310092","0.0-7.0-1.0-4.0-0.0-0.25","3","3","4","3","3","3","3","4","4","4","4","4","4","4","4","4","4","4","4","4","4","4","4","4","4","4","1","4","2","1","0","1","0","0","0","0","1","1","1","0","0","1","0","0","5","2","4","1","4","","4","2","1","1","1","726773976101027840","岳","281","","","","match","","","","","","","","","","","","","","key","j","16.667814432989598","731.4285714285714","453.42857142857144","j","true","match","img/pentagon.png","五边","五边","ALT1","formal_ALT1_2","","","","","","","","","","","",""
"null","<span style='color:GreenYellow; font-size: 70px;'>正确! </span>","null","html-keyboard-response","158","310593","0.0-7.0-1.0-4.0-0.0-1.25","3","3","4","3","3","3","3","4","4","4","4","4","4","4","4","4","4","4","4","4","4","4","4","4","4","4","1","4","2","1","0","1","0","0","0","0","1","1","1","0","0","1","0","0","5","2","4","1","4","","4","2","1","1","1","726773976101027840","岳","281","","","","","","","","","","","","","","","","","","","","","","","","","","","","","","feedback_test","","","","","","","","","","","",""
"1009","","f","psychophysics","159","312603","0.0-7.0-1.0-4.0-0.0-0.26","3","3","4","3","3","3","3","4","4","4","4","4","4","4","4","4","4","4","4","4","4","4","4","4","4","4","1","4","2","1","0","1","0","0","0","0","1","1","1","0","0","1","0","0","5","2","4","1","4","","4","2","1","1","1","726773976101027840","岳","281","","","","nonmatch","","","","","","","","","","","","","","key","f","16.665680672268543","731.4285714285714","453.42857142857144","f","true","nonmatch","img/ellipse.png","五边","椭圆","ALT1","formal_ALT1_2","","","","","","","","","","","",""
"null","<span style='color:GreenYellow; font-size: 70px;'>正确! </span>","null","html-keyboard-response","160","313105","0.0-7.0-1.0-4.0-0.0-1.26","3","3","4","3","3","3","3","4","4","4","4","4","4","4","4","4","4","4","4","4","4","4","4","4","4","4","1","4","2","1","0","1","0","0","0","0","1","1","1","0","0","1","0","0","5","2","4","1","4","","4","2","1","1","1","726773976101027840","岳","281","","","","","","","","","","","","","","","","","","","","","","","","","","","","","","feedback_test","","","","","","","","","","","",""
"672","","j","psychophysics","161","314779","0.0-7.0-1.0-4.0-0.0-0.27","3","3","4","3","3","3","3","4","4","4","4","4","4","4","4","4","4","4","4","4","4","4","4","4","4","4","1","4","2","1","0","1","0","0","0","0","1","1","1","0","0","1","0","0","5","2","4","1","4","","4","2","1","1","1","726773976101027840","岳","281","","","","match","","","","","","","","","","","","","","key","j","16.665797979797876","731.4285714285714","453.42857142857144","f","false","nonmatch","img/ellipse.png","方形","椭圆","ALT1","formal_ALT1_2","","","","","","","","","","","",""
"null","<span style='color:red; font-size: 70px;'>错误! </span>","null","html-keyboard-response","162","315280","0.0-7.0-1.0-4.0-0.0-1.27","3","3","4","3","3","3","3","4","4","4","4","4","4","4","4","4","4","4","4","4","4","4","4","4","4","4","1","4","2","1","0","1","0","0","0","0","1","1","1","0","0","1","0","0","5","2","4","1","4","","4","2","1","1","1","726773976101027840","岳","281","","","","","","","","","","","","","","","","","","","","","","","","","","","","","","feedback_test","","","","","","","","","","","",""
"684","","j","psychophysics","163","316966","0.0-7.0-1.0-4.0-0.0-0.28","3","3","4","3","3","3","3","4","4","4","4","4","4","4","4","4","4","4","4","4","4","4","4","4","4","4","1","4","2","1","0","1","0","0","0","0","1","1","1","0","0","1","0","0","5","2","4","1","4","","4","2","1","1","1","726773976101027840","岳","281","","","","match","","","","","","","","","","","","","","key","j","16.663329999999842","731.4285714285714","453.42857142857144","j","true","match","img/square.png","方形","方形","ALT1","formal_ALT1_2","","","","","","","","","","","",""
"null","<span style='color:GreenYellow; font-size: 70px;'>正确! </span>","null","html-keyboard-response","164","317468","0.0-7.0-1.0-4.0-0.0-1.28","3","3","4","3","3","3","3","4","4","4","4","4","4","4","4","4","4","4","4","4","4","4","4","4","4","4","1","4","2","1","0","1","0","0","0","0","1","1","1","0","0","1","0","0","5","2","4","1","4","","4","2","1","1","1","726773976101027840","岳","281","","","","","","","","","","","","","","","","","","","","","","","","","","","","","","feedback_test","","","","","","","","","","","",""
"792","","f","psychophysics","165","319261","0.0-7.0-1.0-4.0-0.0-0.29","3","3","4","3","3","3","3","4","4","4","4","4","4","4","4","4","4","4","4","4","4","4","4","4","4","4","1","4","2","1","0","1","0","0","0","0","1","1","1","0","0","1","0","0","5","2","4","1","4","","4","2","1","1","1","726773976101027840","岳","281","","","","nonmatch","","","","","","","","","","","","","","key","f","16.664471698113285","731.4285714285714","453.42857142857144","f","true","nonmatch","img/ellipse.png","梯形","椭圆","ALT1","formal_ALT1_2","","","","","","","","","","","",""
"null","<span style='color:GreenYellow; font-size: 70px;'>正确! </span>","null","html-keyboard-response","166","319761","0.0-7.0-1.0-4.0-0.0-1.29","3","3","4","3","3","3","3","4","4","4","4","4","4","4","4","4","4","4","4","4","4","4","4","4","4","4","1","4","2","1","0","1","0","0","0","0","1","1","1","0","0","1","0","0","5","2","4","1","4","","4","2","1","1","1","726773976101027840","岳","281","","","","","","","","","","","","","","","","","","","","","","","","","","","","","","feedback_test","","","","","","","","","","","",""
"649","","j","psychophysics","167","321412","0.0-7.0-1.0-4.0-0.0-0.30","3","3","4","3","3","3","3","4","4","4","4","4","4","4","4","4","4","4","4","4","4","4","4","4","4","4","1","4","2","1","0","1","0","0","0","0","1","1","1","0","0","1","0","0","5","2","4","1","4","","4","2","1","1","1","726773976101027840","岳","281","","","","match","","","","","","","","","","","","","","key","j","16.665443298969173","731.4285714285714","453.42857142857144","j","true","match","img/trapezoid.png","梯形","梯形","ALT1","formal_ALT1_2","","","","","","","","","","","",""
"null","<span style='color:GreenYellow; font-size: 70px;'>正确! </span>","null","html-keyboard-response","168","321913","0.0-7.0-1.0-4.0-0.0-1.30","3","3","4","3","3","3","3","4","4","4","4","4","4","4","4","4","4","4","4","4","4","4","4","4","4","4","1","4","2","1","0","1","0","0","0","0","1","1","1","0","0","1","0","0","5","2","4","1","4","","4","2","1","1","1","726773976101027840","岳","281","","","","","","","","","","","","","","","","","","","","","","","","","","","","","","feedback_test","","","","","","","","","","","",""
"994","","f","psychophysics","169","323908","0.0-7.0-1.0-4.0-0.0-0.31","3","3","4","3","3","3","3","4","4","4","4","4","4","4","4","4","4","4","4","4","4","4","4","4","4","4","1","4","2","1","0","1","0","0","0","0","1","1","1","0","0","1","0","0","5","2","4","1","4","","4","2","1","1","1","726773976101027840","岳","281","","","","nonmatch","","","","","","","","","","","","","","key","f","16.66893277310927","731.4285714285714","453.42857142857144","f","true","nonmatch","img/pentagon.png","方形","五边","ALT1","formal_ALT1_2","","","","","","","","","","","",""
"null","<span style='color:GreenYellow; font-size: 70px;'>正确! </span>","null","html-keyboard-response","170","324409","0.0-7.0-1.0-4.0-0.0-1.31","3","3","4","3","3","3","3","4","4","4","4","4","4","4","4","4","4","4","4","4","4","4","4","4","4","4","1","4","2","1","0","1","0","0","0","0","1","1","1","0","0","1","0","0","5","2","4","1","4","","4","2","1","1","1","726773976101027840","岳","281","","","","","","","","","","","","","","","","","","","","","","","","","","","","","","feedback_test","","","","","","","","","","","",""
"764","","f","psychophysics","171","326175","0.0-7.0-1.0-4.0-0.0-0.32","3","3","4","3","3","3","3","4","4","4","4","4","4","4","4","4","4","4","4","4","4","4","4","4","4","4","1","4","2","1","0","1","0","0","0","0","1","1","1","0","0","1","0","0","5","2","4","1","4","","4","2","1","1","1","726773976101027840","岳","281","","","","nonmatch","","","","","","","","","","","","","","key","f","16.66857142857154","731.4285714285714","453.42857142857144","f","true","nonmatch","img/pentagon.png","椭圆","五边","ALT1","formal_ALT1_2","","","","","","","","","","","",""
"null","<span style='color:GreenYellow; font-size: 70px;'>正确! </span>","null","html-keyboard-response","172","326676","0.0-7.0-1.0-4.0-0.0-1.32","3","3","4","3","3","3","3","4","4","4","4","4","4","4","4","4","4","4","4","4","4","4","4","4","4","4","1","4","2","1","0","1","0","0","0","0","1","1","1","0","0","1","0","0","5","2","4","1","4","","4","2","1","1","1","726773976101027840","岳","281","","","","","","","","","","","","","","","","","","","","","","","","","","","","","","feedback_test","","","","","","","","","","","",""
"722","","j","psychophysics","173","328399","0.0-7.0-1.0-4.0-0.0-0.33","3","3","4","3","3","3","3","4","4","4","4","4","4","4","4","4","4","4","4","4","4","4","4","4","4","4","1","4","2","1","0","1","0","0","0","0","1","1","1","0","0","1","0","0","5","2","4","1","4","","4","2","1","1","1","726773976101027840","岳","281","","","","match","","","","","","","","","","","","","","key","j","16.669184466019765","731.4285714285714","453.42857142857144","j","true","match","img/trapezoid.png","梯形","梯形","ALT1","formal_ALT1_2","","","","","","","","","","","",""
"null","<span style='color:GreenYellow; font-size: 70px;'>正确! </span>","null","html-keyboard-response","174","328906","0.0-7.0-1.0-4.0-0.0-1.33","3","3","4","3","3","3","3","4","4","4","4","4","4","4","4","4","4","4","4","4","4","4","4","4","4","4","1","4","2","1","0","1","0","0","0","0","1","1","1","0","0","1","0","0","5","2","4","1","4","","4","2","1","1","1","726773976101027840","岳","281","","","","","","","","","","","","","","","","","","","","","","","","","","","","","","feedback_test","","","","","","","","","","","",""
"822","","j","psychophysics","175","330730","0.0-7.0-1.0-4.0-0.0-0.34","3","3","4","3","3","3","3","4","4","4","4","4","4","4","4","4","4","4","4","4","4","4","4","4","4","4","1","4","2","1","0","1","0","0","0","0","1","1","1","0","0","1","0","0","5","2","4","1","4","","4","2","1","1","1","726773976101027840","岳","281","","","","match","","","","","","","","","","","","","","key","j","16.667120370370363","731.4285714285714","453.42857142857144","j","true","match","img/ellipse.png","椭圆","椭圆","ALT1","formal_ALT1_2","","","","","","","","","","","",""
"null","<span style='color:GreenYellow; font-size: 70px;'>正确! </span>","null","html-keyboard-response","176","331232","0.0-7.0-1.0-4.0-0.0-1.34","3","3","4","3","3","3","3","4","4","4","4","4","4","4","4","4","4","4","4","4","4","4","4","4","4","4","1","4","2","1","0","1","0","0","0","0","1","1","1","0","0","1","0","0","5","2","4","1","4","","4","2","1","1","1","726773976101027840","岳","281","","","","","","","","","","","","","","","","","","","","","","","","","","","","","","feedback_test","","","","","","","","","","","",""
"953","","f","psychophysics","177","333186","0.0-7.0-1.0-4.0-0.0-0.35","3","3","4","3","3","3","3","4","4","4","4","4","4","4","4","4","4","4","4","4","4","4","4","4","4","4","1","4","2","1","0","1","0","0","0","0","1","1","1","0","0","1","0","0","5","2","4","1","4","","4","2","1","1","1","726773976101027840","岳","281","","","","nonmatch","","","","","","","","","","","","","","key","f","16.66611206896577","731.4285714285714","453.42857142857144","f","true","nonmatch","img/trapezoid.png","方形","梯形","ALT1","formal_ALT1_2","","","","","","","","","","","",""
