"rt","stimulus","response","trial_type","trial_index","time_elapsed","internal_node_id","ses_1","ses_2","ses_3","ses_4","ses_5","ses_6","ses_7","ses_8","ses_9","ses_10","coreself_1","coreself_2","coreself_3","coreself_4","coreself_5","coreself_6","coreself_7","coreself_8","coreself_9","coreself_10","SGPS_1","SGPS_2","SGPS_3","SGPS_4","SGPS_5","SGPS_6","SGPS_7","SGPS_8","SGPS_9","NPI1","NPI2","NPI3","NPI4","NPI5","NPI6","NPI7","NPI8","NPI9","NPI10","NPI11","NPI12","NPI13","NPI14","NPI15","hsns_1","hsns_2","hsns_3","hsns_4","hsns_5","trap1","hsns_6","hsns_7","hsns_8","hsns_9","hsns_10","subj_idx","friend_name","ParticipantID","value","success","user_agent","responses","item_order","radio_event_ids","radio_event_times","key_event_times","mouse_event_times","straightlining","zigzagging","honeypot","timeout","failed_images","failed_audio","failed_video","version_attrib2","version_target2","correct","IAT","screen_id","task_id","RT","condition","word","varname","summary","version_attrib","version_target","time_stamp","view_history","response_type","key_press","avg_frame_time","center_x","center_y","correct_response","identity","Image","question_order","correct_answer","trap1_item"
"13270","
   <p><div style = ""color: white;font-size:25px;"">您好，欢迎参加本次实验。</div> </p>
   <p><div style = ""color: white;font-size:25px;"">为充分保障您的权利，请确保您已经知晓并同意《参与实验同意书》以及《数据公开知情同意书》。</div></p>
   <p><div style = ""color: white;font-size:25px;"">如果您未见过上述内容，请咨询实验员。</div></p>
   <p><div style = ""color: white;font-size:25px;"">如果您选择继续实验，则表示您已经清楚两份知情同意书的内容并同意。</div></p>
   <p><div style = ""color: pink;font-size:30px;"">请确保您记得day0的实验编号，您将在本次实验输入该编号，若您忘记，请咨询实验员后作答。</div></p>
   <p><div style = ""color: lightblue;font-size:25px;"">请您尽可能认真地作答，我们将依据您在各问卷和按键任务中的作答质量发放报酬。</div></p>
   <p> <div style = ""color: green;font-size:25px;""><按空格键至下页></div> </p>
   "," ","html-keyboard-response","0","13277","0.0-0.0","3","3","4","3","3","3","3","4","3","3","4","4","5","4","4","4","4","5","4","4","2","2","1","1","2","1","1","1","1","1","0","0","1","0","0","0","1","0","1","0","0","0","0","0","4","1","2","1","2","1","4","5","4","5","2","726468431867543552","徐","328","","","","","","","","","","","","","","","","","","","","","","","","","","","","","","","","","","","","","","","","","",""
"","","","call-function","1","13284","0.0-1.0-0.0","3","3","4","3","3","3","3","4","3","3","4","4","5","4","4","4","4","5","4","4","2","2","1","1","2","1","1","1","1","1","0","0","1","0","0","0","1","0","1","0","0","0","0","0","4","1","2","1","2","1","4","5","4","5","2","726468431867543552","徐","328","","","","","","","","","","","","","","","","","","","","","","","","","","","","","","","","","","","","","","","","","",""
"22218","","{""friend_name"":""徐"",""ParticipantID"":""328""}","survey-html-form","2","35505","0.0-1.0-1.0","3","3","4","3","3","3","3","4","3","3","4","4","5","4","4","4","4","5","4","4","2","2","1","1","2","1","1","1","1","1","0","0","1","0","0","0","1","0","1","0","0","0","0","0","4","1","2","1","2","1","4","5","4","5","2","726468431867543552","徐","328","","","","","","","","","","","","","","","","","","","","","","","","","","","","","","","","","","","","","","","","","",""
"","","","fullscreen","3","45110","0.0-2.0","3","3","4","3","3","3","3","4","3","3","4","4","5","4","4","4","4","5","4","4","2","2","1","1","2","1","1","1","1","1","0","0","1","0","0","0","1","0","1","0","0","0","0","0","4","1","2","1","2","1","4","5","4","5","2","726468431867543552","徐","328","","true","{}","","","","","","","","","","","","","","","","","","","","","","","","","","","","","","","","","","","","","","",""
"25367.40000000596","","{""Q01"":""3"",""Q02"":""3"",""Q03"":""4"",""Q04"":""3"",""Q05"":""3"",""Q06"":""3"",""Q07"":""3"",""Q08"":""4"",""Q09"":""3"",""Q10"":""3""}","survey-template","4","70481","0.0-3.0","3","3","4","3","3","3","3","4","3","3","4","4","5","4","4","4","4","5","4","4","2","2","1","1","2","1","1","1","1","1","0","0","1","0","0","0","1","0","1","0","0","0","0","0","4","1","2","1","2","1","4","5","4","5","2","726468431867543552","徐","328","","","","{""Q01"":""3"",""Q02"":""3"",""Q03"":""4"",""Q04"":""3"",""Q05"":""3"",""Q06"":""3"",""Q07"":""3"",""Q08"":""4"",""Q09"":""3"",""Q10"":""3""}","[0,1,2,3,4,5,6,7,8,9]","[""Q01"",""Q01"",""Q02"",""Q03"",""Q04"",""Q05"",""Q06"",""Q07"",""Q08"",""Q09"",""Q10""]","[2790,5885.799999982119,9989.699999988079,11197.90000000596,12789.699999988079,14118,17349.19999998808,18629.29999998212,22245.59999999404,22996.19999998808,24324.79999998212]","[]","[2790,5045.5,5885.799999982119,9989.699999988079,11197.90000000596,12789.699999988079,14118,17349.19999998808,18629.29999998212,20605.40000000596,22245.59999999404,22996.19999998808,24324.79999998212,25364.69999998808]","0.5","0.3333333333333333","0","","","","","","","","","","","","","","","","","","","","","","","","","","","","","",""
"25921.59999999404","","{""Q01"":""4"",""Q02"":""4"",""Q03"":""5"",""Q04"":""4"",""Q05"":""4"",""Q06"":""4"",""Q07"":""4"",""Q08"":""5"",""Q09"":""4"",""Q10"":""4""}","survey-template","5","96419","0.0-4.0","3","3","4","3","3","3","3","4","3","3","4","4","5","4","4","4","4","5","4","4","2","2","1","1","2","1","1","1","1","1","0","0","1","0","0","0","1","0","1","0","0","0","0","0","4","1","2","1","2","1","4","5","4","5","2","726468431867543552","徐","328","","","","{""Q01"":""4"",""Q02"":""4"",""Q03"":""5"",""Q04"":""4"",""Q05"":""4"",""Q06"":""4"",""Q07"":""4"",""Q08"":""5"",""Q09"":""4"",""Q10"":""4""}","[0,1,2,3,4,5,6,7,8,9]","[""Q01"",""Q02"",""Q03"",""Q04"",""Q05"",""Q06"",""Q07"",""Q08"",""Q09"",""Q10""]","[2462.199999988079,5966.799999982119,8886.5,10222.59999999404,13934.399999976158,15126.5,16622.59999999404,19334.5,21102.69999998808,22525.59999999404]","[]","[2462.199999988079,5966.799999982119,8886.5,10222.59999999404,12343.299999982119,13934.399999976158,15126.5,16622.59999999404,18694.19999998808,19334.5,21102.69999998808,22525.59999999404,25918.59999999404]","0.4","0.2222222222222222","0","","","","","","","","","","","","","","","","","","","","","","","","","","","","","",""
"","","","preload","6","96662","0.0-5.0","3","3","4","3","3","3","3","4","3","3","4","4","5","4","4","4","4","5","4","4","2","2","1","1","2","1","1","1","1","1","0","0","1","0","0","0","1","0","1","0","0","0","0","0","4","1","2","1","2","1","4","5","4","5","2","726468431867543552","徐","328","","true","","","","","","","","","","","false","[]","[]","[]","","","","","","","","","","","","","","","","","","","","","","","","","",""
"18158","
    <h3>词语分类任务</h3>
    <p>在接下来的任务中，你需要对一系列词语进行分类。<p/>
    请先熟悉这些词语，这有利于你完成接下来的任务。</p>
    <table align=""center"" border=1 cellpadding=3 cellspacing=0>
    <tr> <th>类别</th> <th>词语</th> </tr>
    <tr> <td>&emsp;积极&emsp;</td> <td>&emsp;高尚、诚信、善良、君子、廉正、正直&emsp;</td> </tr>
    <tr> <td>&emsp;消极&emsp;</td> <td>&emsp;缺德、卑鄙、不孝、不仁、小人、黑心&emsp;</td> </tr>
    <tr> <td>&emsp;自我&emsp;</td> <td>&emsp;我、我的、自己、自己的、本人、本人的&emsp;</td> </tr>
    <tr> <td>&emsp;他人&emsp;</td> <td>&emsp;他、他的、别人、别人的、他人、他人的&emsp;</td> </tr>
    </table><br/>","0","html-button-response","7","114823","0.0-6.0-1.0-0.0","3","3","4","3","3","3","3","4","3","3","4","4","5","4","4","4","4","5","4","4","2","2","1","1","2","1","1","1","1","1","0","0","1","0","0","0","1","0","1","0","0","0","0","0","4","1","2","1","2","1","4","5","4","5","2","726468431867543552","徐","328","","","","","","","","","","","","","","","","","1","1","","","","","","","","","","","","","","","","","","","","","","","",""
"27762","
    <div class=""tag-bottom""><p>
    —— 任务1：对“自我”词和“他人”词分类 ——<p/>
    不同词语会出现在屏幕中央，类别标签将始终显示在屏幕上方<p/>   
    <span style=""color:#FFD866""><b>请根据上方标签的提示，尽可能正确并且快速地做出按键反应</b></span><p/>
    当按键错误时屏幕中会出现<span style=""color:red""> X </span>，需要按另一个键纠正才能继续<br/><p/>
    请把双手食指分别放在键盘的“E”键和“I”键上<p/>
    按<空格键>开始
    </p></div>"," ","html-keyboard-response","8","142601","0.0-6.0-1.0-1.0","3","3","4","3","3","3","3","4","3","3","4","4","5","4","4","4","4","5","4","4","2","2","1","1","2","1","1","1","1","1","0","0","1","0","0","0","1","0","1","0","0","0","0","0","4","1","2","1","2","1","4","5","4","5","2","726468431867543552","徐","328","","","","","","","","","","","","","","","","","","","","","","","","","","","","","","","","","","","","","","","","","",""
"null","","null","html-keyboard-response","9","142856","0.0-6.0-1.0-2.0-0.0","3","3","4","3","3","3","3","4","3","3","4","4","5","4","4","4","4","5","4","4","2","2","1","1","2","1","1","1","1","1","0","0","1","0","0","0","1","0","1","0","0","0","0","0","4","1","2","1","2","1","4","5","4","5","2","726468431867543552","徐","328","","","","","","","","","","","","","","","","","","","","","","","","","","","","","","","","","","","","","","","","","",""
"1410","<p style=""color:rgb(150, 250, 100); font-size: 35px;"">我</p>","e","categorize-html","10","144276","0.0-6.0-1.0-2.0-1.0","3","3","4","3","3","3","3","4","3","3","4","4","5","4","4","4","4","5","4","4","2","2","1","1","2","1","1","1","1","1","0","0","1","0","0","0","1","0","1","0","0","0","0","0","4","1","2","1","2","1","4","5","4","5","2","726468431867543552","徐","328","","","","","","","","","","","","","","","","","","","true","11","1","moral","1410","self","我","","","","","","","","","","","","","","","","",""
"null","","null","html-keyboard-response","11","144537","0.0-6.0-1.0-2.0-0.1","3","3","4","3","3","3","3","4","3","3","4","4","5","4","4","4","4","5","4","4","2","2","1","1","2","1","1","1","1","1","0","0","1","0","0","0","1","0","1","0","0","0","0","0","4","1","2","1","2","1","4","5","4","5","2","726468431867543552","徐","328","","","","","","","","","","","","","","","","","","","","","","","","","","","","","","","","","","","","","","","","","",""
"909","<p style=""color:rgb(150, 250, 100); font-size: 35px;"">本人</p>","e","categorize-html","12","145451","0.0-6.0-1.0-2.0-1.1","3","3","4","3","3","3","3","4","3","3","4","4","5","4","4","4","4","5","4","4","2","2","1","1","2","1","1","1","1","1","0","0","1","0","0","0","1","0","1","0","0","0","0","0","4","1","2","1","2","1","4","5","4","5","2","726468431867543552","徐","328","","","","","","","","","","","","","","","","","","","true","11","1","moral","909","self","本人","","","","","","","","","","","","","","","","",""
"null","","null","html-keyboard-response","13","145705","0.0-6.0-1.0-2.0-0.2","3","3","4","3","3","3","3","4","3","3","4","4","5","4","4","4","4","5","4","4","2","2","1","1","2","1","1","1","1","1","0","0","1","0","0","0","1","0","1","0","0","0","0","0","4","1","2","1","2","1","4","5","4","5","2","726468431867543552","徐","328","","","","","","","","","","","","","","","","","","","","","","","","","","","","","","","","","","","","","","","","","",""
"685","<p style=""color:rgb(150, 250, 100); font-size: 35px;"">别人的</p>","i","categorize-html","14","146396","0.0-6.0-1.0-2.0-1.2","3","3","4","3","3","3","3","4","3","3","4","4","5","4","4","4","4","5","4","4","2","2","1","1","2","1","1","1","1","1","0","0","1","0","0","0","1","0","1","0","0","0","0","0","4","1","2","1","2","1","4","5","4","5","2","726468431867543552","徐","328","","","","","","","","","","","","","","","","","","","true","11","1","moral","685","other","别人的","","","","","","","","","","","","","","","","",""
"null","","null","html-keyboard-response","15","146657","0.0-6.0-1.0-2.0-0.3","3","3","4","3","3","3","3","4","3","3","4","4","5","4","4","4","4","5","4","4","2","2","1","1","2","1","1","1","1","1","0","0","1","0","0","0","1","0","1","0","0","0","0","0","4","1","2","1","2","1","4","5","4","5","2","726468431867543552","徐","328","","","","","","","","","","","","","","","","","","","","","","","","","","","","","","","","","","","","","","","","","",""
"661","<p style=""color:rgb(150, 250, 100); font-size: 35px;"">他的</p>","i","categorize-html","16","147324","0.0-6.0-1.0-2.0-1.3","3","3","4","3","3","3","3","4","3","3","4","4","5","4","4","4","4","5","4","4","2","2","1","1","2","1","1","1","1","1","0","0","1","0","0","0","1","0","1","0","0","0","0","0","4","1","2","1","2","1","4","5","4","5","2","726468431867543552","徐","328","","","","","","","","","","","","","","","","","","","true","11","1","moral","661","other","他的","","","","","","","","","","","","","","","","",""
"null","","null","html-keyboard-response","17","147584","0.0-6.0-1.0-2.0-0.4","3","3","4","3","3","3","3","4","3","3","4","4","5","4","4","4","4","5","4","4","2","2","1","1","2","1","1","1","1","1","0","0","1","0","0","0","1","0","1","0","0","0","0","0","4","1","2","1","2","1","4","5","4","5","2","726468431867543552","徐","328","","","","","","","","","","","","","","","","","","","","","","","","","","","","","","","","","","","","","","","","","",""
"1757","<p style=""color:rgb(150, 250, 100); font-size: 35px;"">本人的</p>","e","categorize-html","18","149348","0.0-6.0-1.0-2.0-1.4","3","3","4","3","3","3","3","4","3","3","4","4","5","4","4","4","4","5","4","4","2","2","1","1","2","1","1","1","1","1","0","0","1","0","0","0","1","0","1","0","0","0","0","0","4","1","2","1","2","1","4","5","4","5","2","726468431867543552","徐","328","","","","","","","","","","","","","","","","","","","true","11","1","moral","1757","self","本人的","","","","","","","","","","","","","","","","",""
"null","","null","html-keyboard-response","19","149609","0.0-6.0-1.0-2.0-0.5","3","3","4","3","3","3","3","4","3","3","4","4","5","4","4","4","4","5","4","4","2","2","1","1","2","1","1","1","1","1","0","0","1","0","0","0","1","0","1","0","0","0","0","0","4","1","2","1","2","1","4","5","4","5","2","726468431867543552","徐","328","","","","","","","","","","","","","","","","","","","","","","","","","","","","","","","","","","","","","","","","","",""
"773","<p style=""color:rgb(150, 250, 100); font-size: 35px;"">他人</p>","i","categorize-html","20","150387","0.0-6.0-1.0-2.0-1.5","3","3","4","3","3","3","3","4","3","3","4","4","5","4","4","4","4","5","4","4","2","2","1","1","2","1","1","1","1","1","0","0","1","0","0","0","1","0","1","0","0","0","0","0","4","1","2","1","2","1","4","5","4","5","2","726468431867543552","徐","328","","","","","","","","","","","","","","","","","","","true","11","1","moral","773","other","他人","","","","","","","","","","","","","","","","",""
"null","","null","html-keyboard-response","21","150640","0.0-6.0-1.0-2.0-0.6","3","3","4","3","3","3","3","4","3","3","4","4","5","4","4","4","4","5","4","4","2","2","1","1","2","1","1","1","1","1","0","0","1","0","0","0","1","0","1","0","0","0","0","0","4","1","2","1","2","1","4","5","4","5","2","726468431867543552","徐","328","","","","","","","","","","","","","","","","","","","","","","","","","","","","","","","","","","","","","","","","","",""
"1038","<p style=""color:rgb(150, 250, 100); font-size: 35px;"">他</p>","i","categorize-html","22","151683","0.0-6.0-1.0-2.0-1.6","3","3","4","3","3","3","3","4","3","3","4","4","5","4","4","4","4","5","4","4","2","2","1","1","2","1","1","1","1","1","0","0","1","0","0","0","1","0","1","0","0","0","0","0","4","1","2","1","2","1","4","5","4","5","2","726468431867543552","徐","328","","","","","","","","","","","","","","","","","","","true","11","1","moral","1038","other","他","","","","","","","","","","","","","","","","",""
"null","","null","html-keyboard-response","23","151936","0.0-6.0-1.0-2.0-0.7","3","3","4","3","3","3","3","4","3","3","4","4","5","4","4","4","4","5","4","4","2","2","1","1","2","1","1","1","1","1","0","0","1","0","0","0","1","0","1","0","0","0","0","0","4","1","2","1","2","1","4","5","4","5","2","726468431867543552","徐","328","","","","","","","","","","","","","","","","","","","","","","","","","","","","","","","","","","","","","","","","","",""
"671","<p style=""color:rgb(150, 250, 100); font-size: 35px;"">自己的</p>","e","categorize-html","24","152612","0.0-6.0-1.0-2.0-1.7","3","3","4","3","3","3","3","4","3","3","4","4","5","4","4","4","4","5","4","4","2","2","1","1","2","1","1","1","1","1","0","0","1","0","0","0","1","0","1","0","0","0","0","0","4","1","2","1","2","1","4","5","4","5","2","726468431867543552","徐","328","","","","","","","","","","","","","","","","","","","true","11","1","moral","671","self","自己的","","","","","","","","","","","","","","","","",""
"null","","null","html-keyboard-response","25","152872","0.0-6.0-1.0-2.0-0.8","3","3","4","3","3","3","3","4","3","3","4","4","5","4","4","4","4","5","4","4","2","2","1","1","2","1","1","1","1","1","0","0","1","0","0","0","1","0","1","0","0","0","0","0","4","1","2","1","2","1","4","5","4","5","2","726468431867543552","徐","328","","","","","","","","","","","","","","","","","","","","","","","","","","","","","","","","","","","","","","","","","",""
"686","<p style=""color:rgb(150, 250, 100); font-size: 35px;"">别人</p>","i","categorize-html","26","153564","0.0-6.0-1.0-2.0-1.8","3","3","4","3","3","3","3","4","3","3","4","4","5","4","4","4","4","5","4","4","2","2","1","1","2","1","1","1","1","1","0","0","1","0","0","0","1","0","1","0","0","0","0","0","4","1","2","1","2","1","4","5","4","5","2","726468431867543552","徐","328","","","","","","","","","","","","","","","","","","","true","11","1","moral","686","other","别人","","","","","","","","","","","","","","","","",""
"null","","null","html-keyboard-response","27","153824","0.0-6.0-1.0-2.0-0.9","3","3","4","3","3","3","3","4","3","3","4","4","5","4","4","4","4","5","4","4","2","2","1","1","2","1","1","1","1","1","0","0","1","0","0","0","1","0","1","0","0","0","0","0","4","1","2","1","2","1","4","5","4","5","2","726468431867543552","徐","328","","","","","","","","","","","","","","","","","","","","","","","","","","","","","","","","","","","","","","","","","",""
"1106","<p style=""color:rgb(150, 250, 100); font-size: 35px;"">我的</p>","e","categorize-html","28","154935","0.0-6.0-1.0-2.0-1.9","3","3","4","3","3","3","3","4","3","3","4","4","5","4","4","4","4","5","4","4","2","2","1","1","2","1","1","1","1","1","0","0","1","0","0","0","1","0","1","0","0","0","0","0","4","1","2","1","2","1","4","5","4","5","2","726468431867543552","徐","328","","","","","","","","","","","","","","","","","","","true","11","1","moral","1106","self","我的","","","","","","","","","","","","","","","","",""
"null","","null","html-keyboard-response","29","155192","0.0-6.0-1.0-2.0-0.10","3","3","4","3","3","3","3","4","3","3","4","4","5","4","4","4","4","5","4","4","2","2","1","1","2","1","1","1","1","1","0","0","1","0","0","0","1","0","1","0","0","0","0","0","4","1","2","1","2","1","4","5","4","5","2","726468431867543552","徐","328","","","","","","","","","","","","","","","","","","","","","","","","","","","","","","","","","","","","","","","","","",""
"854","<p style=""color:rgb(150, 250, 100); font-size: 35px;"">他人的</p>","i","categorize-html","30","156049","0.0-6.0-1.0-2.0-1.10","3","3","4","3","3","3","3","4","3","3","4","4","5","4","4","4","4","5","4","4","2","2","1","1","2","1","1","1","1","1","0","0","1","0","0","0","1","0","1","0","0","0","0","0","4","1","2","1","2","1","4","5","4","5","2","726468431867543552","徐","328","","","","","","","","","","","","","","","","","","","true","11","1","moral","854","other","他人的","","","","","","","","","","","","","","","","",""
"null","","null","html-keyboard-response","31","156304","0.0-6.0-1.0-2.0-0.11","3","3","4","3","3","3","3","4","3","3","4","4","5","4","4","4","4","5","4","4","2","2","1","1","2","1","1","1","1","1","0","0","1","0","0","0","1","0","1","0","0","0","0","0","4","1","2","1","2","1","4","5","4","5","2","726468431867543552","徐","328","","","","","","","","","","","","","","","","","","","","","","","","","","","","","","","","","","","","","","","","","",""
"781","<p style=""color:rgb(150, 250, 100); font-size: 35px;"">自己</p>","e","categorize-html","32","157091","0.0-6.0-1.0-2.0-1.11","3","3","4","3","3","3","3","4","3","3","4","4","5","4","4","4","4","5","4","4","2","2","1","1","2","1","1","1","1","1","0","0","1","0","0","0","1","0","1","0","0","0","0","0","4","1","2","1","2","1","4","5","4","5","2","726468431867543552","徐","328","","","","","","","","","","","","","","","","","","","true","11","1","moral","781","self","自己","","","","","","","","","","","","","","","","",""
"6425","
    <div class=""tag-bottom""><p>
    —— 任务2：对“积极”词和“消极”词分类 ——<p/>   
    <span style=""color:#78DCE8""><b>注意上方，类别标签和需要分类的词语都已经改变</b></span><p/>
    <span style=""color:#FFD866""><b>请根据上方标签的提示，尽可能正确并且快速地做出按键反应</b></span><p/>
    当按键错误时屏幕中会出现<span style=""color:red""> X </span>，需要按另一个键纠正才能继续<br/><p/>
    请把双手食指分别放在键盘的“E”键和“I”键上<p/>
    按<空格键>开始
    </p></div>"," ","html-keyboard-response","33","163519","0.0-6.0-1.0-3.0","3","3","4","3","3","3","3","4","3","3","4","4","5","4","4","4","4","5","4","4","2","2","1","1","2","1","1","1","1","1","0","0","1","0","0","0","1","0","1","0","0","0","0","0","4","1","2","1","2","1","4","5","4","5","2","726468431867543552","徐","328","","","","","","","","","","","","","","","","","","","","","","","","","","","","","","","","","","","","","","","","","",""
"null","","null","html-keyboard-response","34","163776","0.0-6.0-1.0-4.0-0.0","3","3","4","3","3","3","3","4","3","3","4","4","5","4","4","4","4","5","4","4","2","2","1","1","2","1","1","1","1","1","0","0","1","0","0","0","1","0","1","0","0","0","0","0","4","1","2","1","2","1","4","5","4","5","2","726468431867543552","徐","328","","","","","","","","","","","","","","","","","","","","","","","","","","","","","","","","","","","","","","","","","",""
"1276","<p style=""color:white; font-size: 35px;"">卑鄙</p>","i","categorize-html","35","165059","0.0-6.0-1.0-4.0-1.0","3","3","4","3","3","3","3","4","3","3","4","4","5","4","4","4","4","5","4","4","2","2","1","1","2","1","1","1","1","1","0","0","1","0","0","0","1","0","1","0","0","0","0","0","4","1","2","1","2","1","4","5","4","5","2","726468431867543552","徐","328","","","","","","","","","","","","","","","","","","","true","12","2","moral","1276","negative","卑鄙","","","","","","","","","","","","","","","","",""
"null","","null","html-keyboard-response","36","165312","0.0-6.0-1.0-4.0-0.1","3","3","4","3","3","3","3","4","3","3","4","4","5","4","4","4","4","5","4","4","2","2","1","1","2","1","1","1","1","1","0","0","1","0","0","0","1","0","1","0","0","0","0","0","4","1","2","1","2","1","4","5","4","5","2","726468431867543552","徐","328","","","","","","","","","","","","","","","","","","","","","","","","","","","","","","","","","","","","","","","","","",""
"749","<p style=""color:white; font-size: 35px;"">缺德</p>","i","categorize-html","37","166064","0.0-6.0-1.0-4.0-1.1","3","3","4","3","3","3","3","4","3","3","4","4","5","4","4","4","4","5","4","4","2","2","1","1","2","1","1","1","1","1","0","0","1","0","0","0","1","0","1","0","0","0","0","0","4","1","2","1","2","1","4","5","4","5","2","726468431867543552","徐","328","","","","","","","","","","","","","","","","","","","true","12","2","moral","749","negative","缺德","","","","","","","","","","","","","","","","",""
"null","","null","html-keyboard-response","38","166320","0.0-6.0-1.0-4.0-0.2","3","3","4","3","3","3","3","4","3","3","4","4","5","4","4","4","4","5","4","4","2","2","1","1","2","1","1","1","1","1","0","0","1","0","0","0","1","0","1","0","0","0","0","0","4","1","2","1","2","1","4","5","4","5","2","726468431867543552","徐","328","","","","","","","","","","","","","","","","","","","","","","","","","","","","","","","","","","","","","","","","","",""
"581","<p style=""color:white; font-size: 35px;"">不孝</p>","i","categorize-html","39","166908","0.0-6.0-1.0-4.0-1.2","3","3","4","3","3","3","3","4","3","3","4","4","5","4","4","4","4","5","4","4","2","2","1","1","2","1","1","1","1","1","0","0","1","0","0","0","1","0","1","0","0","0","0","0","4","1","2","1","2","1","4","5","4","5","2","726468431867543552","徐","328","","","","","","","","","","","","","","","","","","","true","12","2","moral","581","negative","不孝","","","","","","","","","","","","","","","","",""
"null","","null","html-keyboard-response","40","167168","0.0-6.0-1.0-4.0-0.3","3","3","4","3","3","3","3","4","3","3","4","4","5","4","4","4","4","5","4","4","2","2","1","1","2","1","1","1","1","1","0","0","1","0","0","0","1","0","1","0","0","0","0","0","4","1","2","1","2","1","4","5","4","5","2","726468431867543552","徐","328","","","","","","","","","","","","","","","","","","","","","","","","","","","","","","","","","","","","","","","","","",""
"725","<p style=""color:white; font-size: 35px;"">高尚</p>","e","categorize-html","41","167899","0.0-6.0-1.0-4.0-1.3","3","3","4","3","3","3","3","4","3","3","4","4","5","4","4","4","4","5","4","4","2","2","1","1","2","1","1","1","1","1","0","0","1","0","0","0","1","0","1","0","0","0","0","0","4","1","2","1","2","1","4","5","4","5","2","726468431867543552","徐","328","","","","","","","","","","","","","","","","","","","true","12","2","moral","725","positive","高尚","","","","","","","","","","","","","","","","",""
"null","","null","html-keyboard-response","42","168152","0.0-6.0-1.0-4.0-0.4","3","3","4","3","3","3","3","4","3","3","4","4","5","4","4","4","4","5","4","4","2","2","1","1","2","1","1","1","1","1","0","0","1","0","0","0","1","0","1","0","0","0","0","0","4","1","2","1","2","1","4","5","4","5","2","726468431867543552","徐","328","","","","","","","","","","","","","","","","","","","","","","","","","","","","","","","","","","","","","","","","","",""
"677","<p style=""color:white; font-size: 35px;"">正直</p>","e","categorize-html","43","168835","0.0-6.0-1.0-4.0-1.4","3","3","4","3","3","3","3","4","3","3","4","4","5","4","4","4","4","5","4","4","2","2","1","1","2","1","1","1","1","1","0","0","1","0","0","0","1","0","1","0","0","0","0","0","4","1","2","1","2","1","4","5","4","5","2","726468431867543552","徐","328","","","","","","","","","","","","","","","","","","","true","12","2","moral","677","positive","正直","","","","","","","","","","","","","","","","",""
"null","","null","html-keyboard-response","44","169089","0.0-6.0-1.0-4.0-0.5","3","3","4","3","3","3","3","4","3","3","4","4","5","4","4","4","4","5","4","4","2","2","1","1","2","1","1","1","1","1","0","0","1","0","0","0","1","0","1","0","0","0","0","0","4","1","2","1","2","1","4","5","4","5","2","726468431867543552","徐","328","","","","","","","","","","","","","","","","","","","","","","","","","","","","","","","","","","","","","","","","","",""
"668","<p style=""color:white; font-size: 35px;"">善良</p>","e","categorize-html","45","169763","0.0-6.0-1.0-4.0-1.5","3","3","4","3","3","3","3","4","3","3","4","4","5","4","4","4","4","5","4","4","2","2","1","1","2","1","1","1","1","1","0","0","1","0","0","0","1","0","1","0","0","0","0","0","4","1","2","1","2","1","4","5","4","5","2","726468431867543552","徐","328","","","","","","","","","","","","","","","","","","","true","12","2","moral","668","positive","善良","","","","","","","","","","","","","","","","",""
"null","","null","html-keyboard-response","46","170025","0.0-6.0-1.0-4.0-0.6","3","3","4","3","3","3","3","4","3","3","4","4","5","4","4","4","4","5","4","4","2","2","1","1","2","1","1","1","1","1","0","0","1","0","0","0","1","0","1","0","0","0","0","0","4","1","2","1","2","1","4","5","4","5","2","726468431867543552","徐","328","","","","","","","","","","","","","","","","","","","","","","","","","","","","","","","","","","","","","","","","","",""
"949","<p style=""color:white; font-size: 35px;"">廉正</p>","e","categorize-html","47","170979","0.0-6.0-1.0-4.0-1.6","3","3","4","3","3","3","3","4","3","3","4","4","5","4","4","4","4","5","4","4","2","2","1","1","2","1","1","1","1","1","0","0","1","0","0","0","1","0","1","0","0","0","0","0","4","1","2","1","2","1","4","5","4","5","2","726468431867543552","徐","328","","","","","","","","","","","","","","","","","","","true","12","2","moral","949","positive","廉正","","","","","","","","","","","","","","","","",""
"null","","null","html-keyboard-response","48","171232","0.0-6.0-1.0-4.0-0.7","3","3","4","3","3","3","3","4","3","3","4","4","5","4","4","4","4","5","4","4","2","2","1","1","2","1","1","1","1","1","0","0","1","0","0","0","1","0","1","0","0","0","0","0","4","1","2","1","2","1","4","5","4","5","2","726468431867543552","徐","328","","","","","","","","","","","","","","","","","","","","","","","","","","","","","","","","","","","","","","","","","",""
"677","<p style=""color:white; font-size: 35px;"">小人</p>","i","categorize-html","49","171915","0.0-6.0-1.0-4.0-1.7","3","3","4","3","3","3","3","4","3","3","4","4","5","4","4","4","4","5","4","4","2","2","1","1","2","1","1","1","1","1","0","0","1","0","0","0","1","0","1","0","0","0","0","0","4","1","2","1","2","1","4","5","4","5","2","726468431867543552","徐","328","","","","","","","","","","","","","","","","","","","true","12","2","moral","677","negative","小人","","","","","","","","","","","","","","","","",""
"null","","null","html-keyboard-response","50","172168","0.0-6.0-1.0-4.0-0.8","3","3","4","3","3","3","3","4","3","3","4","4","5","4","4","4","4","5","4","4","2","2","1","1","2","1","1","1","1","1","0","0","1","0","0","0","1","0","1","0","0","0","0","0","4","1","2","1","2","1","4","5","4","5","2","726468431867543552","徐","328","","","","","","","","","","","","","","","","","","","","","","","","","","","","","","","","","","","","","","","","","",""
"669","<p style=""color:white; font-size: 35px;"">黑心</p>","i","categorize-html","51","172843","0.0-6.0-1.0-4.0-1.8","3","3","4","3","3","3","3","4","3","3","4","4","5","4","4","4","4","5","4","4","2","2","1","1","2","1","1","1","1","1","0","0","1","0","0","0","1","0","1","0","0","0","0","0","4","1","2","1","2","1","4","5","4","5","2","726468431867543552","徐","328","","","","","","","","","","","","","","","","","","","true","12","2","moral","669","negative","黑心","","","","","","","","","","","","","","","","",""
"null","","null","html-keyboard-response","52","173096","0.0-6.0-1.0-4.0-0.9","3","3","4","3","3","3","3","4","3","3","4","4","5","4","4","4","4","5","4","4","2","2","1","1","2","1","1","1","1","1","0","0","1","0","0","0","1","0","1","0","0","0","0","0","4","1","2","1","2","1","4","5","4","5","2","726468431867543552","徐","328","","","","","","","","","","","","","","","","","","","","","","","","","","","","","","","","","","","","","","","","","",""
"694","<p style=""color:white; font-size: 35px;"">不仁</p>","i","categorize-html","53","173796","0.0-6.0-1.0-4.0-1.9","3","3","4","3","3","3","3","4","3","3","4","4","5","4","4","4","4","5","4","4","2","2","1","1","2","1","1","1","1","1","0","0","1","0","0","0","1","0","1","0","0","0","0","0","4","1","2","1","2","1","4","5","4","5","2","726468431867543552","徐","328","","","","","","","","","","","","","","","","","","","true","12","2","moral","694","negative","不仁","","","","","","","","","","","","","","","","",""
"null","","null","html-keyboard-response","54","174056","0.0-6.0-1.0-4.0-0.10","3","3","4","3","3","3","3","4","3","3","4","4","5","4","4","4","4","5","4","4","2","2","1","1","2","1","1","1","1","1","0","0","1","0","0","0","1","0","1","0","0","0","0","0","4","1","2","1","2","1","4","5","4","5","2","726468431867543552","徐","328","","","","","","","","","","","","","","","","","","","","","","","","","","","","","","","","","","","","","","","","","",""
"621","<p style=""color:white; font-size: 35px;"">诚信</p>","e","categorize-html","55","174682","0.0-6.0-1.0-4.0-1.10","3","3","4","3","3","3","3","4","3","3","4","4","5","4","4","4","4","5","4","4","2","2","1","1","2","1","1","1","1","1","0","0","1","0","0","0","1","0","1","0","0","0","0","0","4","1","2","1","2","1","4","5","4","5","2","726468431867543552","徐","328","","","","","","","","","","","","","","","","","","","true","12","2","moral","621","positive","诚信","","","","","","","","","","","","","","","","",""
"null","","null","html-keyboard-response","56","174936","0.0-6.0-1.0-4.0-0.11","3","3","4","3","3","3","3","4","3","3","4","4","5","4","4","4","4","5","4","4","2","2","1","1","2","1","1","1","1","1","0","0","1","0","0","0","1","0","1","0","0","0","0","0","4","1","2","1","2","1","4","5","4","5","2","726468431867543552","徐","328","","","","","","","","","","","","","","","","","","","","","","","","","","","","","","","","","","","","","","","","","",""
"694","<p style=""color:white; font-size: 35px;"">君子</p>","e","categorize-html","57","175635","0.0-6.0-1.0-4.0-1.11","3","3","4","3","3","3","3","4","3","3","4","4","5","4","4","4","4","5","4","4","2","2","1","1","2","1","1","1","1","1","0","0","1","0","0","0","1","0","1","0","0","0","0","0","4","1","2","1","2","1","4","5","4","5","2","726468431867543552","徐","328","","","","","","","","","","","","","","","","","","","true","12","2","moral","694","positive","君子","","","","","","","","","","","","","","","","",""
"6810","
    <div class=""tag-bottom""><p>
    —— 任务3：对“自我/积极”词和“他人/消极”词分类 ——<p/>
    <span style=""color:#78DCE8""><b>注意上方，之前的四类词语将混合在一起交替呈现</b></span><p/>
    <span style=""color:#FFD866""><b>请根据上方标签的提示，尽可能正确并且快速地做出按键反应</b></span><p/>
    当按键错误时屏幕中会出现<span style=""color:red""> X </span>，需要按另一个键纠正才能继续<br/><p/>
    请把双手食指分别放在键盘的“E”键和“I”键上<p/>
    按<空格键>开始
    </p></div>"," ","html-keyboard-response","58","182447","0.0-6.0-1.0-5.0","3","3","4","3","3","3","3","4","3","3","4","4","5","4","4","4","4","5","4","4","2","2","1","1","2","1","1","1","1","1","0","0","1","0","0","0","1","0","1","0","0","0","0","0","4","1","2","1","2","1","4","5","4","5","2","726468431867543552","徐","328","","","","","","","","","","","","","","","","","","","","","","","","","","","","","","","","","","","","","","","","","",""
"null","","null","html-keyboard-response","59","182704","0.0-6.0-1.0-6.0-0.0","3","3","4","3","3","3","3","4","3","3","4","4","5","4","4","4","4","5","4","4","2","2","1","1","2","1","1","1","1","1","0","0","1","0","0","0","1","0","1","0","0","0","0","0","4","1","2","1","2","1","4","5","4","5","2","726468431867543552","徐","328","","","","","","","","","","","","","","","","","","","","","","","","","","","","","","","","","","","","","","","","","",""
"892","<p style=""color:rgb(150, 250, 100); font-size: 35px;"">本人</p>","e","categorize-html","60","183603","0.0-6.0-1.0-6.0-1.0","3","3","4","3","3","3","3","4","3","3","4","4","5","4","4","4","4","5","4","4","2","2","1","1","2","1","1","1","1","1","0","0","1","0","0","0","1","0","1","0","0","0","0","0","4","1","2","1","2","1","4","5","4","5","2","726468431867543552","徐","328","","","","","","","","","","","","","","","","","","","true","13","3","moral","892","self","本人","","","","","","","","","","","","","","","","",""
"null","","null","html-keyboard-response","61","183856","0.0-6.0-1.0-6.0-0.1","3","3","4","3","3","3","3","4","3","3","4","4","5","4","4","4","4","5","4","4","2","2","1","1","2","1","1","1","1","1","0","0","1","0","0","0","1","0","1","0","0","0","0","0","4","1","2","1","2","1","4","5","4","5","2","726468431867543552","徐","328","","","","","","","","","","","","","","","","","","","","","","","","","","","","","","","","","","","","","","","","","",""
"806","<p style=""color:white; font-size: 35px;"">廉正</p>","e","categorize-html","62","184668","0.0-6.0-1.0-6.0-1.1","3","3","4","3","3","3","3","4","3","3","4","4","5","4","4","4","4","5","4","4","2","2","1","1","2","1","1","1","1","1","0","0","1","0","0","0","1","0","1","0","0","0","0","0","4","1","2","1","2","1","4","5","4","5","2","726468431867543552","徐","328","","","","","","","","","","","","","","","","","","","true","13","3","moral","806","positive","廉正","","","","","","","","","","","","","","","","",""
"null","","null","html-keyboard-response","63","184928","0.0-6.0-1.0-6.0-0.2","3","3","4","3","3","3","3","4","3","3","4","4","5","4","4","4","4","5","4","4","2","2","1","1","2","1","1","1","1","1","0","0","1","0","0","0","1","0","1","0","0","0","0","0","4","1","2","1","2","1","4","5","4","5","2","726468431867543552","徐","328","","","","","","","","","","","","","","","","","","","","","","","","","","","","","","","","","","","","","","","","","",""
"709","<p style=""color:rgb(150, 250, 100); font-size: 35px;"">他人的</p>","i","categorize-html","64","185643","0.0-6.0-1.0-6.0-1.2","3","3","4","3","3","3","3","4","3","3","4","4","5","4","4","4","4","5","4","4","2","2","1","1","2","1","1","1","1","1","0","0","1","0","0","0","1","0","1","0","0","0","0","0","4","1","2","1","2","1","4","5","4","5","2","726468431867543552","徐","328","","","","","","","","","","","","","","","","","","","true","13","3","moral","709","other","他人的","","","","","","","","","","","","","","","","",""
"null","","null","html-keyboard-response","65","185904","0.0-6.0-1.0-6.0-0.3","3","3","4","3","3","3","3","4","3","3","4","4","5","4","4","4","4","5","4","4","2","2","1","1","2","1","1","1","1","1","0","0","1","0","0","0","1","0","1","0","0","0","0","0","4","1","2","1","2","1","4","5","4","5","2","726468431867543552","徐","328","","","","","","","","","","","","","","","","","","","","","","","","","","","","","","","","","","","","","","","","","",""
"685","<p style=""color:white; font-size: 35px;"">不仁</p>","i","categorize-html","66","186596","0.0-6.0-1.0-6.0-1.3","3","3","4","3","3","3","3","4","3","3","4","4","5","4","4","4","4","5","4","4","2","2","1","1","2","1","1","1","1","1","0","0","1","0","0","0","1","0","1","0","0","0","0","0","4","1","2","1","2","1","4","5","4","5","2","726468431867543552","徐","328","","","","","","","","","","","","","","","","","","","true","13","3","moral","685","negative","不仁","","","","","","","","","","","","","","","","",""
"null","","null","html-keyboard-response","67","186856","0.0-6.0-1.0-6.0-0.4","3","3","4","3","3","3","3","4","3","3","4","4","5","4","4","4","4","5","4","4","2","2","1","1","2","1","1","1","1","1","0","0","1","0","0","0","1","0","1","0","0","0","0","0","4","1","2","1","2","1","4","5","4","5","2","726468431867543552","徐","328","","","","","","","","","","","","","","","","","","","","","","","","","","","","","","","","","","","","","","","","","",""
"844","<p style=""color:rgb(150, 250, 100); font-size: 35px;"">他人</p>","i","categorize-html","68","187707","0.0-6.0-1.0-6.0-1.4","3","3","4","3","3","3","3","4","3","3","4","4","5","4","4","4","4","5","4","4","2","2","1","1","2","1","1","1","1","1","0","0","1","0","0","0","1","0","1","0","0","0","0","0","4","1","2","1","2","1","4","5","4","5","2","726468431867543552","徐","328","","","","","","","","","","","","","","","","","","","true","13","3","moral","844","other","他人","","","","","","","","","","","","","","","","",""
"null","","null","html-keyboard-response","69","187960","0.0-6.0-1.0-6.0-0.5","3","3","4","3","3","3","3","4","3","3","4","4","5","4","4","4","4","5","4","4","2","2","1","1","2","1","1","1","1","1","0","0","1","0","0","0","1","0","1","0","0","0","0","0","4","1","2","1","2","1","4","5","4","5","2","726468431867543552","徐","328","","","","","","","","","","","","","","","","","","","","","","","","","","","","","","","","","","","","","","","","","",""
"628","<p style=""color:white; font-size: 35px;"">小人</p>","i","categorize-html","70","188595","0.0-6.0-1.0-6.0-1.5","3","3","4","3","3","3","3","4","3","3","4","4","5","4","4","4","4","5","4","4","2","2","1","1","2","1","1","1","1","1","0","0","1","0","0","0","1","0","1","0","0","0","0","0","4","1","2","1","2","1","4","5","4","5","2","726468431867543552","徐","328","","","","","","","","","","","","","","","","","","","true","13","3","moral","628","negative","小人","","","","","","","","","","","","","","","","",""
"null","","null","html-keyboard-response","71","188848","0.0-6.0-1.0-6.0-0.6","3","3","4","3","3","3","3","4","3","3","4","4","5","4","4","4","4","5","4","4","2","2","1","1","2","1","1","1","1","1","0","0","1","0","0","0","1","0","1","0","0","0","0","0","4","1","2","1","2","1","4","5","4","5","2","726468431867543552","徐","328","","","","","","","","","","","","","","","","","","","","","","","","","","","","","","","","","","","","","","","","","",""
"646","<p style=""color:rgb(150, 250, 100); font-size: 35px;"">我的</p>","e","categorize-html","72","189499","0.0-6.0-1.0-6.0-1.6","3","3","4","3","3","3","3","4","3","3","4","4","5","4","4","4","4","5","4","4","2","2","1","1","2","1","1","1","1","1","0","0","1","0","0","0","1","0","1","0","0","0","0","0","4","1","2","1","2","1","4","5","4","5","2","726468431867543552","徐","328","","","","","","","","","","","","","","","","","","","true","13","3","moral","646","self","我的","","","","","","","","","","","","","","","","",""
"null","","null","html-keyboard-response","73","189752","0.0-6.0-1.0-6.0-0.7","3","3","4","3","3","3","3","4","3","3","4","4","5","4","4","4","4","5","4","4","2","2","1","1","2","1","1","1","1","1","0","0","1","0","0","0","1","0","1","0","0","0","0","0","4","1","2","1","2","1","4","5","4","5","2","726468431867543552","徐","328","","","","","","","","","","","","","","","","","","","","","","","","","","","","","","","","","","","","","","","","","",""
"709","<p style=""color:white; font-size: 35px;"">善良</p>","e","categorize-html","74","190463","0.0-6.0-1.0-6.0-1.7","3","3","4","3","3","3","3","4","3","3","4","4","5","4","4","4","4","5","4","4","2","2","1","1","2","1","1","1","1","1","0","0","1","0","0","0","1","0","1","0","0","0","0","0","4","1","2","1","2","1","4","5","4","5","2","726468431867543552","徐","328","","","","","","","","","","","","","","","","","","","true","13","3","moral","709","positive","善良","","","","","","","","","","","","","","","","",""
"null","","null","html-keyboard-response","75","190720","0.0-6.0-1.0-6.0-0.8","3","3","4","3","3","3","3","4","3","3","4","4","5","4","4","4","4","5","4","4","2","2","1","1","2","1","1","1","1","1","0","0","1","0","0","0","1","0","1","0","0","0","0","0","4","1","2","1","2","1","4","5","4","5","2","726468431867543552","徐","328","","","","","","","","","","","","","","","","","","","","","","","","","","","","","","","","","","","","","","","","","",""
"693","<p style=""color:rgb(150, 250, 100); font-size: 35px;"">自己的</p>","e","categorize-html","76","191419","0.0-6.0-1.0-6.0-1.8","3","3","4","3","3","3","3","4","3","3","4","4","5","4","4","4","4","5","4","4","2","2","1","1","2","1","1","1","1","1","0","0","1","0","0","0","1","0","1","0","0","0","0","0","4","1","2","1","2","1","4","5","4","5","2","726468431867543552","徐","328","","","","","","","","","","","","","","","","","","","true","13","3","moral","693","self","自己的","","","","","","","","","","","","","","","","",""
"null","","null","html-keyboard-response","77","191672","0.0-6.0-1.0-6.0-0.9","3","3","4","3","3","3","3","4","3","3","4","4","5","4","4","4","4","5","4","4","2","2","1","1","2","1","1","1","1","1","0","0","1","0","0","0","1","0","1","0","0","0","0","0","4","1","2","1","2","1","4","5","4","5","2","726468431867543552","徐","328","","","","","","","","","","","","","","","","","","","","","","","","","","","","","","","","","","","","","","","","","",""
"669","<p style=""color:white; font-size: 35px;"">卑鄙</p>","i","categorize-html","78","192344","0.0-6.0-1.0-6.0-1.9","3","3","4","3","3","3","3","4","3","3","4","4","5","4","4","4","4","5","4","4","2","2","1","1","2","1","1","1","1","1","0","0","1","0","0","0","1","0","1","0","0","0","0","0","4","1","2","1","2","1","4","5","4","5","2","726468431867543552","徐","328","","","","","","","","","","","","","","","","","","","true","13","3","moral","669","negative","卑鄙","","","","","","","","","","","","","","","","",""
"null","","null","html-keyboard-response","79","192600","0.0-6.0-1.0-6.0-0.10","3","3","4","3","3","3","3","4","3","3","4","4","5","4","4","4","4","5","4","4","2","2","1","1","2","1","1","1","1","1","0","0","1","0","0","0","1","0","1","0","0","0","0","0","4","1","2","1","2","1","4","5","4","5","2","726468431867543552","徐","328","","","","","","","","","","","","","","","","","","","","","","","","","","","","","","","","","","","","","","","","","",""
"661","<p style=""color:rgb(150, 250, 100); font-size: 35px;"">别人的</p>","i","categorize-html","80","193268","0.0-6.0-1.0-6.0-1.10","3","3","4","3","3","3","3","4","3","3","4","4","5","4","4","4","4","5","4","4","2","2","1","1","2","1","1","1","1","1","0","0","1","0","0","0","1","0","1","0","0","0","0","0","4","1","2","1","2","1","4","5","4","5","2","726468431867543552","徐","328","","","","","","","","","","","","","","","","","","","true","13","3","moral","661","other","别人的","","","","","","","","","","","","","","","","",""
"null","","null","html-keyboard-response","81","193528","0.0-6.0-1.0-6.0-0.11","3","3","4","3","3","3","3","4","3","3","4","4","5","4","4","4","4","5","4","4","2","2","1","1","2","1","1","1","1","1","0","0","1","0","0","0","1","0","1","0","0","0","0","0","4","1","2","1","2","1","4","5","4","5","2","726468431867543552","徐","328","","","","","","","","","","","","","","","","","","","","","","","","","","","","","","","","","","","","","","","","","",""
"669","<p style=""color:white; font-size: 35px;"">正直</p>","e","categorize-html","82","194203","0.0-6.0-1.0-6.0-1.11","3","3","4","3","3","3","3","4","3","3","4","4","5","4","4","4","4","5","4","4","2","2","1","1","2","1","1","1","1","1","0","0","1","0","0","0","1","0","1","0","0","0","0","0","4","1","2","1","2","1","4","5","4","5","2","726468431867543552","徐","328","","","","","","","","","","","","","","","","","","","true","13","3","moral","669","positive","正直","","","","","","","","","","","","","","","","",""
"null","","null","html-keyboard-response","83","194457","0.0-6.0-1.0-6.0-0.12","3","3","4","3","3","3","3","4","3","3","4","4","5","4","4","4","4","5","4","4","2","2","1","1","2","1","1","1","1","1","0","0","1","0","0","0","1","0","1","0","0","0","0","0","4","1","2","1","2","1","4","5","4","5","2","726468431867543552","徐","328","","","","","","","","","","","","","","","","","","","","","","","","","","","","","","","","","","","","","","","","","",""
"605","<p style=""color:rgb(150, 250, 100); font-size: 35px;"">我</p>","e","categorize-html","84","195068","0.0-6.0-1.0-6.0-1.12","3","3","4","3","3","3","3","4","3","3","4","4","5","4","4","4","4","5","4","4","2","2","1","1","2","1","1","1","1","1","0","0","1","0","0","0","1","0","1","0","0","0","0","0","4","1","2","1","2","1","4","5","4","5","2","726468431867543552","徐","328","","","","","","","","","","","","","","","","","","","true","13","3","moral","605","self","我","","","","","","","","","","","","","","","","",""
"null","","null","html-keyboard-response","85","195328","0.0-6.0-1.0-6.0-0.13","3","3","4","3","3","3","3","4","3","3","4","4","5","4","4","4","4","5","4","4","2","2","1","1","2","1","1","1","1","1","0","0","1","0","0","0","1","0","1","0","0","0","0","0","4","1","2","1","2","1","4","5","4","5","2","726468431867543552","徐","328","","","","","","","","","","","","","","","","","","","","","","","","","","","","","","","","","","","","","","","","","",""
"629","<p style=""color:white; font-size: 35px;"">缺德</p>","i","categorize-html","86","195963","0.0-6.0-1.0-6.0-1.13","3","3","4","3","3","3","3","4","3","3","4","4","5","4","4","4","4","5","4","4","2","2","1","1","2","1","1","1","1","1","0","0","1","0","0","0","1","0","1","0","0","0","0","0","4","1","2","1","2","1","4","5","4","5","2","726468431867543552","徐","328","","","","","","","","","","","","","","","","","","","true","13","3","moral","629","negative","缺德","","","","","","","","","","","","","","","","",""
"null","","null","html-keyboard-response","87","196216","0.0-6.0-1.0-6.0-0.14","3","3","4","3","3","3","3","4","3","3","4","4","5","4","4","4","4","5","4","4","2","2","1","1","2","1","1","1","1","1","0","0","1","0","0","0","1","0","1","0","0","0","0","0","4","1","2","1","2","1","4","5","4","5","2","726468431867543552","徐","328","","","","","","","","","","","","","","","","","","","","","","","","","","","","","","","","","","","","","","","","","",""
"741","<p style=""color:rgb(150, 250, 100); font-size: 35px;"">他</p>","i","categorize-html","88","196963","0.0-6.0-1.0-6.0-1.14","3","3","4","3","3","3","3","4","3","3","4","4","5","4","4","4","4","5","4","4","2","2","1","1","2","1","1","1","1","1","0","0","1","0","0","0","1","0","1","0","0","0","0","0","4","1","2","1","2","1","4","5","4","5","2","726468431867543552","徐","328","","","","","","","","","","","","","","","","","","","true","13","3","moral","741","other","他","","","","","","","","","","","","","","","","",""
"null","","null","html-keyboard-response","89","197216","0.0-6.0-1.0-6.0-0.15","3","3","4","3","3","3","3","4","3","3","4","4","5","4","4","4","4","5","4","4","2","2","1","1","2","1","1","1","1","1","0","0","1","0","0","0","1","0","1","0","0","0","0","0","4","1","2","1","2","1","4","5","4","5","2","726468431867543552","徐","328","","","","","","","","","","","","","","","","","","","","","","","","","","","","","","","","","","","","","","","","","",""
"964","<p style=""color:white; font-size: 35px;"">诚信</p>","e","categorize-html","90","198187","0.0-6.0-1.0-6.0-1.15","3","3","4","3","3","3","3","4","3","3","4","4","5","4","4","4","4","5","4","4","2","2","1","1","2","1","1","1","1","1","0","0","1","0","0","0","1","0","1","0","0","0","0","0","4","1","2","1","2","1","4","5","4","5","2","726468431867543552","徐","328","","","","","","","","","","","","","","","","","","","true","13","3","moral","964","positive","诚信","","","","","","","","","","","","","","","","",""
"null","","null","html-keyboard-response","91","198440","0.0-6.0-1.0-6.0-0.16","3","3","4","3","3","3","3","4","3","3","4","4","5","4","4","4","4","5","4","4","2","2","1","1","2","1","1","1","1","1","0","0","1","0","0","0","1","0","1","0","0","0","0","0","4","1","2","1","2","1","4","5","4","5","2","726468431867543552","徐","328","","","","","","","","","","","","","","","","","","","","","","","","","","","","","","","","","","","","","","","","","",""
"613","<p style=""color:rgb(150, 250, 100); font-size: 35px;"">自己</p>","e","categorize-html","92","199059","0.0-6.0-1.0-6.0-1.16","3","3","4","3","3","3","3","4","3","3","4","4","5","4","4","4","4","5","4","4","2","2","1","1","2","1","1","1","1","1","0","0","1","0","0","0","1","0","1","0","0","0","0","0","4","1","2","1","2","1","4","5","4","5","2","726468431867543552","徐","328","","","","","","","","","","","","","","","","","","","true","13","3","moral","613","self","自己","","","","","","","","","","","","","","","","",""
"null","","null","html-keyboard-response","93","199311","0.0-6.0-1.0-6.0-0.17","3","3","4","3","3","3","3","4","3","3","4","4","5","4","4","4","4","5","4","4","2","2","1","1","2","1","1","1","1","1","0","0","1","0","0","0","1","0","1","0","0","0","0","0","4","1","2","1","2","1","4","5","4","5","2","726468431867543552","徐","328","","","","","","","","","","","","","","","","","","","","","","","","","","","","","","","","","","","","","","","","","",""
"941","<p style=""color:white; font-size: 35px;"">君子</p>","e","categorize-html","94","200260","0.0-6.0-1.0-6.0-1.17","3","3","4","3","3","3","3","4","3","3","4","4","5","4","4","4","4","5","4","4","2","2","1","1","2","1","1","1","1","1","0","0","1","0","0","0","1","0","1","0","0","0","0","0","4","1","2","1","2","1","4","5","4","5","2","726468431867543552","徐","328","","","","","","","","","","","","","","","","","","","true","13","3","moral","941","positive","君子","","","","","","","","","","","","","","","","",""
"null","","null","html-keyboard-response","95","200512","0.0-6.0-1.0-6.0-0.18","3","3","4","3","3","3","3","4","3","3","4","4","5","4","4","4","4","5","4","4","2","2","1","1","2","1","1","1","1","1","0","0","1","0","0","0","1","0","1","0","0","0","0","0","4","1","2","1","2","1","4","5","4","5","2","726468431867543552","徐","328","","","","","","","","","","","","","","","","","","","","","","","","","","","","","","","","","","","","","","","","","",""
"677","<p style=""color:rgb(150, 250, 100); font-size: 35px;"">他的</p>","i","categorize-html","96","201197","0.0-6.0-1.0-6.0-1.18","3","3","4","3","3","3","3","4","3","3","4","4","5","4","4","4","4","5","4","4","2","2","1","1","2","1","1","1","1","1","0","0","1","0","0","0","1","0","1","0","0","0","0","0","4","1","2","1","2","1","4","5","4","5","2","726468431867543552","徐","328","","","","","","","","","","","","","","","","","","","true","13","3","moral","677","other","他的","","","","","","","","","","","","","","","","",""
"null","","null","html-keyboard-response","97","201457","0.0-6.0-1.0-6.0-0.19","3","3","4","3","3","3","3","4","3","3","4","4","5","4","4","4","4","5","4","4","2","2","1","1","2","1","1","1","1","1","0","0","1","0","0","0","1","0","1","0","0","0","0","0","4","1","2","1","2","1","4","5","4","5","2","726468431867543552","徐","328","","","","","","","","","","","","","","","","","","","","","","","","","","","","","","","","","","","","","","","","","",""
"2093","<p style=""color:white; font-size: 35px;"">不孝</p>","i","categorize-html","98","203556","0.0-6.0-1.0-6.0-1.19","3","3","4","3","3","3","3","4","3","3","4","4","5","4","4","4","4","5","4","4","2","2","1","1","2","1","1","1","1","1","0","0","1","0","0","0","1","0","1","0","0","0","0","0","4","1","2","1","2","1","4","5","4","5","2","726468431867543552","徐","328","","","","","","","","","","","","","","","","","","","true","13","3","moral","2093","negative","不孝","","","","","","","","","","","","","","","","",""
"null","","null","html-keyboard-response","99","203809","0.0-6.0-1.0-6.0-0.20","3","3","4","3","3","3","3","4","3","3","4","4","5","4","4","4","4","5","4","4","2","2","1","1","2","1","1","1","1","1","0","0","1","0","0","0","1","0","1","0","0","0","0","0","4","1","2","1","2","1","4","5","4","5","2","726468431867543552","徐","328","","","","","","","","","","","","","","","","","","","","","","","","","","","","","","","","","","","","","","","","","",""
"750","<p style=""color:rgb(150, 250, 100); font-size: 35px;"">别人</p>","i","categorize-html","100","204566","0.0-6.0-1.0-6.0-1.20","3","3","4","3","3","3","3","4","3","3","4","4","5","4","4","4","4","5","4","4","2","2","1","1","2","1","1","1","1","1","0","0","1","0","0","0","1","0","1","0","0","0","0","0","4","1","2","1","2","1","4","5","4","5","2","726468431867543552","徐","328","","","","","","","","","","","","","","","","","","","true","13","3","moral","750","other","别人","","","","","","","","","","","","","","","","",""
"null","","null","html-keyboard-response","101","204825","0.0-6.0-1.0-6.0-0.21","3","3","4","3","3","3","3","4","3","3","4","4","5","4","4","4","4","5","4","4","2","2","1","1","2","1","1","1","1","1","0","0","1","0","0","0","1","0","1","0","0","0","0","0","4","1","2","1","2","1","4","5","4","5","2","726468431867543552","徐","328","","","","","","","","","","","","","","","","","","","","","","","","","","","","","","","","","","","","","","","","","",""
"846","<p style=""color:white; font-size: 35px;"">黑心</p>","i","categorize-html","102","205677","0.0-6.0-1.0-6.0-1.21","3","3","4","3","3","3","3","4","3","3","4","4","5","4","4","4","4","5","4","4","2","2","1","1","2","1","1","1","1","1","0","0","1","0","0","0","1","0","1","0","0","0","0","0","4","1","2","1","2","1","4","5","4","5","2","726468431867543552","徐","328","","","","","","","","","","","","","","","","","","","true","13","3","moral","846","negative","黑心","","","","","","","","","","","","","","","","",""
"null","","null","html-keyboard-response","103","205937","0.0-6.0-1.0-6.0-0.22","3","3","4","3","3","3","3","4","3","3","4","4","5","4","4","4","4","5","4","4","2","2","1","1","2","1","1","1","1","1","0","0","1","0","0","0","1","0","1","0","0","0","0","0","4","1","2","1","2","1","4","5","4","5","2","726468431867543552","徐","328","","","","","","","","","","","","","","","","","","","","","","","","","","","","","","","","","","","","","","","","","",""
"645","<p style=""color:rgb(150, 250, 100); font-size: 35px;"">本人的</p>","e","categorize-html","104","206587","0.0-6.0-1.0-6.0-1.22","3","3","4","3","3","3","3","4","3","3","4","4","5","4","4","4","4","5","4","4","2","2","1","1","2","1","1","1","1","1","0","0","1","0","0","0","1","0","1","0","0","0","0","0","4","1","2","1","2","1","4","5","4","5","2","726468431867543552","徐","328","","","","","","","","","","","","","","","","","","","true","13","3","moral","645","self","本人的","","","","","","","","","","","","","","","","",""
"null","","null","html-keyboard-response","105","206841","0.0-6.0-1.0-6.0-0.23","3","3","4","3","3","3","3","4","3","3","4","4","5","4","4","4","4","5","4","4","2","2","1","1","2","1","1","1","1","1","0","0","1","0","0","0","1","0","1","0","0","0","0","0","4","1","2","1","2","1","4","5","4","5","2","726468431867543552","徐","328","","","","","","","","","","","","","","","","","","","","","","","","","","","","","","","","","","","","","","","","","",""
"781","<p style=""color:white; font-size: 35px;"">高尚</p>","e","categorize-html","106","207628","0.0-6.0-1.0-6.0-1.23","3","3","4","3","3","3","3","4","3","3","4","4","5","4","4","4","4","5","4","4","2","2","1","1","2","1","1","1","1","1","0","0","1","0","0","0","1","0","1","0","0","0","0","0","4","1","2","1","2","1","4","5","4","5","2","726468431867543552","徐","328","","","","","","","","","","","","","","","","","","","true","13","3","moral","781","positive","高尚","","","","","","","","","","","","","","","","",""
"7353","
    <div class=""tag-bottom""><p>
    —— 任务4：对“自我/积极”词和“他人/消极”词分类 ——<p/>
    <span style=""color:#78DCE8""><b>与刚才的任务完全相同，请再次对这四类词语分类</b></span><p/>
    <span style=""color:#FFD866""><b>请根据上方标签的提示，尽可能正确并且快速地做出按键反应</b></span><p/>
    当按键错误时屏幕中会出现<span style=""color:red""> X </span>，需要按另一个键纠正才能继续<br/><p/>
    请把双手食指分别放在键盘的“E”键和“I”键上<p/>
    按<空格键>开始
    </p></div>"," ","html-keyboard-response","107","214984","0.0-6.0-1.0-7.0","3","3","4","3","3","3","3","4","3","3","4","4","5","4","4","4","4","5","4","4","2","2","1","1","2","1","1","1","1","1","0","0","1","0","0","0","1","0","1","0","0","0","0","0","4","1","2","1","2","1","4","5","4","5","2","726468431867543552","徐","328","","","","","","","","","","","","","","","","","","","","","","","","","","","","","","","","","","","","","","","","","",""
"null","","null","html-keyboard-response","108","215241","0.0-6.0-1.0-8.0-0.0","3","3","4","3","3","3","3","4","3","3","4","4","5","4","4","4","4","5","4","4","2","2","1","1","2","1","1","1","1","1","0","0","1","0","0","0","1","0","1","0","0","0","0","0","4","1","2","1","2","1","4","5","4","5","2","726468431867543552","徐","328","","","","","","","","","","","","","","","","","","","","","","","","","","","","","","","","","","","","","","","","","",""
"660","<p style=""color:rgb(150, 250, 100); font-size: 35px;"">我</p>","e","categorize-html","109","215909","0.0-6.0-1.0-8.0-1.0","3","3","4","3","3","3","3","4","3","3","4","4","5","4","4","4","4","5","4","4","2","2","1","1","2","1","1","1","1","1","0","0","1","0","0","0","1","0","1","0","0","0","0","0","4","1","2","1","2","1","4","5","4","5","2","726468431867543552","徐","328","","","","","","","","","","","","","","","","","","","true","14","4","moral","660","self","我","","","","","","","","","","","","","","","","",""
"null","","null","html-keyboard-response","110","216169","0.0-6.0-1.0-8.0-0.1","3","3","4","3","3","3","3","4","3","3","4","4","5","4","4","4","4","5","4","4","2","2","1","1","2","1","1","1","1","1","0","0","1","0","0","0","1","0","1","0","0","0","0","0","4","1","2","1","2","1","4","5","4","5","2","726468431867543552","徐","328","","","","","","","","","","","","","","","","","","","","","","","","","","","","","","","","","","","","","","","","","",""
"612","<p style=""color:white; font-size: 35px;"">高尚</p>","e","categorize-html","111","216787","0.0-6.0-1.0-8.0-1.1","3","3","4","3","3","3","3","4","3","3","4","4","5","4","4","4","4","5","4","4","2","2","1","1","2","1","1","1","1","1","0","0","1","0","0","0","1","0","1","0","0","0","0","0","4","1","2","1","2","1","4","5","4","5","2","726468431867543552","徐","328","","","","","","","","","","","","","","","","","","","true","14","4","moral","612","positive","高尚","","","","","","","","","","","","","","","","",""
"null","","null","html-keyboard-response","112","217041","0.0-6.0-1.0-8.0-0.2","3","3","4","3","3","3","3","4","3","3","4","4","5","4","4","4","4","5","4","4","2","2","1","1","2","1","1","1","1","1","0","0","1","0","0","0","1","0","1","0","0","0","0","0","4","1","2","1","2","1","4","5","4","5","2","726468431867543552","徐","328","","","","","","","","","","","","","","","","","","","","","","","","","","","","","","","","","","","","","","","","","",""
"644","<p style=""color:rgb(150, 250, 100); font-size: 35px;"">他人</p>","i","categorize-html","113","217691","0.0-6.0-1.0-8.0-1.2","3","3","4","3","3","3","3","4","3","3","4","4","5","4","4","4","4","5","4","4","2","2","1","1","2","1","1","1","1","1","0","0","1","0","0","0","1","0","1","0","0","0","0","0","4","1","2","1","2","1","4","5","4","5","2","726468431867543552","徐","328","","","","","","","","","","","","","","","","","","","true","14","4","moral","644","other","他人","","","","","","","","","","","","","","","","",""
"null","","null","html-keyboard-response","114","217945","0.0-6.0-1.0-8.0-0.3","3","3","4","3","3","3","3","4","3","3","4","4","5","4","4","4","4","5","4","4","2","2","1","1","2","1","1","1","1","1","0","0","1","0","0","0","1","0","1","0","0","0","0","0","4","1","2","1","2","1","4","5","4","5","2","726468431867543552","徐","328","","","","","","","","","","","","","","","","","","","","","","","","","","","","","","","","","","","","","","","","","",""
"628","<p style=""color:white; font-size: 35px;"">不孝</p>","i","categorize-html","115","218580","0.0-6.0-1.0-8.0-1.3","3","3","4","3","3","3","3","4","3","3","4","4","5","4","4","4","4","5","4","4","2","2","1","1","2","1","1","1","1","1","0","0","1","0","0","0","1","0","1","0","0","0","0","0","4","1","2","1","2","1","4","5","4","5","2","726468431867543552","徐","328","","","","","","","","","","","","","","","","","","","true","14","4","moral","628","negative","不孝","","","","","","","","","","","","","","","","",""
"null","","null","html-keyboard-response","116","218833","0.0-6.0-1.0-8.0-0.4","3","3","4","3","3","3","3","4","3","3","4","4","5","4","4","4","4","5","4","4","2","2","1","1","2","1","1","1","1","1","0","0","1","0","0","0","1","0","1","0","0","0","0","0","4","1","2","1","2","1","4","5","4","5","2","726468431867543552","徐","328","","","","","","","","","","","","","","","","","","","","","","","","","","","","","","","","","","","","","","","","","",""
"612","<p style=""color:rgb(150, 250, 100); font-size: 35px;"">本人的</p>","e","categorize-html","117","219451","0.0-6.0-1.0-8.0-1.4","3","3","4","3","3","3","3","4","3","3","4","4","5","4","4","4","4","5","4","4","2","2","1","1","2","1","1","1","1","1","0","0","1","0","0","0","1","0","1","0","0","0","0","0","4","1","2","1","2","1","4","5","4","5","2","726468431867543552","徐","328","","","","","","","","","","","","","","","","","","","true","14","4","moral","612","self","本人的","","","","","","","","","","","","","","","","",""
"null","","null","html-keyboard-response","118","219705","0.0-6.0-1.0-8.0-0.5","3","3","4","3","3","3","3","4","3","3","4","4","5","4","4","4","4","5","4","4","2","2","1","1","2","1","1","1","1","1","0","0","1","0","0","0","1","0","1","0","0","0","0","0","4","1","2","1","2","1","4","5","4","5","2","726468431867543552","徐","328","","","","","","","","","","","","","","","","","","","","","","","","","","","","","","","","","","","","","","","","","",""
"828","<p style=""color:white; font-size: 35px;"">缺德</p>","i","categorize-html","119","220540","0.0-6.0-1.0-8.0-1.5","3","3","4","3","3","3","3","4","3","3","4","4","5","4","4","4","4","5","4","4","2","2","1","1","2","1","1","1","1","1","0","0","1","0","0","0","1","0","1","0","0","0","0","0","4","1","2","1","2","1","4","5","4","5","2","726468431867543552","徐","328","","","","","","","","","","","","","","","","","","","true","14","4","moral","828","negative","缺德","","","","","","","","","","","","","","","","",""
"null","","null","html-keyboard-response","120","220794","0.0-6.0-1.0-8.0-0.6","3","3","4","3","3","3","3","4","3","3","4","4","5","4","4","4","4","5","4","4","2","2","1","1","2","1","1","1","1","1","0","0","1","0","0","0","1","0","1","0","0","0","0","0","4","1","2","1","2","1","4","5","4","5","2","726468431867543552","徐","328","","","","","","","","","","","","","","","","","","","","","","","","","","","","","","","","","","","","","","","","","",""
"604","<p style=""color:rgb(150, 250, 100); font-size: 35px;"">他人的</p>","i","categorize-html","121","221403","0.0-6.0-1.0-8.0-1.6","3","3","4","3","3","3","3","4","3","3","4","4","5","4","4","4","4","5","4","4","2","2","1","1","2","1","1","1","1","1","0","0","1","0","0","0","1","0","1","0","0","0","0","0","4","1","2","1","2","1","4","5","4","5","2","726468431867543552","徐","328","","","","","","","","","","","","","","","","","","","true","14","4","moral","604","other","他人的","","","","","","","","","","","","","","","","",""
"null","","null","html-keyboard-response","122","221657","0.0-6.0-1.0-8.0-0.7","3","3","4","3","3","3","3","4","3","3","4","4","5","4","4","4","4","5","4","4","2","2","1","1","2","1","1","1","1","1","0","0","1","0","0","0","1","0","1","0","0","0","0","0","4","1","2","1","2","1","4","5","4","5","2","726468431867543552","徐","328","","","","","","","","","","","","","","","","","","","","","","","","","","","","","","","","","","","","","","","","","",""
"884","<p style=""color:white; font-size: 35px;"">君子</p>","e","categorize-html","123","222547","0.0-6.0-1.0-8.0-1.7","3","3","4","3","3","3","3","4","3","3","4","4","5","4","4","4","4","5","4","4","2","2","1","1","2","1","1","1","1","1","0","0","1","0","0","0","1","0","1","0","0","0","0","0","4","1","2","1","2","1","4","5","4","5","2","726468431867543552","徐","328","","","","","","","","","","","","","","","","","","","true","14","4","moral","884","positive","君子","","","","","","","","","","","","","","","","",""
"null","","null","html-keyboard-response","124","222801","0.0-6.0-1.0-8.0-0.8","3","3","4","3","3","3","3","4","3","3","4","4","5","4","4","4","4","5","4","4","2","2","1","1","2","1","1","1","1","1","0","0","1","0","0","0","1","0","1","0","0","0","0","0","4","1","2","1","2","1","4","5","4","5","2","726468431867543552","徐","328","","","","","","","","","","","","","","","","","","","","","","","","","","","","","","","","","","","","","","","","","",""
"995","<p style=""color:rgb(150, 250, 100); font-size: 35px;"">他人</p>","i","categorize-html","125","223804","0.0-6.0-1.0-8.0-1.8","3","3","4","3","3","3","3","4","3","3","4","4","5","4","4","4","4","5","4","4","2","2","1","1","2","1","1","1","1","1","0","0","1","0","0","0","1","0","1","0","0","0","0","0","4","1","2","1","2","1","4","5","4","5","2","726468431867543552","徐","328","","","","","","","","","","","","","","","","","","","true","14","4","moral","995","other","他人","","","","","","","","","","","","","","","","",""
"null","","null","html-keyboard-response","126","224058","0.0-6.0-1.0-8.0-0.9","3","3","4","3","3","3","3","4","3","3","4","4","5","4","4","4","4","5","4","4","2","2","1","1","2","1","1","1","1","1","0","0","1","0","0","0","1","0","1","0","0","0","0","0","4","1","2","1","2","1","4","5","4","5","2","726468431867543552","徐","328","","","","","","","","","","","","","","","","","","","","","","","","","","","","","","","","","","","","","","","","","",""
"652","<p style=""color:white; font-size: 35px;"">廉正</p>","e","categorize-html","127","224715","0.0-6.0-1.0-8.0-1.9","3","3","4","3","3","3","3","4","3","3","4","4","5","4","4","4","4","5","4","4","2","2","1","1","2","1","1","1","1","1","0","0","1","0","0","0","1","0","1","0","0","0","0","0","4","1","2","1","2","1","4","5","4","5","2","726468431867543552","徐","328","","","","","","","","","","","","","","","","","","","true","14","4","moral","652","positive","廉正","","","","","","","","","","","","","","","","",""
"null","","null","html-keyboard-response","128","224969","0.0-6.0-1.0-8.0-0.10","3","3","4","3","3","3","3","4","3","3","4","4","5","4","4","4","4","5","4","4","2","2","1","1","2","1","1","1","1","1","0","0","1","0","0","0","1","0","1","0","0","0","0","0","4","1","2","1","2","1","4","5","4","5","2","726468431867543552","徐","328","","","","","","","","","","","","","","","","","","","","","","","","","","","","","","","","","","","","","","","","","",""
"627","<p style=""color:rgb(150, 250, 100); font-size: 35px;"">自己</p>","e","categorize-html","129","225603","0.0-6.0-1.0-8.0-1.10","3","3","4","3","3","3","3","4","3","3","4","4","5","4","4","4","4","5","4","4","2","2","1","1","2","1","1","1","1","1","0","0","1","0","0","0","1","0","1","0","0","0","0","0","4","1","2","1","2","1","4","5","4","5","2","726468431867543552","徐","328","","","","","","","","","","","","","","","","","","","true","14","4","moral","627","self","自己","","","","","","","","","","","","","","","","",""
"null","","null","html-keyboard-response","130","225857","0.0-6.0-1.0-8.0-0.11","3","3","4","3","3","3","3","4","3","3","4","4","5","4","4","4","4","5","4","4","2","2","1","1","2","1","1","1","1","1","0","0","1","0","0","0","1","0","1","0","0","0","0","0","4","1","2","1","2","1","4","5","4","5","2","726468431867543552","徐","328","","","","","","","","","","","","","","","","","","","","","","","","","","","","","","","","","","","","","","","","","",""
"676","<p style=""color:white; font-size: 35px;"">卑鄙</p>","i","categorize-html","131","226540","0.0-6.0-1.0-8.0-1.11","3","3","4","3","3","3","3","4","3","3","4","4","5","4","4","4","4","5","4","4","2","2","1","1","2","1","1","1","1","1","0","0","1","0","0","0","1","0","1","0","0","0","0","0","4","1","2","1","2","1","4","5","4","5","2","726468431867543552","徐","328","","","","","","","","","","","","","","","","","","","true","14","4","moral","676","negative","卑鄙","","","","","","","","","","","","","","","","",""
"null","","null","html-keyboard-response","132","226794","0.0-6.0-1.0-8.0-0.12","3","3","4","3","3","3","3","4","3","3","4","4","5","4","4","4","4","5","4","4","2","2","1","1","2","1","1","1","1","1","0","0","1","0","0","0","1","0","1","0","0","0","0","0","4","1","2","1","2","1","4","5","4","5","2","726468431867543552","徐","328","","","","","","","","","","","","","","","","","","","","","","","","","","","","","","","","","","","","","","","","","",""
"787","<p style=""color:rgb(150, 250, 100); font-size: 35px;"">自己的</p>","e","categorize-html","133","227587","0.0-6.0-1.0-8.0-1.12","3","3","4","3","3","3","3","4","3","3","4","4","5","4","4","4","4","5","4","4","2","2","1","1","2","1","1","1","1","1","0","0","1","0","0","0","1","0","1","0","0","0","0","0","4","1","2","1","2","1","4","5","4","5","2","726468431867543552","徐","328","","","","","","","","","","","","","","","","","","","true","14","4","moral","787","self","自己的","","","","","","","","","","","","","","","","",""
"null","","null","html-keyboard-response","134","227841","0.0-6.0-1.0-8.0-0.13","3","3","4","3","3","3","3","4","3","3","4","4","5","4","4","4","4","5","4","4","2","2","1","1","2","1","1","1","1","1","0","0","1","0","0","0","1","0","1","0","0","0","0","0","4","1","2","1","2","1","4","5","4","5","2","726468431867543552","徐","328","","","","","","","","","","","","","","","","","","","","","","","","","","","","","","","","","","","","","","","","","",""
"676","<p style=""color:white; font-size: 35px;"">正直</p>","e","categorize-html","135","228523","0.0-6.0-1.0-8.0-1.13","3","3","4","3","3","3","3","4","3","3","4","4","5","4","4","4","4","5","4","4","2","2","1","1","2","1","1","1","1","1","0","0","1","0","0","0","1","0","1","0","0","0","0","0","4","1","2","1","2","1","4","5","4","5","2","726468431867543552","徐","328","","","","","","","","","","","","","","","","","","","true","14","4","moral","676","positive","正直","","","","","","","","","","","","","","","","",""
"null","","null","html-keyboard-response","136","228777","0.0-6.0-1.0-8.0-0.14","3","3","4","3","3","3","3","4","3","3","4","4","5","4","4","4","4","5","4","4","2","2","1","1","2","1","1","1","1","1","0","0","1","0","0","0","1","0","1","0","0","0","0","0","4","1","2","1","2","1","4","5","4","5","2","726468431867543552","徐","328","","","","","","","","","","","","","","","","","","","","","","","","","","","","","","","","","","","","","","","","","",""
"605","<p style=""color:rgb(150, 250, 100); font-size: 35px;"">他的</p>","i","categorize-html","137","229387","0.0-6.0-1.0-8.0-1.14","3","3","4","3","3","3","3","4","3","3","4","4","5","4","4","4","4","5","4","4","2","2","1","1","2","1","1","1","1","1","0","0","1","0","0","0","1","0","1","0","0","0","0","0","4","1","2","1","2","1","4","5","4","5","2","726468431867543552","徐","328","","","","","","","","","","","","","","","","","","","true","14","4","moral","605","other","他的","","","","","","","","","","","","","","","","",""
"null","","null","html-keyboard-response","138","229641","0.0-6.0-1.0-8.0-0.15","3","3","4","3","3","3","3","4","3","3","4","4","5","4","4","4","4","5","4","4","2","2","1","1","2","1","1","1","1","1","0","0","1","0","0","0","1","0","1","0","0","0","0","0","4","1","2","1","2","1","4","5","4","5","2","726468431867543552","徐","328","","","","","","","","","","","","","","","","","","","","","","","","","","","","","","","","","","","","","","","","","",""
"668","<p style=""color:white; font-size: 35px;"">卑鄙</p>","i","categorize-html","139","230315","0.0-6.0-1.0-8.0-1.15","3","3","4","3","3","3","3","4","3","3","4","4","5","4","4","4","4","5","4","4","2","2","1","1","2","1","1","1","1","1","0","0","1","0","0","0","1","0","1","0","0","0","0","0","4","1","2","1","2","1","4","5","4","5","2","726468431867543552","徐","328","","","","","","","","","","","","","","","","","","","true","14","4","moral","668","negative","卑鄙","","","","","","","","","","","","","","","","",""
"null","","null","html-keyboard-response","140","230569","0.0-6.0-1.0-8.0-0.16","3","3","4","3","3","3","3","4","3","3","4","4","5","4","4","4","4","5","4","4","2","2","1","1","2","1","1","1","1","1","0","0","1","0","0","0","1","0","1","0","0","0","0","0","4","1","2","1","2","1","4","5","4","5","2","726468431867543552","徐","328","","","","","","","","","","","","","","","","","","","","","","","","","","","","","","","","","","","","","","","","","",""
"781","<p style=""color:rgb(150, 250, 100); font-size: 35px;"">他的</p>","i","categorize-html","141","231356","0.0-6.0-1.0-8.0-1.16","3","3","4","3","3","3","3","4","3","3","4","4","5","4","4","4","4","5","4","4","2","2","1","1","2","1","1","1","1","1","0","0","1","0","0","0","1","0","1","0","0","0","0","0","4","1","2","1","2","1","4","5","4","5","2","726468431867543552","徐","328","","","","","","","","","","","","","","","","","","","true","14","4","moral","781","other","他的","","","","","","","","","","","","","","","","",""
"null","","null","html-keyboard-response","142","231609","0.0-6.0-1.0-8.0-0.17","3","3","4","3","3","3","3","4","3","3","4","4","5","4","4","4","4","5","4","4","2","2","1","1","2","1","1","1","1","1","0","0","1","0","0","0","1","0","1","0","0","0","0","0","4","1","2","1","2","1","4","5","4","5","2","726468431867543552","徐","328","","","","","","","","","","","","","","","","","","","","","","","","","","","","","","","","","","","","","","","","","",""
"628","<p style=""color:white; font-size: 35px;"">不仁</p>","i","categorize-html","143","232241","0.0-6.0-1.0-8.0-1.17","3","3","4","3","3","3","3","4","3","3","4","4","5","4","4","4","4","5","4","4","2","2","1","1","2","1","1","1","1","1","0","0","1","0","0","0","1","0","1","0","0","0","0","0","4","1","2","1","2","1","4","5","4","5","2","726468431867543552","徐","328","","","","","","","","","","","","","","","","","","","true","14","4","moral","628","negative","不仁","","","","","","","","","","","","","","","","",""
"null","","null","html-keyboard-response","144","232497","0.0-6.0-1.0-8.0-0.18","3","3","4","3","3","3","3","4","3","3","4","4","5","4","4","4","4","5","4","4","2","2","1","1","2","1","1","1","1","1","0","0","1","0","0","0","1","0","1","0","0","0","0","0","4","1","2","1","2","1","4","5","4","5","2","726468431867543552","徐","328","","","","","","","","","","","","","","","","","","","","","","","","","","","","","","","","","","","","","","","","","",""
"653","<p style=""color:rgb(150, 250, 100); font-size: 35px;"">自己</p>","e","categorize-html","145","233155","0.0-6.0-1.0-8.0-1.18","3","3","4","3","3","3","3","4","3","3","4","4","5","4","4","4","4","5","4","4","2","2","1","1","2","1","1","1","1","1","0","0","1","0","0","0","1","0","1","0","0","0","0","0","4","1","2","1","2","1","4","5","4","5","2","726468431867543552","徐","328","","","","","","","","","","","","","","","","","","","true","14","4","moral","653","self","自己","","","","","","","","","","","","","","","","",""
"null","","null","html-keyboard-response","146","233409","0.0-6.0-1.0-8.0-0.19","3","3","4","3","3","3","3","4","3","3","4","4","5","4","4","4","4","5","4","4","2","2","1","1","2","1","1","1","1","1","0","0","1","0","0","0","1","0","1","0","0","0","0","0","4","1","2","1","2","1","4","5","4","5","2","726468431867543552","徐","328","","","","","","","","","","","","","","","","","","","","","","","","","","","","","","","","","","","","","","","","","",""
"691","<p style=""color:white; font-size: 35px;"">诚信</p>","e","categorize-html","147","234105","0.0-6.0-1.0-8.0-1.19","3","3","4","3","3","3","3","4","3","3","4","4","5","4","4","4","4","5","4","4","2","2","1","1","2","1","1","1","1","1","0","0","1","0","0","0","1","0","1","0","0","0","0","0","4","1","2","1","2","1","4","5","4","5","2","726468431867543552","徐","328","","","","","","","","","","","","","","","","","","","true","14","4","moral","691","positive","诚信","","","","","","","","","","","","","","","","",""
"null","","null","html-keyboard-response","148","234361","0.0-6.0-1.0-8.0-0.20","3","3","4","3","3","3","3","4","3","3","4","4","5","4","4","4","4","5","4","4","2","2","1","1","2","1","1","1","1","1","0","0","1","0","0","0","1","0","1","0","0","0","0","0","4","1","2","1","2","1","4","5","4","5","2","726468431867543552","徐","328","","","","","","","","","","","","","","","","","","","","","","","","","","","","","","","","","","","","","","","","","",""
"716","<p style=""color:rgb(150, 250, 100); font-size: 35px;"">本人的</p>","e","categorize-html","149","235083","0.0-6.0-1.0-8.0-1.20","3","3","4","3","3","3","3","4","3","3","4","4","5","4","4","4","4","5","4","4","2","2","1","1","2","1","1","1","1","1","0","0","1","0","0","0","1","0","1","0","0","0","0","0","4","1","2","1","2","1","4","5","4","5","2","726468431867543552","徐","328","","","","","","","","","","","","","","","","","","","true","14","4","moral","716","self","本人的","","","","","","","","","","","","","","","","",""
"null","","null","html-keyboard-response","150","235337","0.0-6.0-1.0-8.0-0.21","3","3","4","3","3","3","3","4","3","3","4","4","5","4","4","4","4","5","4","4","2","2","1","1","2","1","1","1","1","1","0","0","1","0","0","0","1","0","1","0","0","0","0","0","4","1","2","1","2","1","4","5","4","5","2","726468431867543552","徐","328","","","","","","","","","","","","","","","","","","","","","","","","","","","","","","","","","","","","","","","","","",""
"693","<p style=""color:white; font-size: 35px;"">不孝</p>","i","categorize-html","151","236037","0.0-6.0-1.0-8.0-1.21","3","3","4","3","3","3","3","4","3","3","4","4","5","4","4","4","4","5","4","4","2","2","1","1","2","1","1","1","1","1","0","0","1","0","0","0","1","0","1","0","0","0","0","0","4","1","2","1","2","1","4","5","4","5","2","726468431867543552","徐","328","","","","","","","","","","","","","","","","","","","true","14","4","moral","693","negative","不孝","","","","","","","","","","","","","","","","",""
"null","","null","html-keyboard-response","152","236297","0.0-6.0-1.0-8.0-0.22","3","3","4","3","3","3","3","4","3","3","4","4","5","4","4","4","4","5","4","4","2","2","1","1","2","1","1","1","1","1","0","0","1","0","0","0","1","0","1","0","0","0","0","0","4","1","2","1","2","1","4","5","4","5","2","726468431867543552","徐","328","","","","","","","","","","","","","","","","","","","","","","","","","","","","","","","","","","","","","","","","","",""
"685","<p style=""color:rgb(150, 250, 100); font-size: 35px;"">别人</p>","i","categorize-html","153","236989","0.0-6.0-1.0-8.0-1.22","3","3","4","3","3","3","3","4","3","3","4","4","5","4","4","4","4","5","4","4","2","2","1","1","2","1","1","1","1","1","0","0","1","0","0","0","1","0","1","0","0","0","0","0","4","1","2","1","2","1","4","5","4","5","2","726468431867543552","徐","328","","","","","","","","","","","","","","","","","","","true","14","4","moral","685","other","别人","","","","","","","","","","","","","","","","",""
"null","","null","html-keyboard-response","154","237249","0.0-6.0-1.0-8.0-0.23","3","3","4","3","3","3","3","4","3","3","4","4","5","4","4","4","4","5","4","4","2","2","1","1","2","1","1","1","1","1","0","0","1","0","0","0","1","0","1","0","0","0","0","0","4","1","2","1","2","1","4","5","4","5","2","726468431867543552","徐","328","","","","","","","","","","","","","","","","","","","","","","","","","","","","","","","","","","","","","","","","","",""
"676","<p style=""color:white; font-size: 35px;"">善良</p>","e","categorize-html","155","237928","0.0-6.0-1.0-8.0-1.23","3","3","4","3","3","3","3","4","3","3","4","4","5","4","4","4","4","5","4","4","2","2","1","1","2","1","1","1","1","1","0","0","1","0","0","0","1","0","1","0","0","0","0","0","4","1","2","1","2","1","4","5","4","5","2","726468431867543552","徐","328","","","","","","","","","","","","","","","","","","","true","14","4","moral","676","positive","善良","","","","","","","","","","","","","","","","",""
"null","","null","html-keyboard-response","156","238185","0.0-6.0-1.0-8.0-0.24","3","3","4","3","3","3","3","4","3","3","4","4","5","4","4","4","4","5","4","4","2","2","1","1","2","1","1","1","1","1","0","0","1","0","0","0","1","0","1","0","0","0","0","0","4","1","2","1","2","1","4","5","4","5","2","726468431867543552","徐","328","","","","","","","","","","","","","","","","","","","","","","","","","","","","","","","","","","","","","","","","","",""
"612","<p style=""color:rgb(150, 250, 100); font-size: 35px;"">别人的</p>","i","categorize-html","157","238803","0.0-6.0-1.0-8.0-1.24","3","3","4","3","3","3","3","4","3","3","4","4","5","4","4","4","4","5","4","4","2","2","1","1","2","1","1","1","1","1","0","0","1","0","0","0","1","0","1","0","0","0","0","0","4","1","2","1","2","1","4","5","4","5","2","726468431867543552","徐","328","","","","","","","","","","","","","","","","","","","true","14","4","moral","612","other","别人的","","","","","","","","","","","","","","","","",""
"null","","null","html-keyboard-response","158","239057","0.0-6.0-1.0-8.0-0.25","3","3","4","3","3","3","3","4","3","3","4","4","5","4","4","4","4","5","4","4","2","2","1","1","2","1","1","1","1","1","0","0","1","0","0","0","1","0","1","0","0","0","0","0","4","1","2","1","2","1","4","5","4","5","2","726468431867543552","徐","328","","","","","","","","","","","","","","","","","","","","","","","","","","","","","","","","","","","","","","","","","",""
"900","<p style=""color:white; font-size: 35px;"">正直</p>","e","categorize-html","159","239963","0.0-6.0-1.0-8.0-1.25","3","3","4","3","3","3","3","4","3","3","4","4","5","4","4","4","4","5","4","4","2","2","1","1","2","1","1","1","1","1","0","0","1","0","0","0","1","0","1","0","0","0","0","0","4","1","2","1","2","1","4","5","4","5","2","726468431867543552","徐","328","","","","","","","","","","","","","","","","","","","true","14","4","moral","900","positive","正直","","","","","","","","","","","","","","","","",""
"null","","null","html-keyboard-response","160","240217","0.0-6.0-1.0-8.0-0.26","3","3","4","3","3","3","3","4","3","3","4","4","5","4","4","4","4","5","4","4","2","2","1","1","2","1","1","1","1","1","0","0","1","0","0","0","1","0","1","0","0","0","0","0","4","1","2","1","2","1","4","5","4","5","2","726468431867543552","徐","328","","","","","","","","","","","","","","","","","","","","","","","","","","","","","","","","","","","","","","","","","",""
"644","<p style=""color:rgb(150, 250, 100); font-size: 35px;"">本人</p>","e","categorize-html","161","240867","0.0-6.0-1.0-8.0-1.26","3","3","4","3","3","3","3","4","3","3","4","4","5","4","4","4","4","5","4","4","2","2","1","1","2","1","1","1","1","1","0","0","1","0","0","0","1","0","1","0","0","0","0","0","4","1","2","1","2","1","4","5","4","5","2","726468431867543552","徐","328","","","","","","","","","","","","","","","","","","","true","14","4","moral","644","self","本人","","","","","","","","","","","","","","","","",""
"null","","null","html-keyboard-response","162","241121","0.0-6.0-1.0-8.0-0.27","3","3","4","3","3","3","3","4","3","3","4","4","5","4","4","4","4","5","4","4","2","2","1","1","2","1","1","1","1","1","0","0","1","0","0","0","1","0","1","0","0","0","0","0","4","1","2","1","2","1","4","5","4","5","2","726468431867543552","徐","328","","","","","","","","","","","","","","","","","","","","","","","","","","","","","","","","","","","","","","","","","",""
"572","<p style=""color:white; font-size: 35px;"">黑心</p>","i","categorize-html","163","241699","0.0-6.0-1.0-8.0-1.27","3","3","4","3","3","3","3","4","3","3","4","4","5","4","4","4","4","5","4","4","2","2","1","1","2","1","1","1","1","1","0","0","1","0","0","0","1","0","1","0","0","0","0","0","4","1","2","1","2","1","4","5","4","5","2","726468431867543552","徐","328","","","","","","","","","","","","","","","","","","","true","14","4","moral","572","negative","黑心","","","","","","","","","","","","","","","","",""
"null","","null","html-keyboard-response","164","241953","0.0-6.0-1.0-8.0-0.28","3","3","4","3","3","3","3","4","3","3","4","4","5","4","4","4","4","5","4","4","2","2","1","1","2","1","1","1","1","1","0","0","1","0","0","0","1","0","1","0","0","0","0","0","4","1","2","1","2","1","4","5","4","5","2","726468431867543552","徐","328","","","","","","","","","","","","","","","","","","","","","","","","","","","","","","","","","","","","","","","","","",""
"803","<p style=""color:rgb(150, 250, 100); font-size: 35px;"">本人</p>","e","categorize-html","165","242763","0.0-6.0-1.0-8.0-1.28","3","3","4","3","3","3","3","4","3","3","4","4","5","4","4","4","4","5","4","4","2","2","1","1","2","1","1","1","1","1","0","0","1","0","0","0","1","0","1","0","0","0","0","0","4","1","2","1","2","1","4","5","4","5","2","726468431867543552","徐","328","","","","","","","","","","","","","","","","","","","true","14","4","moral","803","self","本人","","","","","","","","","","","","","","","","",""
"null","","null","html-keyboard-response","166","243017","0.0-6.0-1.0-8.0-0.29","3","3","4","3","3","3","3","4","3","3","4","4","5","4","4","4","4","5","4","4","2","2","1","1","2","1","1","1","1","1","0","0","1","0","0","0","1","0","1","0","0","0","0","0","4","1","2","1","2","1","4","5","4","5","2","726468431867543552","徐","328","","","","","","","","","","","","","","","","","","","","","","","","","","","","","","","","","","","","","","","","","",""
"700","<p style=""color:white; font-size: 35px;"">廉正</p>","e","categorize-html","167","243723","0.0-6.0-1.0-8.0-1.29","3","3","4","3","3","3","3","4","3","3","4","4","5","4","4","4","4","5","4","4","2","2","1","1","2","1","1","1","1","1","0","0","1","0","0","0","1","0","1","0","0","0","0","0","4","1","2","1","2","1","4","5","4","5","2","726468431867543552","徐","328","","","","","","","","","","","","","","","","","","","true","14","4","moral","700","positive","廉正","","","","","","","","","","","","","","","","",""
"null","","null","html-keyboard-response","168","243977","0.0-6.0-1.0-8.0-0.30","3","3","4","3","3","3","3","4","3","3","4","4","5","4","4","4","4","5","4","4","2","2","1","1","2","1","1","1","1","1","0","0","1","0","0","0","1","0","1","0","0","0","0","0","4","1","2","1","2","1","4","5","4","5","2","726468431867543552","徐","328","","","","","","","","","","","","","","","","","","","","","","","","","","","","","","","","","","","","","","","","","",""
"724","<p style=""color:rgb(150, 250, 100); font-size: 35px;"">别人的</p>","i","categorize-html","169","244707","0.0-6.0-1.0-8.0-1.30","3","3","4","3","3","3","3","4","3","3","4","4","5","4","4","4","4","5","4","4","2","2","1","1","2","1","1","1","1","1","0","0","1","0","0","0","1","0","1","0","0","0","0","0","4","1","2","1","2","1","4","5","4","5","2","726468431867543552","徐","328","","","","","","","","","","","","","","","","","","","true","14","4","moral","724","other","别人的","","","","","","","","","","","","","","","","",""
"null","","null","html-keyboard-response","170","244961","0.0-6.0-1.0-8.0-0.31","3","3","4","3","3","3","3","4","3","3","4","4","5","4","4","4","4","5","4","4","2","2","1","1","2","1","1","1","1","1","0","0","1","0","0","0","1","0","1","0","0","0","0","0","4","1","2","1","2","1","4","5","4","5","2","726468431867543552","徐","328","","","","","","","","","","","","","","","","","","","","","","","","","","","","","","","","","","","","","","","","","",""
"660","<p style=""color:white; font-size: 35px;"">黑心</p>","i","categorize-html","171","245623","0.0-6.0-1.0-8.0-1.31","3","3","4","3","3","3","3","4","3","3","4","4","5","4","4","4","4","5","4","4","2","2","1","1","2","1","1","1","1","1","0","0","1","0","0","0","1","0","1","0","0","0","0","0","4","1","2","1","2","1","4","5","4","5","2","726468431867543552","徐","328","","","","","","","","","","","","","","","","","","","true","14","4","moral","660","negative","黑心","","","","","","","","","","","","","","","","",""
"null","","null","html-keyboard-response","172","245881","0.0-6.0-1.0-8.0-0.32","3","3","4","3","3","3","3","4","3","3","4","4","5","4","4","4","4","5","4","4","2","2","1","1","2","1","1","1","1","1","0","0","1","0","0","0","1","0","1","0","0","0","0","0","4","1","2","1","2","1","4","5","4","5","2","726468431867543552","徐","328","","","","","","","","","","","","","","","","","","","","","","","","","","","","","","","","","","","","","","","","","",""
"724","<p style=""color:rgb(150, 250, 100); font-size: 35px;"">他人的</p>","i","categorize-html","173","246611","0.0-6.0-1.0-8.0-1.32","3","3","4","3","3","3","3","4","3","3","4","4","5","4","4","4","4","5","4","4","2","2","1","1","2","1","1","1","1","1","0","0","1","0","0","0","1","0","1","0","0","0","0","0","4","1","2","1","2","1","4","5","4","5","2","726468431867543552","徐","328","","","","","","","","","","","","","","","","","","","true","14","4","moral","724","other","他人的","","","","","","","","","","","","","","","","",""
"null","","null","html-keyboard-response","174","246866","0.0-6.0-1.0-8.0-0.33","3","3","4","3","3","3","3","4","3","3","4","4","5","4","4","4","4","5","4","4","2","2","1","1","2","1","1","1","1","1","0","0","1","0","0","0","1","0","1","0","0","0","0","0","4","1","2","1","2","1","4","5","4","5","2","726468431867543552","徐","328","","","","","","","","","","","","","","","","","","","","","","","","","","","","","","","","","","","","","","","","","",""
"636","<p style=""color:white; font-size: 35px;"">缺德</p>","i","categorize-html","175","247508","0.0-6.0-1.0-8.0-1.33","3","3","4","3","3","3","3","4","3","3","4","4","5","4","4","4","4","5","4","4","2","2","1","1","2","1","1","1","1","1","0","0","1","0","0","0","1","0","1","0","0","0","0","0","4","1","2","1","2","1","4","5","4","5","2","726468431867543552","徐","328","","","","","","","","","","","","","","","","","","","true","14","4","moral","636","negative","缺德","","","","","","","","","","","","","","","","",""
"null","","null","html-keyboard-response","176","247760","0.0-6.0-1.0-8.0-0.34","3","3","4","3","3","3","3","4","3","3","4","4","5","4","4","4","4","5","4","4","2","2","1","1","2","1","1","1","1","1","0","0","1","0","0","0","1","0","1","0","0","0","0","0","4","1","2","1","2","1","4","5","4","5","2","726468431867543552","徐","328","","","","","","","","","","","","","","","","","","","","","","","","","","","","","","","","","","","","","","","","","",""
"693","<p style=""color:rgb(150, 250, 100); font-size: 35px;"">我的</p>","e","categorize-html","177","248459","0.0-6.0-1.0-8.0-1.34","3","3","4","3","3","3","3","4","3","3","4","4","5","4","4","4","4","5","4","4","2","2","1","1","2","1","1","1","1","1","0","0","1","0","0","0","1","0","1","0","0","0","0","0","4","1","2","1","2","1","4","5","4","5","2","726468431867543552","徐","328","","","","","","","","","","","","","","","","","","","true","14","4","moral","693","self","我的","","","","","","","","","","","","","","","","",""
"null","","null","html-keyboard-response","178","248713","0.0-6.0-1.0-8.0-0.35","3","3","4","3","3","3","3","4","3","3","4","4","5","4","4","4","4","5","4","4","2","2","1","1","2","1","1","1","1","1","0","0","1","0","0","0","1","0","1","0","0","0","0","0","4","1","2","1","2","1","4","5","4","5","2","726468431867543552","徐","328","","","","","","","","","","","","","","","","","","","","","","","","","","","","","","","","","","","","","","","","","",""
"884","<p style=""color:white; font-size: 35px;"">君子</p>","e","categorize-html","179","249604","0.0-6.0-1.0-8.0-1.35","3","3","4","3","3","3","3","4","3","3","4","4","5","4","4","4","4","5","4","4","2","2","1","1","2","1","1","1","1","1","0","0","1","0","0","0","1","0","1","0","0","0","0","0","4","1","2","1","2","1","4","5","4","5","2","726468431867543552","徐","328","","","","","","","","","","","","","","","","","","","true","14","4","moral","884","positive","君子","","","","","","","","","","","","","","","","",""
"null","","null","html-keyboard-response","180","249858","0.0-6.0-1.0-8.0-0.36","3","3","4","3","3","3","3","4","3","3","4","4","5","4","4","4","4","5","4","4","2","2","1","1","2","1","1","1","1","1","0","0","1","0","0","0","1","0","1","0","0","0","0","0","4","1","2","1","2","1","4","5","4","5","2","726468431867543552","徐","328","","","","","","","","","","","","","","","","","","","","","","","","","","","","","","","","","","","","","","","","","",""
"636","<p style=""color:rgb(150, 250, 100); font-size: 35px;"">他</p>","i","categorize-html","181","250499","0.0-6.0-1.0-8.0-1.36","3","3","4","3","3","3","3","4","3","3","4","4","5","4","4","4","4","5","4","4","2","2","1","1","2","1","1","1","1","1","0","0","1","0","0","0","1","0","1","0","0","0","0","0","4","1","2","1","2","1","4","5","4","5","2","726468431867543552","徐","328","","","","","","","","","","","","","","","","","","","true","14","4","moral","636","other","他","","","","","","","","","","","","","","","","",""
"null","","null","html-keyboard-response","182","250752","0.0-6.0-1.0-8.0-0.37","3","3","4","3","3","3","3","4","3","3","4","4","5","4","4","4","4","5","4","4","2","2","1","1","2","1","1","1","1","1","0","0","1","0","0","0","1","0","1","0","0","0","0","0","4","1","2","1","2","1","4","5","4","5","2","726468431867543552","徐","328","","","","","","","","","","","","","","","","","","","","","","","","","","","","","","","","","","","","","","","","","",""
"597","<p style=""color:white; font-size: 35px;"">善良</p>","e","categorize-html","183","251355","0.0-6.0-1.0-8.0-1.37","3","3","4","3","3","3","3","4","3","3","4","4","5","4","4","4","4","5","4","4","2","2","1","1","2","1","1","1","1","1","0","0","1","0","0","0","1","0","1","0","0","0","0","0","4","1","2","1","2","1","4","5","4","5","2","726468431867543552","徐","328","","","","","","","","","","","","","","","","","","","true","14","4","moral","597","positive","善良","","","","","","","","","","","","","","","","",""
"null","","null","html-keyboard-response","184","251609","0.0-6.0-1.0-8.0-0.38","3","3","4","3","3","3","3","4","3","3","4","4","5","4","4","4","4","5","4","4","2","2","1","1","2","1","1","1","1","1","0","0","1","0","0","0","1","0","1","0","0","0","0","0","4","1","2","1","2","1","4","5","4","5","2","726468431867543552","徐","328","","","","","","","","","","","","","","","","","","","","","","","","","","","","","","","","","","","","","","","","","",""
"771","<p style=""color:rgb(150, 250, 100); font-size: 35px;"">我</p>","e","categorize-html","185","252387","0.0-6.0-1.0-8.0-1.38","3","3","4","3","3","3","3","4","3","3","4","4","5","4","4","4","4","5","4","4","2","2","1","1","2","1","1","1","1","1","0","0","1","0","0","0","1","0","1","0","0","0","0","0","4","1","2","1","2","1","4","5","4","5","2","726468431867543552","徐","328","","","","","","","","","","","","","","","","","","","true","14","4","moral","771","self","我","","","","","","","","","","","","","","","","",""
"null","","null","html-keyboard-response","186","252641","0.0-6.0-1.0-8.0-0.39","3","3","4","3","3","3","3","4","3","3","4","4","5","4","4","4","4","5","4","4","2","2","1","1","2","1","1","1","1","1","0","0","1","0","0","0","1","0","1","0","0","0","0","0","4","1","2","1","2","1","4","5","4","5","2","726468431867543552","徐","328","","","","","","","","","","","","","","","","","","","","","","","","","","","","","","","","","","","","","","","","","",""
"596","<p style=""color:white; font-size: 35px;"">小人</p>","i","categorize-html","187","253243","0.0-6.0-1.0-8.0-1.39","3","3","4","3","3","3","3","4","3","3","4","4","5","4","4","4","4","5","4","4","2","2","1","1","2","1","1","1","1","1","0","0","1","0","0","0","1","0","1","0","0","0","0","0","4","1","2","1","2","1","4","5","4","5","2","726468431867543552","徐","328","","","","","","","","","","","","","","","","","","","true","14","4","moral","596","negative","小人","","","","","","","","","","","","","","","","",""
"null","","null","html-keyboard-response","188","253498","0.0-6.0-1.0-8.0-0.40","3","3","4","3","3","3","3","4","3","3","4","4","5","4","4","4","4","5","4","4","2","2","1","1","2","1","1","1","1","1","0","0","1","0","0","0","1","0","1","0","0","0","0","0","4","1","2","1","2","1","4","5","4","5","2","726468431867543552","徐","328","","","","","","","","","","","","","","","","","","","","","","","","","","","","","","","","","","","","","","","","","",""
"610","<p style=""color:rgb(150, 250, 100); font-size: 35px;"">别人</p>","i","categorize-html","189","254111","0.0-6.0-1.0-8.0-1.40","3","3","4","3","3","3","3","4","3","3","4","4","5","4","4","4","4","5","4","4","2","2","1","1","2","1","1","1","1","1","0","0","1","0","0","0","1","0","1","0","0","0","0","0","4","1","2","1","2","1","4","5","4","5","2","726468431867543552","徐","328","","","","","","","","","","","","","","","","","","","true","14","4","moral","610","other","别人","","","","","","","","","","","","","","","","",""
"null","","null","html-keyboard-response","190","254369","0.0-6.0-1.0-8.0-0.41","3","3","4","3","3","3","3","4","3","3","4","4","5","4","4","4","4","5","4","4","2","2","1","1","2","1","1","1","1","1","0","0","1","0","0","0","1","0","1","0","0","0","0","0","4","1","2","1","2","1","4","5","4","5","2","726468431867543552","徐","328","","","","","","","","","","","","","","","","","","","","","","","","","","","","","","","","","","","","","","","","","",""
"588","<p style=""color:white; font-size: 35px;"">不仁</p>","i","categorize-html","191","254963","0.0-6.0-1.0-8.0-1.41","3","3","4","3","3","3","3","4","3","3","4","4","5","4","4","4","4","5","4","4","2","2","1","1","2","1","1","1","1","1","0","0","1","0","0","0","1","0","1","0","0","0","0","0","4","1","2","1","2","1","4","5","4","5","2","726468431867543552","徐","328","","","","","","","","","","","","","","","","","","","true","14","4","moral","588","negative","不仁","","","","","","","","","","","","","","","","",""
"null","","null","html-keyboard-response","192","255217","0.0-6.0-1.0-8.0-0.42","3","3","4","3","3","3","3","4","3","3","4","4","5","4","4","4","4","5","4","4","2","2","1","1","2","1","1","1","1","1","0","0","1","0","0","0","1","0","1","0","0","0","0","0","4","1","2","1","2","1","4","5","4","5","2","726468431867543552","徐","328","","","","","","","","","","","","","","","","","","","","","","","","","","","","","","","","","","","","","","","","","",""
"540","<p style=""color:rgb(150, 250, 100); font-size: 35px;"">我的</p>","e","categorize-html","193","255763","0.0-6.0-1.0-8.0-1.42","3","3","4","3","3","3","3","4","3","3","4","4","5","4","4","4","4","5","4","4","2","2","1","1","2","1","1","1","1","1","0","0","1","0","0","0","1","0","1","0","0","0","0","0","4","1","2","1","2","1","4","5","4","5","2","726468431867543552","徐","328","","","","","","","","","","","","","","","","","","","true","14","4","moral","540","self","我的","","","","","","","","","","","","","","","","",""
