"rt","stimulus","response","trial_type","trial_index","time_elapsed","internal_node_id","ses_1","ses_2","ses_3","ses_4","ses_5","ses_6","ses_7","ses_8","ses_9","ses_10","coreself_1","coreself_2","coreself_3","coreself_4","coreself_5","coreself_6","coreself_7","coreself_8","coreself_9","coreself_10","SGPS_1","SGPS_2","SGPS_3","SGPS_4","SGPS_5","SGPS_6","SGPS_7","SGPS_8","SGPS_9","NPI1","NPI2","NPI3","NPI4","NPI5","NPI6","NPI7","NPI8","NPI9","NPI10","NPI11","NPI12","NPI13","NPI14","NPI15","hsns_1","hsns_2","hsns_3","hsns_4","hsns_5","trap1","hsns_6","hsns_7","hsns_8","hsns_9","hsns_10","subj_idx","friend_name","ParticipantID","value","success","user_agent","responses","item_order","radio_event_ids","radio_event_times","key_event_times","mouse_event_times","straightlining","zigzagging","honeypot","timeout","failed_images","failed_audio","failed_video","view_history","response_type","key_press","avg_frame_time","center_x","center_y","correct_response","correct","identity","Image","word","condition","task_id","screen_id","time_stamp","version_attrib2","version_target2","IAT","RT","varname","summary","version_attrib","version_target","question_order","correct_answer","trap1_item"
"1101","
   <p><div style = ""color: white;font-size:25px;"">您好，欢迎参加本次实验。</div> </p>
   <p><div style = ""color: white;font-size:25px;"">为充分保障您的权利，请确保您已经知晓并同意《参与实验同意书》以及《数据公开知情同意书》。</div></p>
   <p><div style = ""color: white;font-size:25px;"">如果您未见过上述内容，请咨询实验员。</div></p>
   <p><div style = ""color: white;font-size:25px;"">如果您选择继续实验，则表示您已经清楚两份知情同意书的内容并同意。</div></p>
   <p><div style = ""color: pink;font-size:30px;"">请确保您记得day0的实验编号，您将在本次实验输入该编号，若您忘记，请咨询实验员后作答。</div></p>
   <p><div style = ""color: lightblue;font-size:25px;"">请您尽可能认真地作答，我们将依据您在各问卷和按键任务中的作答质量发放报酬。</div></p>
   <p> <div style = ""color: green;font-size:25px;""><按空格键至下页></div> </p>
   "," ","html-keyboard-response","0","1106","0.0-0.0","3","3","3","3","2","3","3","3","3","3","2","2","2","4","4","4","2","2","4","4","5","5","5","5","2","3","1","4","1","1","0","1","1","0","0","1","1","1","1","1","0","1","0","1","4","5","2","2","5","1","2","2","3","4","1","799285561922822145","陈","51","","","","","","","","","","","","","","","","","","","","","","","","","","","","","","","","","","","","","","","","","",""
"","","","call-function","1","1107","0.0-1.0-0.0","3","3","3","3","2","3","3","3","3","3","2","2","2","4","4","4","2","2","4","4","5","5","5","5","2","3","1","4","1","1","0","1","1","0","0","1","1","1","1","1","0","1","0","1","4","5","2","2","5","1","2","2","3","4","1","799285561922822145","陈","51","","","","","","","","","","","","","","","","","","","","","","","","","","","","","","","","","","","","","","","","","",""
"4081","","{""friend_name"":""陈"",""ParticipantID"":""51""}","survey-html-form","2","5189","0.0-1.0-1.0","3","3","3","3","2","3","3","3","3","3","2","2","2","4","4","4","2","2","4","4","5","5","5","5","2","3","1","4","1","1","0","1","1","0","0","1","1","1","1","1","0","1","0","1","4","5","2","2","5","1","2","2","3","4","1","799285561922822145","陈","51","","","","","","","","","","","","","","","","","","","","","","","","","","","","","","","","","","","","","","","","","",""
"","","","fullscreen","3","6297","0.0-2.0","3","3","3","3","2","3","3","3","3","3","2","2","2","4","4","4","2","2","4","4","5","5","5","5","2","3","1","4","1","1","0","1","1","0","0","1","1","1","1","1","0","1","0","1","4","5","2","2","5","1","2","2","3","4","1","799285561922822145","陈","51","","true","{}","","","","","","","","","","","","","","","","","","","","","","","","","","","","","","","","","","","","","","",""
"35938.5","","{""Q01"":""3"",""Q02"":""3"",""Q03"":""3"",""Q04"":""3"",""Q05"":""2"",""Q06"":""3"",""Q07"":""3"",""Q08"":""3"",""Q09"":""3"",""Q10"":""3""}","survey-template","4","42239","0.0-3.0","3","3","3","3","2","3","3","3","3","3","2","2","2","4","4","4","2","2","4","4","5","5","5","5","2","3","1","4","1","1","0","1","1","0","0","1","1","1","1","1","0","1","0","1","4","5","2","2","5","1","2","2","3","4","1","799285561922822145","陈","51","","","","{""Q01"":""3"",""Q02"":""3"",""Q03"":""3"",""Q04"":""3"",""Q05"":""2"",""Q06"":""3"",""Q07"":""3"",""Q08"":""3"",""Q09"":""3"",""Q10"":""3""}","[0,1,2,3,4,5,6,7,8,9]","[""Q01"",""Q02"",""Q03"",""Q04"",""Q05"",""Q06"",""Q07"",""Q08"",""Q09"",""Q10""]","[7119.299999952316,10800.700000047684,13123.600000023842,14554.5,17048.5,17918.5,18959.200000047684,23702.799999952316,24513.600000023842,34777.799999952316]","[]","[7119.299999952316,10800.700000047684,13123.600000023842,14554.5,17048.5,17918.5,18959.200000047684,22974.299999952316,23702.799999952316,24513.600000023842,34777.799999952316,35936.700000047684]","0.6","0.3333333333333333","0","","","","","","","","","","","","","","","","","","","","","","","","","","","","","",""
"28597.700000047684","","{""Q01"":""2"",""Q02"":""2"",""Q03"":""2"",""Q04"":""4"",""Q05"":""4"",""Q06"":""4"",""Q07"":""2"",""Q08"":""2"",""Q09"":""4"",""Q10"":""4""}","survey-template","5","70845","0.0-4.0","3","3","3","3","2","3","3","3","3","3","2","2","2","4","4","4","2","2","4","4","5","5","5","5","2","3","1","4","1","1","0","1","1","0","0","1","1","1","1","1","0","1","0","1","4","5","2","2","5","1","2","2","3","4","1","799285561922822145","陈","51","","","","{""Q01"":""2"",""Q02"":""2"",""Q03"":""2"",""Q04"":""4"",""Q05"":""4"",""Q06"":""4"",""Q07"":""2"",""Q08"":""2"",""Q09"":""4"",""Q10"":""4""}","[0,1,2,3,4,5,6,7,8,9]","[""Q01"",""Q02"",""Q03"",""Q04"",""Q06"",""Q05"",""Q07"",""Q08"",""Q09"",""Q10""]","[4750,12156.200000047684,13132.799999952316,14398.100000023842,16146.700000047684,17871.700000047684,21928.5,22539.100000023842,25016.600000023842,27851]","[]","[3801.7999999523163,4750,11450.600000023842,12156.200000047684,13132.799999952316,14398.100000023842,15161.399999976158,16146.700000047684,17871.700000047684,20892.799999952316,21928.5,22539.100000023842,25016.600000023842,26645,27116.600000023842,27851,28596]","0.7","0","0","","","","","","","","","","","","","","","","","","","","","","","","","","","","","",""
"","","","preload","6","70865","0.0-5.0","3","3","3","3","2","3","3","3","3","3","2","2","2","4","4","4","2","2","4","4","5","5","5","5","2","3","1","4","1","1","0","1","1","0","0","1","1","1","1","1","0","1","0","1","4","5","2","2","5","1","2","2","3","4","1","799285561922822145","陈","51","","true","","","","","","","","","","","false","[]","[]","[]","","","","","","","","","","","","","","","","","","","","","","","","","",""
"2278","","","instructions","7","73144","0.0-6.0","3","3","3","3","2","3","3","3","3","3","2","2","2","4","4","4","2","2","4","4","5","5","5","5","2","3","1","4","1","1","0","1","1","0","0","1","1","1","1","1","0","1","0","1","4","5","2","2","5","1","2","2","3","4","1","799285561922822145","陈","51","","","","","","","","","","","","","","","","","[{""page_index"":0,""viewing_time"":2278}]","","","","","","","","","","","","","","","","","","","","","","","","",""
"7779","","","instructions","8","80925","0.0-7.0-1.0-0.0","3","3","3","3","2","3","3","3","3","3","2","2","2","4","4","4","2","2","4","4","5","5","5","5","2","3","1","4","1","1","0","1","1","0","0","1","1","1","1","1","0","1","0","1","4","5","2","2","5","1","2","2","3","4","1","799285561922822145","陈","51","","","","","","","","","","","","","","","","","[{""page_index"":0,""viewing_time"":1711},{""page_index"":1,""viewing_time"":4192},{""page_index"":2,""viewing_time"":1876}]","","","","","","","","","","","","","","","","","","","","","","","","",""
"null","","null","psychophysics","9","83131","0.0-7.0-1.0-1.0-0.0-0.0","3","3","3","3","2","3","3","3","3","3","2","2","2","4","4","4","2","2","4","4","5","5","5","5","2","3","1","4","1","1","0","1","1","0","0","1","1","1","1","1","0","1","0","1","4","5","2","2","5","1","2","2","3","4","1","799285561922822145","陈","51","","","","null","","","","","","","","","","","","","","key","null","16.665999999999993","720","446","j","false","match","img/diamond.png","菱形","菱形","ALT1_2","prac_ALT1_2","","","","","","","","","","","",""
"null","<span class='add_' style='color:yellow; font-size: 70px;'> 太慢! </span>","null","html-keyboard-response","10","83634","0.0-7.0-1.0-1.0-0.0-1.0","3","3","3","3","2","3","3","3","3","3","2","2","2","4","4","4","2","2","4","4","5","5","5","5","2","3","1","4","1","1","0","1","1","0","0","1","1","1","1","1","0","1","0","1","4","5","2","2","5","1","2","2","3","4","1","799285561922822145","陈","51","","","","","","","","","","","","","","","","","","","","","","","","","","","","","","feedback_test","","","","","","","","","","","",""
"579","","j","psychophysics","11","85216","0.0-7.0-1.0-1.0-0.0-0.1","3","3","3","3","2","3","3","3","3","3","2","2","2","4","4","4","2","2","4","4","5","5","5","5","2","3","1","4","1","1","0","1","1","0","0","1","1","1","1","1","0","1","0","1","4","5","2","2","5","1","2","2","3","4","1","799285561922822145","陈","51","","","","match","","","","","","","","","","","","","","key","j","16.665999999999915","720","446","j","true","match","img/diamond.png","菱形","菱形","ALT1_2","prac_ALT1_2","","","","","","","","","","","",""
"null","<span style='color:GreenYellow; font-size: 70px;'>正确! </span>","null","html-keyboard-response","12","85717","0.0-7.0-1.0-1.0-0.0-1.1","3","3","3","3","2","3","3","3","3","3","2","2","2","4","4","4","2","2","4","4","5","5","5","5","2","3","1","4","1","1","0","1","1","0","0","1","1","1","1","1","0","1","0","1","4","5","2","2","5","1","2","2","3","4","1","799285561922822145","陈","51","","","","","","","","","","","","","","","","","","","","","","","","","","","","","","feedback_test","","","","","","","","","","","",""
"820","","f","psychophysics","13","87538","0.0-7.0-1.0-1.0-0.0-0.2","3","3","3","3","2","3","3","3","3","3","2","2","2","4","4","4","2","2","4","4","5","5","5","5","2","3","1","4","1","1","0","1","1","0","0","1","1","1","1","1","0","1","0","1","4","5","2","2","5","1","2","2","3","4","1","799285561922822145","陈","51","","","","nonmatch","","","","","","","","","","","","","","key","f","16.666","720","446","f","true","nonmatch","img/triangle.png","五边","三角","ALT1_2","prac_ALT1_2","","","","","","","","","","","",""
"null","<span style='color:GreenYellow; font-size: 70px;'>正确! </span>","null","html-keyboard-response","14","88039","0.0-7.0-1.0-1.0-0.0-1.2","3","3","3","3","2","3","3","3","3","3","2","2","2","4","4","4","2","2","4","4","5","5","5","5","2","3","1","4","1","1","0","1","1","0","0","1","1","1","1","1","0","1","0","1","4","5","2","2","5","1","2","2","3","4","1","799285561922822145","陈","51","","","","","","","","","","","","","","","","","","","","","","","","","","","","","","feedback_test","","","","","","","","","","","",""
"693","","f","psychophysics","15","89733","0.0-7.0-1.0-1.0-0.0-0.3","3","3","3","3","2","3","3","3","3","3","2","2","2","4","4","4","2","2","4","4","5","5","5","5","2","3","1","4","1","1","0","1","1","0","0","1","1","1","1","1","0","1","0","1","4","5","2","2","5","1","2","2","3","4","1","799285561922822145","陈","51","","","","nonmatch","","","","","","","","","","","","","","key","f","16.668620000000082","720","446","f","true","nonmatch","img/triangle.png","圆形","三角","ALT1_2","prac_ALT1_2","","","","","","","","","","","",""
"null","<span style='color:GreenYellow; font-size: 70px;'>正确! </span>","null","html-keyboard-response","16","90234","0.0-7.0-1.0-1.0-0.0-1.3","3","3","3","3","2","3","3","3","3","3","2","2","2","4","4","4","2","2","4","4","5","5","5","5","2","3","1","4","1","1","0","1","1","0","0","1","1","1","1","1","0","1","0","1","4","5","2","2","5","1","2","2","3","4","1","799285561922822145","陈","51","","","","","","","","","","","","","","","","","","","","","","","","","","","","","","feedback_test","","","","","","","","","","","",""
"979","","j","psychophysics","17","92214","0.0-7.0-1.0-1.0-0.0-0.4","3","3","3","3","2","3","3","3","3","3","2","2","2","4","4","4","2","2","4","4","5","5","5","5","2","3","1","4","1","1","0","1","1","0","0","1","1","1","1","1","0","1","0","1","4","5","2","2","5","1","2","2","3","4","1","799285561922822145","陈","51","","","","match","","","","","","","","","","","","","","key","j","16.66600000000003","720","446","j","true","match","img/pentagon.png","五边","五边","ALT1_2","prac_ALT1_2","","","","","","","","","","","",""
"null","<span style='color:GreenYellow; font-size: 70px;'>正确! </span>","null","html-keyboard-response","18","92715","0.0-7.0-1.0-1.0-0.0-1.4","3","3","3","3","2","3","3","3","3","3","2","2","2","4","4","4","2","2","4","4","5","5","5","5","2","3","1","4","1","1","0","1","1","0","0","1","1","1","1","1","0","1","0","1","4","5","2","2","5","1","2","2","3","4","1","799285561922822145","陈","51","","","","","","","","","","","","","","","","","","","","","","","","","","","","","","feedback_test","","","","","","","","","","","",""
"733","","j","psychophysics","19","94449","0.0-7.0-1.0-1.0-0.0-0.5","3","3","3","3","2","3","3","3","3","3","2","2","2","4","4","4","2","2","4","4","5","5","5","5","2","3","1","4","1","1","0","1","1","0","0","1","1","1","1","1","0","1","0","1","4","5","2","2","5","1","2","2","3","4","1","799285561922822145","陈","51","","","","match","","","","","","","","","","","","","","key","j","16.665999999999983","720","446","f","false","nonmatch","img/triangle.png","菱形","三角","ALT1_2","prac_ALT1_2","","","","","","","","","","","",""
"null","<span style='color:red; font-size: 70px;'>错误! </span>","null","html-keyboard-response","20","94950","0.0-7.0-1.0-1.0-0.0-1.5","3","3","3","3","2","3","3","3","3","3","2","2","2","4","4","4","2","2","4","4","5","5","5","5","2","3","1","4","1","1","0","1","1","0","0","1","1","1","1","1","0","1","0","1","4","5","2","2","5","1","2","2","3","4","1","799285561922822145","陈","51","","","","","","","","","","","","","","","","","","","","","","","","","","","","","","feedback_test","","","","","","","","","","","",""
"633","","j","psychophysics","21","96585","0.0-7.0-1.0-1.0-0.0-0.6","3","3","3","3","2","3","3","3","3","3","2","2","2","4","4","4","2","2","4","4","5","5","5","5","2","3","1","4","1","1","0","1","1","0","0","1","1","1","1","1","0","1","0","1","4","5","2","2","5","1","2","2","3","4","1","799285561922822145","陈","51","","","","match","","","","","","","","","","","","","","key","j","16.66599999999999","720","446","j","true","match","img/circle.png","圆形","圆形","ALT1_2","prac_ALT1_2","","","","","","","","","","","",""
"null","<span style='color:GreenYellow; font-size: 70px;'>正确! </span>","null","html-keyboard-response","22","97085","0.0-7.0-1.0-1.0-0.0-1.6","3","3","3","3","2","3","3","3","3","3","2","2","2","4","4","4","2","2","4","4","5","5","5","5","2","3","1","4","1","1","0","1","1","0","0","1","1","1","1","1","0","1","0","1","4","5","2","2","5","1","2","2","3","4","1","799285561922822145","陈","51","","","","","","","","","","","","","","","","","","","","","","","","","","","","","","feedback_test","","","","","","","","","","","",""
"919","","j","psychophysics","23","99005","0.0-7.0-1.0-1.0-0.0-0.7","3","3","3","3","2","3","3","3","3","3","2","2","2","4","4","4","2","2","4","4","5","5","5","5","2","3","1","4","1","1","0","1","1","0","0","1","1","1","1","1","0","1","0","1","4","5","2","2","5","1","2","2","3","4","1","799285561922822145","陈","51","","","","match","","","","","","","","","","","","","","key","j","16.668307017543906","720","446","j","true","match","img/pentagon.png","五边","五边","ALT1_2","prac_ALT1_2","","","","","","","","","","","",""
"null","<span style='color:GreenYellow; font-size: 70px;'>正确! </span>","null","html-keyboard-response","24","99506","0.0-7.0-1.0-1.0-0.0-1.7","3","3","3","3","2","3","3","3","3","3","2","2","2","4","4","4","2","2","4","4","5","5","5","5","2","3","1","4","1","1","0","1","1","0","0","1","1","1","1","1","0","1","0","1","4","5","2","2","5","1","2","2","3","4","1","799285561922822145","陈","51","","","","","","","","","","","","","","","","","","","","","","","","","","","","","","feedback_test","","","","","","","","","","","",""
"696","","j","psychophysics","25","101204","0.0-7.0-1.0-1.0-0.0-0.8","3","3","3","3","2","3","3","3","3","3","2","2","2","4","4","4","2","2","4","4","5","5","5","5","2","3","1","4","1","1","0","1","1","0","0","1","1","1","1","1","0","1","0","1","4","5","2","2","5","1","2","2","3","4","1","799285561922822145","陈","51","","","","match","","","","","","","","","","","","","","key","j","16.66599999999991","720","446","j","true","match","img/triangle.png","三角","三角","ALT1_2","prac_ALT1_2","","","","","","","","","","","",""
"null","<span style='color:GreenYellow; font-size: 70px;'>正确! </span>","null","html-keyboard-response","26","101705","0.0-7.0-1.0-1.0-0.0-1.8","3","3","3","3","2","3","3","3","3","3","2","2","2","4","4","4","2","2","4","4","5","5","5","5","2","3","1","4","1","1","0","1","1","0","0","1","1","1","1","1","0","1","0","1","4","5","2","2","5","1","2","2","3","4","1","799285561922822145","陈","51","","","","","","","","","","","","","","","","","","","","","","","","","","","","","","feedback_test","","","","","","","","","","","",""
"771","","j","psychophysics","27","103478","0.0-7.0-1.0-1.0-0.0-0.9","3","3","3","3","2","3","3","3","3","3","2","2","2","4","4","4","2","2","4","4","5","5","5","5","2","3","1","4","1","1","0","1","1","0","0","1","1","1","1","1","0","1","0","1","4","5","2","2","5","1","2","2","3","4","1","799285561922822145","陈","51","","","","match","","","","","","","","","","","","","","key","j","16.665999999999933","720","446","j","true","match","img/diamond.png","菱形","菱形","ALT1_2","prac_ALT1_2","","","","","","","","","","","",""
"null","<span style='color:GreenYellow; font-size: 70px;'>正确! </span>","null","html-keyboard-response","28","103980","0.0-7.0-1.0-1.0-0.0-1.9","3","3","3","3","2","3","3","3","3","3","2","2","2","4","4","4","2","2","4","4","5","5","5","5","2","3","1","4","1","1","0","1","1","0","0","1","1","1","1","1","0","1","0","1","4","5","2","2","5","1","2","2","3","4","1","799285561922822145","陈","51","","","","","","","","","","","","","","","","","","","","","","","","","","","","","","feedback_test","","","","","","","","","","","",""
"769","","f","psychophysics","29","105751","0.0-7.0-1.0-1.0-0.0-0.10","3","3","3","3","2","3","3","3","3","3","2","2","2","4","4","4","2","2","4","4","5","5","5","5","2","3","1","4","1","1","0","1","1","0","0","1","1","1","1","1","0","1","0","1","4","5","2","2","5","1","2","2","3","4","1","799285561922822145","陈","51","","","","nonmatch","","","","","","","","","","","","","","key","f","16.665999999999933","720","446","f","true","nonmatch","img/diamond.png","五边","菱形","ALT1_2","prac_ALT1_2","","","","","","","","","","","",""
"null","<span style='color:GreenYellow; font-size: 70px;'>正确! </span>","null","html-keyboard-response","30","106252","0.0-7.0-1.0-1.0-0.0-1.10","3","3","3","3","2","3","3","3","3","3","2","2","2","4","4","4","2","2","4","4","5","5","5","5","2","3","1","4","1","1","0","1","1","0","0","1","1","1","1","1","0","1","0","1","4","5","2","2","5","1","2","2","3","4","1","799285561922822145","陈","51","","","","","","","","","","","","","","","","","","","","","","","","","","","","","","feedback_test","","","","","","","","","","","",""
"768","","j","psychophysics","31","108022","0.0-7.0-1.0-1.0-0.0-0.11","3","3","3","3","2","3","3","3","3","3","2","2","2","4","4","4","2","2","4","4","5","5","5","5","2","3","1","4","1","1","0","1","1","0","0","1","1","1","1","1","0","1","0","1","4","5","2","2","5","1","2","2","3","4","1","799285561922822145","陈","51","","","","match","","","","","","","","","","","","","","key","j","16.665999999999933","720","446","f","false","nonmatch","img/pentagon.png","三角","五边","ALT1_2","prac_ALT1_2","","","","","","","","","","","",""
"null","<span style='color:red; font-size: 70px;'>错误! </span>","null","html-keyboard-response","32","108523","0.0-7.0-1.0-1.0-0.0-1.11","3","3","3","3","2","3","3","3","3","3","2","2","2","4","4","4","2","2","4","4","5","5","5","5","2","3","1","4","1","1","0","1","1","0","0","1","1","1","1","1","0","1","0","1","4","5","2","2","5","1","2","2","3","4","1","799285561922822145","陈","51","","","","","","","","","","","","","","","","","","","","","","","","","","","","","","feedback_test","","","","","","","","","","","",""
"683","","f","psychophysics","33","110207","0.0-7.0-1.0-1.0-0.0-0.12","3","3","3","3","2","3","3","3","3","3","2","2","2","4","4","4","2","2","4","4","5","5","5","5","2","3","1","4","1","1","0","1","1","0","0","1","1","1","1","1","0","1","0","1","4","5","2","2","5","1","2","2","3","4","1","799285561922822145","陈","51","","","","nonmatch","","","","","","","","","","","","","","key","f","16.668619999999937","720","446","f","true","nonmatch","img/circle.png","三角","圆形","ALT1_2","prac_ALT1_2","","","","","","","","","","","",""
"null","<span style='color:GreenYellow; font-size: 70px;'>正确! </span>","null","html-keyboard-response","34","110708","0.0-7.0-1.0-1.0-0.0-1.12","3","3","3","3","2","3","3","3","3","3","2","2","2","4","4","4","2","2","4","4","5","5","5","5","2","3","1","4","1","1","0","1","1","0","0","1","1","1","1","1","0","1","0","1","4","5","2","2","5","1","2","2","3","4","1","799285561922822145","陈","51","","","","","","","","","","","","","","","","","","","","","","","","","","","","","","feedback_test","","","","","","","","","","","",""
"738","","f","psychophysics","35","112447","0.0-7.0-1.0-1.0-0.0-0.13","3","3","3","3","2","3","3","3","3","3","2","2","2","4","4","4","2","2","4","4","5","5","5","5","2","3","1","4","1","1","0","1","1","0","0","1","1","1","1","1","0","1","0","1","4","5","2","2","5","1","2","2","3","4","1","799285561922822145","陈","51","","","","nonmatch","","","","","","","","","","","","","","key","f","16.665999999999983","720","446","f","true","nonmatch","img/pentagon.png","圆形","五边","ALT1_2","prac_ALT1_2","","","","","","","","","","","",""
"null","<span style='color:GreenYellow; font-size: 70px;'>正确! </span>","null","html-keyboard-response","36","112948","0.0-7.0-1.0-1.0-0.0-1.13","3","3","3","3","2","3","3","3","3","3","2","2","2","4","4","4","2","2","4","4","5","5","5","5","2","3","1","4","1","1","0","1","1","0","0","1","1","1","1","1","0","1","0","1","4","5","2","2","5","1","2","2","3","4","1","799285561922822145","陈","51","","","","","","","","","","","","","","","","","","","","","","","","","","","","","","feedback_test","","","","","","","","","","","",""
"849","","j","psychophysics","37","114799","0.0-7.0-1.0-1.0-0.0-0.14","3","3","3","3","2","3","3","3","3","3","2","2","2","4","4","4","2","2","4","4","5","5","5","5","2","3","1","4","1","1","0","1","1","0","0","1","1","1","1","1","0","1","0","1","4","5","2","2","5","1","2","2","3","4","1","799285561922822145","陈","51","","","","match","","","","","","","","","","","","","","key","j","16.666000000000086","720","446","j","true","match","img/triangle.png","三角","三角","ALT1_2","prac_ALT1_2","","","","","","","","","","","",""
"null","<span style='color:GreenYellow; font-size: 70px;'>正确! </span>","null","html-keyboard-response","38","115300","0.0-7.0-1.0-1.0-0.0-1.14","3","3","3","3","2","3","3","3","3","3","2","2","2","4","4","4","2","2","4","4","5","5","5","5","2","3","1","4","1","1","0","1","1","0","0","1","1","1","1","1","0","1","0","1","4","5","2","2","5","1","2","2","3","4","1","799285561922822145","陈","51","","","","","","","","","","","","","","","","","","","","","","","","","","","","","","feedback_test","","","","","","","","","","","",""
"743","","f","psychophysics","39","117045","0.0-7.0-1.0-1.0-0.0-0.15","3","3","3","3","2","3","3","3","3","3","2","2","2","4","4","4","2","2","4","4","5","5","5","5","2","3","1","4","1","1","0","1","1","0","0","1","1","1","1","1","0","1","0","1","4","5","2","2","5","1","2","2","3","4","1","799285561922822145","陈","51","","","","nonmatch","","","","","","","","","","","","","","key","f","16.665999999999958","720","446","f","true","nonmatch","img/circle.png","菱形","圆形","ALT1_2","prac_ALT1_2","","","","","","","","","","","",""
"null","<span style='color:GreenYellow; font-size: 70px;'>正确! </span>","null","html-keyboard-response","40","117546","0.0-7.0-1.0-1.0-0.0-1.15","3","3","3","3","2","3","3","3","3","3","2","2","2","4","4","4","2","2","4","4","5","5","5","5","2","3","1","4","1","1","0","1","1","0","0","1","1","1","1","1","0","1","0","1","4","5","2","2","5","1","2","2","3","4","1","799285561922822145","陈","51","","","","","","","","","","","","","","","","","","","","","","","","","","","","","","feedback_test","","","","","","","","","","","",""
"855","","f","psychophysics","41","119403","0.0-7.0-1.0-1.0-0.0-0.16","3","3","3","3","2","3","3","3","3","3","2","2","2","4","4","4","2","2","4","4","5","5","5","5","2","3","1","4","1","1","0","1","1","0","0","1","1","1","1","1","0","1","0","1","4","5","2","2","5","1","2","2","3","4","1","799285561922822145","陈","51","","","","nonmatch","","","","","","","","","","","","","","key","f","16.66839090909092","720","446","f","true","nonmatch","img/diamond.png","三角","菱形","ALT1_2","prac_ALT1_2","","","","","","","","","","","",""
"null","<span style='color:GreenYellow; font-size: 70px;'>正确! </span>","null","html-keyboard-response","42","119904","0.0-7.0-1.0-1.0-0.0-1.16","3","3","3","3","2","3","3","3","3","3","2","2","2","4","4","4","2","2","4","4","5","5","5","5","2","3","1","4","1","1","0","1","1","0","0","1","1","1","1","1","0","1","0","1","4","5","2","2","5","1","2","2","3","4","1","799285561922822145","陈","51","","","","","","","","","","","","","","","","","","","","","","","","","","","","","","feedback_test","","","","","","","","","","","",""
"680","","f","psychophysics","43","121587","0.0-7.0-1.0-1.0-0.0-0.17","3","3","3","3","2","3","3","3","3","3","2","2","2","4","4","4","2","2","4","4","5","5","5","5","2","3","1","4","1","1","0","1","1","0","0","1","1","1","1","1","0","1","0","1","4","5","2","2","5","1","2","2","3","4","1","799285561922822145","陈","51","","","","nonmatch","","","","","","","","","","","","","","key","f","16.666000000000057","720","446","j","false","match","img/circle.png","圆形","圆形","ALT1_2","prac_ALT1_2","","","","","","","","","","","",""
"null","<span style='color:red; font-size: 70px;'>错误! </span>","null","html-keyboard-response","44","122088","0.0-7.0-1.0-1.0-0.0-1.17","3","3","3","3","2","3","3","3","3","3","2","2","2","4","4","4","2","2","4","4","5","5","5","5","2","3","1","4","1","1","0","1","1","0","0","1","1","1","1","1","0","1","0","1","4","5","2","2","5","1","2","2","3","4","1","799285561922822145","陈","51","","","","","","","","","","","","","","","","","","","","","","","","","","","","","","feedback_test","","","","","","","","","","","",""
"826","","f","psychophysics","45","123918","0.0-7.0-1.0-1.0-0.0-0.18","3","3","3","3","2","3","3","3","3","3","2","2","2","4","4","4","2","2","4","4","5","5","5","5","2","3","1","4","1","1","0","1","1","0","0","1","1","1","1","1","0","1","0","1","4","5","2","2","5","1","2","2","3","4","1","799285561922822145","陈","51","","","","nonmatch","","","","","","","","","","","","","","key","f","16.666","720","446","f","true","nonmatch","img/diamond.png","圆形","菱形","ALT1_2","prac_ALT1_2","","","","","","","","","","","",""
"null","<span style='color:GreenYellow; font-size: 70px;'>正确! </span>","null","html-keyboard-response","46","124418","0.0-7.0-1.0-1.0-0.0-1.18","3","3","3","3","2","3","3","3","3","3","2","2","2","4","4","4","2","2","4","4","5","5","5","5","2","3","1","4","1","1","0","1","1","0","0","1","1","1","1","1","0","1","0","1","4","5","2","2","5","1","2","2","3","4","1","799285561922822145","陈","51","","","","","","","","","","","","","","","","","","","","","","","","","","","","","","feedback_test","","","","","","","","","","","",""
"644","","f","psychophysics","47","126065","0.0-7.0-1.0-1.0-0.0-0.19","3","3","3","3","2","3","3","3","3","3","2","2","2","4","4","4","2","2","4","4","5","5","5","5","2","3","1","4","1","1","0","1","1","0","0","1","1","1","1","1","0","1","0","1","4","5","2","2","5","1","2","2","3","4","1","799285561922822145","陈","51","","","","nonmatch","","","","","","","","","","","","","","key","f","16.665999999999965","720","446","j","false","match","img/pentagon.png","五边","五边","ALT1_2","prac_ALT1_2","","","","","","","","","","","",""
"null","<span style='color:red; font-size: 70px;'>错误! </span>","null","html-keyboard-response","48","126566","0.0-7.0-1.0-1.0-0.0-1.19","3","3","3","3","2","3","3","3","3","3","2","2","2","4","4","4","2","2","4","4","5","5","5","5","2","3","1","4","1","1","0","1","1","0","0","1","1","1","1","1","0","1","0","1","4","5","2","2","5","1","2","2","3","4","1","799285561922822145","陈","51","","","","","","","","","","","","","","","","","","","","","","","","","","","","","","feedback_test","","","","","","","","","","","",""
"782","","f","psychophysics","49","128349","0.0-7.0-1.0-1.0-0.0-0.20","3","3","3","3","2","3","3","3","3","3","2","2","2","4","4","4","2","2","4","4","5","5","5","5","2","3","1","4","1","1","0","1","1","0","0","1","1","1","1","1","0","1","0","1","4","5","2","2","5","1","2","2","3","4","1","799285561922822145","陈","51","","","","nonmatch","","","","","","","","","","","","","","key","f","16.66599999999991","720","446","f","true","nonmatch","img/circle.png","五边","圆形","ALT1_2","prac_ALT1_2","","","","","","","","","","","",""
"null","<span style='color:GreenYellow; font-size: 70px;'>正确! </span>","null","html-keyboard-response","50","128850","0.0-7.0-1.0-1.0-0.0-1.20","3","3","3","3","2","3","3","3","3","3","2","2","2","4","4","4","2","2","4","4","5","5","5","5","2","3","1","4","1","1","0","1","1","0","0","1","1","1","1","1","0","1","0","1","4","5","2","2","5","1","2","2","3","4","1","799285561922822145","陈","51","","","","","","","","","","","","","","","","","","","","","","","","","","","","","","feedback_test","","","","","","","","","","","",""
"817","","j","psychophysics","51","130668","0.0-7.0-1.0-1.0-0.0-0.21","3","3","3","3","2","3","3","3","3","3","2","2","2","4","4","4","2","2","4","4","5","5","5","5","2","3","1","4","1","1","0","1","1","0","0","1","1","1","1","1","0","1","0","1","4","5","2","2","5","1","2","2","3","4","1","799285561922822145","陈","51","","","","match","","","","","","","","","","","","","","key","j","16.66842592592595","720","446","j","true","match","img/circle.png","圆形","圆形","ALT1_2","prac_ALT1_2","","","","","","","","","","","",""
"null","<span style='color:GreenYellow; font-size: 70px;'>正确! </span>","null","html-keyboard-response","52","131169","0.0-7.0-1.0-1.0-0.0-1.21","3","3","3","3","2","3","3","3","3","3","2","2","2","4","4","4","2","2","4","4","5","5","5","5","2","3","1","4","1","1","0","1","1","0","0","1","1","1","1","1","0","1","0","1","4","5","2","2","5","1","2","2","3","4","1","799285561922822145","陈","51","","","","","","","","","","","","","","","","","","","","","","","","","","","","","","feedback_test","","","","","","","","","","","",""
"814","","f","psychophysics","53","132985","0.0-7.0-1.0-1.0-0.0-0.22","3","3","3","3","2","3","3","3","3","3","2","2","2","4","4","4","2","2","4","4","5","5","5","5","2","3","1","4","1","1","0","1","1","0","0","1","1","1","1","1","0","1","0","1","4","5","2","2","5","1","2","2","3","4","1","799285561922822145","陈","51","","","","nonmatch","","","","","","","","","","","","","","key","f","16.665999999999865","720","446","f","true","nonmatch","img/pentagon.png","菱形","五边","ALT1_2","prac_ALT1_2","","","","","","","","","","","",""
"null","<span style='color:GreenYellow; font-size: 70px;'>正确! </span>","null","html-keyboard-response","54","133487","0.0-7.0-1.0-1.0-0.0-1.22","3","3","3","3","2","3","3","3","3","3","2","2","2","4","4","4","2","2","4","4","5","5","5","5","2","3","1","4","1","1","0","1","1","0","0","1","1","1","1","1","0","1","0","1","4","5","2","2","5","1","2","2","3","4","1","799285561922822145","陈","51","","","","","","","","","","","","","","","","","","","","","","","","","","","","","","feedback_test","","","","","","","","","","","",""
"1199","","j","psychophysics","55","135688","0.0-7.0-1.0-1.0-0.0-0.23","3","3","3","3","2","3","3","3","3","3","2","2","2","4","4","4","2","2","4","4","5","5","5","5","2","3","1","4","1","1","0","1","1","0","0","1","1","1","1","1","0","1","0","1","4","5","2","2","5","1","2","2","3","4","1","799285561922822145","陈","51","","","","match","","","","","","","","","","","","","","key","j","16.665999999999883","720","446","j","true","match","img/triangle.png","三角","三角","ALT1_2","prac_ALT1_2","","","","","","","","","","","",""
"null","<span style='color:GreenYellow; font-size: 70px;'>正确! </span>","null","html-keyboard-response","56","136188","0.0-7.0-1.0-1.0-0.0-1.23","3","3","3","3","2","3","3","3","3","3","2","2","2","4","4","4","2","2","4","4","5","5","5","5","2","3","1","4","1","1","0","1","1","0","0","1","1","1","1","1","0","1","0","1","4","5","2","2","5","1","2","2","3","4","1","799285561922822145","陈","51","","","","","","","","","","","","","","","","","","","","","","","","","","","","","","feedback_test","","","","","","","","","","","",""
"699","","j","psychophysics","57","137890","0.0-7.0-1.0-1.0-0.0-0.24","3","3","3","3","2","3","3","3","3","3","2","2","2","4","4","4","2","2","4","4","5","5","5","5","2","3","1","4","1","1","0","1","1","0","0","1","1","1","1","1","0","1","0","1","4","5","2","2","5","1","2","2","3","4","1","799285561922822145","陈","51","","","","match","","","","","","","","","","","","","","key","j","16.666000000000057","720","446","j","true","match","img/circle.png","圆形","圆形","ALT1_2","prac_ALT1_2","","","","","","","","","","","",""
"null","<span style='color:GreenYellow; font-size: 70px;'>正确! </span>","null","html-keyboard-response","58","138391","0.0-7.0-1.0-1.0-0.0-1.24","3","3","3","3","2","3","3","3","3","3","2","2","2","4","4","4","2","2","4","4","5","5","5","5","2","3","1","4","1","1","0","1","1","0","0","1","1","1","1","1","0","1","0","1","4","5","2","2","5","1","2","2","3","4","1","799285561922822145","陈","51","","","","","","","","","","","","","","","","","","","","","","","","","","","","","","feedback_test","","","","","","","","","","","",""
"774","","j","psychophysics","59","140167","0.0-7.0-1.0-1.0-0.0-0.25","3","3","3","3","2","3","3","3","3","3","2","2","2","4","4","4","2","2","4","4","5","5","5","5","2","3","1","4","1","1","0","1","1","0","0","1","1","1","1","1","0","1","0","1","4","5","2","2","5","1","2","2","3","4","1","799285561922822145","陈","51","","","","match","","","","","","","","","","","","","","key","j","16.668495238095055","720","446","j","true","match","img/diamond.png","菱形","菱形","ALT1_2","prac_ALT1_2","","","","","","","","","","","",""
"null","<span style='color:GreenYellow; font-size: 70px;'>正确! </span>","null","html-keyboard-response","60","140669","0.0-7.0-1.0-1.0-0.0-1.25","3","3","3","3","2","3","3","3","3","3","2","2","2","4","4","4","2","2","4","4","5","5","5","5","2","3","1","4","1","1","0","1","1","0","0","1","1","1","1","1","0","1","0","1","4","5","2","2","5","1","2","2","3","4","1","799285561922822145","陈","51","","","","","","","","","","","","","","","","","","","","","","","","","","","","","","feedback_test","","","","","","","","","","","",""
"628","","f","psychophysics","61","142299","0.0-7.0-1.0-1.0-0.0-0.26","3","3","3","3","2","3","3","3","3","3","2","2","2","4","4","4","2","2","4","4","5","5","5","5","2","3","1","4","1","1","0","1","1","0","0","1","1","1","1","1","0","1","0","1","4","5","2","2","5","1","2","2","3","4","1","799285561922822145","陈","51","","","","nonmatch","","","","","","","","","","","","","","key","f","16.66600000000014","720","446","f","true","nonmatch","img/circle.png","三角","圆形","ALT1_2","prac_ALT1_2","","","","","","","","","","","",""
"null","<span style='color:GreenYellow; font-size: 70px;'>正确! </span>","null","html-keyboard-response","62","142800","0.0-7.0-1.0-1.0-0.0-1.26","3","3","3","3","2","3","3","3","3","3","2","2","2","4","4","4","2","2","4","4","5","5","5","5","2","3","1","4","1","1","0","1","1","0","0","1","1","1","1","1","0","1","0","1","4","5","2","2","5","1","2","2","3","4","1","799285561922822145","陈","51","","","","","","","","","","","","","","","","","","","","","","","","","","","","","","feedback_test","","","","","","","","","","","",""
"671","","j","psychophysics","63","144472","0.0-7.0-1.0-1.0-0.0-0.27","3","3","3","3","2","3","3","3","3","3","2","2","2","4","4","4","2","2","4","4","5","5","5","5","2","3","1","4","1","1","0","1","1","0","0","1","1","1","1","1","0","1","0","1","4","5","2","2","5","1","2","2","3","4","1","799285561922822145","陈","51","","","","match","","","","","","","","","","","","","","key","j","16.666000000000086","720","446","j","true","match","img/circle.png","圆形","圆形","ALT1_2","prac_ALT1_2","","","","","","","","","","","",""
"null","<span style='color:GreenYellow; font-size: 70px;'>正确! </span>","null","html-keyboard-response","64","144973","0.0-7.0-1.0-1.0-0.0-1.27","3","3","3","3","2","3","3","3","3","3","2","2","2","4","4","4","2","2","4","4","5","5","5","5","2","3","1","4","1","1","0","1","1","0","0","1","1","1","1","1","0","1","0","1","4","5","2","2","5","1","2","2","3","4","1","799285561922822145","陈","51","","","","","","","","","","","","","","","","","","","","","","","","","","","","","","feedback_test","","","","","","","","","","","",""
"693","","j","psychophysics","65","146668","0.0-7.0-1.0-1.0-0.0-0.28","3","3","3","3","2","3","3","3","3","3","2","2","2","4","4","4","2","2","4","4","5","5","5","5","2","3","1","4","1","1","0","1","1","0","0","1","1","1","1","1","0","1","0","1","4","5","2","2","5","1","2","2","3","4","1","799285561922822145","陈","51","","","","match","","","","","","","","","","","","","","key","j","16.666000000000057","720","446","j","true","match","img/triangle.png","三角","三角","ALT1_2","prac_ALT1_2","","","","","","","","","","","",""
"null","<span style='color:GreenYellow; font-size: 70px;'>正确! </span>","null","html-keyboard-response","66","147169","0.0-7.0-1.0-1.0-0.0-1.28","3","3","3","3","2","3","3","3","3","3","2","2","2","4","4","4","2","2","4","4","5","5","5","5","2","3","1","4","1","1","0","1","1","0","0","1","1","1","1","1","0","1","0","1","4","5","2","2","5","1","2","2","3","4","1","799285561922822145","陈","51","","","","","","","","","","","","","","","","","","","","","","","","","","","","","","feedback_test","","","","","","","","","","","",""
"546","","j","psychophysics","67","148717","0.0-7.0-1.0-1.0-0.0-0.29","3","3","3","3","2","3","3","3","3","3","2","2","2","4","4","4","2","2","4","4","5","5","5","5","2","3","1","4","1","1","0","1","1","0","0","1","1","1","1","1","0","1","0","1","4","5","2","2","5","1","2","2","3","4","1","799285561922822145","陈","51","","","","match","","","","","","","","","","","","","","key","j","16.666000000000285","720","446","f","false","nonmatch","img/diamond.png","三角","菱形","ALT1_2","prac_ALT1_2","","","","","","","","","","","",""
"null","<span style='color:red; font-size: 70px;'>错误! </span>","null","html-keyboard-response","68","149218","0.0-7.0-1.0-1.0-0.0-1.29","3","3","3","3","2","3","3","3","3","3","2","2","2","4","4","4","2","2","4","4","5","5","5","5","2","3","1","4","1","1","0","1","1","0","0","1","1","1","1","1","0","1","0","1","4","5","2","2","5","1","2","2","3","4","1","799285561922822145","陈","51","","","","","","","","","","","","","","","","","","","","","","","","","","","","","","feedback_test","","","","","","","","","","","",""
"781","","f","psychophysics","69","151000","0.0-7.0-1.0-1.0-0.0-0.30","3","3","3","3","2","3","3","3","3","3","2","2","2","4","4","4","2","2","4","4","5","5","5","5","2","3","1","4","1","1","0","1","1","0","0","1","1","1","1","1","0","1","0","1","4","5","2","2","5","1","2","2","3","4","1","799285561922822145","陈","51","","","","nonmatch","","","","","","","","","","","","","","key","f","16.668509433962203","720","446","f","true","nonmatch","img/diamond.png","圆形","菱形","ALT1_2","prac_ALT1_2","","","","","","","","","","","",""
"null","<span style='color:GreenYellow; font-size: 70px;'>正确! </span>","null","html-keyboard-response","70","151501","0.0-7.0-1.0-1.0-0.0-1.30","3","3","3","3","2","3","3","3","3","3","2","2","2","4","4","4","2","2","4","4","5","5","5","5","2","3","1","4","1","1","0","1","1","0","0","1","1","1","1","1","0","1","0","1","4","5","2","2","5","1","2","2","3","4","1","799285561922822145","陈","51","","","","","","","","","","","","","","","","","","","","","","","","","","","","","","feedback_test","","","","","","","","","","","",""
"622","","j","psychophysics","71","153125","0.0-7.0-1.0-1.0-0.0-0.31","3","3","3","3","2","3","3","3","3","3","2","2","2","4","4","4","2","2","4","4","5","5","5","5","2","3","1","4","1","1","0","1","1","0","0","1","1","1","1","1","0","1","0","1","4","5","2","2","5","1","2","2","3","4","1","799285561922822145","陈","51","","","","match","","","","","","","","","","","","","","key","j","16.66600000000014","720","446","j","true","match","img/triangle.png","三角","三角","ALT1_2","prac_ALT1_2","","","","","","","","","","","",""
"null","<span style='color:GreenYellow; font-size: 70px;'>正确! </span>","null","html-keyboard-response","72","153627","0.0-7.0-1.0-1.0-0.0-1.31","3","3","3","3","2","3","3","3","3","3","2","2","2","4","4","4","2","2","4","4","5","5","5","5","2","3","1","4","1","1","0","1","1","0","0","1","1","1","1","1","0","1","0","1","4","5","2","2","5","1","2","2","3","4","1","799285561922822145","陈","51","","","","","","","","","","","","","","","","","","","","","","","","","","","","","","feedback_test","","","","","","","","","","","",""
"717","","f","psychophysics","73","155345","0.0-7.0-1.0-1.0-0.0-0.32","3","3","3","3","2","3","3","3","3","3","2","2","2","4","4","4","2","2","4","4","5","5","5","5","2","3","1","4","1","1","0","1","1","0","0","1","1","1","1","1","0","1","0","1","4","5","2","2","5","1","2","2","3","4","1","799285561922822145","陈","51","","","","nonmatch","","","","","","","","","","","","","","key","f","16.666000000000007","720","446","f","true","nonmatch","img/triangle.png","菱形","三角","ALT1_2","prac_ALT1_2","","","","","","","","","","","",""
"null","<span style='color:GreenYellow; font-size: 70px;'>正确! </span>","null","html-keyboard-response","74","155846","0.0-7.0-1.0-1.0-0.0-1.32","3","3","3","3","2","3","3","3","3","3","2","2","2","4","4","4","2","2","4","4","5","5","5","5","2","3","1","4","1","1","0","1","1","0","0","1","1","1","1","1","0","1","0","1","4","5","2","2","5","1","2","2","3","4","1","799285561922822145","陈","51","","","","","","","","","","","","","","","","","","","","","","","","","","","","","","feedback_test","","","","","","","","","","","",""
"781","","f","psychophysics","75","157628","0.0-7.0-1.0-1.0-0.0-0.33","3","3","3","3","2","3","3","3","3","3","2","2","2","4","4","4","2","2","4","4","5","5","5","5","2","3","1","4","1","1","0","1","1","0","0","1","1","1","1","1","0","1","0","1","4","5","2","2","5","1","2","2","3","4","1","799285561922822145","陈","51","","","","nonmatch","","","","","","","","","","","","","","key","f","16.666000000000185","720","446","f","true","nonmatch","img/triangle.png","五边","三角","ALT1_2","prac_ALT1_2","","","","","","","","","","","",""
"null","<span style='color:GreenYellow; font-size: 70px;'>正确! </span>","null","html-keyboard-response","76","158130","0.0-7.0-1.0-1.0-0.0-1.33","3","3","3","3","2","3","3","3","3","3","2","2","2","4","4","4","2","2","4","4","5","5","5","5","2","3","1","4","1","1","0","1","1","0","0","1","1","1","1","1","0","1","0","1","4","5","2","2","5","1","2","2","3","4","1","799285561922822145","陈","51","","","","","","","","","","","","","","","","","","","","","","","","","","","","","","feedback_test","","","","","","","","","","","",""
"676","","f","psychophysics","77","159808","0.0-7.0-1.0-1.0-0.0-0.34","3","3","3","3","2","3","3","3","3","3","2","2","2","4","4","4","2","2","4","4","5","5","5","5","2","3","1","4","1","1","0","1","1","0","0","1","1","1","1","1","0","1","0","1","4","5","2","2","5","1","2","2","3","4","1","799285561922822145","陈","51","","","","nonmatch","","","","","","","","","","","","","","key","f","16.66863000000012","720","446","f","true","nonmatch","img/circle.png","五边","圆形","ALT1_2","prac_ALT1_2","","","","","","","","","","","",""
"null","<span style='color:GreenYellow; font-size: 70px;'>正确! </span>","null","html-keyboard-response","78","160309","0.0-7.0-1.0-1.0-0.0-1.34","3","3","3","3","2","3","3","3","3","3","2","2","2","4","4","4","2","2","4","4","5","5","5","5","2","3","1","4","1","1","0","1","1","0","0","1","1","1","1","1","0","1","0","1","4","5","2","2","5","1","2","2","3","4","1","799285561922822145","陈","51","","","","","","","","","","","","","","","","","","","","","","","","","","","","","","feedback_test","","","","","","","","","","","",""
"860","","j","psychophysics","79","162170","0.0-7.0-1.0-1.0-0.0-0.35","3","3","3","3","2","3","3","3","3","3","2","2","2","4","4","4","2","2","4","4","5","5","5","5","2","3","1","4","1","1","0","1","1","0","0","1","1","1","1","1","0","1","0","1","4","5","2","2","5","1","2","2","3","4","1","799285561922822145","陈","51","","","","match","","","","","","","","","","","","","","key","j","16.66599999999982","720","446","j","true","match","img/pentagon.png","五边","五边","ALT1_2","prac_ALT1_2","","","","","","","","","","","",""
"null","<span style='color:GreenYellow; font-size: 70px;'>正确! </span>","null","html-keyboard-response","80","162671","0.0-7.0-1.0-1.0-0.0-1.35","3","3","3","3","2","3","3","3","3","3","2","2","2","4","4","4","2","2","4","4","5","5","5","5","2","3","1","4","1","1","0","1","1","0","0","1","1","1","1","1","0","1","0","1","4","5","2","2","5","1","2","2","3","4","1","799285561922822145","陈","51","","","","","","","","","","","","","","","","","","","","","","","","","","","","","","feedback_test","","","","","","","","","","","",""
"1041","","j","psychophysics","81","164714","0.0-7.0-1.0-1.0-0.0-0.36","3","3","3","3","2","3","3","3","3","3","2","2","2","4","4","4","2","2","4","4","5","5","5","5","2","3","1","4","1","1","0","1","1","0","0","1","1","1","1","1","0","1","0","1","4","5","2","2","5","1","2","2","3","4","1","799285561922822145","陈","51","","","","match","","","","","","","","","","","","","","key","j","16.666000000000086","720","446","j","true","match","img/diamond.png","菱形","菱形","ALT1_2","prac_ALT1_2","","","","","","","","","","","",""
"null","<span style='color:GreenYellow; font-size: 70px;'>正确! </span>","null","html-keyboard-response","82","165215","0.0-7.0-1.0-1.0-0.0-1.36","3","3","3","3","2","3","3","3","3","3","2","2","2","4","4","4","2","2","4","4","5","5","5","5","2","3","1","4","1","1","0","1","1","0","0","1","1","1","1","1","0","1","0","1","4","5","2","2","5","1","2","2","3","4","1","799285561922822145","陈","51","","","","","","","","","","","","","","","","","","","","","","","","","","","","","","feedback_test","","","","","","","","","","","",""
"764","","f","psychophysics","83","166982","0.0-7.0-1.0-1.0-0.0-0.37","3","3","3","3","2","3","3","3","3","3","2","2","2","4","4","4","2","2","4","4","5","5","5","5","2","3","1","4","1","1","0","1","1","0","0","1","1","1","1","1","0","1","0","1","4","5","2","2","5","1","2","2","3","4","1","799285561922822145","陈","51","","","","nonmatch","","","","","","","","","","","","","","key","f","16.66600000000021","720","446","f","true","nonmatch","img/pentagon.png","三角","五边","ALT1_2","prac_ALT1_2","","","","","","","","","","","",""
"null","<span style='color:GreenYellow; font-size: 70px;'>正确! </span>","null","html-keyboard-response","84","167483","0.0-7.0-1.0-1.0-0.0-1.37","3","3","3","3","2","3","3","3","3","3","2","2","2","4","4","4","2","2","4","4","5","5","5","5","2","3","1","4","1","1","0","1","1","0","0","1","1","1","1","1","0","1","0","1","4","5","2","2","5","1","2","2","3","4","1","799285561922822145","陈","51","","","","","","","","","","","","","","","","","","","","","","","","","","","","","","feedback_test","","","","","","","","","","","",""
"793","","f","psychophysics","85","169278","0.0-7.0-1.0-1.0-0.0-0.38","3","3","3","3","2","3","3","3","3","3","2","2","2","4","4","4","2","2","4","4","5","5","5","5","2","3","1","4","1","1","0","1","1","0","0","1","1","1","1","1","0","1","0","1","4","5","2","2","5","1","2","2","3","4","1","799285561922822145","陈","51","","","","nonmatch","","","","","","","","","","","","","","key","f","16.66600000000016","720","446","j","false","match","img/pentagon.png","五边","五边","ALT1_2","prac_ALT1_2","","","","","","","","","","","",""
"null","<span style='color:red; font-size: 70px;'>错误! </span>","null","html-keyboard-response","86","169779","0.0-7.0-1.0-1.0-0.0-1.38","3","3","3","3","2","3","3","3","3","3","2","2","2","4","4","4","2","2","4","4","5","5","5","5","2","3","1","4","1","1","0","1","1","0","0","1","1","1","1","1","0","1","0","1","4","5","2","2","5","1","2","2","3","4","1","799285561922822145","陈","51","","","","","","","","","","","","","","","","","","","","","","","","","","","","","","feedback_test","","","","","","","","","","","",""
"809","","f","psychophysics","87","171590","0.0-7.0-1.0-1.0-0.0-0.39","3","3","3","3","2","3","3","3","3","3","2","2","2","4","4","4","2","2","4","4","5","5","5","5","2","3","1","4","1","1","0","1","1","0","0","1","1","1","1","1","0","1","0","1","4","5","2","2","5","1","2","2","3","4","1","799285561922822145","陈","51","","","","nonmatch","","","","","","","","","","","","","","key","f","16.665999999999865","720","446","f","true","nonmatch","img/pentagon.png","菱形","五边","ALT1_2","prac_ALT1_2","","","","","","","","","","","",""
"null","<span style='color:GreenYellow; font-size: 70px;'>正确! </span>","null","html-keyboard-response","88","172091","0.0-7.0-1.0-1.0-0.0-1.39","3","3","3","3","2","3","3","3","3","3","2","2","2","4","4","4","2","2","4","4","5","5","5","5","2","3","1","4","1","1","0","1","1","0","0","1","1","1","1","1","0","1","0","1","4","5","2","2","5","1","2","2","3","4","1","799285561922822145","陈","51","","","","","","","","","","","","","","","","","","","","","","","","","","","","","","feedback_test","","","","","","","","","","","",""
"697","","j","psychophysics","89","173789","0.0-7.0-1.0-1.0-0.0-0.40","3","3","3","3","2","3","3","3","3","3","2","2","2","4","4","4","2","2","4","4","5","5","5","5","2","3","1","4","1","1","0","1","1","0","0","1","1","1","1","1","0","1","0","1","4","5","2","2","5","1","2","2","3","4","1","799285561922822145","陈","51","","","","match","","","","","","","","","","","","","","key","j","16.666000000000032","720","446","j","true","match","img/pentagon.png","五边","五边","ALT1_2","prac_ALT1_2","","","","","","","","","","","",""
"null","<span style='color:GreenYellow; font-size: 70px;'>正确! </span>","null","html-keyboard-response","90","174290","0.0-7.0-1.0-1.0-0.0-1.40","3","3","3","3","2","3","3","3","3","3","2","2","2","4","4","4","2","2","4","4","5","5","5","5","2","3","1","4","1","1","0","1","1","0","0","1","1","1","1","1","0","1","0","1","4","5","2","2","5","1","2","2","3","4","1","799285561922822145","陈","51","","","","","","","","","","","","","","","","","","","","","","","","","","","","","","feedback_test","","","","","","","","","","","",""
"775","","j","psychophysics","91","176066","0.0-7.0-1.0-1.0-0.0-0.41","3","3","3","3","2","3","3","3","3","3","2","2","2","4","4","4","2","2","4","4","5","5","5","5","2","3","1","4","1","1","0","1","1","0","0","1","1","1","1","1","0","1","0","1","4","5","2","2","5","1","2","2","3","4","1","799285561922822145","陈","51","","","","match","","","","","","","","","","","","","","key","j","16.665999999999933","720","446","j","true","match","img/diamond.png","菱形","菱形","ALT1_2","prac_ALT1_2","","","","","","","","","","","",""
"null","<span style='color:GreenYellow; font-size: 70px;'>正确! </span>","null","html-keyboard-response","92","176567","0.0-7.0-1.0-1.0-0.0-1.41","3","3","3","3","2","3","3","3","3","3","2","2","2","4","4","4","2","2","4","4","5","5","5","5","2","3","1","4","1","1","0","1","1","0","0","1","1","1","1","1","0","1","0","1","4","5","2","2","5","1","2","2","3","4","1","799285561922822145","陈","51","","","","","","","","","","","","","","","","","","","","","","","","","","","","","","feedback_test","","","","","","","","","","","",""
"794","","f","psychophysics","93","178364","0.0-7.0-1.0-1.0-0.0-0.42","3","3","3","3","2","3","3","3","3","3","2","2","2","4","4","4","2","2","4","4","5","5","5","5","2","3","1","4","1","1","0","1","1","0","0","1","1","1","1","1","0","1","0","1","4","5","2","2","5","1","2","2","3","4","1","799285561922822145","陈","51","","","","nonmatch","","","","","","","","","","","","","","key","f","16.665999999999887","720","446","f","true","nonmatch","img/circle.png","菱形","圆形","ALT1_2","prac_ALT1_2","","","","","","","","","","","",""
"null","<span style='color:GreenYellow; font-size: 70px;'>正确! </span>","null","html-keyboard-response","94","178864","0.0-7.0-1.0-1.0-0.0-1.42","3","3","3","3","2","3","3","3","3","3","2","2","2","4","4","4","2","2","4","4","5","5","5","5","2","3","1","4","1","1","0","1","1","0","0","1","1","1","1","1","0","1","0","1","4","5","2","2","5","1","2","2","3","4","1","799285561922822145","陈","51","","","","","","","","","","","","","","","","","","","","","","","","","","","","","","feedback_test","","","","","","","","","","","",""
"999","","f","psychophysics","95","180865","0.0-7.0-1.0-1.0-0.0-0.43","3","3","3","3","2","3","3","3","3","3","2","2","2","4","4","4","2","2","4","4","5","5","5","5","2","3","1","4","1","1","0","1","1","0","0","1","1","1","1","1","0","1","0","1","4","5","2","2","5","1","2","2","3","4","1","799285561922822145","陈","51","","","","nonmatch","","","","","","","","","","","","","","key","f","16.66821008403355","720","446","f","true","nonmatch","img/pentagon.png","圆形","五边","ALT1_2","prac_ALT1_2","","","","","","","","","","","",""
"null","<span style='color:GreenYellow; font-size: 70px;'>正确! </span>","null","html-keyboard-response","96","181366","0.0-7.0-1.0-1.0-0.0-1.43","3","3","3","3","2","3","3","3","3","3","2","2","2","4","4","4","2","2","4","4","5","5","5","5","2","3","1","4","1","1","0","1","1","0","0","1","1","1","1","1","0","1","0","1","4","5","2","2","5","1","2","2","3","4","1","799285561922822145","陈","51","","","","","","","","","","","","","","","","","","","","","","","","","","","","","","feedback_test","","","","","","","","","","","",""
"645","","j","psychophysics","97","183013","0.0-7.0-1.0-1.0-0.0-0.44","3","3","3","3","2","3","3","3","3","3","2","2","2","4","4","4","2","2","4","4","5","5","5","5","2","3","1","4","1","1","0","1","1","0","0","1","1","1","1","1","0","1","0","1","4","5","2","2","5","1","2","2","3","4","1","799285561922822145","陈","51","","","","match","","","","","","","","","","","","","","key","j","16.66600000000011","720","446","j","true","match","img/triangle.png","三角","三角","ALT1_2","prac_ALT1_2","","","","","","","","","","","",""
"null","<span style='color:GreenYellow; font-size: 70px;'>正确! </span>","null","html-keyboard-response","98","183514","0.0-7.0-1.0-1.0-0.0-1.44","3","3","3","3","2","3","3","3","3","3","2","2","2","4","4","4","2","2","4","4","5","5","5","5","2","3","1","4","1","1","0","1","1","0","0","1","1","1","1","1","0","1","0","1","4","5","2","2","5","1","2","2","3","4","1","799285561922822145","陈","51","","","","","","","","","","","","","","","","","","","","","","","","","","","","","","feedback_test","","","","","","","","","","","",""
"753","","f","psychophysics","99","185268","0.0-7.0-1.0-1.0-0.0-0.45","3","3","3","3","2","3","3","3","3","3","2","2","2","4","4","4","2","2","4","4","5","5","5","5","2","3","1","4","1","1","0","1","1","0","0","1","1","1","1","1","0","1","0","1","4","5","2","2","5","1","2","2","3","4","1","799285561922822145","陈","51","","","","nonmatch","","","","","","","","","","","","","","key","f","16.665999999999958","720","446","j","false","match","img/circle.png","圆形","圆形","ALT1_2","prac_ALT1_2","","","","","","","","","","","",""
"null","<span style='color:red; font-size: 70px;'>错误! </span>","null","html-keyboard-response","100","185769","0.0-7.0-1.0-1.0-0.0-1.45","3","3","3","3","2","3","3","3","3","3","2","2","2","4","4","4","2","2","4","4","5","5","5","5","2","3","1","4","1","1","0","1","1","0","0","1","1","1","1","1","0","1","0","1","4","5","2","2","5","1","2","2","3","4","1","799285561922822145","陈","51","","","","","","","","","","","","","","","","","","","","","","","","","","","","","","feedback_test","","","","","","","","","","","",""
"760","","j","psychophysics","101","187531","0.0-7.0-1.0-1.0-0.0-0.46","3","3","3","3","2","3","3","3","3","3","2","2","2","4","4","4","2","2","4","4","5","5","5","5","2","3","1","4","1","1","0","1","1","0","0","1","1","1","1","1","0","1","0","1","4","5","2","2","5","1","2","2","3","4","1","799285561922822145","陈","51","","","","match","","","","","","","","","","","","","","key","j","16.665999999999933","720","446","f","false","nonmatch","img/triangle.png","圆形","三角","ALT1_2","prac_ALT1_2","","","","","","","","","","","",""
"null","<span style='color:red; font-size: 70px;'>错误! </span>","null","html-keyboard-response","102","188032","0.0-7.0-1.0-1.0-0.0-1.46","3","3","3","3","2","3","3","3","3","3","2","2","2","4","4","4","2","2","4","4","5","5","5","5","2","3","1","4","1","1","0","1","1","0","0","1","1","1","1","1","0","1","0","1","4","5","2","2","5","1","2","2","3","4","1","799285561922822145","陈","51","","","","","","","","","","","","","","","","","","","","","","","","","","","","","","feedback_test","","","","","","","","","","","",""
"1095","","f","psychophysics","103","190129","0.0-7.0-1.0-1.0-0.0-0.47","3","3","3","3","2","3","3","3","3","3","2","2","2","4","4","4","2","2","4","4","5","5","5","5","2","3","1","4","1","1","0","1","1","0","0","1","1","1","1","1","0","1","0","1","4","5","2","2","5","1","2","2","3","4","1","799285561922822145","陈","51","","","","nonmatch","","","","","","","","","","","","","","key","f","16.668096000000137","720","446","f","true","nonmatch","img/diamond.png","五边","菱形","ALT1_2","prac_ALT1_2","","","","","","","","","","","",""
"null","<span style='color:GreenYellow; font-size: 70px;'>正确! </span>","null","html-keyboard-response","104","190629","0.0-7.0-1.0-1.0-0.0-1.47","3","3","3","3","2","3","3","3","3","3","2","2","2","4","4","4","2","2","4","4","5","5","5","5","2","3","1","4","1","1","0","1","1","0","0","1","1","1","1","1","0","1","0","1","4","5","2","2","5","1","2","2","3","4","1","799285561922822145","陈","51","","","","","","","","","","","","","","","","","","","","","","","","","","","","","","feedback_test","","","","","","","","","","","",""
"4236","<style>.context{color:white; font-size: 35px; line-height:40px}</style>                          <div><p class='context'>您正确回答了81% 的试次。</p><p class='context'>您的平均反应时为787毫秒。</p><p class='context'>恭喜您完成练习。按空格键进入正式实验。</p><p class='footer' style='font-size: 35px; line-height:40px;'>请在进入正式实验实验之前将您的<span style='color: lightgreen;'>食指</span>放在电脑键盘的相应键位上进行按键。</p>"," ","html-keyboard-response","105","194868","0.0-7.0-1.0-2.0","3","3","3","3","2","3","3","3","3","3","2","2","2","4","4","4","2","2","4","4","5","5","5","5","2","3","1","4","1","1","0","1","1","0","0","1","1","1","1","1","0","1","0","1","4","5","2","2","5","1","2","2","3","4","1","799285561922822145","陈","51","","","","","","","","","","","","","","","","","","","","","","","","","","","","","","","","","","","","","","","","","",""
"2385","
  <p style='color: white; font-size: 22px'>请您将手指放在按键上，准备进入正式的匹配任务。</p>
  <p> <div style = ""color: green""><按空格键进入下一阶段的匹配任务></div></p>
  "," ","html-keyboard-response","106","197258","0.0-7.0-1.0-3.0","3","3","3","3","2","3","3","3","3","3","2","2","2","4","4","4","2","2","4","4","5","5","5","5","2","3","1","4","1","1","0","1","1","0","0","1","1","1","1","1","0","1","0","1","4","5","2","2","5","1","2","2","3","4","1","799285561922822145","陈","51","","","","","","","","","","","","","","","","","","","","","","","","","","","","","","","","","","","","","","","","","",""
"611","","j","psychophysics","107","198871","0.0-7.0-1.0-4.0-0.0-0.0","3","3","3","3","2","3","3","3","3","3","2","2","2","4","4","4","2","2","4","4","5","5","5","5","2","3","1","4","1","1","0","1","1","0","0","1","1","1","1","1","0","1","0","1","4","5","2","2","5","1","2","2","3","4","1","799285561922822145","陈","51","","","","match","","","","","","","","","","","","","","key","j","16.666000000000196","720","446","j","true","match","img/triangle.png","三角","三角","ALT1","formal_ALT1_2","","","","","","","","","","","",""
"null","<span style='color:GreenYellow; font-size: 70px;'>正确! </span>","null","html-keyboard-response","108","199372","0.0-7.0-1.0-4.0-0.0-1.0","3","3","3","3","2","3","3","3","3","3","2","2","2","4","4","4","2","2","4","4","5","5","5","5","2","3","1","4","1","1","0","1","1","0","0","1","1","1","1","1","0","1","0","1","4","5","2","2","5","1","2","2","3","4","1","799285561922822145","陈","51","","","","","","","","","","","","","","","","","","","","","","","","","","","","","","feedback_test","","","","","","","","","","","",""
"656","","f","psychophysics","109","201030","0.0-7.0-1.0-4.0-0.0-0.1","3","3","3","3","2","3","3","3","3","3","2","2","2","4","4","4","2","2","4","4","5","5","5","5","2","3","1","4","1","1","0","1","1","0","0","1","1","1","1","1","0","1","0","1","4","5","2","2","5","1","2","2","3","4","1","799285561922822145","陈","51","","","","nonmatch","","","","","","","","","","","","","","key","f","16.668683673469562","720","446","f","true","nonmatch","img/triangle.png","圆形","三角","ALT1","formal_ALT1_2","","","","","","","","","","","",""
"null","<span style='color:GreenYellow; font-size: 70px;'>正确! </span>","null","html-keyboard-response","110","201531","0.0-7.0-1.0-4.0-0.0-1.1","3","3","3","3","2","3","3","3","3","3","2","2","2","4","4","4","2","2","4","4","5","5","5","5","2","3","1","4","1","1","0","1","1","0","0","1","1","1","1","1","0","1","0","1","4","5","2","2","5","1","2","2","3","4","1","799285561922822145","陈","51","","","","","","","","","","","","","","","","","","","","","","","","","","","","","","feedback_test","","","","","","","","","","","",""
"698","","j","psychophysics","111","203230","0.0-7.0-1.0-4.0-0.0-0.2","3","3","3","3","2","3","3","3","3","3","2","2","2","4","4","4","2","2","4","4","5","5","5","5","2","3","1","4","1","1","0","1","1","0","0","1","1","1","1","1","0","1","0","1","4","5","2","2","5","1","2","2","3","4","1","799285561922822145","陈","51","","","","match","","","","","","","","","","","","","","key","j","16.665999999999745","720","446","j","true","match","img/circle.png","圆形","圆形","ALT1","formal_ALT1_2","","","","","","","","","","","",""
"null","<span style='color:GreenYellow; font-size: 70px;'>正确! </span>","null","html-keyboard-response","112","203731","0.0-7.0-1.0-4.0-0.0-1.2","3","3","3","3","2","3","3","3","3","3","2","2","2","4","4","4","2","2","4","4","5","5","5","5","2","3","1","4","1","1","0","1","1","0","0","1","1","1","1","1","0","1","0","1","4","5","2","2","5","1","2","2","3","4","1","799285561922822145","陈","51","","","","","","","","","","","","","","","","","","","","","","","","","","","","","","feedback_test","","","","","","","","","","","",""
"750","","f","psychophysics","113","205484","0.0-7.0-1.0-4.0-0.0-0.3","3","3","3","3","2","3","3","3","3","3","2","2","2","4","4","4","2","2","4","4","5","5","5","5","2","3","1","4","1","1","0","1","1","0","0","1","1","1","1","1","0","1","0","1","4","5","2","2","5","1","2","2","3","4","1","799285561922822145","陈","51","","","","nonmatch","","","","","","","","","","","","","","key","f","16.665999999999958","720","446","f","true","nonmatch","img/pentagon.png","三角","五边","ALT1","formal_ALT1_2","","","","","","","","","","","",""
"null","<span style='color:GreenYellow; font-size: 70px;'>正确! </span>","null","html-keyboard-response","114","205985","0.0-7.0-1.0-4.0-0.0-1.3","3","3","3","3","2","3","3","3","3","3","2","2","2","4","4","4","2","2","4","4","5","5","5","5","2","3","1","4","1","1","0","1","1","0","0","1","1","1","1","1","0","1","0","1","4","5","2","2","5","1","2","2","3","4","1","799285561922822145","陈","51","","","","","","","","","","","","","","","","","","","","","","","","","","","","","","feedback_test","","","","","","","","","","","",""
"735","","j","psychophysics","115","207721","0.0-7.0-1.0-4.0-0.0-0.4","3","3","3","3","2","3","3","3","3","3","2","2","2","4","4","4","2","2","4","4","5","5","5","5","2","3","1","4","1","1","0","1","1","0","0","1","1","1","1","1","0","1","0","1","4","5","2","2","5","1","2","2","3","4","1","799285561922822145","陈","51","","","","match","","","","","","","","","","","","","","key","j","16.665999999999983","720","446","j","true","match","img/diamond.png","菱形","菱形","ALT1","formal_ALT1_2","","","","","","","","","","","",""
"null","<span style='color:GreenYellow; font-size: 70px;'>正确! </span>","null","html-keyboard-response","116","208222","0.0-7.0-1.0-4.0-0.0-1.4","3","3","3","3","2","3","3","3","3","3","2","2","2","4","4","4","2","2","4","4","5","5","5","5","2","3","1","4","1","1","0","1","1","0","0","1","1","1","1","1","0","1","0","1","4","5","2","2","5","1","2","2","3","4","1","799285561922822145","陈","51","","","","","","","","","","","","","","","","","","","","","","","","","","","","","","feedback_test","","","","","","","","","","","",""
"676","","j","psychophysics","117","209901","0.0-7.0-1.0-4.0-0.0-0.5","3","3","3","3","2","3","3","3","3","3","2","2","2","4","4","4","2","2","4","4","5","5","5","5","2","3","1","4","1","1","0","1","1","0","0","1","1","1","1","1","0","1","0","1","4","5","2","2","5","1","2","2","3","4","1","799285561922822145","陈","51","","","","match","","","","","","","","","","","","","","key","j","16.66864646464643","720","446","j","true","match","img/circle.png","圆形","圆形","ALT1","formal_ALT1_2","","","","","","","","","","","",""
"null","<span style='color:GreenYellow; font-size: 70px;'>正确! </span>","null","html-keyboard-response","118","210401","0.0-7.0-1.0-4.0-0.0-1.5","3","3","3","3","2","3","3","3","3","3","2","2","2","4","4","4","2","2","4","4","5","5","5","5","2","3","1","4","1","1","0","1","1","0","0","1","1","1","1","1","0","1","0","1","4","5","2","2","5","1","2","2","3","4","1","799285561922822145","陈","51","","","","","","","","","","","","","","","","","","","","","","","","","","","","","","feedback_test","","","","","","","","","","","",""
"662","","f","psychophysics","119","212066","0.0-7.0-1.0-4.0-0.0-0.6","3","3","3","3","2","3","3","3","3","3","2","2","2","4","4","4","2","2","4","4","5","5","5","5","2","3","1","4","1","1","0","1","1","0","0","1","1","1","1","1","0","1","0","1","4","5","2","2","5","1","2","2","3","4","1","799285561922822145","陈","51","","","","nonmatch","","","","","","","","","","","","","","key","f","16.666000000000086","720","446","f","true","nonmatch","img/circle.png","菱形","圆形","ALT1","formal_ALT1_2","","","","","","","","","","","",""
"null","<span style='color:GreenYellow; font-size: 70px;'>正确! </span>","null","html-keyboard-response","120","212567","0.0-7.0-1.0-4.0-0.0-1.6","3","3","3","3","2","3","3","3","3","3","2","2","2","4","4","4","2","2","4","4","5","5","5","5","2","3","1","4","1","1","0","1","1","0","0","1","1","1","1","1","0","1","0","1","4","5","2","2","5","1","2","2","3","4","1","799285561922822145","陈","51","","","","","","","","","","","","","","","","","","","","","","","","","","","","","","feedback_test","","","","","","","","","","","",""
"710","","f","psychophysics","121","214279","0.0-7.0-1.0-4.0-0.0-0.7","3","3","3","3","2","3","3","3","3","3","2","2","2","4","4","4","2","2","4","4","5","5","5","5","2","3","1","4","1","1","0","1","1","0","0","1","1","1","1","1","0","1","0","1","4","5","2","2","5","1","2","2","3","4","1","799285561922822145","陈","51","","","","nonmatch","","","","","","","","","","","","","","key","f","16.666000000000007","720","446","f","true","nonmatch","img/circle.png","五边","圆形","ALT1","formal_ALT1_2","","","","","","","","","","","",""
"null","<span style='color:GreenYellow; font-size: 70px;'>正确! </span>","null","html-keyboard-response","122","214779","0.0-7.0-1.0-4.0-0.0-1.7","3","3","3","3","2","3","3","3","3","3","2","2","2","4","4","4","2","2","4","4","5","5","5","5","2","3","1","4","1","1","0","1","1","0","0","1","1","1","1","1","0","1","0","1","4","5","2","2","5","1","2","2","3","4","1","799285561922822145","陈","51","","","","","","","","","","","","","","","","","","","","","","","","","","","","","","feedback_test","","","","","","","","","","","",""
"919","","f","psychophysics","123","216701","0.0-7.0-1.0-4.0-0.0-0.8","3","3","3","3","2","3","3","3","3","3","2","2","2","4","4","4","2","2","4","4","5","5","5","5","2","3","1","4","1","1","0","1","1","0","0","1","1","1","1","1","0","1","0","1","4","5","2","2","5","1","2","2","3","4","1","799285561922822145","陈","51","","","","nonmatch","","","","","","","","","","","","","","key","f","16.665999999999993","720","446","f","true","nonmatch","img/pentagon.png","菱形","五边","ALT1","formal_ALT1_2","","","","","","","","","","","",""
"null","<span style='color:GreenYellow; font-size: 70px;'>正确! </span>","null","html-keyboard-response","124","217202","0.0-7.0-1.0-4.0-0.0-1.8","3","3","3","3","2","3","3","3","3","3","2","2","2","4","4","4","2","2","4","4","5","5","5","5","2","3","1","4","1","1","0","1","1","0","0","1","1","1","1","1","0","1","0","1","4","5","2","2","5","1","2","2","3","4","1","799285561922822145","陈","51","","","","","","","","","","","","","","","","","","","","","","","","","","","","","","feedback_test","","","","","","","","","","","",""
"728","","j","psychophysics","125","218932","0.0-7.0-1.0-4.0-0.0-0.9","3","3","3","3","2","3","3","3","3","3","2","2","2","4","4","4","2","2","4","4","5","5","5","5","2","3","1","4","1","1","0","1","1","0","0","1","1","1","1","1","0","1","0","1","4","5","2","2","5","1","2","2","3","4","1","799285561922822145","陈","51","","","","match","","","","","","","","","","","","","","key","j","16.665999999999983","720","446","j","true","match","img/circle.png","圆形","圆形","ALT1","formal_ALT1_2","","","","","","","","","","","",""
"null","<span style='color:GreenYellow; font-size: 70px;'>正确! </span>","null","html-keyboard-response","126","219433","0.0-7.0-1.0-4.0-0.0-1.9","3","3","3","3","2","3","3","3","3","3","2","2","2","4","4","4","2","2","4","4","5","5","5","5","2","3","1","4","1","1","0","1","1","0","0","1","1","1","1","1","0","1","0","1","4","5","2","2","5","1","2","2","3","4","1","799285561922822145","陈","51","","","","","","","","","","","","","","","","","","","","","","","","","","","","","","feedback_test","","","","","","","","","","","",""
"717","","f","psychophysics","127","221153","0.0-7.0-1.0-4.0-0.0-0.10","3","3","3","3","2","3","3","3","3","3","2","2","2","4","4","4","2","2","4","4","5","5","5","5","2","3","1","4","1","1","0","1","1","0","0","1","1","1","1","1","0","1","0","1","4","5","2","2","5","1","2","2","3","4","1","799285561922822145","陈","51","","","","nonmatch","","","","","","","","","","","","","","key","f","16.668568627450867","720","446","f","true","nonmatch","img/circle.png","三角","圆形","ALT1","formal_ALT1_2","","","","","","","","","","","",""
"null","<span style='color:GreenYellow; font-size: 70px;'>正确! </span>","null","html-keyboard-response","128","221653","0.0-7.0-1.0-4.0-0.0-1.10","3","3","3","3","2","3","3","3","3","3","2","2","2","4","4","4","2","2","4","4","5","5","5","5","2","3","1","4","1","1","0","1","1","0","0","1","1","1","1","1","0","1","0","1","4","5","2","2","5","1","2","2","3","4","1","799285561922822145","陈","51","","","","","","","","","","","","","","","","","","","","","","","","","","","","","","feedback_test","","","","","","","","","","","",""
"772","","j","psychophysics","129","223428","0.0-7.0-1.0-4.0-0.0-0.11","3","3","3","3","2","3","3","3","3","3","2","2","2","4","4","4","2","2","4","4","5","5","5","5","2","3","1","4","1","1","0","1","1","0","0","1","1","1","1","1","0","1","0","1","4","5","2","2","5","1","2","2","3","4","1","799285561922822145","陈","51","","","","match","","","","","","","","","","","","","","key","j","16.66599999999991","720","446","j","true","match","img/diamond.png","菱形","菱形","ALT1","formal_ALT1_2","","","","","","","","","","","",""
"null","<span style='color:GreenYellow; font-size: 70px;'>正确! </span>","null","html-keyboard-response","130","223929","0.0-7.0-1.0-4.0-0.0-1.11","3","3","3","3","2","3","3","3","3","3","2","2","2","4","4","4","2","2","4","4","5","5","5","5","2","3","1","4","1","1","0","1","1","0","0","1","1","1","1","1","0","1","0","1","4","5","2","2","5","1","2","2","3","4","1","799285561922822145","陈","51","","","","","","","","","","","","","","","","","","","","","","","","","","","","","","feedback_test","","","","","","","","","","","",""
"717","","j","psychophysics","131","225649","0.0-7.0-1.0-4.0-0.0-0.12","3","3","3","3","2","3","3","3","3","3","2","2","2","4","4","4","2","2","4","4","5","5","5","5","2","3","1","4","1","1","0","1","1","0","0","1","1","1","1","1","0","1","0","1","4","5","2","2","5","1","2","2","3","4","1","799285561922822145","陈","51","","","","match","","","","","","","","","","","","","","key","j","16.666000000000007","720","446","j","true","match","img/diamond.png","菱形","菱形","ALT1","formal_ALT1_2","","","","","","","","","","","",""
"null","<span style='color:GreenYellow; font-size: 70px;'>正确! </span>","null","html-keyboard-response","132","226150","0.0-7.0-1.0-4.0-0.0-1.12","3","3","3","3","2","3","3","3","3","3","2","2","2","4","4","4","2","2","4","4","5","5","5","5","2","3","1","4","1","1","0","1","1","0","0","1","1","1","1","1","0","1","0","1","4","5","2","2","5","1","2","2","3","4","1","799285561922822145","陈","51","","","","","","","","","","","","","","","","","","","","","","","","","","","","","","feedback_test","","","","","","","","","","","",""
"790","","f","psychophysics","133","227943","0.0-7.0-1.0-4.0-0.0-0.13","3","3","3","3","2","3","3","3","3","3","2","2","2","4","4","4","2","2","4","4","5","5","5","5","2","3","1","4","1","1","0","1","1","0","0","1","1","1","1","1","0","1","0","1","4","5","2","2","5","1","2","2","3","4","1","799285561922822145","陈","51","","","","nonmatch","","","","","","","","","","","","","","key","f","16.66600000000016","720","446","f","true","nonmatch","img/diamond.png","五边","菱形","ALT1","formal_ALT1_2","","","","","","","","","","","",""
"null","<span style='color:GreenYellow; font-size: 70px;'>正确! </span>","null","html-keyboard-response","134","228444","0.0-7.0-1.0-4.0-0.0-1.13","3","3","3","3","2","3","3","3","3","3","2","2","2","4","4","4","2","2","4","4","5","5","5","5","2","3","1","4","1","1","0","1","1","0","0","1","1","1","1","1","0","1","0","1","4","5","2","2","5","1","2","2","3","4","1","799285561922822145","陈","51","","","","","","","","","","","","","","","","","","","","","","","","","","","","","","feedback_test","","","","","","","","","","","",""
"1068","","f","psychophysics","135","230515","0.0-7.0-1.0-4.0-0.0-0.14","3","3","3","3","2","3","3","3","3","3","2","2","2","4","4","4","2","2","4","4","5","5","5","5","2","3","1","4","1","1","0","1","1","0","0","1","1","1","1","1","0","1","0","1","4","5","2","2","5","1","2","2","3","4","1","799285561922822145","陈","51","","","","nonmatch","","","","","","","","","","","","","","key","f","16.66813821138197","720","446","f","true","nonmatch","img/diamond.png","圆形","菱形","ALT1","formal_ALT1_2","","","","","","","","","","","",""
"null","<span style='color:GreenYellow; font-size: 70px;'>正确! </span>","null","html-keyboard-response","136","231016","0.0-7.0-1.0-4.0-0.0-1.14","3","3","3","3","2","3","3","3","3","3","2","2","2","4","4","4","2","2","4","4","5","5","5","5","2","3","1","4","1","1","0","1","1","0","0","1","1","1","1","1","0","1","0","1","4","5","2","2","5","1","2","2","3","4","1","799285561922822145","陈","51","","","","","","","","","","","","","","","","","","","","","","","","","","","","","","feedback_test","","","","","","","","","","","",""
"709","","j","psychophysics","137","232728","0.0-7.0-1.0-4.0-0.0-0.15","3","3","3","3","2","3","3","3","3","3","2","2","2","4","4","4","2","2","4","4","5","5","5","5","2","3","1","4","1","1","0","1","1","0","0","1","1","1","1","1","0","1","0","1","4","5","2","2","5","1","2","2","3","4","1","799285561922822145","陈","51","","","","match","","","","","","","","","","","","","","key","j","16.666000000000007","720","446","j","true","match","img/triangle.png","三角","三角","ALT1","formal_ALT1_2","","","","","","","","","","","",""
"null","<span style='color:GreenYellow; font-size: 70px;'>正确! </span>","null","html-keyboard-response","138","233229","0.0-7.0-1.0-4.0-0.0-1.15","3","3","3","3","2","3","3","3","3","3","2","2","2","4","4","4","2","2","4","4","5","5","5","5","2","3","1","4","1","1","0","1","1","0","0","1","1","1","1","1","0","1","0","1","4","5","2","2","5","1","2","2","3","4","1","799285561922822145","陈","51","","","","","","","","","","","","","","","","","","","","","","","","","","","","","","feedback_test","","","","","","","","","","","",""
"740","","j","psychophysics","139","234970","0.0-7.0-1.0-4.0-0.0-0.16","3","3","3","3","2","3","3","3","3","3","2","2","2","4","4","4","2","2","4","4","5","5","5","5","2","3","1","4","1","1","0","1","1","0","0","1","1","1","1","1","0","1","0","1","4","5","2","2","5","1","2","2","3","4","1","799285561922822145","陈","51","","","","match","","","","","","","","","","","","","","key","j","16.665999999999983","720","446","j","true","match","img/pentagon.png","五边","五边","ALT1","formal_ALT1_2","","","","","","","","","","","",""
"null","<span style='color:GreenYellow; font-size: 70px;'>正确! </span>","null","html-keyboard-response","140","235471","0.0-7.0-1.0-4.0-0.0-1.16","3","3","3","3","2","3","3","3","3","3","2","2","2","4","4","4","2","2","4","4","5","5","5","5","2","3","1","4","1","1","0","1","1","0","0","1","1","1","1","1","0","1","0","1","4","5","2","2","5","1","2","2","3","4","1","799285561922822145","陈","51","","","","","","","","","","","","","","","","","","","","","","","","","","","","","","feedback_test","","","","","","","","","","","",""
"665","","j","psychophysics","141","237138","0.0-7.0-1.0-4.0-0.0-0.17","3","3","3","3","2","3","3","3","3","3","2","2","2","4","4","4","2","2","4","4","5","5","5","5","2","3","1","4","1","1","0","1","1","0","0","1","1","1","1","1","0","1","0","1","4","5","2","2","5","1","2","2","3","4","1","799285561922822145","陈","51","","","","match","","","","","","","","","","","","","","key","j","16.666000000000086","720","446","j","true","match","img/triangle.png","三角","三角","ALT1","formal_ALT1_2","","","","","","","","","","","",""
"null","<span style='color:GreenYellow; font-size: 70px;'>正确! </span>","null","html-keyboard-response","142","237640","0.0-7.0-1.0-4.0-0.0-1.17","3","3","3","3","2","3","3","3","3","3","2","2","2","4","4","4","2","2","4","4","5","5","5","5","2","3","1","4","1","1","0","1","1","0","0","1","1","1","1","1","0","1","0","1","4","5","2","2","5","1","2","2","3","4","1","799285561922822145","陈","51","","","","","","","","","","","","","","","","","","","","","","","","","","","","","","feedback_test","","","","","","","","","","","",""
"706","","f","psychophysics","143","239348","0.0-7.0-1.0-4.0-0.0-0.18","3","3","3","3","2","3","3","3","3","3","2","2","2","4","4","4","2","2","4","4","5","5","5","5","2","3","1","4","1","1","0","1","1","0","0","1","1","1","1","1","0","1","0","1","4","5","2","2","5","1","2","2","3","4","1","799285561922822145","陈","51","","","","nonmatch","","","","","","","","","","","","","","key","f","16.666000000000032","720","446","f","true","nonmatch","img/triangle.png","五边","三角","ALT1","formal_ALT1_2","","","","","","","","","","","",""
"null","<span style='color:GreenYellow; font-size: 70px;'>正确! </span>","null","html-keyboard-response","144","239848","0.0-7.0-1.0-4.0-0.0-1.18","3","3","3","3","2","3","3","3","3","3","2","2","2","4","4","4","2","2","4","4","5","5","5","5","2","3","1","4","1","1","0","1","1","0","0","1","1","1","1","1","0","1","0","1","4","5","2","2","5","1","2","2","3","4","1","799285561922822145","陈","51","","","","","","","","","","","","","","","","","","","","","","","","","","","","","","feedback_test","","","","","","","","","","","",""
"872","","f","psychophysics","145","241722","0.0-7.0-1.0-4.0-0.0-0.19","3","3","3","3","2","3","3","3","3","3","2","2","2","4","4","4","2","2","4","4","5","5","5","5","2","3","1","4","1","1","0","1","1","0","0","1","1","1","1","1","0","1","0","1","4","5","2","2","5","1","2","2","3","4","1","799285561922822145","陈","51","","","","nonmatch","","","","","","","","","","","","","","key","f","16.66844144144131","720","446","f","true","nonmatch","img/triangle.png","菱形","三角","ALT1","formal_ALT1_2","","","","","","","","","","","",""
"null","<span style='color:GreenYellow; font-size: 70px;'>正确! </span>","null","html-keyboard-response","146","242223","0.0-7.0-1.0-4.0-0.0-1.19","3","3","3","3","2","3","3","3","3","3","2","2","2","4","4","4","2","2","4","4","5","5","5","5","2","3","1","4","1","1","0","1","1","0","0","1","1","1","1","1","0","1","0","1","4","5","2","2","5","1","2","2","3","4","1","799285561922822145","陈","51","","","","","","","","","","","","","","","","","","","","","","","","","","","","","","feedback_test","","","","","","","","","","","",""
"793","","f","psychophysics","147","244017","0.0-7.0-1.0-4.0-0.0-0.20","3","3","3","3","2","3","3","3","3","3","2","2","2","4","4","4","2","2","4","4","5","5","5","5","2","3","1","4","1","1","0","1","1","0","0","1","1","1","1","1","0","1","0","1","4","5","2","2","5","1","2","2","3","4","1","799285561922822145","陈","51","","","","nonmatch","","","","","","","","","","","","","","key","f","16.66599999999991","720","446","f","true","nonmatch","img/pentagon.png","圆形","五边","ALT1","formal_ALT1_2","","","","","","","","","","","",""
"null","<span style='color:GreenYellow; font-size: 70px;'>正确! </span>","null","html-keyboard-response","148","244518","0.0-7.0-1.0-4.0-0.0-1.20","3","3","3","3","2","3","3","3","3","3","2","2","2","4","4","4","2","2","4","4","5","5","5","5","2","3","1","4","1","1","0","1","1","0","0","1","1","1","1","1","0","1","0","1","4","5","2","2","5","1","2","2","3","4","1","799285561922822145","陈","51","","","","","","","","","","","","","","","","","","","","","","","","","","","","","","feedback_test","","","","","","","","","","","",""
"853","","f","psychophysics","149","246372","0.0-7.0-1.0-4.0-0.0-0.21","3","3","3","3","2","3","3","3","3","3","2","2","2","4","4","4","2","2","4","4","5","5","5","5","2","3","1","4","1","1","0","1","1","0","0","1","1","1","1","1","0","1","0","1","4","5","2","2","5","1","2","2","3","4","1","799285561922822145","陈","51","","","","nonmatch","","","","","","","","","","","","","","key","f","16.666000000000086","720","446","f","true","nonmatch","img/diamond.png","三角","菱形","ALT1","formal_ALT1_2","","","","","","","","","","","",""
"null","<span style='color:GreenYellow; font-size: 70px;'>正确! </span>","null","html-keyboard-response","150","246873","0.0-7.0-1.0-4.0-0.0-1.21","3","3","3","3","2","3","3","3","3","3","2","2","2","4","4","4","2","2","4","4","5","5","5","5","2","3","1","4","1","1","0","1","1","0","0","1","1","1","1","1","0","1","0","1","4","5","2","2","5","1","2","2","3","4","1","799285561922822145","陈","51","","","","","","","","","","","","","","","","","","","","","","","","","","","","","","feedback_test","","","","","","","","","","","",""
"1080","","f","psychophysics","151","248955","0.0-7.0-1.0-4.0-0.0-0.22","3","3","3","3","2","3","3","3","3","3","2","2","2","4","4","4","2","2","4","4","5","5","5","5","2","3","1","4","1","1","0","1","1","0","0","1","1","1","1","1","0","1","0","1","4","5","2","2","5","1","2","2","3","4","1","799285561922822145","陈","51","","","","nonmatch","","","","","","","","","","","","","","key","f","16.666000000000043","720","446","j","false","match","img/pentagon.png","五边","五边","ALT1","formal_ALT1_2","","","","","","","","","","","",""
"null","<span style='color:red; font-size: 70px;'>错误! </span>","null","html-keyboard-response","152","249457","0.0-7.0-1.0-4.0-0.0-1.22","3","3","3","3","2","3","3","3","3","3","2","2","2","4","4","4","2","2","4","4","5","5","5","5","2","3","1","4","1","1","0","1","1","0","0","1","1","1","1","1","0","1","0","1","4","5","2","2","5","1","2","2","3","4","1","799285561922822145","陈","51","","","","","","","","","","","","","","","","","","","","","","","","","","","","","","feedback_test","","","","","","","","","","","",""
"836","","j","psychophysics","153","251295","0.0-7.0-1.0-4.0-0.0-0.23","3","3","3","3","2","3","3","3","3","3","2","2","2","4","4","4","2","2","4","4","5","5","5","5","2","3","1","4","1","1","0","1","1","0","0","1","1","1","1","1","0","1","0","1","4","5","2","2","5","1","2","2","3","4","1","799285561922822145","陈","51","","","","match","","","","","","","","","","","","","","key","j","16.668412844036595","720","446","j","true","match","img/pentagon.png","五边","五边","ALT1","formal_ALT1_2","","","","","","","","","","","",""
"null","<span style='color:GreenYellow; font-size: 70px;'>正确! </span>","null","html-keyboard-response","154","251796","0.0-7.0-1.0-4.0-0.0-1.23","3","3","3","3","2","3","3","3","3","3","2","2","2","4","4","4","2","2","4","4","5","5","5","5","2","3","1","4","1","1","0","1","1","0","0","1","1","1","1","1","0","1","0","1","4","5","2","2","5","1","2","2","3","4","1","799285561922822145","陈","51","","","","","","","","","","","","","","","","","","","","","","","","","","","","","","feedback_test","","","","","","","","","","","",""
"873","","j","psychophysics","155","253671","0.0-7.0-1.0-4.0-0.0-0.24","3","3","3","3","2","3","3","3","3","3","2","2","2","4","4","4","2","2","4","4","5","5","5","5","2","3","1","4","1","1","0","1","1","0","0","1","1","1","1","1","0","1","0","1","4","5","2","2","5","1","2","2","3","4","1","799285561922822145","陈","51","","","","match","","","","","","","","","","","","","","key","j","16.66600000000006","720","446","j","true","match","img/diamond.png","菱形","菱形","ALT1","formal_ALT1_2","","","","","","","","","","","",""
"null","<span style='color:GreenYellow; font-size: 70px;'>正确! </span>","null","html-keyboard-response","156","254172","0.0-7.0-1.0-4.0-0.0-1.24","3","3","3","3","2","3","3","3","3","3","2","2","2","4","4","4","2","2","4","4","5","5","5","5","2","3","1","4","1","1","0","1","1","0","0","1","1","1","1","1","0","1","0","1","4","5","2","2","5","1","2","2","3","4","1","799285561922822145","陈","51","","","","","","","","","","","","","","","","","","","","","","","","","","","","","","feedback_test","","","","","","","","","","","",""
"767","","j","psychophysics","157","255940","0.0-7.0-1.0-4.0-0.0-0.25","3","3","3","3","2","3","3","3","3","3","2","2","2","4","4","4","2","2","4","4","5","5","5","5","2","3","1","4","1","1","0","1","1","0","0","1","1","1","1","1","0","1","0","1","4","5","2","2","5","1","2","2","3","4","1","799285561922822145","陈","51","","","","match","","","","","","","","","","","","","","key","j","16.665999999999933","720","446","j","true","match","img/triangle.png","三角","三角","ALT1","formal_ALT1_2","","","","","","","","","","","",""
"null","<span style='color:GreenYellow; font-size: 70px;'>正确! </span>","null","html-keyboard-response","158","256442","0.0-7.0-1.0-4.0-0.0-1.25","3","3","3","3","2","3","3","3","3","3","2","2","2","4","4","4","2","2","4","4","5","5","5","5","2","3","1","4","1","1","0","1","1","0","0","1","1","1","1","1","0","1","0","1","4","5","2","2","5","1","2","2","3","4","1","799285561922822145","陈","51","","","","","","","","","","","","","","","","","","","","","","","","","","","","","","feedback_test","","","","","","","","","","","",""
"620","","f","psychophysics","159","258064","0.0-7.0-1.0-4.0-0.0-0.26","3","3","3","3","2","3","3","3","3","3","2","2","2","4","4","4","2","2","4","4","5","5","5","5","2","3","1","4","1","1","0","1","1","0","0","1","1","1","1","1","0","1","0","1","4","5","2","2","5","1","2","2","3","4","1","799285561922822145","陈","51","","","","nonmatch","","","","","","","","","","","","","","key","f","16.665999999999865","720","446","f","true","nonmatch","img/circle.png","菱形","圆形","ALT1","formal_ALT1_2","","","","","","","","","","","",""
"null","<span style='color:GreenYellow; font-size: 70px;'>正确! </span>","null","html-keyboard-response","160","258564","0.0-7.0-1.0-4.0-0.0-1.26","3","3","3","3","2","3","3","3","3","3","2","2","2","4","4","4","2","2","4","4","5","5","5","5","2","3","1","4","1","1","0","1","1","0","0","1","1","1","1","1","0","1","0","1","4","5","2","2","5","1","2","2","3","4","1","799285561922822145","陈","51","","","","","","","","","","","","","","","","","","","","","","","","","","","","","","feedback_test","","","","","","","","","","","",""
"929","","f","psychophysics","161","260495","0.0-7.0-1.0-4.0-0.0-0.27","3","3","3","3","2","3","3","3","3","3","2","2","2","4","4","4","2","2","4","4","5","5","5","5","2","3","1","4","1","1","0","1","1","0","0","1","1","1","1","1","0","1","0","1","4","5","2","2","5","1","2","2","3","4","1","799285561922822145","陈","51","","","","nonmatch","","","","","","","","","","","","","","key","f","16.668278260869428","720","446","f","true","nonmatch","img/triangle.png","五边","三角","ALT1","formal_ALT1_2","","","","","","","","","","","",""
"null","<span style='color:GreenYellow; font-size: 70px;'>正确! </span>","null","html-keyboard-response","162","260996","0.0-7.0-1.0-4.0-0.0-1.27","3","3","3","3","2","3","3","3","3","3","2","2","2","4","4","4","2","2","4","4","5","5","5","5","2","3","1","4","1","1","0","1","1","0","0","1","1","1","1","1","0","1","0","1","4","5","2","2","5","1","2","2","3","4","1","799285561922822145","陈","51","","","","","","","","","","","","","","","","","","","","","","","","","","","","","","feedback_test","","","","","","","","","","","",""
"667","","j","psychophysics","163","262665","0.0-7.0-1.0-4.0-0.0-0.28","3","3","3","3","2","3","3","3","3","3","2","2","2","4","4","4","2","2","4","4","5","5","5","5","2","3","1","4","1","1","0","1","1","0","0","1","1","1","1","1","0","1","0","1","4","5","2","2","5","1","2","2","3","4","1","799285561922822145","陈","51","","","","match","","","","","","","","","","","","","","key","j","16.666000000000086","720","446","j","true","match","img/diamond.png","菱形","菱形","ALT1","formal_ALT1_2","","","","","","","","","","","",""
"null","<span style='color:GreenYellow; font-size: 70px;'>正确! </span>","null","html-keyboard-response","164","263166","0.0-7.0-1.0-4.0-0.0-1.28","3","3","3","3","2","3","3","3","3","3","2","2","2","4","4","4","2","2","4","4","5","5","5","5","2","3","1","4","1","1","0","1","1","0","0","1","1","1","1","1","0","1","0","1","4","5","2","2","5","1","2","2","3","4","1","799285561922822145","陈","51","","","","","","","","","","","","","","","","","","","","","","","","","","","","","","feedback_test","","","","","","","","","","","",""
"764","","j","psychophysics","165","264932","0.0-7.0-1.0-4.0-0.0-0.29","3","3","3","3","2","3","3","3","3","3","2","2","2","4","4","4","2","2","4","4","5","5","5","5","2","3","1","4","1","1","0","1","1","0","0","1","1","1","1","1","0","1","0","1","4","5","2","2","5","1","2","2","3","4","1","799285561922822145","陈","51","","","","match","","","","","","","","","","","","","","key","j","16.665999999999933","720","446","j","true","match","img/diamond.png","菱形","菱形","ALT1","formal_ALT1_2","","","","","","","","","","","",""
"null","<span style='color:GreenYellow; font-size: 70px;'>正确! </span>","null","html-keyboard-response","166","265433","0.0-7.0-1.0-4.0-0.0-1.29","3","3","3","3","2","3","3","3","3","3","2","2","2","4","4","4","2","2","4","4","5","5","5","5","2","3","1","4","1","1","0","1","1","0","0","1","1","1","1","1","0","1","0","1","4","5","2","2","5","1","2","2","3","4","1","799285561922822145","陈","51","","","","","","","","","","","","","","","","","","","","","","","","","","","","","","feedback_test","","","","","","","","","","","",""
"902","","j","psychophysics","167","267337","0.0-7.0-1.0-4.0-0.0-0.30","3","3","3","3","2","3","3","3","3","3","2","2","2","4","4","4","2","2","4","4","5","5","5","5","2","3","1","4","1","1","0","1","1","0","0","1","1","1","1","1","0","1","0","1","4","5","2","2","5","1","2","2","3","4","1","799285561922822145","陈","51","","","","match","","","","","","","","","","","","","","key","j","16.665999999999755","720","446","j","true","match","img/circle.png","圆形","圆形","ALT1","formal_ALT1_2","","","","","","","","","","","",""
"null","<span style='color:GreenYellow; font-size: 70px;'>正确! </span>","null","html-keyboard-response","168","267838","0.0-7.0-1.0-4.0-0.0-1.30","3","3","3","3","2","3","3","3","3","3","2","2","2","4","4","4","2","2","4","4","5","5","5","5","2","3","1","4","1","1","0","1","1","0","0","1","1","1","1","1","0","1","0","1","4","5","2","2","5","1","2","2","3","4","1","799285561922822145","陈","51","","","","","","","","","","","","","","","","","","","","","","","","","","","","","","feedback_test","","","","","","","","","","","",""
"null","","null","psychophysics","169","270052","0.0-7.0-1.0-4.0-0.0-0.31","3","3","3","3","2","3","3","3","3","3","2","2","2","4","4","4","2","2","4","4","5","5","5","5","2","3","1","4","1","1","0","1","1","0","0","1","1","1","1","1","0","1","0","1","4","5","2","2","5","1","2","2","3","4","1","799285561922822145","陈","51","","","","null","","","","","","","","","","","","","","key","null","16.668007633587496","720","446","f","false","nonmatch","img/diamond.png","圆形","菱形","ALT1","formal_ALT1_2","","","","","","","","","","","",""
"null","<span class='add_' style='color:yellow; font-size: 70px;'> 太慢! </span>","null","html-keyboard-response","170","270552","0.0-7.0-1.0-4.0-0.0-1.31","3","3","3","3","2","3","3","3","3","3","2","2","2","4","4","4","2","2","4","4","5","5","5","5","2","3","1","4","1","1","0","1","1","0","0","1","1","1","1","1","0","1","0","1","4","5","2","2","5","1","2","2","3","4","1","799285561922822145","陈","51","","","","","","","","","","","","","","","","","","","","","","","","","","","","","","feedback_test","","","","","","","","","","","",""
"645","","j","psychophysics","171","272200","0.0-7.0-1.0-4.0-0.0-0.32","3","3","3","3","2","3","3","3","3","3","2","2","2","4","4","4","2","2","4","4","5","5","5","5","2","3","1","4","1","1","0","1","1","0","0","1","1","1","1","1","0","1","0","1","4","5","2","2","5","1","2","2","3","4","1","799285561922822145","陈","51","","","","match","","","","","","","","","","","","","","key","j","16.665999999999816","720","446","j","true","match","img/pentagon.png","五边","五边","ALT1","formal_ALT1_2","","","","","","","","","","","",""
"null","<span style='color:GreenYellow; font-size: 70px;'>正确! </span>","null","html-keyboard-response","172","272701","0.0-7.0-1.0-4.0-0.0-1.32","3","3","3","3","2","3","3","3","3","3","2","2","2","4","4","4","2","2","4","4","5","5","5","5","2","3","1","4","1","1","0","1","1","0","0","1","1","1","1","1","0","1","0","1","4","5","2","2","5","1","2","2","3","4","1","799285561922822145","陈","51","","","","","","","","","","","","","","","","","","","","","","","","","","","","","","feedback_test","","","","","","","","","","","",""
"677","","f","psychophysics","173","274380","0.0-7.0-1.0-4.0-0.0-0.33","3","3","3","3","2","3","3","3","3","3","2","2","2","4","4","4","2","2","4","4","5","5","5","5","2","3","1","4","1","1","0","1","1","0","0","1","1","1","1","1","0","1","0","1","4","5","2","2","5","1","2","2","3","4","1","799285561922822145","陈","51","","","","nonmatch","","","","","","","","","","","","","","key","f","16.66600000000035","720","446","f","true","nonmatch","img/pentagon.png","三角","五边","ALT1","formal_ALT1_2","","","","","","","","","","","",""
"null","<span style='color:GreenYellow; font-size: 70px;'>正确! </span>","null","html-keyboard-response","174","274881","0.0-7.0-1.0-4.0-0.0-1.33","3","3","3","3","2","3","3","3","3","3","2","2","2","4","4","4","2","2","4","4","5","5","5","5","2","3","1","4","1","1","0","1","1","0","0","1","1","1","1","1","0","1","0","1","4","5","2","2","5","1","2","2","3","4","1","799285561922822145","陈","51","","","","","","","","","","","","","","","","","","","","","","","","","","","","","","feedback_test","","","","","","","","","","","",""
"643","","j","psychophysics","175","276527","0.0-7.0-1.0-4.0-0.0-0.34","3","3","3","3","2","3","3","3","3","3","2","2","2","4","4","4","2","2","4","4","5","5","5","5","2","3","1","4","1","1","0","1","1","0","0","1","1","1","1","1","0","1","0","1","4","5","2","2","5","1","2","2","3","4","1","799285561922822145","陈","51","","","","match","","","","","","","","","","","","","","key","j","16.665999999999816","720","446","j","true","match","img/circle.png","圆形","圆形","ALT1","formal_ALT1_2","","","","","","","","","","","",""
"null","<span style='color:GreenYellow; font-size: 70px;'>正确! </span>","null","html-keyboard-response","176","277028","0.0-7.0-1.0-4.0-0.0-1.34","3","3","3","3","2","3","3","3","3","3","2","2","2","4","4","4","2","2","4","4","5","5","5","5","2","3","1","4","1","1","0","1","1","0","0","1","1","1","1","1","0","1","0","1","4","5","2","2","5","1","2","2","3","4","1","799285561922822145","陈","51","","","","","","","","","","","","","","","","","","","","","","","","","","","","","","feedback_test","","","","","","","","","","","",""
"660","","f","psychophysics","177","278689","0.0-7.0-1.0-4.0-0.0-0.35","3","3","3","3","2","3","3","3","3","3","2","2","2","4","4","4","2","2","4","4","5","5","5","5","2","3","1","4","1","1","0","1","1","0","0","1","1","1","1","1","0","1","0","1","4","5","2","2","5","1","2","2","3","4","1","799285561922822145","陈","51","","","","nonmatch","","","","","","","","","","","","","","key","f","16.666000000000086","720","446","f","true","nonmatch","img/circle.png","三角","圆形","ALT1","formal_ALT1_2","","","","","","","","","","","",""
"null","<span style='color:GreenYellow; font-size: 70px;'>正确! </span>","null","html-keyboard-response","178","279191","0.0-7.0-1.0-4.0-0.0-1.35","3","3","3","3","2","3","3","3","3","3","2","2","2","4","4","4","2","2","4","4","5","5","5","5","2","3","1","4","1","1","0","1","1","0","0","1","1","1","1","1","0","1","0","1","4","5","2","2","5","1","2","2","3","4","1","799285561922822145","陈","51","","","","","","","","","","","","","","","","","","","","","","","","","","","","","","feedback_test","","","","","","","","","","","",""
"694","","f","psychophysics","179","280886","0.0-7.0-1.0-4.0-0.0-0.36","3","3","3","3","2","3","3","3","3","3","2","2","2","4","4","4","2","2","4","4","5","5","5","5","2","3","1","4","1","1","0","1","1","0","0","1","1","1","1","1","0","1","0","1","4","5","2","2","5","1","2","2","3","4","1","799285561922822145","陈","51","","","","nonmatch","","","","","","","","","","","","","","key","f","16.668620000000228","720","446","f","true","nonmatch","img/pentagon.png","圆形","五边","ALT1","formal_ALT1_2","","","","","","","","","","","",""
"null","<span style='color:GreenYellow; font-size: 70px;'>正确! </span>","null","html-keyboard-response","180","281387","0.0-7.0-1.0-4.0-0.0-1.36","3","3","3","3","2","3","3","3","3","3","2","2","2","4","4","4","2","2","4","4","5","5","5","5","2","3","1","4","1","1","0","1","1","0","0","1","1","1","1","1","0","1","0","1","4","5","2","2","5","1","2","2","3","4","1","799285561922822145","陈","51","","","","","","","","","","","","","","","","","","","","","","","","","","","","","","feedback_test","","","","","","","","","","","",""
"1048","","f","psychophysics","181","283437","0.0-7.0-1.0-4.0-0.0-0.37","3","3","3","3","2","3","3","3","3","3","2","2","2","4","4","4","2","2","4","4","5","5","5","5","2","3","1","4","1","1","0","1","1","0","0","1","1","1","1","1","0","1","0","1","4","5","2","2","5","1","2","2","3","4","1","799285561922822145","陈","51","","","","nonmatch","","","","","","","","","","","","","","key","f","16.665999999999602","720","446","f","true","nonmatch","img/pentagon.png","菱形","五边","ALT1","formal_ALT1_2","","","","","","","","","","","",""
