"rt","stimulus","response","trial_type","trial_index","time_elapsed","internal_node_id","ses_1","ses_2","ses_3","ses_4","ses_5","ses_6","ses_7","ses_8","ses_9","ses_10","coreself_1","coreself_2","coreself_3","coreself_4","coreself_5","coreself_6","coreself_7","coreself_8","coreself_9","coreself_10","SGPS_1","SGPS_2","SGPS_3","SGPS_4","SGPS_5","SGPS_6","SGPS_7","SGPS_8","SGPS_9","NPI1","NPI2","NPI3","NPI4","NPI5","NPI6","NPI7","NPI8","NPI9","NPI10","NPI11","NPI12","NPI13","NPI14","NPI15","hsns_1","hsns_2","hsns_3","hsns_4","hsns_5","trap1","hsns_6","hsns_7","hsns_8","hsns_9","hsns_10","subj_idx","friend_name","ParticipantID","value","success","user_agent","responses","item_order","radio_event_ids","radio_event_times","key_event_times","mouse_event_times","straightlining","zigzagging","honeypot","timeout","failed_images","failed_audio","failed_video","version_attrib","version_target","correct","IAT","screen_id","task_id","RT","condition","word","varname","summary","version_attrib2","version_target2","time_stamp","view_history","response_type","key_press","avg_frame_time","center_x","center_y","correct_response","identity","Image","question_order","correct_answer","trap1_item"
"5619","
   <p><div style = ""color: white;font-size:25px;"">您好，欢迎参加本次实验。</div> </p>
   <p><div style = ""color: white;font-size:25px;"">为充分保障您的权利，请确保您已经知晓并同意《参与实验同意书》以及《数据公开知情同意书》。</div></p>
   <p><div style = ""color: white;font-size:25px;"">如果您未见过上述内容，请咨询实验员。</div></p>
   <p><div style = ""color: white;font-size:25px;"">如果您选择继续实验，则表示您已经清楚两份知情同意书的内容并同意。</div></p>
   <p><div style = ""color: pink;font-size:30px;"">请确保您记得day0的实验编号，您将在本次实验输入该编号，若您忘记，请咨询实验员后作答。</div></p>
   <p><div style = ""color: lightblue;font-size:25px;"">请您尽可能认真地作答，我们将依据您在各问卷和按键任务中的作答质量发放报酬。</div></p>
   <p> <div style = ""color: green;font-size:25px;""><按空格键至下页></div> </p>
   "," ","html-keyboard-response","0","5620","0.0-0.0","3","3","4","4","3","3","3","4","4","4","4","5","5","5","5","5","5","5","4","5","2","1","2","2","1","2","2","4","1","1","0","1","1","0","0","0","1","1","1","1","0","0","0","1","4","1","1","1","1","2","1","1","2","4","2","783420776295698434","王","195","","","","","","","","","","","","","","","","","","","","","","","","","","","","","","","","","","","","","","","","","",""
"","","","call-function","1","5621","0.0-1.0-0.0","3","3","4","4","3","3","3","4","4","4","4","5","5","5","5","5","5","5","4","5","2","1","2","2","1","2","2","4","1","1","0","1","1","0","0","0","1","1","1","1","0","0","0","1","4","1","1","1","1","2","1","1","2","4","2","783420776295698434","王","195","","","","","","","","","","","","","","","","","","","","","","","","","","","","","","","","","","","","","","","","","",""
"13040","","{""friend_name"":""王"",""ParticipantID"":""195""}","survey-html-form","2","18662","0.0-1.0-1.0","3","3","4","4","3","3","3","4","4","4","4","5","5","5","5","5","5","5","4","5","2","1","2","2","1","2","2","4","1","1","0","1","1","0","0","0","1","1","1","1","0","0","0","1","4","1","1","1","1","2","1","1","2","4","2","783420776295698434","王","195","","","","","","","","","","","","","","","","","","","","","","","","","","","","","","","","","","","","","","","","","",""
"","","","fullscreen","3","23759","0.0-2.0","3","3","4","4","3","3","3","4","4","4","4","5","5","5","5","5","5","5","4","5","2","1","2","2","1","2","2","4","1","1","0","1","1","0","0","0","1","1","1","1","0","0","0","1","4","1","1","1","1","2","1","1","2","4","2","783420776295698434","王","195","","true","{}","","","","","","","","","","","","","","","","","","","","","","","","","","","","","","","","","","","","","","",""
"28581.60000038147","","{""Q01"":""3"",""Q02"":""3"",""Q03"":""4"",""Q04"":""4"",""Q05"":""3"",""Q06"":""3"",""Q07"":""3"",""Q08"":""4"",""Q09"":""4"",""Q10"":""4""}","survey-template","4","52344","0.0-3.0","3","3","4","4","3","3","3","4","4","4","4","5","5","5","5","5","5","5","4","5","2","1","2","2","1","2","2","4","1","1","0","1","1","0","0","0","1","1","1","1","0","0","0","1","4","1","1","1","1","2","1","1","2","4","2","783420776295698434","王","195","","","","{""Q01"":""3"",""Q02"":""3"",""Q03"":""4"",""Q04"":""4"",""Q05"":""3"",""Q06"":""3"",""Q07"":""3"",""Q08"":""4"",""Q09"":""4"",""Q10"":""4""}","[0,1,2,3,4,5,6,7,8,9]","[""Q01"",""Q02"",""Q03"",""Q04"",""Q05"",""Q06"",""Q07"",""Q08"",""Q09"",""Q10""]","[5125,6948.900000095367,8853.700000286102,10549,12525.800000190735,16388.400000095367,19006.300000190735,22428.5,26797.60000038147,27500.400000095367]","[]","[4388.300000190735,5125,6948.900000095367,8853.700000286102,10549,12525.800000190735,16388.400000095367,19006.300000190735,22428.5,26797.60000038147,27500.400000095367,28580.5]","0.4","0.2222222222222222","0","","","","","","","","","","","","","","","","","","","","","","","","","","","","","",""
"25818.800000190735","","{""Q01"":""4"",""Q02"":""5"",""Q03"":""5"",""Q04"":""5"",""Q05"":""5"",""Q06"":""5"",""Q07"":""5"",""Q08"":""5"",""Q09"":""4"",""Q10"":""5""}","survey-template","5","78169","0.0-4.0","3","3","4","4","3","3","3","4","4","4","4","5","5","5","5","5","5","5","4","5","2","1","2","2","1","2","2","4","1","1","0","1","1","0","0","0","1","1","1","1","0","0","0","1","4","1","1","1","1","2","1","1","2","4","2","783420776295698434","王","195","","","","{""Q01"":""4"",""Q02"":""5"",""Q03"":""5"",""Q04"":""5"",""Q05"":""5"",""Q06"":""5"",""Q07"":""5"",""Q08"":""5"",""Q09"":""4"",""Q10"":""5""}","[0,1,2,3,4,5,6,7,8,9]","[""Q01"",""Q02"",""Q03"",""Q04"",""Q05"",""Q06"",""Q07"",""Q08"",""Q09"",""Q10""]","[3249,5401.199999809265,7681.199999809265,9632.800000190735,11944.800000190735,13496.699999809265,15097.300000190735,19504.800000190735,23313,24936.400000095367]","[]","[3249,5401.199999809265,7681.199999809265,9632.800000190735,11944.800000190735,12888.699999809265,13496.699999809265,15097.300000190735,19504.800000190735,23313,24936.400000095367,25817.099999904633]","0.6","0.4444444444444444","0","","","","","","","","","","","","","","","","","","","","","","","","","","","","","",""
"","","","preload","6","78572","0.0-5.0","3","3","4","4","3","3","3","4","4","4","4","5","5","5","5","5","5","5","4","5","2","1","2","2","1","2","2","4","1","1","0","1","1","0","0","0","1","1","1","1","0","0","0","1","4","1","1","1","1","2","1","1","2","4","2","783420776295698434","王","195","","true","","","","","","","","","","","false","[]","[]","[]","","","","","","","","","","","","","","","","","","","","","","","","","",""
"15450","
    <h3>词语分类任务</h3>
    <p>在接下来的任务中，你需要对一系列词语进行分类。</p>
    <p>请先熟悉这些词语，这有利于你完成接下来的任务。</p>
    <table align=""center"" border=1 cellpadding=3 cellspacing=0>
    <tr> <th>类别</th> <th>词语</th> </tr>
    <tr> <td>&emsp;积极&emsp;</td> <td>&emsp;能干、全能、全才、高效、精干、天才&emsp;</td> </tr>
    <tr> <td>&emsp;消极&emsp;</td> <td>&emsp;无能、低能、废物、拙笨、愚钝、蠢笨&emsp;</td> </tr>
    <tr> <td>&emsp;自我&emsp;</td> <td>&emsp;我、我的、自己、自己的、本人、本人的&emsp;</td> </tr>
    <tr> <td>&emsp;他人&emsp;</td> <td>&emsp;他、他的、别人、别人的、他人、他人的&emsp;</td> </tr>
    </table><br/>","0","html-button-response","7","94023","0.0-6.0-0.0-0.0","3","3","4","4","3","3","3","4","4","4","4","5","5","5","5","5","5","5","4","5","2","1","2","2","1","2","2","4","1","1","0","1","1","0","0","0","1","1","1","1","0","0","0","1","4","1","1","1","1","2","1","1","2","4","2","783420776295698434","王","195","","","","","","","","","","","","","","","","","2","1","","","","","","","","","","","","","","","","","","","","","","","",""
"10534","
    <div class=""tag-bottom"">
    <p> —— 任务1：对“自我”词和“他人”词分类 ——<p/>
    不同词语会出现在屏幕中央，类别标签将始终显示在屏幕上方<p/>   
    <span style=""color:#FFD866""><b>请根据上方标签的提示，尽可能正确并且快速地做出按键反应</b></span><p/>
    当按键错误时屏幕中会出现<span style=""color:red""> X </span>，需要按另一个键纠正才能继续<br/><p/>
    请把双手食指分别放在键盘的“E”键和“I”键上<p/>
    按<空格键>开始
    </p></div>"," ","html-keyboard-response","8","104561","0.0-6.0-0.0-1.0","3","3","4","4","3","3","3","4","4","4","4","5","5","5","5","5","5","5","4","5","2","1","2","2","1","2","2","4","1","1","0","1","1","0","0","0","1","1","1","1","0","0","0","1","4","1","1","1","1","2","1","1","2","4","2","783420776295698434","王","195","","","","","","","","","","","","","","","","","","","","","","","","","","","","","","","","","","","","","","","","","",""
"null","","null","html-keyboard-response","9","104812","0.0-6.0-0.0-2.0-0.0","3","3","4","4","3","3","3","4","4","4","4","5","5","5","5","5","5","5","4","5","2","1","2","2","1","2","2","4","1","1","0","1","1","0","0","0","1","1","1","1","0","0","0","1","4","1","1","1","1","2","1","1","2","4","2","783420776295698434","王","195","","","","","","","","","","","","","","","","","","","","","","","","","","","","","","","","","","","","","","","","","",""
"1070","<p style=""color:rgb(150, 250, 100); font-size: 35px;"">自己</p>","e","categorize-html","10","105885","0.0-6.0-0.0-2.0-1.0","3","3","4","4","3","3","3","4","4","4","4","5","5","5","5","5","5","5","4","5","2","1","2","2","1","2","2","4","1","1","0","1","1","0","0","0","1","1","1","1","0","0","0","1","4","1","1","1","1","2","1","1","2","4","2","783420776295698434","王","195","","","","","","","","","","","","","","","","","","","true","1","1","ability","1070","self","自己","","","","","","","","","","","","","","","","",""
"null","","null","html-keyboard-response","11","106137","0.0-6.0-0.0-2.0-0.1","3","3","4","4","3","3","3","4","4","4","4","5","5","5","5","5","5","5","4","5","2","1","2","2","1","2","2","4","1","1","0","1","1","0","0","0","1","1","1","1","0","0","0","1","4","1","1","1","1","2","1","1","2","4","2","783420776295698434","王","195","","","","","","","","","","","","","","","","","","","","","","","","","","","","","","","","","","","","","","","","","",""
"701","<p style=""color:rgb(150, 250, 100); font-size: 35px;"">本人的</p>","e","categorize-html","12","106840","0.0-6.0-0.0-2.0-1.1","3","3","4","4","3","3","3","4","4","4","4","5","5","5","5","5","5","5","4","5","2","1","2","2","1","2","2","4","1","1","0","1","1","0","0","0","1","1","1","1","0","0","0","1","4","1","1","1","1","2","1","1","2","4","2","783420776295698434","王","195","","","","","","","","","","","","","","","","","","","true","1","1","ability","701","self","本人的","","","","","","","","","","","","","","","","",""
"null","","null","html-keyboard-response","13","107091","0.0-6.0-0.0-2.0-0.2","3","3","4","4","3","3","3","4","4","4","4","5","5","5","5","5","5","5","4","5","2","1","2","2","1","2","2","4","1","1","0","1","1","0","0","0","1","1","1","1","0","0","0","1","4","1","1","1","1","2","1","1","2","4","2","783420776295698434","王","195","","","","","","","","","","","","","","","","","","","","","","","","","","","","","","","","","","","","","","","","","",""
"597","<p style=""color:rgb(150, 250, 100); font-size: 35px;"">别人的</p>","i","categorize-html","14","107690","0.0-6.0-0.0-2.0-1.2","3","3","4","4","3","3","3","4","4","4","4","5","5","5","5","5","5","5","4","5","2","1","2","2","1","2","2","4","1","1","0","1","1","0","0","0","1","1","1","1","0","0","0","1","4","1","1","1","1","2","1","1","2","4","2","783420776295698434","王","195","","","","","","","","","","","","","","","","","","","true","1","1","ability","597","other","别人的","","","","","","","","","","","","","","","","",""
"null","","null","html-keyboard-response","15","107942","0.0-6.0-0.0-2.0-0.3","3","3","4","4","3","3","3","4","4","4","4","5","5","5","5","5","5","5","4","5","2","1","2","2","1","2","2","4","1","1","0","1","1","0","0","0","1","1","1","1","0","0","0","1","4","1","1","1","1","2","1","1","2","4","2","783420776295698434","王","195","","","","","","","","","","","","","","","","","","","","","","","","","","","","","","","","","","","","","","","","","",""
"674","<p style=""color:rgb(150, 250, 100); font-size: 35px;"">他人</p>","i","categorize-html","16","108619","0.0-6.0-0.0-2.0-1.3","3","3","4","4","3","3","3","4","4","4","4","5","5","5","5","5","5","5","4","5","2","1","2","2","1","2","2","4","1","1","0","1","1","0","0","0","1","1","1","1","0","0","0","1","4","1","1","1","1","2","1","1","2","4","2","783420776295698434","王","195","","","","","","","","","","","","","","","","","","","true","1","1","ability","674","other","他人","","","","","","","","","","","","","","","","",""
"null","","null","html-keyboard-response","17","108871","0.0-6.0-0.0-2.0-0.4","3","3","4","4","3","3","3","4","4","4","4","5","5","5","5","5","5","5","4","5","2","1","2","2","1","2","2","4","1","1","0","1","1","0","0","0","1","1","1","1","0","0","0","1","4","1","1","1","1","2","1","1","2","4","2","783420776295698434","王","195","","","","","","","","","","","","","","","","","","","","","","","","","","","","","","","","","","","","","","","","","",""
"671","<p style=""color:rgb(150, 250, 100); font-size: 35px;"">自己的</p>","e","categorize-html","18","109544","0.0-6.0-0.0-2.0-1.4","3","3","4","4","3","3","3","4","4","4","4","5","5","5","5","5","5","5","4","5","2","1","2","2","1","2","2","4","1","1","0","1","1","0","0","0","1","1","1","1","0","0","0","1","4","1","1","1","1","2","1","1","2","4","2","783420776295698434","王","195","","","","","","","","","","","","","","","","","","","true","1","1","ability","671","self","自己的","","","","","","","","","","","","","","","","",""
"null","","null","html-keyboard-response","19","109797","0.0-6.0-0.0-2.0-0.5","3","3","4","4","3","3","3","4","4","4","4","5","5","5","5","5","5","5","4","5","2","1","2","2","1","2","2","4","1","1","0","1","1","0","0","0","1","1","1","1","0","0","0","1","4","1","1","1","1","2","1","1","2","4","2","783420776295698434","王","195","","","","","","","","","","","","","","","","","","","","","","","","","","","","","","","","","","","","","","","","","",""
"711","<p style=""color:rgb(150, 250, 100); font-size: 35px;"">他人的</p>","i","categorize-html","20","110511","0.0-6.0-0.0-2.0-1.5","3","3","4","4","3","3","3","4","4","4","4","5","5","5","5","5","5","5","4","5","2","1","2","2","1","2","2","4","1","1","0","1","1","0","0","0","1","1","1","1","0","0","0","1","4","1","1","1","1","2","1","1","2","4","2","783420776295698434","王","195","","","","","","","","","","","","","","","","","","","true","1","1","ability","711","other","他人的","","","","","","","","","","","","","","","","",""
"null","","null","html-keyboard-response","21","110775","0.0-6.0-0.0-2.0-0.6","3","3","4","4","3","3","3","4","4","4","4","5","5","5","5","5","5","5","4","5","2","1","2","2","1","2","2","4","1","1","0","1","1","0","0","0","1","1","1","1","0","0","0","1","4","1","1","1","1","2","1","1","2","4","2","783420776295698434","王","195","","","","","","","","","","","","","","","","","","","","","","","","","","","","","","","","","","","","","","","","","",""
"651","<p style=""color:rgb(150, 250, 100); font-size: 35px;"">我的</p>","e","categorize-html","22","111429","0.0-6.0-0.0-2.0-1.6","3","3","4","4","3","3","3","4","4","4","4","5","5","5","5","5","5","5","4","5","2","1","2","2","1","2","2","4","1","1","0","1","1","0","0","0","1","1","1","1","0","0","0","1","4","1","1","1","1","2","1","1","2","4","2","783420776295698434","王","195","","","","","","","","","","","","","","","","","","","true","1","1","ability","651","self","我的","","","","","","","","","","","","","","","","",""
"null","","null","html-keyboard-response","23","111680","0.0-6.0-0.0-2.0-0.7","3","3","4","4","3","3","3","4","4","4","4","5","5","5","5","5","5","5","4","5","2","1","2","2","1","2","2","4","1","1","0","1","1","0","0","0","1","1","1","1","0","0","0","1","4","1","1","1","1","2","1","1","2","4","2","783420776295698434","王","195","","","","","","","","","","","","","","","","","","","","","","","","","","","","","","","","","","","","","","","","","",""
"411","<p style=""color:rgb(150, 250, 100); font-size: 35px;"">我</p>","e","categorize-html","24","112094","0.0-6.0-0.0-2.0-1.7","3","3","4","4","3","3","3","4","4","4","4","5","5","5","5","5","5","5","4","5","2","1","2","2","1","2","2","4","1","1","0","1","1","0","0","0","1","1","1","1","0","0","0","1","4","1","1","1","1","2","1","1","2","4","2","783420776295698434","王","195","","","","","","","","","","","","","","","","","","","true","1","1","ability","411","self","我","","","","","","","","","","","","","","","","",""
"null","","null","html-keyboard-response","25","112345","0.0-6.0-0.0-2.0-0.8","3","3","4","4","3","3","3","4","4","4","4","5","5","5","5","5","5","5","4","5","2","1","2","2","1","2","2","4","1","1","0","1","1","0","0","0","1","1","1","1","0","0","0","1","4","1","1","1","1","2","1","1","2","4","2","783420776295698434","王","195","","","","","","","","","","","","","","","","","","","","","","","","","","","","","","","","","","","","","","","","","",""
"521","<p style=""color:rgb(150, 250, 100); font-size: 35px;"">别人</p>","i","categorize-html","26","112869","0.0-6.0-0.0-2.0-1.8","3","3","4","4","3","3","3","4","4","4","4","5","5","5","5","5","5","5","4","5","2","1","2","2","1","2","2","4","1","1","0","1","1","0","0","0","1","1","1","1","0","0","0","1","4","1","1","1","1","2","1","1","2","4","2","783420776295698434","王","195","","","","","","","","","","","","","","","","","","","true","1","1","ability","521","other","别人","","","","","","","","","","","","","","","","",""
"null","","null","html-keyboard-response","27","113121","0.0-6.0-0.0-2.0-0.9","3","3","4","4","3","3","3","4","4","4","4","5","5","5","5","5","5","5","4","5","2","1","2","2","1","2","2","4","1","1","0","1","1","0","0","0","1","1","1","1","0","0","0","1","4","1","1","1","1","2","1","1","2","4","2","783420776295698434","王","195","","","","","","","","","","","","","","","","","","","","","","","","","","","","","","","","","","","","","","","","","",""
"1238","<p style=""color:rgb(150, 250, 100); font-size: 35px;"">他的</p>","i","categorize-html","28","114361","0.0-6.0-0.0-2.0-1.9","3","3","4","4","3","3","3","4","4","4","4","5","5","5","5","5","5","5","4","5","2","1","2","2","1","2","2","4","1","1","0","1","1","0","0","0","1","1","1","1","0","0","0","1","4","1","1","1","1","2","1","1","2","4","2","783420776295698434","王","195","","","","","","","","","","","","","","","","","","","true","1","1","ability","1238","other","他的","","","","","","","","","","","","","","","","",""
"null","","null","html-keyboard-response","29","114613","0.0-6.0-0.0-2.0-0.10","3","3","4","4","3","3","3","4","4","4","4","5","5","5","5","5","5","5","4","5","2","1","2","2","1","2","2","4","1","1","0","1","1","0","0","0","1","1","1","1","0","0","0","1","4","1","1","1","1","2","1","1","2","4","2","783420776295698434","王","195","","","","","","","","","","","","","","","","","","","","","","","","","","","","","","","","","","","","","","","","","",""
"687","<p style=""color:rgb(150, 250, 100); font-size: 35px;"">本人</p>","e","categorize-html","30","115302","0.0-6.0-0.0-2.0-1.10","3","3","4","4","3","3","3","4","4","4","4","5","5","5","5","5","5","5","4","5","2","1","2","2","1","2","2","4","1","1","0","1","1","0","0","0","1","1","1","1","0","0","0","1","4","1","1","1","1","2","1","1","2","4","2","783420776295698434","王","195","","","","","","","","","","","","","","","","","","","true","1","1","ability","687","self","本人","","","","","","","","","","","","","","","","",""
"null","","null","html-keyboard-response","31","115554","0.0-6.0-0.0-2.0-0.11","3","3","4","4","3","3","3","4","4","4","4","5","5","5","5","5","5","5","4","5","2","1","2","2","1","2","2","4","1","1","0","1","1","0","0","0","1","1","1","1","0","0","0","1","4","1","1","1","1","2","1","1","2","4","2","783420776295698434","王","195","","","","","","","","","","","","","","","","","","","","","","","","","","","","","","","","","","","","","","","","","",""
"559","<p style=""color:rgb(150, 250, 100); font-size: 35px;"">他</p>","i","categorize-html","32","116115","0.0-6.0-0.0-2.0-1.11","3","3","4","4","3","3","3","4","4","4","4","5","5","5","5","5","5","5","4","5","2","1","2","2","1","2","2","4","1","1","0","1","1","0","0","0","1","1","1","1","0","0","0","1","4","1","1","1","1","2","1","1","2","4","2","783420776295698434","王","195","","","","","","","","","","","","","","","","","","","true","1","1","ability","559","other","他","","","","","","","","","","","","","","","","",""
"6718","
    <div class=""tag-bottom""><p>
    —— 任务2：对“消极”词和“积极”词分类 ——<p/>   
    <span style=""color:#78DCE8""><b>注意上方，类别标签和需要分类的词语都已经改变</b></span><p/>
    <span style=""color:#FFD866""><b>请根据上方标签的提示，尽可能正确并且快速地做出按键反应</b></span><p/>
    当按键错误时屏幕中会出现<span style=""color:red""> X </span>，需要按另一个键纠正才能继续<br/><p/>
    请把双手食指分别放在键盘的“E”键和“I”键上<p/>
    按<空格键>开始
    </p></div>"," ","html-keyboard-response","33","122833","0.0-6.0-0.0-3.0","3","3","4","4","3","3","3","4","4","4","4","5","5","5","5","5","5","5","4","5","2","1","2","2","1","2","2","4","1","1","0","1","1","0","0","0","1","1","1","1","0","0","0","1","4","1","1","1","1","2","1","1","2","4","2","783420776295698434","王","195","","","","","","","","","","","","","","","","","","","","","","","","","","","","","","","","","","","","","","","","","",""
"null","","null","html-keyboard-response","34","123085","0.0-6.0-0.0-4.0-0.0","3","3","4","4","3","3","3","4","4","4","4","5","5","5","5","5","5","5","4","5","2","1","2","2","1","2","2","4","1","1","0","1","1","0","0","0","1","1","1","1","0","0","0","1","4","1","1","1","1","2","1","1","2","4","2","783420776295698434","王","195","","","","","","","","","","","","","","","","","","","","","","","","","","","","","","","","","","","","","","","","","",""
"1657","<p style=""color:white; font-size: 35px;"">高效</p>","i","categorize-html","35","124745","0.0-6.0-0.0-4.0-1.0","3","3","4","4","3","3","3","4","4","4","4","5","5","5","5","5","5","5","4","5","2","1","2","2","1","2","2","4","1","1","0","1","1","0","0","0","1","1","1","1","0","0","0","1","4","1","1","1","1","2","1","1","2","4","2","783420776295698434","王","195","","","","","","","","","","","","","","","","","","","true","2","2","ability","1657","positive","高效","","","","","","","","","","","","","","","","",""
"null","","null","html-keyboard-response","36","124996","0.0-6.0-0.0-4.0-0.1","3","3","4","4","3","3","3","4","4","4","4","5","5","5","5","5","5","5","4","5","2","1","2","2","1","2","2","4","1","1","0","1","1","0","0","0","1","1","1","1","0","0","0","1","4","1","1","1","1","2","1","1","2","4","2","783420776295698434","王","195","","","","","","","","","","","","","","","","","","","","","","","","","","","","","","","","","","","","","","","","","",""
"604","<p style=""color:white; font-size: 35px;"">全能</p>","i","categorize-html","37","125601","0.0-6.0-0.0-4.0-1.1","3","3","4","4","3","3","3","4","4","4","4","5","5","5","5","5","5","5","4","5","2","1","2","2","1","2","2","4","1","1","0","1","1","0","0","0","1","1","1","1","0","0","0","1","4","1","1","1","1","2","1","1","2","4","2","783420776295698434","王","195","","","","","","","","","","","","","","","","","","","true","2","2","ability","604","positive","全能","","","","","","","","","","","","","","","","",""
"null","","null","html-keyboard-response","38","125852","0.0-6.0-0.0-4.0-0.2","3","3","4","4","3","3","3","4","4","4","4","5","5","5","5","5","5","5","4","5","2","1","2","2","1","2","2","4","1","1","0","1","1","0","0","0","1","1","1","1","0","0","0","1","4","1","1","1","1","2","1","1","2","4","2","783420776295698434","王","195","","","","","","","","","","","","","","","","","","","","","","","","","","","","","","","","","","","","","","","","","",""
"552","<p style=""color:white; font-size: 35px;"">拙笨</p>","e","categorize-html","39","126407","0.0-6.0-0.0-4.0-1.2","3","3","4","4","3","3","3","4","4","4","4","5","5","5","5","5","5","5","4","5","2","1","2","2","1","2","2","4","1","1","0","1","1","0","0","0","1","1","1","1","0","0","0","1","4","1","1","1","1","2","1","1","2","4","2","783420776295698434","王","195","","","","","","","","","","","","","","","","","","","true","2","2","ability","552","negative","拙笨","","","","","","","","","","","","","","","","",""
"null","","null","html-keyboard-response","40","126658","0.0-6.0-0.0-4.0-0.3","3","3","4","4","3","3","3","4","4","4","4","5","5","5","5","5","5","5","4","5","2","1","2","2","1","2","2","4","1","1","0","1","1","0","0","0","1","1","1","1","0","0","0","1","4","1","1","1","1","2","1","1","2","4","2","783420776295698434","王","195","","","","","","","","","","","","","","","","","","","","","","","","","","","","","","","","","","","","","","","","","",""
"1032","<p style=""color:white; font-size: 35px;"">全才</p>","i","categorize-html","41","127693","0.0-6.0-0.0-4.0-1.3","3","3","4","4","3","3","3","4","4","4","4","5","5","5","5","5","5","5","4","5","2","1","2","2","1","2","2","4","1","1","0","1","1","0","0","0","1","1","1","1","0","0","0","1","4","1","1","1","1","2","1","1","2","4","2","783420776295698434","王","195","","","","","","","","","","","","","","","","","","","true","2","2","ability","1032","positive","全才","","","","","","","","","","","","","","","","",""
"null","","null","html-keyboard-response","42","127955","0.0-6.0-0.0-4.0-0.4","3","3","4","4","3","3","3","4","4","4","4","5","5","5","5","5","5","5","4","5","2","1","2","2","1","2","2","4","1","1","0","1","1","0","0","0","1","1","1","1","0","0","0","1","4","1","1","1","1","2","1","1","2","4","2","783420776295698434","王","195","","","","","","","","","","","","","","","","","","","","","","","","","","","","","","","","","","","","","","","","","",""
"603","<p style=""color:white; font-size: 35px;"">废物</p>","e","categorize-html","43","128560","0.0-6.0-0.0-4.0-1.4","3","3","4","4","3","3","3","4","4","4","4","5","5","5","5","5","5","5","4","5","2","1","2","2","1","2","2","4","1","1","0","1","1","0","0","0","1","1","1","1","0","0","0","1","4","1","1","1","1","2","1","1","2","4","2","783420776295698434","王","195","","","","","","","","","","","","","","","","","","","true","2","2","ability","603","negative","废物","","","","","","","","","","","","","","","","",""
"null","","null","html-keyboard-response","44","128814","0.0-6.0-0.0-4.0-0.5","3","3","4","4","3","3","3","4","4","4","4","5","5","5","5","5","5","5","4","5","2","1","2","2","1","2","2","4","1","1","0","1","1","0","0","0","1","1","1","1","0","0","0","1","4","1","1","1","1","2","1","1","2","4","2","783420776295698434","王","195","","","","","","","","","","","","","","","","","","","","","","","","","","","","","","","","","","","","","","","","","",""
"863","<p style=""color:white; font-size: 35px;"">无能</p>","e","categorize-html","45","129680","0.0-6.0-0.0-4.0-1.5","3","3","4","4","3","3","3","4","4","4","4","5","5","5","5","5","5","5","4","5","2","1","2","2","1","2","2","4","1","1","0","1","1","0","0","0","1","1","1","1","0","0","0","1","4","1","1","1","1","2","1","1","2","4","2","783420776295698434","王","195","","","","","","","","","","","","","","","","","","","true","2","2","ability","863","negative","无能","","","","","","","","","","","","","","","","",""
"null","","null","html-keyboard-response","46","129932","0.0-6.0-0.0-4.0-0.6","3","3","4","4","3","3","3","4","4","4","4","5","5","5","5","5","5","5","4","5","2","1","2","2","1","2","2","4","1","1","0","1","1","0","0","0","1","1","1","1","0","0","0","1","4","1","1","1","1","2","1","1","2","4","2","783420776295698434","王","195","","","","","","","","","","","","","","","","","","","","","","","","","","","","","","","","","","","","","","","","","",""
"758","<p style=""color:white; font-size: 35px;"">愚钝</p>","e","categorize-html","47","130693","0.0-6.0-0.0-4.0-1.6","3","3","4","4","3","3","3","4","4","4","4","5","5","5","5","5","5","5","4","5","2","1","2","2","1","2","2","4","1","1","0","1","1","0","0","0","1","1","1","1","0","0","0","1","4","1","1","1","1","2","1","1","2","4","2","783420776295698434","王","195","","","","","","","","","","","","","","","","","","","true","2","2","ability","758","negative","愚钝","","","","","","","","","","","","","","","","",""
"null","","null","html-keyboard-response","48","130944","0.0-6.0-0.0-4.0-0.7","3","3","4","4","3","3","3","4","4","4","4","5","5","5","5","5","5","5","4","5","2","1","2","2","1","2","2","4","1","1","0","1","1","0","0","0","1","1","1","1","0","0","0","1","4","1","1","1","1","2","1","1","2","4","2","783420776295698434","王","195","","","","","","","","","","","","","","","","","","","","","","","","","","","","","","","","","","","","","","","","","",""
"659","<p style=""color:white; font-size: 35px;"">能干</p>","i","categorize-html","49","131606","0.0-6.0-0.0-4.0-1.7","3","3","4","4","3","3","3","4","4","4","4","5","5","5","5","5","5","5","4","5","2","1","2","2","1","2","2","4","1","1","0","1","1","0","0","0","1","1","1","1","0","0","0","1","4","1","1","1","1","2","1","1","2","4","2","783420776295698434","王","195","","","","","","","","","","","","","","","","","","","true","2","2","ability","659","positive","能干","","","","","","","","","","","","","","","","",""
"null","","null","html-keyboard-response","50","131858","0.0-6.0-0.0-4.0-0.8","3","3","4","4","3","3","3","4","4","4","4","5","5","5","5","5","5","5","4","5","2","1","2","2","1","2","2","4","1","1","0","1","1","0","0","0","1","1","1","1","0","0","0","1","4","1","1","1","1","2","1","1","2","4","2","783420776295698434","王","195","","","","","","","","","","","","","","","","","","","","","","","","","","","","","","","","","","","","","","","","","",""
"993","<p style=""color:white; font-size: 35px;"">低能</p>","e","categorize-html","51","132852","0.0-6.0-0.0-4.0-1.8","3","3","4","4","3","3","3","4","4","4","4","5","5","5","5","5","5","5","4","5","2","1","2","2","1","2","2","4","1","1","0","1","1","0","0","0","1","1","1","1","0","0","0","1","4","1","1","1","1","2","1","1","2","4","2","783420776295698434","王","195","","","","","","","","","","","","","","","","","","","true","2","2","ability","993","negative","低能","","","","","","","","","","","","","","","","",""
"null","","null","html-keyboard-response","52","133112","0.0-6.0-0.0-4.0-0.9","3","3","4","4","3","3","3","4","4","4","4","5","5","5","5","5","5","5","4","5","2","1","2","2","1","2","2","4","1","1","0","1","1","0","0","0","1","1","1","1","0","0","0","1","4","1","1","1","1","2","1","1","2","4","2","783420776295698434","王","195","","","","","","","","","","","","","","","","","","","","","","","","","","","","","","","","","","","","","","","","","",""
"1182","<p style=""color:white; font-size: 35px;"">精干</p>","i","categorize-html","53","134296","0.0-6.0-0.0-4.0-1.9","3","3","4","4","3","3","3","4","4","4","4","5","5","5","5","5","5","5","4","5","2","1","2","2","1","2","2","4","1","1","0","1","1","0","0","0","1","1","1","1","0","0","0","1","4","1","1","1","1","2","1","1","2","4","2","783420776295698434","王","195","","","","","","","","","","","","","","","","","","","true","2","2","ability","1182","positive","精干","","","","","","","","","","","","","","","","",""
"null","","null","html-keyboard-response","54","134548","0.0-6.0-0.0-4.0-0.10","3","3","4","4","3","3","3","4","4","4","4","5","5","5","5","5","5","5","4","5","2","1","2","2","1","2","2","4","1","1","0","1","1","0","0","0","1","1","1","1","0","0","0","1","4","1","1","1","1","2","1","1","2","4","2","783420776295698434","王","195","","","","","","","","","","","","","","","","","","","","","","","","","","","","","","","","","","","","","","","","","",""
"605","<p style=""color:white; font-size: 35px;"">蠢笨</p>","e","categorize-html","55","135155","0.0-6.0-0.0-4.0-1.10","3","3","4","4","3","3","3","4","4","4","4","5","5","5","5","5","5","5","4","5","2","1","2","2","1","2","2","4","1","1","0","1","1","0","0","0","1","1","1","1","0","0","0","1","4","1","1","1","1","2","1","1","2","4","2","783420776295698434","王","195","","","","","","","","","","","","","","","","","","","true","2","2","ability","605","negative","蠢笨","","","","","","","","","","","","","","","","",""
"null","","null","html-keyboard-response","56","135406","0.0-6.0-0.0-4.0-0.11","3","3","4","4","3","3","3","4","4","4","4","5","5","5","5","5","5","5","4","5","2","1","2","2","1","2","2","4","1","1","0","1","1","0","0","0","1","1","1","1","0","0","0","1","4","1","1","1","1","2","1","1","2","4","2","783420776295698434","王","195","","","","","","","","","","","","","","","","","","","","","","","","","","","","","","","","","","","","","","","","","",""
"482","<p style=""color:white; font-size: 35px;"">天才</p>","i","categorize-html","57","135890","0.0-6.0-0.0-4.0-1.11","3","3","4","4","3","3","3","4","4","4","4","5","5","5","5","5","5","5","4","5","2","1","2","2","1","2","2","4","1","1","0","1","1","0","0","0","1","1","1","1","0","0","0","1","4","1","1","1","1","2","1","1","2","4","2","783420776295698434","王","195","","","","","","","","","","","","","","","","","","","true","2","2","ability","482","positive","天才","","","","","","","","","","","","","","","","",""
"98529","
    <div class=""tag-bottom""><p>
    —— 任务3：对“自我/消极”词和“他人/积极”词分类 ——<p/>
    <span style=""color:#78DCE8""><b>注意上方，之前的四类词语将混合在一起交替呈现</b></span><p/>
    <span style=""color:#FFD866""><b>请根据上方标签的提示，尽可能正确并且快速地做出按键反应</b></span><p/>
    当按键错误时屏幕中会出现<span style=""color:red""> X </span>，需要按另一个键纠正才能继续<br/><p/>
    请把双手食指分别放在键盘的“E”键和“I”键上<p/>
    按<空格键>开始
    </p></div>"," ","html-keyboard-response","58","234420","0.0-6.0-0.0-5.0","3","3","4","4","3","3","3","4","4","4","4","5","5","5","5","5","5","5","4","5","2","1","2","2","1","2","2","4","1","1","0","1","1","0","0","0","1","1","1","1","0","0","0","1","4","1","1","1","1","2","1","1","2","4","2","783420776295698434","王","195","","","","","","","","","","","","","","","","","","","","","","","","","","","","","","","","","","","","","","","","","",""
"null","","null","html-keyboard-response","59","234671","0.0-6.0-0.0-6.0-0.0","3","3","4","4","3","3","3","4","4","4","4","5","5","5","5","5","5","5","4","5","2","1","2","2","1","2","2","4","1","1","0","1","1","0","0","0","1","1","1","1","0","0","0","1","4","1","1","1","1","2","1","1","2","4","2","783420776295698434","王","195","","","","","","","","","","","","","","","","","","","","","","","","","","","","","","","","","","","","","","","","","",""
"1795","<p style=""color:rgb(150, 250, 100); font-size: 35px;"">本人</p>","e","categorize-html","60","236469","0.0-6.0-0.0-6.0-1.0","3","3","4","4","3","3","3","4","4","4","4","5","5","5","5","5","5","5","4","5","2","1","2","2","1","2","2","4","1","1","0","1","1","0","0","0","1","1","1","1","0","0","0","1","4","1","1","1","1","2","1","1","2","4","2","783420776295698434","王","195","","","","","","","","","","","","","","","","","","","true","3","3","ability","1795","self","本人","","","","","","","","","","","","","","","","",""
"null","","null","html-keyboard-response","61","236721","0.0-6.0-0.0-6.0-0.1","3","3","4","4","3","3","3","4","4","4","4","5","5","5","5","5","5","5","4","5","2","1","2","2","1","2","2","4","1","1","0","1","1","0","0","0","1","1","1","1","0","0","0","1","4","1","1","1","1","2","1","1","2","4","2","783420776295698434","王","195","","","","","","","","","","","","","","","","","","","","","","","","","","","","","","","","","","","","","","","","","",""
"498","<p style=""color:white; font-size: 35px;"">拙笨</p>","e","categorize-html","62","237221","0.0-6.0-0.0-6.0-1.1","3","3","4","4","3","3","3","4","4","4","4","5","5","5","5","5","5","5","4","5","2","1","2","2","1","2","2","4","1","1","0","1","1","0","0","0","1","1","1","1","0","0","0","1","4","1","1","1","1","2","1","1","2","4","2","783420776295698434","王","195","","","","","","","","","","","","","","","","","","","true","3","3","ability","498","negative","拙笨","","","","","","","","","","","","","","","","",""
"null","","null","html-keyboard-response","63","237472","0.0-6.0-0.0-6.0-0.2","3","3","4","4","3","3","3","4","4","4","4","5","5","5","5","5","5","5","4","5","2","1","2","2","1","2","2","4","1","1","0","1","1","0","0","0","1","1","1","1","0","0","0","1","4","1","1","1","1","2","1","1","2","4","2","783420776295698434","王","195","","","","","","","","","","","","","","","","","","","","","","","","","","","","","","","","","","","","","","","","","",""
"632","<p style=""color:rgb(150, 250, 100); font-size: 35px;"">别人的</p>","i","categorize-html","64","238107","0.0-6.0-0.0-6.0-1.2","3","3","4","4","3","3","3","4","4","4","4","5","5","5","5","5","5","5","4","5","2","1","2","2","1","2","2","4","1","1","0","1","1","0","0","0","1","1","1","1","0","0","0","1","4","1","1","1","1","2","1","1","2","4","2","783420776295698434","王","195","","","","","","","","","","","","","","","","","","","true","3","3","ability","632","other","别人的","","","","","","","","","","","","","","","","",""
"null","","null","html-keyboard-response","65","238359","0.0-6.0-0.0-6.0-0.3","3","3","4","4","3","3","3","4","4","4","4","5","5","5","5","5","5","5","4","5","2","1","2","2","1","2","2","4","1","1","0","1","1","0","0","0","1","1","1","1","0","0","0","1","4","1","1","1","1","2","1","1","2","4","2","783420776295698434","王","195","","","","","","","","","","","","","","","","","","","","","","","","","","","","","","","","","","","","","","","","","",""
"520","<p style=""color:white; font-size: 35px;"">高效</p>","i","categorize-html","66","238882","0.0-6.0-0.0-6.0-1.3","3","3","4","4","3","3","3","4","4","4","4","5","5","5","5","5","5","5","4","5","2","1","2","2","1","2","2","4","1","1","0","1","1","0","0","0","1","1","1","1","0","0","0","1","4","1","1","1","1","2","1","1","2","4","2","783420776295698434","王","195","","","","","","","","","","","","","","","","","","","true","3","3","ability","520","positive","高效","","","","","","","","","","","","","","","","",""
"null","","null","html-keyboard-response","67","239134","0.0-6.0-0.0-6.0-0.4","3","3","4","4","3","3","3","4","4","4","4","5","5","5","5","5","5","5","4","5","2","1","2","2","1","2","2","4","1","1","0","1","1","0","0","0","1","1","1","1","0","0","0","1","4","1","1","1","1","2","1","1","2","4","2","783420776295698434","王","195","","","","","","","","","","","","","","","","","","","","","","","","","","","","","","","","","","","","","","","","","",""
"636","<p style=""color:rgb(150, 250, 100); font-size: 35px;"">他人的</p>","i","categorize-html","68","239773","0.0-6.0-0.0-6.0-1.4","3","3","4","4","3","3","3","4","4","4","4","5","5","5","5","5","5","5","4","5","2","1","2","2","1","2","2","4","1","1","0","1","1","0","0","0","1","1","1","1","0","0","0","1","4","1","1","1","1","2","1","1","2","4","2","783420776295698434","王","195","","","","","","","","","","","","","","","","","","","true","3","3","ability","636","other","他人的","","","","","","","","","","","","","","","","",""
"null","","null","html-keyboard-response","69","240025","0.0-6.0-0.0-6.0-0.5","3","3","4","4","3","3","3","4","4","4","4","5","5","5","5","5","5","5","4","5","2","1","2","2","1","2","2","4","1","1","0","1","1","0","0","0","1","1","1","1","0","0","0","1","4","1","1","1","1","2","1","1","2","4","2","783420776295698434","王","195","","","","","","","","","","","","","","","","","","","","","","","","","","","","","","","","","","","","","","","","","",""
"389","<p style=""color:white; font-size: 35px;"">天才</p>","i","categorize-html","70","240417","0.0-6.0-0.0-6.0-1.5","3","3","4","4","3","3","3","4","4","4","4","5","5","5","5","5","5","5","4","5","2","1","2","2","1","2","2","4","1","1","0","1","1","0","0","0","1","1","1","1","0","0","0","1","4","1","1","1","1","2","1","1","2","4","2","783420776295698434","王","195","","","","","","","","","","","","","","","","","","","true","3","3","ability","389","positive","天才","","","","","","","","","","","","","","","","",""
"null","","null","html-keyboard-response","71","240669","0.0-6.0-0.0-6.0-0.6","3","3","4","4","3","3","3","4","4","4","4","5","5","5","5","5","5","5","4","5","2","1","2","2","1","2","2","4","1","1","0","1","1","0","0","0","1","1","1","1","0","0","0","1","4","1","1","1","1","2","1","1","2","4","2","783420776295698434","王","195","","","","","","","","","","","","","","","","","","","","","","","","","","","","","","","","","","","","","","","","","",""
"512","<p style=""color:rgb(150, 250, 100); font-size: 35px;"">我</p>","e","categorize-html","72","241183","0.0-6.0-0.0-6.0-1.6","3","3","4","4","3","3","3","4","4","4","4","5","5","5","5","5","5","5","4","5","2","1","2","2","1","2","2","4","1","1","0","1","1","0","0","0","1","1","1","1","0","0","0","1","4","1","1","1","1","2","1","1","2","4","2","783420776295698434","王","195","","","","","","","","","","","","","","","","","","","true","3","3","ability","512","self","我","","","","","","","","","","","","","","","","",""
"null","","null","html-keyboard-response","73","241434","0.0-6.0-0.0-6.0-0.7","3","3","4","4","3","3","3","4","4","4","4","5","5","5","5","5","5","5","4","5","2","1","2","2","1","2","2","4","1","1","0","1","1","0","0","0","1","1","1","1","0","0","0","1","4","1","1","1","1","2","1","1","2","4","2","783420776295698434","王","195","","","","","","","","","","","","","","","","","","","","","","","","","","","","","","","","","","","","","","","","","",""
"487","<p style=""color:white; font-size: 35px;"">低能</p>","e","categorize-html","74","241923","0.0-6.0-0.0-6.0-1.7","3","3","4","4","3","3","3","4","4","4","4","5","5","5","5","5","5","5","4","5","2","1","2","2","1","2","2","4","1","1","0","1","1","0","0","0","1","1","1","1","0","0","0","1","4","1","1","1","1","2","1","1","2","4","2","783420776295698434","王","195","","","","","","","","","","","","","","","","","","","true","3","3","ability","487","negative","低能","","","","","","","","","","","","","","","","",""
"null","","null","html-keyboard-response","75","242175","0.0-6.0-0.0-6.0-0.8","3","3","4","4","3","3","3","4","4","4","4","5","5","5","5","5","5","5","4","5","2","1","2","2","1","2","2","4","1","1","0","1","1","0","0","0","1","1","1","1","0","0","0","1","4","1","1","1","1","2","1","1","2","4","2","783420776295698434","王","195","","","","","","","","","","","","","","","","","","","","","","","","","","","","","","","","","","","","","","","","","",""
"892","<p style=""color:rgb(150, 250, 100); font-size: 35px;"">他人</p>","i","categorize-html","76","243069","0.0-6.0-0.0-6.0-1.8","3","3","4","4","3","3","3","4","4","4","4","5","5","5","5","5","5","5","4","5","2","1","2","2","1","2","2","4","1","1","0","1","1","0","0","0","1","1","1","1","0","0","0","1","4","1","1","1","1","2","1","1","2","4","2","783420776295698434","王","195","","","","","","","","","","","","","","","","","","","true","3","3","ability","892","other","他人","","","","","","","","","","","","","","","","",""
"null","","null","html-keyboard-response","77","243321","0.0-6.0-0.0-6.0-0.9","3","3","4","4","3","3","3","4","4","4","4","5","5","5","5","5","5","5","4","5","2","1","2","2","1","2","2","4","1","1","0","1","1","0","0","0","1","1","1","1","0","0","0","1","4","1","1","1","1","2","1","1","2","4","2","783420776295698434","王","195","","","","","","","","","","","","","","","","","","","","","","","","","","","","","","","","","","","","","","","","","",""
"666","<p style=""color:white; font-size: 35px;"">精干</p>","i","categorize-html","78","243991","0.0-6.0-0.0-6.0-1.9","3","3","4","4","3","3","3","4","4","4","4","5","5","5","5","5","5","5","4","5","2","1","2","2","1","2","2","4","1","1","0","1","1","0","0","0","1","1","1","1","0","0","0","1","4","1","1","1","1","2","1","1","2","4","2","783420776295698434","王","195","","","","","","","","","","","","","","","","","","","true","3","3","ability","666","positive","精干","","","","","","","","","","","","","","","","",""
"null","","null","html-keyboard-response","79","244251","0.0-6.0-0.0-6.0-0.10","3","3","4","4","3","3","3","4","4","4","4","5","5","5","5","5","5","5","4","5","2","1","2","2","1","2","2","4","1","1","0","1","1","0","0","0","1","1","1","1","0","0","0","1","4","1","1","1","1","2","1","1","2","4","2","783420776295698434","王","195","","","","","","","","","","","","","","","","","","","","","","","","","","","","","","","","","","","","","","","","","",""
"656","<p style=""color:rgb(150, 250, 100); font-size: 35px;"">本人的</p>","e","categorize-html","80","244909","0.0-6.0-0.0-6.0-1.10","3","3","4","4","3","3","3","4","4","4","4","5","5","5","5","5","5","5","4","5","2","1","2","2","1","2","2","4","1","1","0","1","1","0","0","0","1","1","1","1","0","0","0","1","4","1","1","1","1","2","1","1","2","4","2","783420776295698434","王","195","","","","","","","","","","","","","","","","","","","true","3","3","ability","656","self","本人的","","","","","","","","","","","","","","","","",""
"null","","null","html-keyboard-response","81","245161","0.0-6.0-0.0-6.0-0.11","3","3","4","4","3","3","3","4","4","4","4","5","5","5","5","5","5","5","4","5","2","1","2","2","1","2","2","4","1","1","0","1","1","0","0","0","1","1","1","1","0","0","0","1","4","1","1","1","1","2","1","1","2","4","2","783420776295698434","王","195","","","","","","","","","","","","","","","","","","","","","","","","","","","","","","","","","","","","","","","","","",""
"859","<p style=""color:white; font-size: 35px;"">废物</p>","e","categorize-html","82","246022","0.0-6.0-0.0-6.0-1.11","3","3","4","4","3","3","3","4","4","4","4","5","5","5","5","5","5","5","4","5","2","1","2","2","1","2","2","4","1","1","0","1","1","0","0","0","1","1","1","1","0","0","0","1","4","1","1","1","1","2","1","1","2","4","2","783420776295698434","王","195","","","","","","","","","","","","","","","","","","","true","3","3","ability","859","negative","废物","","","","","","","","","","","","","","","","",""
"null","","null","html-keyboard-response","83","246274","0.0-6.0-0.0-6.0-0.12","3","3","4","4","3","3","3","4","4","4","4","5","5","5","5","5","5","5","4","5","2","1","2","2","1","2","2","4","1","1","0","1","1","0","0","0","1","1","1","1","0","0","0","1","4","1","1","1","1","2","1","1","2","4","2","783420776295698434","王","195","","","","","","","","","","","","","","","","","","","","","","","","","","","","","","","","","","","","","","","","","",""
"645","<p style=""color:rgb(150, 250, 100); font-size: 35px;"">他</p>","i","categorize-html","84","246923","0.0-6.0-0.0-6.0-1.12","3","3","4","4","3","3","3","4","4","4","4","5","5","5","5","5","5","5","4","5","2","1","2","2","1","2","2","4","1","1","0","1","1","0","0","0","1","1","1","1","0","0","0","1","4","1","1","1","1","2","1","1","2","4","2","783420776295698434","王","195","","","","","","","","","","","","","","","","","","","true","3","3","ability","645","other","他","","","","","","","","","","","","","","","","",""
"null","","null","html-keyboard-response","85","247175","0.0-6.0-0.0-6.0-0.13","3","3","4","4","3","3","3","4","4","4","4","5","5","5","5","5","5","5","4","5","2","1","2","2","1","2","2","4","1","1","0","1","1","0","0","0","1","1","1","1","0","0","0","1","4","1","1","1","1","2","1","1","2","4","2","783420776295698434","王","195","","","","","","","","","","","","","","","","","","","","","","","","","","","","","","","","","","","","","","","","","",""
"737","<p style=""color:white; font-size: 35px;"">蠢笨</p>","e","categorize-html","86","247914","0.0-6.0-0.0-6.0-1.13","3","3","4","4","3","3","3","4","4","4","4","5","5","5","5","5","5","5","4","5","2","1","2","2","1","2","2","4","1","1","0","1","1","0","0","0","1","1","1","1","0","0","0","1","4","1","1","1","1","2","1","1","2","4","2","783420776295698434","王","195","","","","","","","","","","","","","","","","","","","true","3","3","ability","737","negative","蠢笨","","","","","","","","","","","","","","","","",""
"null","","null","html-keyboard-response","87","248165","0.0-6.0-0.0-6.0-0.14","3","3","4","4","3","3","3","4","4","4","4","5","5","5","5","5","5","5","4","5","2","1","2","2","1","2","2","4","1","1","0","1","1","0","0","0","1","1","1","1","0","0","0","1","4","1","1","1","1","2","1","1","2","4","2","783420776295698434","王","195","","","","","","","","","","","","","","","","","","","","","","","","","","","","","","","","","","","","","","","","","",""
"1240","<p style=""color:rgb(150, 250, 100); font-size: 35px;"">自己的</p>","e","categorize-html","88","249408","0.0-6.0-0.0-6.0-1.14","3","3","4","4","3","3","3","4","4","4","4","5","5","5","5","5","5","5","4","5","2","1","2","2","1","2","2","4","1","1","0","1","1","0","0","0","1","1","1","1","0","0","0","1","4","1","1","1","1","2","1","1","2","4","2","783420776295698434","王","195","","","","","","","","","","","","","","","","","","","true","3","3","ability","1240","self","自己的","","","","","","","","","","","","","","","","",""
"null","","null","html-keyboard-response","89","249659","0.0-6.0-0.0-6.0-0.15","3","3","4","4","3","3","3","4","4","4","4","5","5","5","5","5","5","5","4","5","2","1","2","2","1","2","2","4","1","1","0","1","1","0","0","0","1","1","1","1","0","0","0","1","4","1","1","1","1","2","1","1","2","4","2","783420776295698434","王","195","","","","","","","","","","","","","","","","","","","","","","","","","","","","","","","","","","","","","","","","","",""
"678","<p style=""color:white; font-size: 35px;"">全才</p>","i","categorize-html","90","250339","0.0-6.0-0.0-6.0-1.15","3","3","4","4","3","3","3","4","4","4","4","5","5","5","5","5","5","5","4","5","2","1","2","2","1","2","2","4","1","1","0","1","1","0","0","0","1","1","1","1","0","0","0","1","4","1","1","1","1","2","1","1","2","4","2","783420776295698434","王","195","","","","","","","","","","","","","","","","","","","true","3","3","ability","678","positive","全才","","","","","","","","","","","","","","","","",""
"null","","null","html-keyboard-response","91","250592","0.0-6.0-0.0-6.0-0.16","3","3","4","4","3","3","3","4","4","4","4","5","5","5","5","5","5","5","4","5","2","1","2","2","1","2","2","4","1","1","0","1","1","0","0","0","1","1","1","1","0","0","0","1","4","1","1","1","1","2","1","1","2","4","2","783420776295698434","王","195","","","","","","","","","","","","","","","","","","","","","","","","","","","","","","","","","","","","","","","","","",""
"696","<p style=""color:rgb(150, 250, 100); font-size: 35px;"">我的</p>","e","categorize-html","92","251290","0.0-6.0-0.0-6.0-1.16","3","3","4","4","3","3","3","4","4","4","4","5","5","5","5","5","5","5","4","5","2","1","2","2","1","2","2","4","1","1","0","1","1","0","0","0","1","1","1","1","0","0","0","1","4","1","1","1","1","2","1","1","2","4","2","783420776295698434","王","195","","","","","","","","","","","","","","","","","","","true","3","3","ability","696","self","我的","","","","","","","","","","","","","","","","",""
"null","","null","html-keyboard-response","93","251542","0.0-6.0-0.0-6.0-0.17","3","3","4","4","3","3","3","4","4","4","4","5","5","5","5","5","5","5","4","5","2","1","2","2","1","2","2","4","1","1","0","1","1","0","0","0","1","1","1","1","0","0","0","1","4","1","1","1","1","2","1","1","2","4","2","783420776295698434","王","195","","","","","","","","","","","","","","","","","","","","","","","","","","","","","","","","","","","","","","","","","",""
"737","<p style=""color:white; font-size: 35px;"">全能</p>","i","categorize-html","94","252282","0.0-6.0-0.0-6.0-1.17","3","3","4","4","3","3","3","4","4","4","4","5","5","5","5","5","5","5","4","5","2","1","2","2","1","2","2","4","1","1","0","1","1","0","0","0","1","1","1","1","0","0","0","1","4","1","1","1","1","2","1","1","2","4","2","783420776295698434","王","195","","","","","","","","","","","","","","","","","","","true","3","3","ability","737","positive","全能","","","","","","","","","","","","","","","","",""
"null","","null","html-keyboard-response","95","252547","0.0-6.0-0.0-6.0-0.18","3","3","4","4","3","3","3","4","4","4","4","5","5","5","5","5","5","5","4","5","2","1","2","2","1","2","2","4","1","1","0","1","1","0","0","0","1","1","1","1","0","0","0","1","4","1","1","1","1","2","1","1","2","4","2","783420776295698434","王","195","","","","","","","","","","","","","","","","","","","","","","","","","","","","","","","","","","","","","","","","","",""
"1094","<p style=""color:rgb(150, 250, 100); font-size: 35px;"">他的</p>","i","categorize-html","96","253643","0.0-6.0-0.0-6.0-1.18","3","3","4","4","3","3","3","4","4","4","4","5","5","5","5","5","5","5","4","5","2","1","2","2","1","2","2","4","1","1","0","1","1","0","0","0","1","1","1","1","0","0","0","1","4","1","1","1","1","2","1","1","2","4","2","783420776295698434","王","195","","","","","","","","","","","","","","","","","","","true","3","3","ability","1094","other","他的","","","","","","","","","","","","","","","","",""
"null","","null","html-keyboard-response","97","253895","0.0-6.0-0.0-6.0-0.19","3","3","4","4","3","3","3","4","4","4","4","5","5","5","5","5","5","5","4","5","2","1","2","2","1","2","2","4","1","1","0","1","1","0","0","0","1","1","1","1","0","0","0","1","4","1","1","1","1","2","1","1","2","4","2","783420776295698434","王","195","","","","","","","","","","","","","","","","","","","","","","","","","","","","","","","","","","","","","","","","","",""
"581","<p style=""color:white; font-size: 35px;"">愚钝</p>","e","categorize-html","98","254479","0.0-6.0-0.0-6.0-1.19","3","3","4","4","3","3","3","4","4","4","4","5","5","5","5","5","5","5","4","5","2","1","2","2","1","2","2","4","1","1","0","1","1","0","0","0","1","1","1","1","0","0","0","1","4","1","1","1","1","2","1","1","2","4","2","783420776295698434","王","195","","","","","","","","","","","","","","","","","","","true","3","3","ability","581","negative","愚钝","","","","","","","","","","","","","","","","",""
"null","","null","html-keyboard-response","99","254731","0.0-6.0-0.0-6.0-0.20","3","3","4","4","3","3","3","4","4","4","4","5","5","5","5","5","5","5","4","5","2","1","2","2","1","2","2","4","1","1","0","1","1","0","0","0","1","1","1","1","0","0","0","1","4","1","1","1","1","2","1","1","2","4","2","783420776295698434","王","195","","","","","","","","","","","","","","","","","","","","","","","","","","","","","","","","","","","","","","","","","",""
"962","<p style=""color:rgb(150, 250, 100); font-size: 35px;"">别人</p>","i","categorize-html","100","255695","0.0-6.0-0.0-6.0-1.20","3","3","4","4","3","3","3","4","4","4","4","5","5","5","5","5","5","5","4","5","2","1","2","2","1","2","2","4","1","1","0","1","1","0","0","0","1","1","1","1","0","0","0","1","4","1","1","1","1","2","1","1","2","4","2","783420776295698434","王","195","","","","","","","","","","","","","","","","","","","true","3","3","ability","962","other","别人","","","","","","","","","","","","","","","","",""
"null","","null","html-keyboard-response","101","255947","0.0-6.0-0.0-6.0-0.21","3","3","4","4","3","3","3","4","4","4","4","5","5","5","5","5","5","5","4","5","2","1","2","2","1","2","2","4","1","1","0","1","1","0","0","0","1","1","1","1","0","0","0","1","4","1","1","1","1","2","1","1","2","4","2","783420776295698434","王","195","","","","","","","","","","","","","","","","","","","","","","","","","","","","","","","","","","","","","","","","","",""
"852","<p style=""color:white; font-size: 35px;"">无能</p>","e","categorize-html","102","256800","0.0-6.0-0.0-6.0-1.21","3","3","4","4","3","3","3","4","4","4","4","5","5","5","5","5","5","5","4","5","2","1","2","2","1","2","2","4","1","1","0","1","1","0","0","0","1","1","1","1","0","0","0","1","4","1","1","1","1","2","1","1","2","4","2","783420776295698434","王","195","","","","","","","","","","","","","","","","","","","true","3","3","ability","852","negative","无能","","","","","","","","","","","","","","","","",""
"null","","null","html-keyboard-response","103","257058","0.0-6.0-0.0-6.0-0.22","3","3","4","4","3","3","3","4","4","4","4","5","5","5","5","5","5","5","4","5","2","1","2","2","1","2","2","4","1","1","0","1","1","0","0","0","1","1","1","1","0","0","0","1","4","1","1","1","1","2","1","1","2","4","2","783420776295698434","王","195","","","","","","","","","","","","","","","","","","","","","","","","","","","","","","","","","","","","","","","","","",""
"579","<p style=""color:rgb(150, 250, 100); font-size: 35px;"">自己</p>","i","categorize-html","104","258191","0.0-6.0-0.0-6.0-1.22","3","3","4","4","3","3","3","4","4","4","4","5","5","5","5","5","5","5","4","5","2","1","2","2","1","2","2","4","1","1","0","1","1","0","0","0","1","1","1","1","0","0","0","1","4","1","1","1","1","2","1","1","2","4","2","783420776295698434","王","195","","","","","","","","","","","","","","","","","","","false","3","3","ability","1412.304347826087","self","自己","","","","","","","","","","","","","","","","",""
"null","","null","html-keyboard-response","105","258443","0.0-6.0-0.0-6.0-0.23","3","3","4","4","3","3","3","4","4","4","4","5","5","5","5","5","5","5","4","5","2","1","2","2","1","2","2","4","1","1","0","1","1","0","0","0","1","1","1","1","0","0","0","1","4","1","1","1","1","2","1","1","2","4","2","783420776295698434","王","195","","","","","","","","","","","","","","","","","","","","","","","","","","","","","","","","","","","","","","","","","",""
"1919","<p style=""color:white; font-size: 35px;"">能干</p>","i","categorize-html","106","260365","0.0-6.0-0.0-6.0-1.23","3","3","4","4","3","3","3","4","4","4","4","5","5","5","5","5","5","5","4","5","2","1","2","2","1","2","2","4","1","1","0","1","1","0","0","0","1","1","1","1","0","0","0","1","4","1","1","1","1","2","1","1","2","4","2","783420776295698434","王","195","","","","","","","","","","","","","","","","","","","true","3","3","ability","1919","positive","能干","","","","","","","","","","","","","","","","",""
"6942","
    <div class=""tag-bottom""><p>
    —— 任务4：对“自我/消极”词和“他人/积极”词分类 ——<p/>
    <span style=""color:#78DCE8""><b>与刚才的任务完全相同，请再次对这四类词语分类</b></span><p/>
    <span style=""color:#FFD866""><b>请根据上方标签的提示，尽可能正确并且快速地做出按键反应</b></span><p/>
    当按键错误时屏幕中会出现<span style=""color:red""> X </span>，需要按另一个键纠正才能继续<br/><p/>
    请把双手食指分别放在键盘的“E”键和“I”键上<p/>
    按<空格键>开始
    </p></div>"," ","html-keyboard-response","107","267307","0.0-6.0-0.0-7.0","3","3","4","4","3","3","3","4","4","4","4","5","5","5","5","5","5","5","4","5","2","1","2","2","1","2","2","4","1","1","0","1","1","0","0","0","1","1","1","1","0","0","0","1","4","1","1","1","1","2","1","1","2","4","2","783420776295698434","王","195","","","","","","","","","","","","","","","","","","","","","","","","","","","","","","","","","","","","","","","","","",""
"null","","null","html-keyboard-response","108","267559","0.0-6.0-0.0-8.0-0.0","3","3","4","4","3","3","3","4","4","4","4","5","5","5","5","5","5","5","4","5","2","1","2","2","1","2","2","4","1","1","0","1","1","0","0","0","1","1","1","1","0","0","0","1","4","1","1","1","1","2","1","1","2","4","2","783420776295698434","王","195","","","","","","","","","","","","","","","","","","","","","","","","","","","","","","","","","","","","","","","","","",""
"893","<p style=""color:rgb(150, 250, 100); font-size: 35px;"">他</p>","i","categorize-html","109","268455","0.0-6.0-0.0-8.0-1.0","3","3","4","4","3","3","3","4","4","4","4","5","5","5","5","5","5","5","4","5","2","1","2","2","1","2","2","4","1","1","0","1","1","0","0","0","1","1","1","1","0","0","0","1","4","1","1","1","1","2","1","1","2","4","2","783420776295698434","王","195","","","","","","","","","","","","","","","","","","","true","4","4","ability","893","other","他","","","","","","","","","","","","","","","","",""
"null","","null","html-keyboard-response","110","268707","0.0-6.0-0.0-8.0-0.1","3","3","4","4","3","3","3","4","4","4","4","5","5","5","5","5","5","5","4","5","2","1","2","2","1","2","2","4","1","1","0","1","1","0","0","0","1","1","1","1","0","0","0","1","4","1","1","1","1","2","1","1","2","4","2","783420776295698434","王","195","","","","","","","","","","","","","","","","","","","","","","","","","","","","","","","","","","","","","","","","","",""
"823","<p style=""color:white; font-size: 35px;"">天才</p>","i","categorize-html","111","269532","0.0-6.0-0.0-8.0-1.1","3","3","4","4","3","3","3","4","4","4","4","5","5","5","5","5","5","5","4","5","2","1","2","2","1","2","2","4","1","1","0","1","1","0","0","0","1","1","1","1","0","0","0","1","4","1","1","1","1","2","1","1","2","4","2","783420776295698434","王","195","","","","","","","","","","","","","","","","","","","true","4","4","ability","823","positive","天才","","","","","","","","","","","","","","","","",""
"null","","null","html-keyboard-response","112","269784","0.0-6.0-0.0-8.0-0.2","3","3","4","4","3","3","3","4","4","4","4","5","5","5","5","5","5","5","4","5","2","1","2","2","1","2","2","4","1","1","0","1","1","0","0","0","1","1","1","1","0","0","0","1","4","1","1","1","1","2","1","1","2","4","2","783420776295698434","王","195","","","","","","","","","","","","","","","","","","","","","","","","","","","","","","","","","","","","","","","","","",""
"730","<p style=""color:rgb(150, 250, 100); font-size: 35px;"">我的</p>","e","categorize-html","113","270516","0.0-6.0-0.0-8.0-1.2","3","3","4","4","3","3","3","4","4","4","4","5","5","5","5","5","5","5","4","5","2","1","2","2","1","2","2","4","1","1","0","1","1","0","0","0","1","1","1","1","0","0","0","1","4","1","1","1","1","2","1","1","2","4","2","783420776295698434","王","195","","","","","","","","","","","","","","","","","","","true","4","4","ability","730","self","我的","","","","","","","","","","","","","","","","",""
"null","","null","html-keyboard-response","114","270767","0.0-6.0-0.0-8.0-0.3","3","3","4","4","3","3","3","4","4","4","4","5","5","5","5","5","5","5","4","5","2","1","2","2","1","2","2","4","1","1","0","1","1","0","0","0","1","1","1","1","0","0","0","1","4","1","1","1","1","2","1","1","2","4","2","783420776295698434","王","195","","","","","","","","","","","","","","","","","","","","","","","","","","","","","","","","","","","","","","","","","",""
"656","<p style=""color:white; font-size: 35px;"">蠢笨</p>","e","categorize-html","115","271425","0.0-6.0-0.0-8.0-1.3","3","3","4","4","3","3","3","4","4","4","4","5","5","5","5","5","5","5","4","5","2","1","2","2","1","2","2","4","1","1","0","1","1","0","0","0","1","1","1","1","0","0","0","1","4","1","1","1","1","2","1","1","2","4","2","783420776295698434","王","195","","","","","","","","","","","","","","","","","","","true","4","4","ability","656","negative","蠢笨","","","","","","","","","","","","","","","","",""
"null","","null","html-keyboard-response","116","271677","0.0-6.0-0.0-8.0-0.4","3","3","4","4","3","3","3","4","4","4","4","5","5","5","5","5","5","5","4","5","2","1","2","2","1","2","2","4","1","1","0","1","1","0","0","0","1","1","1","1","0","0","0","1","4","1","1","1","1","2","1","1","2","4","2","783420776295698434","王","195","","","","","","","","","","","","","","","","","","","","","","","","","","","","","","","","","","","","","","","","","",""
"1153","<p style=""color:rgb(150, 250, 100); font-size: 35px;"">自己的</p>","e","categorize-html","117","272832","0.0-6.0-0.0-8.0-1.4","3","3","4","4","3","3","3","4","4","4","4","5","5","5","5","5","5","5","4","5","2","1","2","2","1","2","2","4","1","1","0","1","1","0","0","0","1","1","1","1","0","0","0","1","4","1","1","1","1","2","1","1","2","4","2","783420776295698434","王","195","","","","","","","","","","","","","","","","","","","true","4","4","ability","1153","self","自己的","","","","","","","","","","","","","","","","",""
"null","","null","html-keyboard-response","118","273084","0.0-6.0-0.0-8.0-0.5","3","3","4","4","3","3","3","4","4","4","4","5","5","5","5","5","5","5","4","5","2","1","2","2","1","2","2","4","1","1","0","1","1","0","0","0","1","1","1","1","0","0","0","1","4","1","1","1","1","2","1","1","2","4","2","783420776295698434","王","195","","","","","","","","","","","","","","","","","","","","","","","","","","","","","","","","","","","","","","","","","",""
"678","<p style=""color:white; font-size: 35px;"">全才</p>","i","categorize-html","119","273764","0.0-6.0-0.0-8.0-1.5","3","3","4","4","3","3","3","4","4","4","4","5","5","5","5","5","5","5","4","5","2","1","2","2","1","2","2","4","1","1","0","1","1","0","0","0","1","1","1","1","0","0","0","1","4","1","1","1","1","2","1","1","2","4","2","783420776295698434","王","195","","","","","","","","","","","","","","","","","","","true","4","4","ability","678","positive","全才","","","","","","","","","","","","","","","","",""
"null","","null","html-keyboard-response","120","274016","0.0-6.0-0.0-8.0-0.6","3","3","4","4","3","3","3","4","4","4","4","5","5","5","5","5","5","5","4","5","2","1","2","2","1","2","2","4","1","1","0","1","1","0","0","0","1","1","1","1","0","0","0","1","4","1","1","1","1","2","1","1","2","4","2","783420776295698434","王","195","","","","","","","","","","","","","","","","","","","","","","","","","","","","","","","","","","","","","","","","","",""
"1476","<p style=""color:rgb(150, 250, 100); font-size: 35px;"">别人</p>","i","categorize-html","121","275494","0.0-6.0-0.0-8.0-1.6","3","3","4","4","3","3","3","4","4","4","4","5","5","5","5","5","5","5","4","5","2","1","2","2","1","2","2","4","1","1","0","1","1","0","0","0","1","1","1","1","0","0","0","1","4","1","1","1","1","2","1","1","2","4","2","783420776295698434","王","195","","","","","","","","","","","","","","","","","","","true","4","4","ability","1476","other","别人","","","","","","","","","","","","","","","","",""
"null","","null","html-keyboard-response","122","275746","0.0-6.0-0.0-8.0-0.7","3","3","4","4","3","3","3","4","4","4","4","5","5","5","5","5","5","5","4","5","2","1","2","2","1","2","2","4","1","1","0","1","1","0","0","0","1","1","1","1","0","0","0","1","4","1","1","1","1","2","1","1","2","4","2","783420776295698434","王","195","","","","","","","","","","","","","","","","","","","","","","","","","","","","","","","","","","","","","","","","","",""
"639","<p style=""color:white; font-size: 35px;"">愚钝</p>","e","categorize-html","123","276387","0.0-6.0-0.0-8.0-1.7","3","3","4","4","3","3","3","4","4","4","4","5","5","5","5","5","5","5","4","5","2","1","2","2","1","2","2","4","1","1","0","1","1","0","0","0","1","1","1","1","0","0","0","1","4","1","1","1","1","2","1","1","2","4","2","783420776295698434","王","195","","","","","","","","","","","","","","","","","","","true","4","4","ability","639","negative","愚钝","","","","","","","","","","","","","","","","",""
"null","","null","html-keyboard-response","124","276639","0.0-6.0-0.0-8.0-0.8","3","3","4","4","3","3","3","4","4","4","4","5","5","5","5","5","5","5","4","5","2","1","2","2","1","2","2","4","1","1","0","1","1","0","0","0","1","1","1","1","0","0","0","1","4","1","1","1","1","2","1","1","2","4","2","783420776295698434","王","195","","","","","","","","","","","","","","","","","","","","","","","","","","","","","","","","","","","","","","","","","",""
"676","<p style=""color:rgb(150, 250, 100); font-size: 35px;"">他人的</p>","i","categorize-html","125","277317","0.0-6.0-0.0-8.0-1.8","3","3","4","4","3","3","3","4","4","4","4","5","5","5","5","5","5","5","4","5","2","1","2","2","1","2","2","4","1","1","0","1","1","0","0","0","1","1","1","1","0","0","0","1","4","1","1","1","1","2","1","1","2","4","2","783420776295698434","王","195","","","","","","","","","","","","","","","","","","","true","4","4","ability","676","other","他人的","","","","","","","","","","","","","","","","",""
"null","","null","html-keyboard-response","126","277569","0.0-6.0-0.0-8.0-0.9","3","3","4","4","3","3","3","4","4","4","4","5","5","5","5","5","5","5","4","5","2","1","2","2","1","2","2","4","1","1","0","1","1","0","0","0","1","1","1","1","0","0","0","1","4","1","1","1","1","2","1","1","2","4","2","783420776295698434","王","195","","","","","","","","","","","","","","","","","","","","","","","","","","","","","","","","","","","","","","","","","",""
"712","<p style=""color:white; font-size: 35px;"">无能</p>","e","categorize-html","127","278283","0.0-6.0-0.0-8.0-1.9","3","3","4","4","3","3","3","4","4","4","4","5","5","5","5","5","5","5","4","5","2","1","2","2","1","2","2","4","1","1","0","1","1","0","0","0","1","1","1","1","0","0","0","1","4","1","1","1","1","2","1","1","2","4","2","783420776295698434","王","195","","","","","","","","","","","","","","","","","","","true","4","4","ability","712","negative","无能","","","","","","","","","","","","","","","","",""
"null","","null","html-keyboard-response","128","278535","0.0-6.0-0.0-8.0-0.10","3","3","4","4","3","3","3","4","4","4","4","5","5","5","5","5","5","5","4","5","2","1","2","2","1","2","2","4","1","1","0","1","1","0","0","0","1","1","1","1","0","0","0","1","4","1","1","1","1","2","1","1","2","4","2","783420776295698434","王","195","","","","","","","","","","","","","","","","","","","","","","","","","","","","","","","","","","","","","","","","","",""
"1064","<p style=""color:rgb(150, 250, 100); font-size: 35px;"">我</p>","e","categorize-html","129","279600","0.0-6.0-0.0-8.0-1.10","3","3","4","4","3","3","3","4","4","4","4","5","5","5","5","5","5","5","4","5","2","1","2","2","1","2","2","4","1","1","0","1","1","0","0","0","1","1","1","1","0","0","0","1","4","1","1","1","1","2","1","1","2","4","2","783420776295698434","王","195","","","","","","","","","","","","","","","","","","","true","4","4","ability","1064","self","我","","","","","","","","","","","","","","","","",""
"null","","null","html-keyboard-response","130","279864","0.0-6.0-0.0-8.0-0.11","3","3","4","4","3","3","3","4","4","4","4","5","5","5","5","5","5","5","4","5","2","1","2","2","1","2","2","4","1","1","0","1","1","0","0","0","1","1","1","1","0","0","0","1","4","1","1","1","1","2","1","1","2","4","2","783420776295698434","王","195","","","","","","","","","","","","","","","","","","","","","","","","","","","","","","","","","","","","","","","","","",""
"1087","<p style=""color:white; font-size: 35px;"">全能</p>","i","categorize-html","131","280954","0.0-6.0-0.0-8.0-1.11","3","3","4","4","3","3","3","4","4","4","4","5","5","5","5","5","5","5","4","5","2","1","2","2","1","2","2","4","1","1","0","1","1","0","0","0","1","1","1","1","0","0","0","1","4","1","1","1","1","2","1","1","2","4","2","783420776295698434","王","195","","","","","","","","","","","","","","","","","","","true","4","4","ability","1087","positive","全能","","","","","","","","","","","","","","","","",""
"null","","null","html-keyboard-response","132","281206","0.0-6.0-0.0-8.0-0.12","3","3","4","4","3","3","3","4","4","4","4","5","5","5","5","5","5","5","4","5","2","1","2","2","1","2","2","4","1","1","0","1","1","0","0","0","1","1","1","1","0","0","0","1","4","1","1","1","1","2","1","1","2","4","2","783420776295698434","王","195","","","","","","","","","","","","","","","","","","","","","","","","","","","","","","","","","","","","","","","","","",""
"1001","<p style=""color:rgb(150, 250, 100); font-size: 35px;"">他</p>","i","categorize-html","133","282209","0.0-6.0-0.0-8.0-1.12","3","3","4","4","3","3","3","4","4","4","4","5","5","5","5","5","5","5","4","5","2","1","2","2","1","2","2","4","1","1","0","1","1","0","0","0","1","1","1","1","0","0","0","1","4","1","1","1","1","2","1","1","2","4","2","783420776295698434","王","195","","","","","","","","","","","","","","","","","","","true","4","4","ability","1001","other","他","","","","","","","","","","","","","","","","",""
"null","","null","html-keyboard-response","134","282461","0.0-6.0-0.0-8.0-0.13","3","3","4","4","3","3","3","4","4","4","4","5","5","5","5","5","5","5","4","5","2","1","2","2","1","2","2","4","1","1","0","1","1","0","0","0","1","1","1","1","0","0","0","1","4","1","1","1","1","2","1","1","2","4","2","783420776295698434","王","195","","","","","","","","","","","","","","","","","","","","","","","","","","","","","","","","","","","","","","","","","",""
"812","<p style=""color:white; font-size: 35px;"">精干</p>","i","categorize-html","135","283276","0.0-6.0-0.0-8.0-1.13","3","3","4","4","3","3","3","4","4","4","4","5","5","5","5","5","5","5","4","5","2","1","2","2","1","2","2","4","1","1","0","1","1","0","0","0","1","1","1","1","0","0","0","1","4","1","1","1","1","2","1","1","2","4","2","783420776295698434","王","195","","","","","","","","","","","","","","","","","","","true","4","4","ability","812","positive","精干","","","","","","","","","","","","","","","","",""
"null","","null","html-keyboard-response","136","283541","0.0-6.0-0.0-8.0-0.14","3","3","4","4","3","3","3","4","4","4","4","5","5","5","5","5","5","5","4","5","2","1","2","2","1","2","2","4","1","1","0","1","1","0","0","0","1","1","1","1","0","0","0","1","4","1","1","1","1","2","1","1","2","4","2","783420776295698434","王","195","","","","","","","","","","","","","","","","","","","","","","","","","","","","","","","","","","","","","","","","","",""
"778","<p style=""color:rgb(150, 250, 100); font-size: 35px;"">我的</p>","e","categorize-html","137","284321","0.0-6.0-0.0-8.0-1.14","3","3","4","4","3","3","3","4","4","4","4","5","5","5","5","5","5","5","4","5","2","1","2","2","1","2","2","4","1","1","0","1","1","0","0","0","1","1","1","1","0","0","0","1","4","1","1","1","1","2","1","1","2","4","2","783420776295698434","王","195","","","","","","","","","","","","","","","","","","","true","4","4","ability","778","self","我的","","","","","","","","","","","","","","","","",""
"null","","null","html-keyboard-response","138","284573","0.0-6.0-0.0-8.0-0.15","3","3","4","4","3","3","3","4","4","4","4","5","5","5","5","5","5","5","4","5","2","1","2","2","1","2","2","4","1","1","0","1","1","0","0","0","1","1","1","1","0","0","0","1","4","1","1","1","1","2","1","1","2","4","2","783420776295698434","王","195","","","","","","","","","","","","","","","","","","","","","","","","","","","","","","","","","","","","","","","","","",""
"752","<p style=""color:white; font-size: 35px;"">愚钝</p>","e","categorize-html","139","285328","0.0-6.0-0.0-8.0-1.15","3","3","4","4","3","3","3","4","4","4","4","5","5","5","5","5","5","5","4","5","2","1","2","2","1","2","2","4","1","1","0","1","1","0","0","0","1","1","1","1","0","0","0","1","4","1","1","1","1","2","1","1","2","4","2","783420776295698434","王","195","","","","","","","","","","","","","","","","","","","true","4","4","ability","752","negative","愚钝","","","","","","","","","","","","","","","","",""
"null","","null","html-keyboard-response","140","285580","0.0-6.0-0.0-8.0-0.16","3","3","4","4","3","3","3","4","4","4","4","5","5","5","5","5","5","5","4","5","2","1","2","2","1","2","2","4","1","1","0","1","1","0","0","0","1","1","1","1","0","0","0","1","4","1","1","1","1","2","1","1","2","4","2","783420776295698434","王","195","","","","","","","","","","","","","","","","","","","","","","","","","","","","","","","","","","","","","","","","","",""
"736","<p style=""color:rgb(150, 250, 100); font-size: 35px;"">他人的</p>","i","categorize-html","141","286318","0.0-6.0-0.0-8.0-1.16","3","3","4","4","3","3","3","4","4","4","4","5","5","5","5","5","5","5","4","5","2","1","2","2","1","2","2","4","1","1","0","1","1","0","0","0","1","1","1","1","0","0","0","1","4","1","1","1","1","2","1","1","2","4","2","783420776295698434","王","195","","","","","","","","","","","","","","","","","","","true","4","4","ability","736","other","他人的","","","","","","","","","","","","","","","","",""
"null","","null","html-keyboard-response","142","286579","0.0-6.0-0.0-8.0-0.17","3","3","4","4","3","3","3","4","4","4","4","5","5","5","5","5","5","5","4","5","2","1","2","2","1","2","2","4","1","1","0","1","1","0","0","0","1","1","1","1","0","0","0","1","4","1","1","1","1","2","1","1","2","4","2","783420776295698434","王","195","","","","","","","","","","","","","","","","","","","","","","","","","","","","","","","","","","","","","","","","","",""
"2014","<p style=""color:white; font-size: 35px;"">蠢笨</p>","e","categorize-html","143","288596","0.0-6.0-0.0-8.0-1.17","3","3","4","4","3","3","3","4","4","4","4","5","5","5","5","5","5","5","4","5","2","1","2","2","1","2","2","4","1","1","0","1","1","0","0","0","1","1","1","1","0","0","0","1","4","1","1","1","1","2","1","1","2","4","2","783420776295698434","王","195","","","","","","","","","","","","","","","","","","","true","4","4","ability","2014","negative","蠢笨","","","","","","","","","","","","","","","","",""
"null","","null","html-keyboard-response","144","288849","0.0-6.0-0.0-8.0-0.18","3","3","4","4","3","3","3","4","4","4","4","5","5","5","5","5","5","5","4","5","2","1","2","2","1","2","2","4","1","1","0","1","1","0","0","0","1","1","1","1","0","0","0","1","4","1","1","1","1","2","1","1","2","4","2","783420776295698434","王","195","","","","","","","","","","","","","","","","","","","","","","","","","","","","","","","","","","","","","","","","","",""
"816","<p style=""color:rgb(150, 250, 100); font-size: 35px;"">自己</p>","e","categorize-html","145","289666","0.0-6.0-0.0-8.0-1.18","3","3","4","4","3","3","3","4","4","4","4","5","5","5","5","5","5","5","4","5","2","1","2","2","1","2","2","4","1","1","0","1","1","0","0","0","1","1","1","1","0","0","0","1","4","1","1","1","1","2","1","1","2","4","2","783420776295698434","王","195","","","","","","","","","","","","","","","","","","","true","4","4","ability","816","self","自己","","","","","","","","","","","","","","","","",""
"null","","null","html-keyboard-response","146","289918","0.0-6.0-0.0-8.0-0.19","3","3","4","4","3","3","3","4","4","4","4","5","5","5","5","5","5","5","4","5","2","1","2","2","1","2","2","4","1","1","0","1","1","0","0","0","1","1","1","1","0","0","0","1","4","1","1","1","1","2","1","1","2","4","2","783420776295698434","王","195","","","","","","","","","","","","","","","","","","","","","","","","","","","","","","","","","","","","","","","","","",""
"1082","<p style=""color:white; font-size: 35px;"">精干</p>","i","categorize-html","147","291002","0.0-6.0-0.0-8.0-1.19","3","3","4","4","3","3","3","4","4","4","4","5","5","5","5","5","5","5","4","5","2","1","2","2","1","2","2","4","1","1","0","1","1","0","0","0","1","1","1","1","0","0","0","1","4","1","1","1","1","2","1","1","2","4","2","783420776295698434","王","195","","","","","","","","","","","","","","","","","","","true","4","4","ability","1082","positive","精干","","","","","","","","","","","","","","","","",""
"null","","null","html-keyboard-response","148","291254","0.0-6.0-0.0-8.0-0.20","3","3","4","4","3","3","3","4","4","4","4","5","5","5","5","5","5","5","4","5","2","1","2","2","1","2","2","4","1","1","0","1","1","0","0","0","1","1","1","1","0","0","0","1","4","1","1","1","1","2","1","1","2","4","2","783420776295698434","王","195","","","","","","","","","","","","","","","","","","","","","","","","","","","","","","","","","","","","","","","","","",""
"1005","<p style=""color:rgb(150, 250, 100); font-size: 35px;"">我</p>","e","categorize-html","149","292262","0.0-6.0-0.0-8.0-1.20","3","3","4","4","3","3","3","4","4","4","4","5","5","5","5","5","5","5","4","5","2","1","2","2","1","2","2","4","1","1","0","1","1","0","0","0","1","1","1","1","0","0","0","1","4","1","1","1","1","2","1","1","2","4","2","783420776295698434","王","195","","","","","","","","","","","","","","","","","","","true","4","4","ability","1005","self","我","","","","","","","","","","","","","","","","",""
"null","","null","html-keyboard-response","150","292513","0.0-6.0-0.0-8.0-0.21","3","3","4","4","3","3","3","4","4","4","4","5","5","5","5","5","5","5","4","5","2","1","2","2","1","2","2","4","1","1","0","1","1","0","0","0","1","1","1","1","0","0","0","1","4","1","1","1","1","2","1","1","2","4","2","783420776295698434","王","195","","","","","","","","","","","","","","","","","","","","","","","","","","","","","","","","","","","","","","","","","",""
"1625","<p style=""color:white; font-size: 35px;"">拙笨</p>","e","categorize-html","151","294141","0.0-6.0-0.0-8.0-1.21","3","3","4","4","3","3","3","4","4","4","4","5","5","5","5","5","5","5","4","5","2","1","2","2","1","2","2","4","1","1","0","1","1","0","0","0","1","1","1","1","0","0","0","1","4","1","1","1","1","2","1","1","2","4","2","783420776295698434","王","195","","","","","","","","","","","","","","","","","","","true","4","4","ability","1625","negative","拙笨","","","","","","","","","","","","","","","","",""
"null","","null","html-keyboard-response","152","294392","0.0-6.0-0.0-8.0-0.22","3","3","4","4","3","3","3","4","4","4","4","5","5","5","5","5","5","5","4","5","2","1","2","2","1","2","2","4","1","1","0","1","1","0","0","0","1","1","1","1","0","0","0","1","4","1","1","1","1","2","1","1","2","4","2","783420776295698434","王","195","","","","","","","","","","","","","","","","","","","","","","","","","","","","","","","","","","","","","","","","","",""
"581","<p style=""color:rgb(150, 250, 100); font-size: 35px;"">别人的</p>","i","categorize-html","153","294976","0.0-6.0-0.0-8.0-1.22","3","3","4","4","3","3","3","4","4","4","4","5","5","5","5","5","5","5","4","5","2","1","2","2","1","2","2","4","1","1","0","1","1","0","0","0","1","1","1","1","0","0","0","1","4","1","1","1","1","2","1","1","2","4","2","783420776295698434","王","195","","","","","","","","","","","","","","","","","","","true","4","4","ability","581","other","别人的","","","","","","","","","","","","","","","","",""
"null","","null","html-keyboard-response","154","295228","0.0-6.0-0.0-8.0-0.23","3","3","4","4","3","3","3","4","4","4","4","5","5","5","5","5","5","5","4","5","2","1","2","2","1","2","2","4","1","1","0","1","1","0","0","0","1","1","1","1","0","0","0","1","4","1","1","1","1","2","1","1","2","4","2","783420776295698434","王","195","","","","","","","","","","","","","","","","","","","","","","","","","","","","","","","","","","","","","","","","","",""
"798","<p style=""color:white; font-size: 35px;"">高效</p>","i","categorize-html","155","296028","0.0-6.0-0.0-8.0-1.23","3","3","4","4","3","3","3","4","4","4","4","5","5","5","5","5","5","5","4","5","2","1","2","2","1","2","2","4","1","1","0","1","1","0","0","0","1","1","1","1","0","0","0","1","4","1","1","1","1","2","1","1","2","4","2","783420776295698434","王","195","","","","","","","","","","","","","","","","","","","true","4","4","ability","798","positive","高效","","","","","","","","","","","","","","","","",""
"null","","null","html-keyboard-response","156","296280","0.0-6.0-0.0-8.0-0.24","3","3","4","4","3","3","3","4","4","4","4","5","5","5","5","5","5","5","4","5","2","1","2","2","1","2","2","4","1","1","0","1","1","0","0","0","1","1","1","1","0","0","0","1","4","1","1","1","1","2","1","1","2","4","2","783420776295698434","王","195","","","","","","","","","","","","","","","","","","","","","","","","","","","","","","","","","","","","","","","","","",""
"821","<p style=""color:rgb(150, 250, 100); font-size: 35px;"">他人</p>","i","categorize-html","157","297103","0.0-6.0-0.0-8.0-1.24","3","3","4","4","3","3","3","4","4","4","4","5","5","5","5","5","5","5","4","5","2","1","2","2","1","2","2","4","1","1","0","1","1","0","0","0","1","1","1","1","0","0","0","1","4","1","1","1","1","2","1","1","2","4","2","783420776295698434","王","195","","","","","","","","","","","","","","","","","","","true","4","4","ability","821","other","他人","","","","","","","","","","","","","","","","",""
"null","","null","html-keyboard-response","158","297355","0.0-6.0-0.0-8.0-0.25","3","3","4","4","3","3","3","4","4","4","4","5","5","5","5","5","5","5","4","5","2","1","2","2","1","2","2","4","1","1","0","1","1","0","0","0","1","1","1","1","0","0","0","1","4","1","1","1","1","2","1","1","2","4","2","783420776295698434","王","195","","","","","","","","","","","","","","","","","","","","","","","","","","","","","","","","","","","","","","","","","",""
"1375","<p style=""color:white; font-size: 35px;"">高效</p>","e","categorize-html","159","299192","0.0-6.0-0.0-8.0-1.25","3","3","4","4","3","3","3","4","4","4","4","5","5","5","5","5","5","5","4","5","2","1","2","2","1","2","2","4","1","1","0","1","1","0","0","0","1","1","1","1","0","0","0","1","4","1","1","1","1","2","1","1","2","4","2","783420776295698434","王","195","","","","","","","","","","","","","","","","","","","false","4","4","ability","1531.2093023255813","positive","高效","","","","","","","","","","","","","","","","",""
"null","","null","html-keyboard-response","160","299444","0.0-6.0-0.0-8.0-0.26","3","3","4","4","3","3","3","4","4","4","4","5","5","5","5","5","5","5","4","5","2","1","2","2","1","2","2","4","1","1","0","1","1","0","0","0","1","1","1","1","0","0","0","1","4","1","1","1","1","2","1","1","2","4","2","783420776295698434","王","195","","","","","","","","","","","","","","","","","","","","","","","","","","","","","","","","","","","","","","","","","",""
"1079","<p style=""color:rgb(150, 250, 100); font-size: 35px;"">自己的</p>","i","categorize-html","161","301580","0.0-6.0-0.0-8.0-1.26","3","3","4","4","3","3","3","4","4","4","4","5","5","5","5","5","5","5","4","5","2","1","2","2","1","2","2","4","1","1","0","1","1","0","0","0","1","1","1","1","0","0","0","1","4","1","1","1","1","2","1","1","2","4","2","783420776295698434","王","195","","","","","","","","","","","","","","","","","","","false","4","4","ability","1531.2093023255813","self","自己的","","","","","","","","","","","","","","","","",""
"null","","null","html-keyboard-response","162","301832","0.0-6.0-0.0-8.0-0.27","3","3","4","4","3","3","3","4","4","4","4","5","5","5","5","5","5","5","4","5","2","1","2","2","1","2","2","4","1","1","0","1","1","0","0","0","1","1","1","1","0","0","0","1","4","1","1","1","1","2","1","1","2","4","2","783420776295698434","王","195","","","","","","","","","","","","","","","","","","","","","","","","","","","","","","","","","","","","","","","","","",""
"769","<p style=""color:white; font-size: 35px;"">拙笨</p>","e","categorize-html","163","302604","0.0-6.0-0.0-8.0-1.27","3","3","4","4","3","3","3","4","4","4","4","5","5","5","5","5","5","5","4","5","2","1","2","2","1","2","2","4","1","1","0","1","1","0","0","0","1","1","1","1","0","0","0","1","4","1","1","1","1","2","1","1","2","4","2","783420776295698434","王","195","","","","","","","","","","","","","","","","","","","true","4","4","ability","769","negative","拙笨","","","","","","","","","","","","","","","","",""
"null","","null","html-keyboard-response","164","302855","0.0-6.0-0.0-8.0-0.28","3","3","4","4","3","3","3","4","4","4","4","5","5","5","5","5","5","5","4","5","2","1","2","2","1","2","2","4","1","1","0","1","1","0","0","0","1","1","1","1","0","0","0","1","4","1","1","1","1","2","1","1","2","4","2","783420776295698434","王","195","","","","","","","","","","","","","","","","","","","","","","","","","","","","","","","","","","","","","","","","","",""
"1375","<p style=""color:rgb(150, 250, 100); font-size: 35px;"">本人的</p>","i","categorize-html","165","304970","0.0-6.0-0.0-8.0-1.28","3","3","4","4","3","3","3","4","4","4","4","5","5","5","5","5","5","5","4","5","2","1","2","2","1","2","2","4","1","1","0","1","1","0","0","0","1","1","1","1","0","0","0","1","4","1","1","1","1","2","1","1","2","4","2","783420776295698434","王","195","","","","","","","","","","","","","","","","","","","false","4","4","ability","1531.2093023255813","self","本人的","","","","","","","","","","","","","","","","",""
"null","","null","html-keyboard-response","166","305221","0.0-6.0-0.0-8.0-0.29","3","3","4","4","3","3","3","4","4","4","4","5","5","5","5","5","5","5","4","5","2","1","2","2","1","2","2","4","1","1","0","1","1","0","0","0","1","1","1","1","0","0","0","1","4","1","1","1","1","2","1","1","2","4","2","783420776295698434","王","195","","","","","","","","","","","","","","","","","","","","","","","","","","","","","","","","","","","","","","","","","",""
"882","<p style=""color:white; font-size: 35px;"">全才</p>","i","categorize-html","167","306106","0.0-6.0-0.0-8.0-1.29","3","3","4","4","3","3","3","4","4","4","4","5","5","5","5","5","5","5","4","5","2","1","2","2","1","2","2","4","1","1","0","1","1","0","0","0","1","1","1","1","0","0","0","1","4","1","1","1","1","2","1","1","2","4","2","783420776295698434","王","195","","","","","","","","","","","","","","","","","","","true","4","4","ability","882","positive","全才","","","","","","","","","","","","","","","","",""
"null","","null","html-keyboard-response","168","306358","0.0-6.0-0.0-8.0-0.30","3","3","4","4","3","3","3","4","4","4","4","5","5","5","5","5","5","5","4","5","2","1","2","2","1","2","2","4","1","1","0","1","1","0","0","0","1","1","1","1","0","0","0","1","4","1","1","1","1","2","1","1","2","4","2","783420776295698434","王","195","","","","","","","","","","","","","","","","","","","","","","","","","","","","","","","","","","","","","","","","","",""
"841","<p style=""color:rgb(150, 250, 100); font-size: 35px;"">别人的</p>","e","categorize-html","169","307564","0.0-6.0-0.0-8.0-1.30","3","3","4","4","3","3","3","4","4","4","4","5","5","5","5","5","5","5","4","5","2","1","2","2","1","2","2","4","1","1","0","1","1","0","0","0","1","1","1","1","0","0","0","1","4","1","1","1","1","2","1","1","2","4","2","783420776295698434","王","195","","","","","","","","","","","","","","","","","","","false","4","4","ability","1531.2093023255813","other","别人的","","","","","","","","","","","","","","","","",""
"null","","null","html-keyboard-response","170","307817","0.0-6.0-0.0-8.0-0.31","3","3","4","4","3","3","3","4","4","4","4","5","5","5","5","5","5","5","4","5","2","1","2","2","1","2","2","4","1","1","0","1","1","0","0","0","1","1","1","1","0","0","0","1","4","1","1","1","1","2","1","1","2","4","2","783420776295698434","王","195","","","","","","","","","","","","","","","","","","","","","","","","","","","","","","","","","","","","","","","","","",""
"1059","<p style=""color:white; font-size: 35px;"">低能</p>","e","categorize-html","171","308878","0.0-6.0-0.0-8.0-1.31","3","3","4","4","3","3","3","4","4","4","4","5","5","5","5","5","5","5","4","5","2","1","2","2","1","2","2","4","1","1","0","1","1","0","0","0","1","1","1","1","0","0","0","1","4","1","1","1","1","2","1","1","2","4","2","783420776295698434","王","195","","","","","","","","","","","","","","","","","","","true","4","4","ability","1059","negative","低能","","","","","","","","","","","","","","","","",""
"null","","null","html-keyboard-response","172","309129","0.0-6.0-0.0-8.0-0.32","3","3","4","4","3","3","3","4","4","4","4","5","5","5","5","5","5","5","4","5","2","1","2","2","1","2","2","4","1","1","0","1","1","0","0","0","1","1","1","1","0","0","0","1","4","1","1","1","1","2","1","1","2","4","2","783420776295698434","王","195","","","","","","","","","","","","","","","","","","","","","","","","","","","","","","","","","","","","","","","","","",""
"631","<p style=""color:rgb(150, 250, 100); font-size: 35px;"">本人</p>","e","categorize-html","173","309763","0.0-6.0-0.0-8.0-1.32","3","3","4","4","3","3","3","4","4","4","4","5","5","5","5","5","5","5","4","5","2","1","2","2","1","2","2","4","1","1","0","1","1","0","0","0","1","1","1","1","0","0","0","1","4","1","1","1","1","2","1","1","2","4","2","783420776295698434","王","195","","","","","","","","","","","","","","","","","","","true","4","4","ability","631","self","本人","","","","","","","","","","","","","","","","",""
"null","","null","html-keyboard-response","174","310023","0.0-6.0-0.0-8.0-0.33","3","3","4","4","3","3","3","4","4","4","4","5","5","5","5","5","5","5","4","5","2","1","2","2","1","2","2","4","1","1","0","1","1","0","0","0","1","1","1","1","0","0","0","1","4","1","1","1","1","2","1","1","2","4","2","783420776295698434","王","195","","","","","","","","","","","","","","","","","","","","","","","","","","","","","","","","","","","","","","","","","",""
"698","<p style=""color:white; font-size: 35px;"">能干</p>","i","categorize-html","175","310723","0.0-6.0-0.0-8.0-1.33","3","3","4","4","3","3","3","4","4","4","4","5","5","5","5","5","5","5","4","5","2","1","2","2","1","2","2","4","1","1","0","1","1","0","0","0","1","1","1","1","0","0","0","1","4","1","1","1","1","2","1","1","2","4","2","783420776295698434","王","195","","","","","","","","","","","","","","","","","","","true","4","4","ability","698","positive","能干","","","","","","","","","","","","","","","","",""
"null","","null","html-keyboard-response","176","310975","0.0-6.0-0.0-8.0-0.34","3","3","4","4","3","3","3","4","4","4","4","5","5","5","5","5","5","5","4","5","2","1","2","2","1","2","2","4","1","1","0","1","1","0","0","0","1","1","1","1","0","0","0","1","4","1","1","1","1","2","1","1","2","4","2","783420776295698434","王","195","","","","","","","","","","","","","","","","","","","","","","","","","","","","","","","","","","","","","","","","","",""
"539","<p style=""color:rgb(150, 250, 100); font-size: 35px;"">他人</p>","i","categorize-html","177","311516","0.0-6.0-0.0-8.0-1.34","3","3","4","4","3","3","3","4","4","4","4","5","5","5","5","5","5","5","4","5","2","1","2","2","1","2","2","4","1","1","0","1","1","0","0","0","1","1","1","1","0","0","0","1","4","1","1","1","1","2","1","1","2","4","2","783420776295698434","王","195","","","","","","","","","","","","","","","","","","","true","4","4","ability","539","other","他人","","","","","","","","","","","","","","","","",""
"null","","null","html-keyboard-response","178","311768","0.0-6.0-0.0-8.0-0.35","3","3","4","4","3","3","3","4","4","4","4","5","5","5","5","5","5","5","4","5","2","1","2","2","1","2","2","4","1","1","0","1","1","0","0","0","1","1","1","1","0","0","0","1","4","1","1","1","1","2","1","1","2","4","2","783420776295698434","王","195","","","","","","","","","","","","","","","","","","","","","","","","","","","","","","","","","","","","","","","","","",""
"587","<p style=""color:white; font-size: 35px;"">无能</p>","e","categorize-html","179","312357","0.0-6.0-0.0-8.0-1.35","3","3","4","4","3","3","3","4","4","4","4","5","5","5","5","5","5","5","4","5","2","1","2","2","1","2","2","4","1","1","0","1","1","0","0","0","1","1","1","1","0","0","0","1","4","1","1","1","1","2","1","1","2","4","2","783420776295698434","王","195","","","","","","","","","","","","","","","","","","","true","4","4","ability","587","negative","无能","","","","","","","","","","","","","","","","",""
"null","","null","html-keyboard-response","180","312607","0.0-6.0-0.0-8.0-0.36","3","3","4","4","3","3","3","4","4","4","4","5","5","5","5","5","5","5","4","5","2","1","2","2","1","2","2","4","1","1","0","1","1","0","0","0","1","1","1","1","0","0","0","1","4","1","1","1","1","2","1","1","2","4","2","783420776295698434","王","195","","","","","","","","","","","","","","","","","","","","","","","","","","","","","","","","","","","","","","","","","",""
"968","<p style=""color:rgb(150, 250, 100); font-size: 35px;"">本人</p>","e","categorize-html","181","313577","0.0-6.0-0.0-8.0-1.36","3","3","4","4","3","3","3","4","4","4","4","5","5","5","5","5","5","5","4","5","2","1","2","2","1","2","2","4","1","1","0","1","1","0","0","0","1","1","1","1","0","0","0","1","4","1","1","1","1","2","1","1","2","4","2","783420776295698434","王","195","","","","","","","","","","","","","","","","","","","true","4","4","ability","968","self","本人","","","","","","","","","","","","","","","","",""
"null","","null","html-keyboard-response","182","313829","0.0-6.0-0.0-8.0-0.37","3","3","4","4","3","3","3","4","4","4","4","5","5","5","5","5","5","5","4","5","2","1","2","2","1","2","2","4","1","1","0","1","1","0","0","0","1","1","1","1","0","0","0","1","4","1","1","1","1","2","1","1","2","4","2","783420776295698434","王","195","","","","","","","","","","","","","","","","","","","","","","","","","","","","","","","","","","","","","","","","","",""
"791","<p style=""color:white; font-size: 35px;"">低能</p>","e","categorize-html","183","314623","0.0-6.0-0.0-8.0-1.37","3","3","4","4","3","3","3","4","4","4","4","5","5","5","5","5","5","5","4","5","2","1","2","2","1","2","2","4","1","1","0","1","1","0","0","0","1","1","1","1","0","0","0","1","4","1","1","1","1","2","1","1","2","4","2","783420776295698434","王","195","","","","","","","","","","","","","","","","","","","true","4","4","ability","791","negative","低能","","","","","","","","","","","","","","","","",""
"null","","null","html-keyboard-response","184","314874","0.0-6.0-0.0-8.0-0.38","3","3","4","4","3","3","3","4","4","4","4","5","5","5","5","5","5","5","4","5","2","1","2","2","1","2","2","4","1","1","0","1","1","0","0","0","1","1","1","1","0","0","0","1","4","1","1","1","1","2","1","1","2","4","2","783420776295698434","王","195","","","","","","","","","","","","","","","","","","","","","","","","","","","","","","","","","","","","","","","","","",""
"566","<p style=""color:rgb(150, 250, 100); font-size: 35px;"">他的</p>","i","categorize-html","185","315443","0.0-6.0-0.0-8.0-1.38","3","3","4","4","3","3","3","4","4","4","4","5","5","5","5","5","5","5","4","5","2","1","2","2","1","2","2","4","1","1","0","1","1","0","0","0","1","1","1","1","0","0","0","1","4","1","1","1","1","2","1","1","2","4","2","783420776295698434","王","195","","","","","","","","","","","","","","","","","","","true","4","4","ability","566","other","他的","","","","","","","","","","","","","","","","",""
"null","","null","html-keyboard-response","186","315694","0.0-6.0-0.0-8.0-0.39","3","3","4","4","3","3","3","4","4","4","4","5","5","5","5","5","5","5","4","5","2","1","2","2","1","2","2","4","1","1","0","1","1","0","0","0","1","1","1","1","0","0","0","1","4","1","1","1","1","2","1","1","2","4","2","783420776295698434","王","195","","","","","","","","","","","","","","","","","","","","","","","","","","","","","","","","","","","","","","","","","",""
"542","<p style=""color:white; font-size: 35px;"">全能</p>","i","categorize-html","187","316238","0.0-6.0-0.0-8.0-1.39","3","3","4","4","3","3","3","4","4","4","4","5","5","5","5","5","5","5","4","5","2","1","2","2","1","2","2","4","1","1","0","1","1","0","0","0","1","1","1","1","0","0","0","1","4","1","1","1","1","2","1","1","2","4","2","783420776295698434","王","195","","","","","","","","","","","","","","","","","","","true","4","4","ability","542","positive","全能","","","","","","","","","","","","","","","","",""
"null","","null","html-keyboard-response","188","316491","0.0-6.0-0.0-8.0-0.40","3","3","4","4","3","3","3","4","4","4","4","5","5","5","5","5","5","5","4","5","2","1","2","2","1","2","2","4","1","1","0","1","1","0","0","0","1","1","1","1","0","0","0","1","4","1","1","1","1","2","1","1","2","4","2","783420776295698434","王","195","","","","","","","","","","","","","","","","","","","","","","","","","","","","","","","","","","","","","","","","","",""
"960","<p style=""color:rgb(150, 250, 100); font-size: 35px;"">本人的</p>","e","categorize-html","189","317453","0.0-6.0-0.0-8.0-1.40","3","3","4","4","3","3","3","4","4","4","4","5","5","5","5","5","5","5","4","5","2","1","2","2","1","2","2","4","1","1","0","1","1","0","0","0","1","1","1","1","0","0","0","1","4","1","1","1","1","2","1","1","2","4","2","783420776295698434","王","195","","","","","","","","","","","","","","","","","","","true","4","4","ability","960","self","本人的","","","","","","","","","","","","","","","","",""
"null","","null","html-keyboard-response","190","317705","0.0-6.0-0.0-8.0-0.41","3","3","4","4","3","3","3","4","4","4","4","5","5","5","5","5","5","5","4","5","2","1","2","2","1","2","2","4","1","1","0","1","1","0","0","0","1","1","1","1","0","0","0","1","4","1","1","1","1","2","1","1","2","4","2","783420776295698434","王","195","","","","","","","","","","","","","","","","","","","","","","","","","","","","","","","","","","","","","","","","","",""
"501","<p style=""color:white; font-size: 35px;"">废物</p>","e","categorize-html","191","318209","0.0-6.0-0.0-8.0-1.41","3","3","4","4","3","3","3","4","4","4","4","5","5","5","5","5","5","5","4","5","2","1","2","2","1","2","2","4","1","1","0","1","1","0","0","0","1","1","1","1","0","0","0","1","4","1","1","1","1","2","1","1","2","4","2","783420776295698434","王","195","","","","","","","","","","","","","","","","","","","true","4","4","ability","501","negative","废物","","","","","","","","","","","","","","","","",""
"null","","null","html-keyboard-response","192","318461","0.0-6.0-0.0-8.0-0.42","3","3","4","4","3","3","3","4","4","4","4","5","5","5","5","5","5","5","4","5","2","1","2","2","1","2","2","4","1","1","0","1","1","0","0","0","1","1","1","1","0","0","0","1","4","1","1","1","1","2","1","1","2","4","2","783420776295698434","王","195","","","","","","","","","","","","","","","","","","","","","","","","","","","","","","","","","","","","","","","","","",""
