"rt","stimulus","response","trial_type","trial_index","time_elapsed","internal_node_id","ses_1","ses_2","ses_3","ses_4","ses_5","ses_6","ses_7","ses_8","ses_9","ses_10","coreself_1","coreself_2","coreself_3","coreself_4","coreself_5","coreself_6","coreself_7","coreself_8","coreself_9","coreself_10","SGPS_1","SGPS_2","SGPS_3","SGPS_4","SGPS_5","SGPS_6","SGPS_7","SGPS_8","SGPS_9","NPI1","NPI2","NPI3","NPI4","NPI5","NPI6","NPI7","NPI8","NPI9","NPI10","NPI11","NPI12","NPI13","NPI14","NPI15","hsns_1","hsns_2","hsns_3","hsns_4","hsns_5","trap1","hsns_6","hsns_7","hsns_8","hsns_9","hsns_10","subj_idx","friend_name","ParticipantID","value","success","user_agent","responses","item_order","radio_event_ids","radio_event_times","key_event_times","mouse_event_times","straightlining","zigzagging","honeypot","timeout","failed_images","failed_audio","failed_video","view_history","response_type","key_press","avg_frame_time","center_x","center_y","correct_response","correct","identity","Image","word","condition","task_id","screen_id","time_stamp","version_attrib2","version_target2","IAT","RT","varname","summary","version_attrib","version_target","question_order","correct_answer","trap1_item"
"13233","
   <p><div style = ""color: white;font-size:25px;"">您好，欢迎参加本次实验。</div> </p>
   <p><div style = ""color: white;font-size:25px;"">为充分保障您的权利，请确保您已经知晓并同意《参与实验同意书》以及《数据公开知情同意书》。</div></p>
   <p><div style = ""color: white;font-size:25px;"">如果您未见过上述内容，请咨询实验员。</div></p>
   <p><div style = ""color: white;font-size:25px;"">如果您选择继续实验，则表示您已经清楚两份知情同意书的内容并同意。</div></p>
   <p><div style = ""color: pink;font-size:30px;"">请确保您记得day0的实验编号，您将在本次实验输入该编号，若您忘记，请咨询实验员后作答。</div></p>
   <p><div style = ""color: lightblue;font-size:25px;"">请您尽可能认真地作答，我们将依据您在各问卷和按键任务中的作答质量发放报酬。</div></p>
   <p> <div style = ""color: green;font-size:25px;""><按空格键至下页></div> </p>
   "," ","html-keyboard-response","0","13236","0.0-0.0","4","4","4","4","4","4","4","4","4","4","5","5","5","5","5","5","5","5","5","5","1","1","1","1","1","1","1","1","1","0","1","0","0","0","1","0","0","0","0","0","0","0","1","0","5","1","5","1","1","1","3","5","3","4","1","783441385641742337","陈","141","","","","","","","","","","","","","","","","","","","","","","","","","","","","","","","","","","","","","","","","","",""
"","","","call-function","1","13237","0.0-1.0-0.0","4","4","4","4","4","4","4","4","4","4","5","5","5","5","5","5","5","5","5","5","1","1","1","1","1","1","1","1","1","0","1","0","0","0","1","0","0","0","0","0","0","0","1","0","5","1","5","1","1","1","3","5","3","4","1","783441385641742337","陈","141","","","","","","","","","","","","","","","","","","","","","","","","","","","","","","","","","","","","","","","","","",""
"22470","","{""friend_name"":""陈"",""ParticipantID"":""141""}","survey-html-form","2","35708","0.0-1.0-1.0","4","4","4","4","4","4","4","4","4","4","5","5","5","5","5","5","5","5","5","5","1","1","1","1","1","1","1","1","1","0","1","0","0","0","1","0","0","0","0","0","0","0","1","0","5","1","5","1","1","1","3","5","3","4","1","783441385641742337","陈","141","","","","","","","","","","","","","","","","","","","","","","","","","","","","","","","","","","","","","","","","","",""
"","","","fullscreen","3","41633","0.0-2.0","4","4","4","4","4","4","4","4","4","4","5","5","5","5","5","5","5","5","5","5","1","1","1","1","1","1","1","1","1","0","1","0","0","0","1","0","0","0","0","0","0","0","1","0","5","1","5","1","1","1","3","5","3","4","1","783441385641742337","陈","141","","true","{}","","","","","","","","","","","","","","","","","","","","","","","","","","","","","","","","","","","","","","",""
"30066.099999904633","","{""Q01"":""4"",""Q02"":""4"",""Q03"":""4"",""Q04"":""4"",""Q05"":""4"",""Q06"":""4"",""Q07"":""4"",""Q08"":""4"",""Q09"":""4"",""Q10"":""4""}","survey-template","4","71703","0.0-3.0","4","4","4","4","4","4","4","4","4","4","5","5","5","5","5","5","5","5","5","5","1","1","1","1","1","1","1","1","1","0","1","0","0","0","1","0","0","0","0","0","0","0","1","0","5","1","5","1","1","1","3","5","3","4","1","783441385641742337","陈","141","","","","{""Q01"":""4"",""Q02"":""4"",""Q03"":""4"",""Q04"":""4"",""Q05"":""4"",""Q06"":""4"",""Q07"":""4"",""Q08"":""4"",""Q09"":""4"",""Q10"":""4""}","[0,1,2,3,4,5,6,7,8,9]","[""Q01"",""Q02"",""Q03"",""Q04"",""Q05"",""Q06"",""Q07"",""Q08"",""Q09"",""Q10""]","[6023.400000095367,7823,10072,12071.200000047684,16663.799999952316,18616.200000047684,20151.700000047684,24799.5,27767.599999904633,29239.599999904633]","[]","[6023.400000095367,7823,10072,12071.200000047684,16663.799999952316,18616.200000047684,20151.700000047684,24799.5,27767.599999904633,29239.599999904633,30063.900000095367]","0.5","0.5555555555555556","0","","","","","","","","","","","","","","","","","","","","","","","","","","","","","",""
"25317.799999952316","","{""Q01"":""5"",""Q02"":""5"",""Q03"":""5"",""Q04"":""5"",""Q05"":""5"",""Q06"":""5"",""Q07"":""5"",""Q08"":""5"",""Q09"":""5"",""Q10"":""5""}","survey-template","5","97031","0.0-4.0","4","4","4","4","4","4","4","4","4","4","5","5","5","5","5","5","5","5","5","5","1","1","1","1","1","1","1","1","1","0","1","0","0","0","1","0","0","0","0","0","0","0","1","0","5","1","5","1","1","1","3","5","3","4","1","783441385641742337","陈","141","","","","{""Q01"":""5"",""Q02"":""5"",""Q03"":""5"",""Q04"":""5"",""Q05"":""5"",""Q06"":""5"",""Q07"":""5"",""Q08"":""5"",""Q09"":""5"",""Q10"":""5""}","[0,1,2,3,4,5,6,7,8,9]","[""Q01"",""Q02"",""Q03"",""Q04"",""Q05"",""Q06"",""Q07"",""Q08"",""Q10"",""Q09""]","[3243.0999999046326,7154.899999856949,8339.299999952316,10915.099999904633,13283.299999952316,14556.399999856949,16083,19603.599999904633,23843.200000047684,24571.299999952316]","[]","[2491,3243.0999999046326,7154.899999856949,8339.299999952316,10915.099999904633,13283.299999952316,14556.399999856949,16083,19603.599999904633,22243.89999985695,23843.200000047684,24571.299999952316,25315.299999952316]","0.6","0.7777777777777778","0","","","","","","","","","","","","","","","","","","","","","","","","","","","","","",""
"","","","preload","6","97290","0.0-5.0","4","4","4","4","4","4","4","4","4","4","5","5","5","5","5","5","5","5","5","5","1","1","1","1","1","1","1","1","1","0","1","0","0","0","1","0","0","0","0","0","0","0","1","0","5","1","5","1","1","1","3","5","3","4","1","783441385641742337","陈","141","","true","","","","","","","","","","","false","[]","[]","[]","","","","","","","","","","","","","","","","","","","","","","","","","",""
"23673","","","instructions","7","120964","0.0-6.0","4","4","4","4","4","4","4","4","4","4","5","5","5","5","5","5","5","5","5","5","1","1","1","1","1","1","1","1","1","0","1","0","0","0","1","0","0","0","0","0","0","0","1","0","5","1","5","1","1","1","3","5","3","4","1","783441385641742337","陈","141","","","","","","","","","","","","","","","","","[{""page_index"":0,""viewing_time"":23673}]","","","","","","","","","","","","","","","","","","","","","","","","",""
"45462","","","instructions","8","166429","0.0-7.0-1.0-0.0","4","4","4","4","4","4","4","4","4","4","5","5","5","5","5","5","5","5","5","5","1","1","1","1","1","1","1","1","1","0","1","0","0","0","1","0","0","0","0","0","0","0","1","0","5","1","5","1","1","1","3","5","3","4","1","783441385641742337","陈","141","","","","","","","","","","","","","","","","","[{""page_index"":0,""viewing_time"":27495},{""page_index"":1,""viewing_time"":14559},{""page_index"":2,""viewing_time"":3408}]","","","","","","","","","","","","","","","","","","","","","","","","",""
"null","","null","psychophysics","9","168637","0.0-7.0-1.0-1.0-0.0-0.0","4","4","4","4","4","4","4","4","4","4","5","5","5","5","5","5","5","5","5","5","1","1","1","1","1","1","1","1","1","0","1","0","0","0","1","0","0","0","0","0","0","0","1","0","5","1","5","1","1","1","3","5","3","4","1","783441385641742337","陈","141","","","","null","","","","","","","","","","","","","","key","null","16.587267175572524","720","446","f","false","nonmatch","img/triangle.png","五边","三角","ALT1_2","prac_ALT1_2","","","","","","","","","","","",""
"null","<span class='add_' style='color:yellow; font-size: 70px;'> 太慢! </span>","null","html-keyboard-response","10","169139","0.0-7.0-1.0-1.0-0.0-1.0","4","4","4","4","4","4","4","4","4","4","5","5","5","5","5","5","5","5","5","5","1","1","1","1","1","1","1","1","1","0","1","0","0","0","1","0","0","0","0","0","0","0","1","0","5","1","5","1","1","1","3","5","3","4","1","783441385641742337","陈","141","","","","","","","","","","","","","","","","","","","","","","","","","","","","","","feedback_test","","","","","","","","","","","",""
"null","","null","psychophysics","11","171342","0.0-7.0-1.0-1.0-0.0-0.1","4","4","4","4","4","4","4","4","4","4","5","5","5","5","5","5","5","5","5","5","1","1","1","1","1","1","1","1","1","0","1","0","0","0","1","0","0","0","0","0","0","0","1","0","5","1","5","1","1","1","3","5","3","4","1","783441385641742337","陈","141","","","","null","","","","","","","","","","","","","","key","null","16.69910687022889","720","446","j","false","match","img/triangle.png","三角","三角","ALT1_2","prac_ALT1_2","","","","","","","","","","","",""
"null","<span class='add_' style='color:yellow; font-size: 70px;'> 太慢! </span>","null","html-keyboard-response","12","171849","0.0-7.0-1.0-1.0-0.0-1.1","4","4","4","4","4","4","4","4","4","4","5","5","5","5","5","5","5","5","5","5","1","1","1","1","1","1","1","1","1","0","1","0","0","0","1","0","0","0","0","0","0","0","1","0","5","1","5","1","1","1","3","5","3","4","1","783441385641742337","陈","141","","","","","","","","","","","","","","","","","","","","","","","","","","","","","","feedback_test","","","","","","","","","","","",""
"246","","j","psychophysics","13","173098","0.0-7.0-1.0-1.0-0.0-0.2","4","4","4","4","4","4","4","4","4","4","5","5","5","5","5","5","5","5","5","5","1","1","1","1","1","1","1","1","1","0","1","0","0","0","1","0","0","0","0","0","0","0","1","0","5","1","5","1","1","1","3","5","3","4","1","783441385641742337","陈","141","","","","match","","","","","","","","","","","","","","key","j","16.698918918918935","720","446","j","true","match","img/diamond.png","菱形","菱形","ALT1_2","prac_ALT1_2","","","","","","","","","","","",""
"null","<span style='color:GreenYellow; font-size: 70px;'>正确! </span>","null","html-keyboard-response","14","173600","0.0-7.0-1.0-1.0-0.0-1.2","4","4","4","4","4","4","4","4","4","4","5","5","5","5","5","5","5","5","5","5","1","1","1","1","1","1","1","1","1","0","1","0","0","0","1","0","0","0","0","0","0","0","1","0","5","1","5","1","1","1","3","5","3","4","1","783441385641742337","陈","141","","","","","","","","","","","","","","","","","","","","","","","","","","","","","","feedback_test","","","","","","","","","","","",""
"null","","null","psychophysics","15","175804","0.0-7.0-1.0-1.0-0.0-0.3","4","4","4","4","4","4","4","4","4","4","5","5","5","5","5","5","5","5","5","5","1","1","1","1","1","1","1","1","1","0","1","0","0","0","1","0","0","0","0","0","0","0","1","0","5","1","5","1","1","1","3","5","3","4","1","783441385641742337","陈","141","","","","null","","","","","","","","","","","","","","key","null","16.699587786259602","720","446","f","false","nonmatch","img/ellipse.png","菱形","椭圆","ALT1_2","prac_ALT1_2","","","","","","","","","","","",""
"null","<span class='add_' style='color:yellow; font-size: 70px;'> 太慢! </span>","null","html-keyboard-response","16","176305","0.0-7.0-1.0-1.0-0.0-1.3","4","4","4","4","4","4","4","4","4","4","5","5","5","5","5","5","5","5","5","5","1","1","1","1","1","1","1","1","1","0","1","0","0","0","1","0","0","0","0","0","0","0","1","0","5","1","5","1","1","1","3","5","3","4","1","783441385641742337","陈","141","","","","","","","","","","","","","","","","","","","","","","","","","","","","","","feedback_test","","","","","","","","","","","",""
"239","","j","psychophysics","17","177547","0.0-7.0-1.0-1.0-0.0-0.4","4","4","4","4","4","4","4","4","4","4","5","5","5","5","5","5","5","5","5","5","1","1","1","1","1","1","1","1","1","0","1","0","0","0","1","0","0","0","0","0","0","0","1","0","5","1","5","1","1","1","3","5","3","4","1","783441385641742337","陈","141","","","","match","","","","","","","","","","","","","","key","j","16.700041095890448","720","446","j","true","match","img/ellipse.png","椭圆","椭圆","ALT1_2","prac_ALT1_2","","","","","","","","","","","",""
"null","<span style='color:GreenYellow; font-size: 70px;'>正确! </span>","null","html-keyboard-response","18","178048","0.0-7.0-1.0-1.0-0.0-1.4","4","4","4","4","4","4","4","4","4","4","5","5","5","5","5","5","5","5","5","5","1","1","1","1","1","1","1","1","1","0","1","0","0","0","1","0","0","0","0","0","0","0","1","0","5","1","5","1","1","1","3","5","3","4","1","783441385641742337","陈","141","","","","","","","","","","","","","","","","","","","","","","","","","","","","","","feedback_test","","","","","","","","","","","",""
"201","","j","psychophysics","19","179251","0.0-7.0-1.0-1.0-0.0-0.5","4","4","4","4","4","4","4","4","4","4","5","5","5","5","5","5","5","5","5","5","1","1","1","1","1","1","1","1","1","0","1","0","0","0","1","0","0","0","0","0","0","0","1","0","5","1","5","1","1","1","3","5","3","4","1","783441385641742337","陈","141","","","","match","","","","","","","","","","","","","","key","j","16.70035211267614","720","446","j","true","match","img/triangle.png","三角","三角","ALT1_2","prac_ALT1_2","","","","","","","","","","","",""
"null","<span style='color:GreenYellow; font-size: 70px;'>正确! </span>","null","html-keyboard-response","20","179752","0.0-7.0-1.0-1.0-0.0-1.5","4","4","4","4","4","4","4","4","4","4","5","5","5","5","5","5","5","5","5","5","1","1","1","1","1","1","1","1","1","0","1","0","0","0","1","0","0","0","0","0","0","0","1","0","5","1","5","1","1","1","3","5","3","4","1","783441385641742337","陈","141","","","","","","","","","","","","","","","","","","","","","","","","","","","","","","feedback_test","","","","","","","","","","","",""
"330","","j","psychophysics","21","181083","0.0-7.0-1.0-1.0-0.0-0.6","4","4","4","4","4","4","4","4","4","4","5","5","5","5","5","5","5","5","5","5","1","1","1","1","1","1","1","1","1","0","1","0","0","0","1","0","0","0","0","0","0","0","1","0","5","1","5","1","1","1","3","5","3","4","1","783441385641742337","陈","141","","","","match","","","","","","","","","","","","","","key","j","16.699443037974607","720","446","f","false","nonmatch","img/ellipse.png","五边","椭圆","ALT1_2","prac_ALT1_2","","","","","","","","","","","",""
"null","<span style='color:red; font-size: 70px;'>错误! </span>","null","html-keyboard-response","22","181584","0.0-7.0-1.0-1.0-0.0-1.6","4","4","4","4","4","4","4","4","4","4","5","5","5","5","5","5","5","5","5","5","1","1","1","1","1","1","1","1","1","0","1","0","0","0","1","0","0","0","0","0","0","0","1","0","5","1","5","1","1","1","3","5","3","4","1","783441385641742337","陈","141","","","","","","","","","","","","","","","","","","","","","","","","","","","","","","feedback_test","","","","","","","","","","","",""
"273","","j","psychophysics","23","182859","0.0-7.0-1.0-1.0-0.0-0.7","4","4","4","4","4","4","4","4","4","4","5","5","5","5","5","5","5","5","5","5","1","1","1","1","1","1","1","1","1","0","1","0","0","0","1","0","0","0","0","0","0","0","1","0","5","1","5","1","1","1","3","5","3","4","1","783441385641742337","陈","141","","","","match","","","","","","","","","","","","","","key","j","16.69984000000016","720","446","j","true","match","img/pentagon.png","五边","五边","ALT1_2","prac_ALT1_2","","","","","","","","","","","",""
"null","<span style='color:GreenYellow; font-size: 70px;'>正确! </span>","null","html-keyboard-response","24","183371","0.0-7.0-1.0-1.0-0.0-1.7","4","4","4","4","4","4","4","4","4","4","5","5","5","5","5","5","5","5","5","5","1","1","1","1","1","1","1","1","1","0","1","0","0","0","1","0","0","0","0","0","0","0","1","0","5","1","5","1","1","1","3","5","3","4","1","783441385641742337","陈","141","","","","","","","","","","","","","","","","","","","","","","","","","","","","","","feedback_test","","","","","","","","","","","",""
"214","","j","psychophysics","25","184587","0.0-7.0-1.0-1.0-0.0-0.8","4","4","4","4","4","4","4","4","4","4","5","5","5","5","5","5","5","5","5","5","1","1","1","1","1","1","1","1","1","0","1","0","0","0","1","0","0","0","0","0","0","0","1","0","5","1","5","1","1","1","3","5","3","4","1","783441385641742337","陈","141","","","","match","","","","","","","","","","","","","","key","j","16.70188888888879","720","446","j","true","match","img/triangle.png","三角","三角","ALT1_2","prac_ALT1_2","","","","","","","","","","","",""
"null","<span style='color:GreenYellow; font-size: 70px;'>正确! </span>","null","html-keyboard-response","26","185089","0.0-7.0-1.0-1.0-0.0-1.8","4","4","4","4","4","4","4","4","4","4","5","5","5","5","5","5","5","5","5","5","1","1","1","1","1","1","1","1","1","0","1","0","0","0","1","0","0","0","0","0","0","0","1","0","5","1","5","1","1","1","3","5","3","4","1","783441385641742337","陈","141","","","","","","","","","","","","","","","","","","","","","","","","","","","","","","feedback_test","","","","","","","","","","","",""
"296","","j","psychophysics","27","186387","0.0-7.0-1.0-1.0-0.0-0.9","4","4","4","4","4","4","4","4","4","4","5","5","5","5","5","5","5","5","5","5","1","1","1","1","1","1","1","1","1","0","1","0","0","0","1","0","0","0","0","0","0","0","1","0","5","1","5","1","1","1","3","5","3","4","1","783441385641742337","陈","141","","","","match","","","","","","","","","","","","","","key","j","16.7006753246752","720","446","j","true","match","img/ellipse.png","椭圆","椭圆","ALT1_2","prac_ALT1_2","","","","","","","","","","","",""
"null","<span style='color:GreenYellow; font-size: 70px;'>正确! </span>","null","html-keyboard-response","28","186890","0.0-7.0-1.0-1.0-0.0-1.9","4","4","4","4","4","4","4","4","4","4","5","5","5","5","5","5","5","5","5","5","1","1","1","1","1","1","1","1","1","0","1","0","0","0","1","0","0","0","0","0","0","0","1","0","5","1","5","1","1","1","3","5","3","4","1","783441385641742337","陈","141","","","","","","","","","","","","","","","","","","","","","","","","","","","","","","feedback_test","","","","","","","","","","","",""
"295","","j","psychophysics","29","188187","0.0-7.0-1.0-1.0-0.0-0.10","4","4","4","4","4","4","4","4","4","4","5","5","5","5","5","5","5","5","5","5","1","1","1","1","1","1","1","1","1","0","1","0","0","0","1","0","0","0","0","0","0","0","1","0","5","1","5","1","1","1","3","5","3","4","1","783441385641742337","陈","141","","","","match","","","","","","","","","","","","","","key","j","16.700000000000152","720","446","j","true","match","img/diamond.png","菱形","菱形","ALT1_2","prac_ALT1_2","","","","","","","","","","","",""
"null","<span style='color:GreenYellow; font-size: 70px;'>正确! </span>","null","html-keyboard-response","30","188688","0.0-7.0-1.0-1.0-0.0-1.10","4","4","4","4","4","4","4","4","4","4","5","5","5","5","5","5","5","5","5","5","1","1","1","1","1","1","1","1","1","0","1","0","0","0","1","0","0","0","0","0","0","0","1","0","5","1","5","1","1","1","3","5","3","4","1","783441385641742337","陈","141","","","","","","","","","","","","","","","","","","","","","","","","","","","","","","feedback_test","","","","","","","","","","","",""
"122","","j","psychophysics","31","189812","0.0-7.0-1.0-1.0-0.0-0.11","4","4","4","4","4","4","4","4","4","4","5","5","5","5","5","5","5","5","5","5","1","1","1","1","1","1","1","1","1","0","1","0","0","0","1","0","0","0","0","0","0","0","1","0","5","1","5","1","1","1","3","5","3","4","1","783441385641742337","陈","141","","","","match","","","","","","","","","","","","","","key","j","16.629893939393998","720","446","f","false","nonmatch","img/ellipse.png","三角","椭圆","ALT1_2","prac_ALT1_2","","","","","","","","","","","",""
"null","<span style='color:yellow; font-size: 70px;'>过快! </span>","null","html-keyboard-response","32","190314","0.0-7.0-1.0-1.0-0.0-1.11","4","4","4","4","4","4","4","4","4","4","5","5","5","5","5","5","5","5","5","5","1","1","1","1","1","1","1","1","1","0","1","0","0","0","1","0","0","0","0","0","0","0","1","0","5","1","5","1","1","1","3","5","3","4","1","783441385641742337","陈","141","","","","","","","","","","","","","","","","","","","","","","","","","","","","","","feedback_test","","","","","","","","","","","",""
"329","","j","psychophysics","33","191644","0.0-7.0-1.0-1.0-0.0-0.12","4","4","4","4","4","4","4","4","4","4","5","5","5","5","5","5","5","5","5","5","1","1","1","1","1","1","1","1","1","0","1","0","0","0","1","0","0","0","0","0","0","0","1","0","5","1","5","1","1","1","3","5","3","4","1","783441385641742337","陈","141","","","","match","","","","","","","","","","","","","","key","j","16.700564102564105","720","446","f","false","nonmatch","img/triangle.png","菱形","三角","ALT1_2","prac_ALT1_2","","","","","","","","","","","",""
"null","<span style='color:red; font-size: 70px;'>错误! </span>","null","html-keyboard-response","34","192145","0.0-7.0-1.0-1.0-0.0-1.12","4","4","4","4","4","4","4","4","4","4","5","5","5","5","5","5","5","5","5","5","1","1","1","1","1","1","1","1","1","0","1","0","0","0","1","0","0","0","0","0","0","0","1","0","5","1","5","1","1","1","3","5","3","4","1","783441385641742337","陈","141","","","","","","","","","","","","","","","","","","","","","","","","","","","","","","feedback_test","","","","","","","","","","","",""
"218","","j","psychophysics","35","193364","0.0-7.0-1.0-1.0-0.0-0.13","4","4","4","4","4","4","4","4","4","4","5","5","5","5","5","5","5","5","5","5","1","1","1","1","1","1","1","1","1","0","1","0","0","0","1","0","0","0","0","0","0","0","1","0","5","1","5","1","1","1","3","5","3","4","1","783441385641742337","陈","141","","","","match","","","","","","","","","","","","","","key","j","16.65340845070412","720","446","f","false","nonmatch","img/pentagon.png","三角","五边","ALT1_2","prac_ALT1_2","","","","","","","","","","","",""
"null","<span style='color:red; font-size: 70px;'>错误! </span>","null","html-keyboard-response","36","193866","0.0-7.0-1.0-1.0-0.0-1.13","4","4","4","4","4","4","4","4","4","4","5","5","5","5","5","5","5","5","5","5","1","1","1","1","1","1","1","1","1","0","1","0","0","0","1","0","0","0","0","0","0","0","1","0","5","1","5","1","1","1","3","5","3","4","1","783441385641742337","陈","141","","","","","","","","","","","","","","","","","","","","","","","","","","","","","","feedback_test","","","","","","","","","","","",""
"281","","j","psychophysics","37","195149","0.0-7.0-1.0-1.0-0.0-0.14","4","4","4","4","4","4","4","4","4","4","5","5","5","5","5","5","5","5","5","5","1","1","1","1","1","1","1","1","1","0","1","0","0","0","1","0","0","0","0","0","0","0","1","0","5","1","5","1","1","1","3","5","3","4","1","783441385641742337","陈","141","","","","match","","","","","","","","","","","","","","key","j","16.69849333333356","720","446","f","false","nonmatch","img/triangle.png","椭圆","三角","ALT1_2","prac_ALT1_2","","","","","","","","","","","",""
"null","<span style='color:red; font-size: 70px;'>错误! </span>","null","html-keyboard-response","38","195650","0.0-7.0-1.0-1.0-0.0-1.14","4","4","4","4","4","4","4","4","4","4","5","5","5","5","5","5","5","5","5","5","1","1","1","1","1","1","1","1","1","0","1","0","0","0","1","0","0","0","0","0","0","0","1","0","5","1","5","1","1","1","3","5","3","4","1","783441385641742337","陈","141","","","","","","","","","","","","","","","","","","","","","","","","","","","","","","feedback_test","","","","","","","","","","","",""
"32","","j","psychophysics","39","196685","0.0-7.0-1.0-1.0-0.0-0.15","4","4","4","4","4","4","4","4","4","4","5","5","5","5","5","5","5","5","5","5","1","1","1","1","1","1","1","1","1","0","1","0","0","0","1","0","0","0","0","0","0","0","1","0","5","1","5","1","1","1","3","5","3","4","1","783441385641742337","陈","141","","","","match","","","","","","","","","","","","","","key","j","16.703213114754227","720","446","j","true","match","img/diamond.png","菱形","菱形","ALT1_2","prac_ALT1_2","","","","","","","","","","","",""
"null","<span style='color:yellow; font-size: 70px;'>过快! </span>","null","html-keyboard-response","40","197186","0.0-7.0-1.0-1.0-0.0-1.15","4","4","4","4","4","4","4","4","4","4","5","5","5","5","5","5","5","5","5","5","1","1","1","1","1","1","1","1","1","0","1","0","0","0","1","0","0","0","0","0","0","0","1","0","5","1","5","1","1","1","3","5","3","4","1","783441385641742337","陈","141","","","","","","","","","","","","","","","","","","","","","","","","","","","","","","feedback_test","","","","","","","","","","","",""
"201","","f","psychophysics","41","198389","0.0-7.0-1.0-1.0-0.0-0.16","4","4","4","4","4","4","4","4","4","4","5","5","5","5","5","5","5","5","5","5","1","1","1","1","1","1","1","1","1","0","1","0","0","0","1","0","0","0","0","0","0","0","1","0","5","1","5","1","1","1","3","5","3","4","1","783441385641742337","陈","141","","","","nonmatch","","","","","","","","","","","","","","key","f","16.701915492957482","720","446","f","true","nonmatch","img/pentagon.png","菱形","五边","ALT1_2","prac_ALT1_2","","","","","","","","","","","",""
"null","<span style='color:GreenYellow; font-size: 70px;'>正确! </span>","null","html-keyboard-response","42","198890","0.0-7.0-1.0-1.0-0.0-1.16","4","4","4","4","4","4","4","4","4","4","5","5","5","5","5","5","5","5","5","5","1","1","1","1","1","1","1","1","1","0","1","0","0","0","1","0","0","0","0","0","0","0","1","0","5","1","5","1","1","1","3","5","3","4","1","783441385641742337","陈","141","","","","","","","","","","","","","","","","","","","","","","","","","","","","","","feedback_test","","","","","","","","","","","",""
"null","","null","psychophysics","43","201095","0.0-7.0-1.0-1.0-0.0-0.17","4","4","4","4","4","4","4","4","4","4","5","5","5","5","5","5","5","5","5","5","1","1","1","1","1","1","1","1","1","0","1","0","0","0","1","0","0","0","0","0","0","0","1","0","5","1","5","1","1","1","3","5","3","4","1","783441385641742337","陈","141","","","","null","","","","","","","","","","","","","","key","null","16.699259541984755","720","446","f","false","nonmatch","img/diamond.png","三角","菱形","ALT1_2","prac_ALT1_2","","","","","","","","","","","",""
"null","<span class='add_' style='color:yellow; font-size: 70px;'> 太慢! </span>","null","html-keyboard-response","44","201597","0.0-7.0-1.0-1.0-0.0-1.17","4","4","4","4","4","4","4","4","4","4","5","5","5","5","5","5","5","5","5","5","1","1","1","1","1","1","1","1","1","0","1","0","0","0","1","0","0","0","0","0","0","0","1","0","5","1","5","1","1","1","3","5","3","4","1","783441385641742337","陈","141","","","","","","","","","","","","","","","","","","","","","","","","","","","","","","feedback_test","","","","","","","","","","","",""
"327","","j","psychophysics","45","202925","0.0-7.0-1.0-1.0-0.0-0.18","4","4","4","4","4","4","4","4","4","4","5","5","5","5","5","5","5","5","5","5","1","1","1","1","1","1","1","1","1","0","1","0","0","0","1","0","0","0","0","0","0","0","1","0","5","1","5","1","1","1","3","5","3","4","1","783441385641742337","陈","141","","","","match","","","","","","","","","","","","","","key","j","16.579833333333507","720","446","f","false","nonmatch","img/pentagon.png","椭圆","五边","ALT1_2","prac_ALT1_2","","","","","","","","","","","",""
"null","<span style='color:red; font-size: 70px;'>错误! </span>","null","html-keyboard-response","46","203427","0.0-7.0-1.0-1.0-0.0-1.18","4","4","4","4","4","4","4","4","4","4","5","5","5","5","5","5","5","5","5","5","1","1","1","1","1","1","1","1","1","0","1","0","0","0","1","0","0","0","0","0","0","0","1","0","5","1","5","1","1","1","3","5","3","4","1","783441385641742337","陈","141","","","","","","","","","","","","","","","","","","","","","","","","","","","","","","feedback_test","","","","","","","","","","","",""
"297","","j","psychophysics","47","204725","0.0-7.0-1.0-1.0-0.0-0.19","4","4","4","4","4","4","4","4","4","4","5","5","5","5","5","5","5","5","5","5","1","1","1","1","1","1","1","1","1","0","1","0","0","0","1","0","0","0","0","0","0","0","1","0","5","1","5","1","1","1","3","5","3","4","1","783441385641742337","陈","141","","","","match","","","","","","","","","","","","","","key","j","16.698467532467618","720","446","f","false","nonmatch","img/diamond.png","椭圆","菱形","ALT1_2","prac_ALT1_2","","","","","","","","","","","",""
"null","<span style='color:red; font-size: 70px;'>错误! </span>","null","html-keyboard-response","48","205227","0.0-7.0-1.0-1.0-0.0-1.19","4","4","4","4","4","4","4","4","4","4","5","5","5","5","5","5","5","5","5","5","1","1","1","1","1","1","1","1","1","0","1","0","0","0","1","0","0","0","0","0","0","0","1","0","5","1","5","1","1","1","3","5","3","4","1","783441385641742337","陈","141","","","","","","","","","","","","","","","","","","","","","","","","","","","","","","feedback_test","","","","","","","","","","","",""
"185","","j","psychophysics","49","206413","0.0-7.0-1.0-1.0-0.0-0.20","4","4","4","4","4","4","4","4","4","4","5","5","5","5","5","5","5","5","5","5","1","1","1","1","1","1","1","1","1","0","1","0","0","0","1","0","0","0","0","0","0","0","1","0","5","1","5","1","1","1","3","5","3","4","1","783441385641742337","陈","141","","","","match","","","","","","","","","","","","","","key","j","16.701571428571643","720","446","j","true","match","img/pentagon.png","五边","五边","ALT1_2","prac_ALT1_2","","","","","","","","","","","",""
"null","<span style='color:yellow; font-size: 70px;'>过快! </span>","null","html-keyboard-response","50","206914","0.0-7.0-1.0-1.0-0.0-1.20","4","4","4","4","4","4","4","4","4","4","5","5","5","5","5","5","5","5","5","5","1","1","1","1","1","1","1","1","1","0","1","0","0","0","1","0","0","0","0","0","0","0","1","0","5","1","5","1","1","1","3","5","3","4","1","783441385641742337","陈","141","","","","","","","","","","","","","","","","","","","","","","","","","","","","","","feedback_test","","","","","","","","","","","",""
"382","","j","psychophysics","51","208299","0.0-7.0-1.0-1.0-0.0-0.21","4","4","4","4","4","4","4","4","4","4","5","5","5","5","5","5","5","5","5","5","1","1","1","1","1","1","1","1","1","0","1","0","0","0","1","0","0","0","0","0","0","0","1","0","5","1","5","1","1","1","3","5","3","4","1","783441385641742337","陈","141","","","","match","","","","","","","","","","","","","","key","j","16.69856097560948","720","446","j","true","match","img/pentagon.png","五边","五边","ALT1_2","prac_ALT1_2","","","","","","","","","","","",""
"null","<span style='color:GreenYellow; font-size: 70px;'>正确! </span>","null","html-keyboard-response","52","208800","0.0-7.0-1.0-1.0-0.0-1.21","4","4","4","4","4","4","4","4","4","4","5","5","5","5","5","5","5","5","5","5","1","1","1","1","1","1","1","1","1","0","1","0","0","0","1","0","0","0","0","0","0","0","1","0","5","1","5","1","1","1","3","5","3","4","1","783441385641742337","陈","141","","","","","","","","","","","","","","","","","","","","","","","","","","","","","","feedback_test","","","","","","","","","","","",""
"301","","j","psychophysics","53","210102","0.0-7.0-1.0-1.0-0.0-0.22","4","4","4","4","4","4","4","4","4","4","5","5","5","5","5","5","5","5","5","5","1","1","1","1","1","1","1","1","1","0","1","0","0","0","1","0","0","0","0","0","0","0","1","0","5","1","5","1","1","1","3","5","3","4","1","783441385641742337","陈","141","","","","match","","","","","","","","","","","","","","key","j","16.698337662337625","720","446","f","false","nonmatch","img/diamond.png","五边","菱形","ALT1_2","prac_ALT1_2","","","","","","","","","","","",""
"null","<span style='color:red; font-size: 70px;'>错误! </span>","null","html-keyboard-response","54","210605","0.0-7.0-1.0-1.0-0.0-1.22","4","4","4","4","4","4","4","4","4","4","5","5","5","5","5","5","5","5","5","5","1","1","1","1","1","1","1","1","1","0","1","0","0","0","1","0","0","0","0","0","0","0","1","0","5","1","5","1","1","1","3","5","3","4","1","783441385641742337","陈","141","","","","","","","","","","","","","","","","","","","","","","","","","","","","","","feedback_test","","","","","","","","","","","",""
"267","","j","psychophysics","55","211874","0.0-7.0-1.0-1.0-0.0-0.23","4","4","4","4","4","4","4","4","4","4","5","5","5","5","5","5","5","5","5","5","1","1","1","1","1","1","1","1","1","0","1","0","0","0","1","0","0","0","0","0","0","0","1","0","5","1","5","1","1","1","3","5","3","4","1","783441385641742337","陈","141","","","","match","","","","","","","","","","","","","","key","j","16.701266666666683","720","446","j","true","match","img/ellipse.png","椭圆","椭圆","ALT1_2","prac_ALT1_2","","","","","","","","","","","",""
"null","<span style='color:GreenYellow; font-size: 70px;'>正确! </span>","null","html-keyboard-response","56","212375","0.0-7.0-1.0-1.0-0.0-1.23","4","4","4","4","4","4","4","4","4","4","5","5","5","5","5","5","5","5","5","5","1","1","1","1","1","1","1","1","1","0","1","0","0","0","1","0","0","0","0","0","0","0","1","0","5","1","5","1","1","1","3","5","3","4","1","783441385641742337","陈","141","","","","","","","","","","","","","","","","","","","","","","","","","","","","","","feedback_test","","","","","","","","","","","",""
"245","","j","psychophysics","57","213622","0.0-7.0-1.0-1.0-0.0-0.24","4","4","4","4","4","4","4","4","4","4","5","5","5","5","5","5","5","5","5","5","1","1","1","1","1","1","1","1","1","0","1","0","0","0","1","0","0","0","0","0","0","0","1","0","5","1","5","1","1","1","3","5","3","4","1","783441385641742337","陈","141","","","","match","","","","","","","","","","","","","","key","j","16.698581081081176","720","446","j","true","match","img/diamond.png","菱形","菱形","ALT1_2","prac_ALT1_2","","","","","","","","","","","",""
"null","<span style='color:GreenYellow; font-size: 70px;'>正确! </span>","null","html-keyboard-response","58","214126","0.0-7.0-1.0-1.0-0.0-1.24","4","4","4","4","4","4","4","4","4","4","5","5","5","5","5","5","5","5","5","5","1","1","1","1","1","1","1","1","1","0","1","0","0","0","1","0","0","0","0","0","0","0","1","0","5","1","5","1","1","1","3","5","3","4","1","783441385641742337","陈","141","","","","","","","","","","","","","","","","","","","","","","","","","","","","","","feedback_test","","","","","","","","","","","",""
"238","","j","psychophysics","59","215366","0.0-7.0-1.0-1.0-0.0-0.25","4","4","4","4","4","4","4","4","4","4","5","5","5","5","5","5","5","5","5","5","1","1","1","1","1","1","1","1","1","0","1","0","0","0","1","0","0","0","0","0","0","0","1","0","5","1","5","1","1","1","3","5","3","4","1","783441385641742337","陈","141","","","","match","","","","","","","","","","","","","","key","j","16.70000000000008","720","446","f","false","nonmatch","img/triangle.png","五边","三角","ALT1_2","prac_ALT1_2","","","","","","","","","","","",""
"null","<span style='color:red; font-size: 70px;'>错误! </span>","null","html-keyboard-response","60","215883","0.0-7.0-1.0-1.0-0.0-1.25","4","4","4","4","4","4","4","4","4","4","5","5","5","5","5","5","5","5","5","5","1","1","1","1","1","1","1","1","1","0","1","0","0","0","1","0","0","0","0","0","0","0","1","0","5","1","5","1","1","1","3","5","3","4","1","783441385641742337","陈","141","","","","","","","","","","","","","","","","","","","","","","","","","","","","","","feedback_test","","","","","","","","","","","",""
"323","","j","psychophysics","61","217210","0.0-7.0-1.0-1.0-0.0-0.26","4","4","4","4","4","4","4","4","4","4","5","5","5","5","5","5","5","5","5","5","1","1","1","1","1","1","1","1","1","0","1","0","0","0","1","0","0","0","0","0","0","0","1","0","5","1","5","1","1","1","3","5","3","4","1","783441385641742337","陈","141","","","","match","","","","","","","","","","","","","","key","j","16.700820512820382","720","446","j","true","match","img/pentagon.png","五边","五边","ALT1_2","prac_ALT1_2","","","","","","","","","","","",""
"null","<span style='color:GreenYellow; font-size: 70px;'>正确! </span>","null","html-keyboard-response","62","217712","0.0-7.0-1.0-1.0-0.0-1.26","4","4","4","4","4","4","4","4","4","4","5","5","5","5","5","5","5","5","5","5","1","1","1","1","1","1","1","1","1","0","1","0","0","0","1","0","0","0","0","0","0","0","1","0","5","1","5","1","1","1","3","5","3","4","1","783441385641742337","陈","141","","","","","","","","","","","","","","","","","","","","","","","","","","","","","","feedback_test","","","","","","","","","","","",""
"183","","j","psychophysics","63","218896","0.0-7.0-1.0-1.0-0.0-0.27","4","4","4","4","4","4","4","4","4","4","5","5","5","5","5","5","5","5","5","5","1","1","1","1","1","1","1","1","1","0","1","0","0","0","1","0","0","0","0","0","0","0","1","0","5","1","5","1","1","1","3","5","3","4","1","783441385641742337","陈","141","","","","match","","","","","","","","","","","","","","key","j","16.6407536231884","720","446","j","true","match","img/ellipse.png","椭圆","椭圆","ALT1_2","prac_ALT1_2","","","","","","","","","","","",""
"null","<span style='color:yellow; font-size: 70px;'>过快! </span>","null","html-keyboard-response","64","219397","0.0-7.0-1.0-1.0-0.0-1.27","4","4","4","4","4","4","4","4","4","4","5","5","5","5","5","5","5","5","5","5","1","1","1","1","1","1","1","1","1","0","1","0","0","0","1","0","0","0","0","0","0","0","1","0","5","1","5","1","1","1","3","5","3","4","1","783441385641742337","陈","141","","","","","","","","","","","","","","","","","","","","","","","","","","","","","","feedback_test","","","","","","","","","","","",""
"392","","j","psychophysics","65","220791","0.0-7.0-1.0-1.0-0.0-0.28","4","4","4","4","4","4","4","4","4","4","5","5","5","5","5","5","5","5","5","5","1","1","1","1","1","1","1","1","1","0","1","0","0","0","1","0","0","0","0","0","0","0","1","0","5","1","5","1","1","1","3","5","3","4","1","783441385641742337","陈","141","","","","match","","","","","","","","","","","","","","key","j","16.69957831325304","720","446","f","false","nonmatch","img/diamond.png","椭圆","菱形","ALT1_2","prac_ALT1_2","","","","","","","","","","","",""
"null","<span style='color:red; font-size: 70px;'>错误! </span>","null","html-keyboard-response","66","221292","0.0-7.0-1.0-1.0-0.0-1.28","4","4","4","4","4","4","4","4","4","4","5","5","5","5","5","5","5","5","5","5","1","1","1","1","1","1","1","1","1","0","1","0","0","0","1","0","0","0","0","0","0","0","1","0","5","1","5","1","1","1","3","5","3","4","1","783441385641742337","陈","141","","","","","","","","","","","","","","","","","","","","","","","","","","","","","","feedback_test","","","","","","","","","","","",""
"210","","j","psychophysics","67","222503","0.0-7.0-1.0-1.0-0.0-0.29","4","4","4","4","4","4","4","4","4","4","5","5","5","5","5","5","5","5","5","5","1","1","1","1","1","1","1","1","1","0","1","0","0","0","1","0","0","0","0","0","0","0","1","0","5","1","5","1","1","1","3","5","3","4","1","783441385641742337","陈","141","","","","match","","","","","","","","","","","","","","key","j","16.7030281690142","720","446","j","true","match","img/pentagon.png","五边","五边","ALT1_2","prac_ALT1_2","","","","","","","","","","","",""
"null","<span style='color:GreenYellow; font-size: 70px;'>正确! </span>","null","html-keyboard-response","68","223005","0.0-7.0-1.0-1.0-0.0-1.29","4","4","4","4","4","4","4","4","4","4","5","5","5","5","5","5","5","5","5","5","1","1","1","1","1","1","1","1","1","0","1","0","0","0","1","0","0","0","0","0","0","0","1","0","5","1","5","1","1","1","3","5","3","4","1","783441385641742337","陈","141","","","","","","","","","","","","","","","","","","","","","","","","","","","","","","feedback_test","","","","","","","","","","","",""
"193","","j","psychophysics","69","224199","0.0-7.0-1.0-1.0-0.0-0.30","4","4","4","4","4","4","4","4","4","4","5","5","5","5","5","5","5","5","5","5","1","1","1","1","1","1","1","1","1","0","1","0","0","0","1","0","0","0","0","0","0","0","1","0","5","1","5","1","1","1","3","5","3","4","1","783441385641742337","陈","141","","","","match","","","","","","","","","","","","","","key","j","16.700915492957535","720","446","f","false","nonmatch","img/pentagon.png","菱形","五边","ALT1_2","prac_ALT1_2","","","","","","","","","","","",""
"null","<span style='color:yellow; font-size: 70px;'>过快! </span>","null","html-keyboard-response","70","224700","0.0-7.0-1.0-1.0-0.0-1.30","4","4","4","4","4","4","4","4","4","4","5","5","5","5","5","5","5","5","5","5","1","1","1","1","1","1","1","1","1","0","1","0","0","0","1","0","0","0","0","0","0","0","1","0","5","1","5","1","1","1","3","5","3","4","1","783441385641742337","陈","141","","","","","","","","","","","","","","","","","","","","","","","","","","","","","","feedback_test","","","","","","","","","","","",""
"300","","j","psychophysics","71","226002","0.0-7.0-1.0-1.0-0.0-0.31","4","4","4","4","4","4","4","4","4","4","5","5","5","5","5","5","5","5","5","5","1","1","1","1","1","1","1","1","1","0","1","0","0","0","1","0","0","0","0","0","0","0","1","0","5","1","5","1","1","1","3","5","3","4","1","783441385641742337","陈","141","","","","match","","","","","","","","","","","","","","key","j","16.700038961039223","720","446","j","true","match","img/diamond.png","菱形","菱形","ALT1_2","prac_ALT1_2","","","","","","","","","","","",""
"null","<span style='color:GreenYellow; font-size: 70px;'>正确! </span>","null","html-keyboard-response","72","226503","0.0-7.0-1.0-1.0-0.0-1.31","4","4","4","4","4","4","4","4","4","4","5","5","5","5","5","5","5","5","5","5","1","1","1","1","1","1","1","1","1","0","1","0","0","0","1","0","0","0","0","0","0","0","1","0","5","1","5","1","1","1","3","5","3","4","1","783441385641742337","陈","141","","","","","","","","","","","","","","","","","","","","","","","","","","","","","","feedback_test","","","","","","","","","","","",""
"318","","j","psychophysics","73","227824","0.0-7.0-1.0-1.0-0.0-0.32","4","4","4","4","4","4","4","4","4","4","5","5","5","5","5","5","5","5","5","5","1","1","1","1","1","1","1","1","1","0","1","0","0","0","1","0","0","0","0","0","0","0","1","0","5","1","5","1","1","1","3","5","3","4","1","783441385641742337","陈","141","","","","match","","","","","","","","","","","","","","key","j","16.701076923077032","720","446","j","true","match","img/triangle.png","三角","三角","ALT1_2","prac_ALT1_2","","","","","","","","","","","",""
"null","<span style='color:GreenYellow; font-size: 70px;'>正确! </span>","null","html-keyboard-response","74","228325","0.0-7.0-1.0-1.0-0.0-1.32","4","4","4","4","4","4","4","4","4","4","5","5","5","5","5","5","5","5","5","5","1","1","1","1","1","1","1","1","1","0","1","0","0","0","1","0","0","0","0","0","0","0","1","0","5","1","5","1","1","1","3","5","3","4","1","783441385641742337","陈","141","","","","","","","","","","","","","","","","","","","","","","","","","","","","","","feedback_test","","","","","","","","","","","",""
"217","","j","psychophysics","75","229544","0.0-7.0-1.0-1.0-0.0-0.33","4","4","4","4","4","4","4","4","4","4","5","5","5","5","5","5","5","5","5","5","1","1","1","1","1","1","1","1","1","0","1","0","0","0","1","0","0","0","0","0","0","0","1","0","5","1","5","1","1","1","3","5","3","4","1","783441385641742337","陈","141","","","","match","","","","","","","","","","","","","","key","j","16.699819444444277","720","446","f","false","nonmatch","img/pentagon.png","椭圆","五边","ALT1_2","prac_ALT1_2","","","","","","","","","","","",""
"null","<span style='color:red; font-size: 70px;'>错误! </span>","null","html-keyboard-response","76","230045","0.0-7.0-1.0-1.0-0.0-1.33","4","4","4","4","4","4","4","4","4","4","5","5","5","5","5","5","5","5","5","5","1","1","1","1","1","1","1","1","1","0","1","0","0","0","1","0","0","0","0","0","0","0","1","0","5","1","5","1","1","1","3","5","3","4","1","783441385641742337","陈","141","","","","","","","","","","","","","","","","","","","","","","","","","","","","","","feedback_test","","","","","","","","","","","",""
"210","","j","psychophysics","77","231257","0.0-7.0-1.0-1.0-0.0-0.34","4","4","4","4","4","4","4","4","4","4","5","5","5","5","5","5","5","5","5","5","1","1","1","1","1","1","1","1","1","0","1","0","0","0","1","0","0","0","0","0","0","0","1","0","5","1","5","1","1","1","3","5","3","4","1","783441385641742337","陈","141","","","","match","","","","","","","","","","","","","","key","j","16.69865277777798","720","446","f","false","nonmatch","img/diamond.png","五边","菱形","ALT1_2","prac_ALT1_2","","","","","","","","","","","",""
"null","<span style='color:red; font-size: 70px;'>错误! </span>","null","html-keyboard-response","78","231758","0.0-7.0-1.0-1.0-0.0-1.34","4","4","4","4","4","4","4","4","4","4","5","5","5","5","5","5","5","5","5","5","1","1","1","1","1","1","1","1","1","0","1","0","0","0","1","0","0","0","0","0","0","0","1","0","5","1","5","1","1","1","3","5","3","4","1","783441385641742337","陈","141","","","","","","","","","","","","","","","","","","","","","","","","","","","","","","feedback_test","","","","","","","","","","","",""
"1","","j","psychophysics","79","232760","0.0-7.0-1.0-1.0-0.0-0.35","4","4","4","4","4","4","4","4","4","4","5","5","5","5","5","5","5","5","5","5","1","1","1","1","1","1","1","1","1","0","1","0","0","0","1","0","0","0","0","0","0","0","1","0","5","1","5","1","1","1","3","5","3","4","1","783441385641742337","陈","141","","","","match","","","","","","","","","","","","","","key","j","16.702491525423977","720","446","j","true","match","img/pentagon.png","五边","五边","ALT1_2","prac_ALT1_2","","","","","","","","","","","",""
"null","<span style='color:yellow; font-size: 70px;'>过快! </span>","null","html-keyboard-response","80","233261","0.0-7.0-1.0-1.0-0.0-1.35","4","4","4","4","4","4","4","4","4","4","5","5","5","5","5","5","5","5","5","5","1","1","1","1","1","1","1","1","1","0","1","0","0","0","1","0","0","0","0","0","0","0","1","0","5","1","5","1","1","1","3","5","3","4","1","783441385641742337","陈","141","","","","","","","","","","","","","","","","","","","","","","","","","","","","","","feedback_test","","","","","","","","","","","",""
"283","","j","psychophysics","81","234545","0.0-7.0-1.0-1.0-0.0-0.36","4","4","4","4","4","4","4","4","4","4","5","5","5","5","5","5","5","5","5","5","1","1","1","1","1","1","1","1","1","0","1","0","0","0","1","0","0","0","0","0","0","0","1","0","5","1","5","1","1","1","3","5","3","4","1","783441385641742337","陈","141","","","","match","","","","","","","","","","","","","","key","j","16.70063999999974","720","446","f","false","nonmatch","img/ellipse.png","五边","椭圆","ALT1_2","prac_ALT1_2","","","","","","","","","","","",""
"null","<span style='color:red; font-size: 70px;'>错误! </span>","null","html-keyboard-response","82","235046","0.0-7.0-1.0-1.0-0.0-1.36","4","4","4","4","4","4","4","4","4","4","5","5","5","5","5","5","5","5","5","5","1","1","1","1","1","1","1","1","1","0","1","0","0","0","1","0","0","0","0","0","0","0","1","0","5","1","5","1","1","1","3","5","3","4","1","783441385641742337","陈","141","","","","","","","","","","","","","","","","","","","","","","","","","","","","","","feedback_test","","","","","","","","","","","",""
"409","","f","psychophysics","83","236457","0.0-7.0-1.0-1.0-0.0-0.37","4","4","4","4","4","4","4","4","4","4","5","5","5","5","5","5","5","5","5","5","1","1","1","1","1","1","1","1","1","0","1","0","0","0","1","0","0","0","0","0","0","0","1","0","5","1","5","1","1","1","3","5","3","4","1","783441385641742337","陈","141","","","","nonmatch","","","","","","","","","","","","","","key","f","16.591325301204666","720","446","f","true","nonmatch","img/triangle.png","椭圆","三角","ALT1_2","prac_ALT1_2","","","","","","","","","","","",""
"null","<span style='color:GreenYellow; font-size: 70px;'>正确! </span>","null","html-keyboard-response","84","236958","0.0-7.0-1.0-1.0-0.0-1.37","4","4","4","4","4","4","4","4","4","4","5","5","5","5","5","5","5","5","5","5","1","1","1","1","1","1","1","1","1","0","1","0","0","0","1","0","0","0","0","0","0","0","1","0","5","1","5","1","1","1","3","5","3","4","1","783441385641742337","陈","141","","","","","","","","","","","","","","","","","","","","","","","","","","","","","","feedback_test","","","","","","","","","","","",""
"288","","f","psychophysics","85","238249","0.0-7.0-1.0-1.0-0.0-0.38","4","4","4","4","4","4","4","4","4","4","5","5","5","5","5","5","5","5","5","5","1","1","1","1","1","1","1","1","1","0","1","0","0","0","1","0","0","0","0","0","0","0","1","0","5","1","5","1","1","1","3","5","3","4","1","783441385641742337","陈","141","","","","nonmatch","","","","","","","","","","","","","","key","f","16.7022368421052","720","446","f","true","nonmatch","img/triangle.png","菱形","三角","ALT1_2","prac_ALT1_2","","","","","","","","","","","",""
"null","<span style='color:GreenYellow; font-size: 70px;'>正确! </span>","null","html-keyboard-response","86","238750","0.0-7.0-1.0-1.0-0.0-1.38","4","4","4","4","4","4","4","4","4","4","5","5","5","5","5","5","5","5","5","5","1","1","1","1","1","1","1","1","1","0","1","0","0","0","1","0","0","0","0","0","0","0","1","0","5","1","5","1","1","1","3","5","3","4","1","783441385641742337","陈","141","","","","","","","","","","","","","","","","","","","","","","","","","","","","","","feedback_test","","","","","","","","","","","",""
"209","","f","psychophysics","87","239961","0.0-7.0-1.0-1.0-0.0-0.39","4","4","4","4","4","4","4","4","4","4","5","5","5","5","5","5","5","5","5","5","1","1","1","1","1","1","1","1","1","0","1","0","0","0","1","0","0","0","0","0","0","0","1","0","5","1","5","1","1","1","3","5","3","4","1","783441385641742337","陈","141","","","","nonmatch","","","","","","","","","","","","","","key","f","16.697333333333518","720","446","j","false","match","img/ellipse.png","椭圆","椭圆","ALT1_2","prac_ALT1_2","","","","","","","","","","","",""
"null","<span style='color:red; font-size: 70px;'>错误! </span>","null","html-keyboard-response","88","240463","0.0-7.0-1.0-1.0-0.0-1.39","4","4","4","4","4","4","4","4","4","4","5","5","5","5","5","5","5","5","5","5","1","1","1","1","1","1","1","1","1","0","1","0","0","0","1","0","0","0","0","0","0","0","1","0","5","1","5","1","1","1","3","5","3","4","1","783441385641742337","陈","141","","","","","","","","","","","","","","","","","","","","","","","","","","","","","","feedback_test","","","","","","","","","","","",""
"209","","j","psychophysics","89","241673","0.0-7.0-1.0-1.0-0.0-0.40","4","4","4","4","4","4","4","4","4","4","5","5","5","5","5","5","5","5","5","5","1","1","1","1","1","1","1","1","1","0","1","0","0","0","1","0","0","0","0","0","0","0","1","0","5","1","5","1","1","1","3","5","3","4","1","783441385641742337","陈","141","","","","match","","","","","","","","","","","","","","key","j","16.701746478873144","720","446","j","true","match","img/diamond.png","菱形","菱形","ALT1_2","prac_ALT1_2","","","","","","","","","","","",""
"null","<span style='color:GreenYellow; font-size: 70px;'>正确! </span>","null","html-keyboard-response","90","242180","0.0-7.0-1.0-1.0-0.0-1.40","4","4","4","4","4","4","4","4","4","4","5","5","5","5","5","5","5","5","5","5","1","1","1","1","1","1","1","1","1","0","1","0","0","0","1","0","0","0","0","0","0","0","1","0","5","1","5","1","1","1","3","5","3","4","1","783441385641742337","陈","141","","","","","","","","","","","","","","","","","","","","","","","","","","","","","","feedback_test","","","","","","","","","","","",""
"217","","j","psychophysics","91","243401","0.0-7.0-1.0-1.0-0.0-0.41","4","4","4","4","4","4","4","4","4","4","5","5","5","5","5","5","5","5","5","5","1","1","1","1","1","1","1","1","1","0","1","0","0","0","1","0","0","0","0","0","0","0","1","0","5","1","5","1","1","1","3","5","3","4","1","783441385641742337","陈","141","","","","match","","","","","","","","","","","","","","key","j","16.702847222221962","720","446","f","false","nonmatch","img/pentagon.png","三角","五边","ALT1_2","prac_ALT1_2","","","","","","","","","","","",""
"null","<span style='color:red; font-size: 70px;'>错误! </span>","null","html-keyboard-response","92","243902","0.0-7.0-1.0-1.0-0.0-1.41","4","4","4","4","4","4","4","4","4","4","5","5","5","5","5","5","5","5","5","5","1","1","1","1","1","1","1","1","1","0","1","0","0","0","1","0","0","0","0","0","0","0","1","0","5","1","5","1","1","1","3","5","3","4","1","783441385641742337","陈","141","","","","","","","","","","","","","","","","","","","","","","","","","","","","","","feedback_test","","","","","","","","","","","",""
"137","","f","psychophysics","93","245041","0.0-7.0-1.0-1.0-0.0-0.42","4","4","4","4","4","4","4","4","4","4","5","5","5","5","5","5","5","5","5","5","1","1","1","1","1","1","1","1","1","0","1","0","0","0","1","0","0","0","0","0","0","0","1","0","5","1","5","1","1","1","3","5","3","4","1","783441385641742337","陈","141","","","","nonmatch","","","","","","","","","","","","","","key","f","16.701149253731543","720","446","j","false","match","img/ellipse.png","椭圆","椭圆","ALT1_2","prac_ALT1_2","","","","","","","","","","","",""
"null","<span style='color:yellow; font-size: 70px;'>过快! </span>","null","html-keyboard-response","94","245543","0.0-7.0-1.0-1.0-0.0-1.42","4","4","4","4","4","4","4","4","4","4","5","5","5","5","5","5","5","5","5","5","1","1","1","1","1","1","1","1","1","0","1","0","0","0","1","0","0","0","0","0","0","0","1","0","5","1","5","1","1","1","3","5","3","4","1","783441385641742337","陈","141","","","","","","","","","","","","","","","","","","","","","","","","","","","","","","feedback_test","","","","","","","","","","","",""
"313","","j","psychophysics","95","246857","0.0-7.0-1.0-1.0-0.0-0.43","4","4","4","4","4","4","4","4","4","4","5","5","5","5","5","5","5","5","5","5","1","1","1","1","1","1","1","1","1","0","1","0","0","0","1","0","0","0","0","0","0","0","1","0","5","1","5","1","1","1","3","5","3","4","1","783441385641742337","陈","141","","","","match","","","","","","","","","","","","","","key","j","16.699769230769164","720","446","f","false","nonmatch","img/ellipse.png","菱形","椭圆","ALT1_2","prac_ALT1_2","","","","","","","","","","","",""
"null","<span style='color:red; font-size: 70px;'>错误! </span>","null","html-keyboard-response","96","247359","0.0-7.0-1.0-1.0-0.0-1.43","4","4","4","4","4","4","4","4","4","4","5","5","5","5","5","5","5","5","5","5","1","1","1","1","1","1","1","1","1","0","1","0","0","0","1","0","0","0","0","0","0","0","1","0","5","1","5","1","1","1","3","5","3","4","1","783441385641742337","陈","141","","","","","","","","","","","","","","","","","","","","","","","","","","","","","","feedback_test","","","","","","","","","","","",""
"281","","f","psychophysics","97","248642","0.0-7.0-1.0-1.0-0.0-0.44","4","4","4","4","4","4","4","4","4","4","5","5","5","5","5","5","5","5","5","5","1","1","1","1","1","1","1","1","1","0","1","0","0","0","1","0","0","0","0","0","0","0","1","0","5","1","5","1","1","1","3","5","3","4","1","783441385641742337","陈","141","","","","nonmatch","","","","","","","","","","","","","","key","f","16.700578947368502","720","446","f","true","nonmatch","img/diamond.png","三角","菱形","ALT1_2","prac_ALT1_2","","","","","","","","","","","",""
"null","<span style='color:GreenYellow; font-size: 70px;'>正确! </span>","null","html-keyboard-response","98","249143","0.0-7.0-1.0-1.0-0.0-1.44","4","4","4","4","4","4","4","4","4","4","5","5","5","5","5","5","5","5","5","5","1","1","1","1","1","1","1","1","1","0","1","0","0","0","1","0","0","0","0","0","0","0","1","0","5","1","5","1","1","1","3","5","3","4","1","783441385641742337","陈","141","","","","","","","","","","","","","","","","","","","","","","","","","","","","","","feedback_test","","","","","","","","","","","",""
"393","","f","psychophysics","99","250538","0.0-7.0-1.0-1.0-0.0-0.45","4","4","4","4","4","4","4","4","4","4","5","5","5","5","5","5","5","5","5","5","1","1","1","1","1","1","1","1","1","0","1","0","0","0","1","0","0","0","0","0","0","0","1","0","5","1","5","1","1","1","3","5","3","4","1","783441385641742337","陈","141","","","","nonmatch","","","","","","","","","","","","","","key","f","16.702231707317235","720","446","j","false","match","img/triangle.png","三角","三角","ALT1_2","prac_ALT1_2","","","","","","","","","","","",""
"null","<span style='color:red; font-size: 70px;'>错误! </span>","null","html-keyboard-response","100","251039","0.0-7.0-1.0-1.0-0.0-1.45","4","4","4","4","4","4","4","4","4","4","5","5","5","5","5","5","5","5","5","5","1","1","1","1","1","1","1","1","1","0","1","0","0","0","1","0","0","0","0","0","0","0","1","0","5","1","5","1","1","1","3","5","3","4","1","783441385641742337","陈","141","","","","","","","","","","","","","","","","","","","","","","","","","","","","","","feedback_test","","","","","","","","","","","",""
"105","","f","psychophysics","101","252146","0.0-7.0-1.0-1.0-0.0-0.46","4","4","4","4","4","4","4","4","4","4","5","5","5","5","5","5","5","5","5","5","1","1","1","1","1","1","1","1","1","0","1","0","0","0","1","0","0","0","0","0","0","0","1","0","5","1","5","1","1","1","3","5","3","4","1","783441385641742337","陈","141","","","","nonmatch","","","","","","","","","","","","","","key","f","16.69970769230769","720","446","j","false","match","img/triangle.png","三角","三角","ALT1_2","prac_ALT1_2","","","","","","","","","","","",""
"null","<span style='color:yellow; font-size: 70px;'>过快! </span>","null","html-keyboard-response","102","252662","0.0-7.0-1.0-1.0-0.0-1.46","4","4","4","4","4","4","4","4","4","4","5","5","5","5","5","5","5","5","5","5","1","1","1","1","1","1","1","1","1","0","1","0","0","0","1","0","0","0","0","0","0","0","1","0","5","1","5","1","1","1","3","5","3","4","1","783441385641742337","陈","141","","","","","","","","","","","","","","","","","","","","","","","","","","","","","","feedback_test","","","","","","","","","","","",""
"265","","j","psychophysics","103","253930","0.0-7.0-1.0-1.0-0.0-0.47","4","4","4","4","4","4","4","4","4","4","5","5","5","5","5","5","5","5","5","5","1","1","1","1","1","1","1","1","1","0","1","0","0","0","1","0","0","0","0","0","0","0","1","0","5","1","5","1","1","1","3","5","3","4","1","783441385641742337","陈","141","","","","match","","","","","","","","","","","","","","key","j","16.701759999999776","720","446","f","false","nonmatch","img/ellipse.png","三角","椭圆","ALT1_2","prac_ALT1_2","","","","","","","","","","","",""
"null","<span style='color:red; font-size: 70px;'>错误! </span>","null","html-keyboard-response","104","254432","0.0-7.0-1.0-1.0-0.0-1.47","4","4","4","4","4","4","4","4","4","4","5","5","5","5","5","5","5","5","5","5","1","1","1","1","1","1","1","1","1","0","1","0","0","0","1","0","0","0","0","0","0","0","1","0","5","1","5","1","1","1","3","5","3","4","1","783441385641742337","陈","141","","","","","","","","","","","","","","","","","","","","","","","","","","","","","","feedback_test","","","","","","","","","","","",""
"5097","<style>.context{color:white; font-size: 35px; line-height:40px}</style>                          <div><p class='context'>您正确回答了48% 的试次。</p><p class='context'>您的平均反应时为243毫秒。</p><p class='context'>恭喜您完成练习。按空格键继续。</p></div>"," ","html-keyboard-response","105","259531","0.0-7.0-1.0-1.0-1.0-0.0","4","4","4","4","4","4","4","4","4","4","5","5","5","5","5","5","5","5","5","5","1","1","1","1","1","1","1","1","1","0","1","0","0","0","1","0","0","0","0","0","0","0","1","0","5","1","5","1","1","1","3","5","3","4","1","783441385641742337","陈","141","","","","","","","","","","","","","","","","","","","","","","","","","","","","","","","","","","","","","","","","","",""
"11383","","","instructions","106","270919","0.0-7.0-1.0-1.0-1.0-1.0","4","4","4","4","4","4","4","4","4","4","5","5","5","5","5","5","5","5","5","5","1","1","1","1","1","1","1","1","1","0","1","0","0","0","1","0","0","0","0","0","0","0","1","0","5","1","5","1","1","1","3","5","3","4","1","783441385641742337","陈","141","","","","","","","","","","","","","","","","","[{""page_index"":0,""viewing_time"":5744},{""page_index"":1,""viewing_time"":4263},{""page_index"":2,""viewing_time"":1376}]","","","","","","","","","","","","","","","","","","","","","","","","",""
"378","","j","psychophysics","107","272300","0.0-7.0-1.0-1.1-0.1-0.48","4","4","4","4","4","4","4","4","4","4","5","5","5","5","5","5","5","5","5","5","1","1","1","1","1","1","1","1","1","0","1","0","0","0","1","0","0","0","0","0","0","0","1","0","5","1","5","1","1","1","3","5","3","4","1","783441385641742337","陈","141","","","","match","","","","","","","","","","","","","","key","j","16.698765432099197","720","446","f","false","nonmatch","img/triangle.png","椭圆","三角","ALT1_2","prac_ALT1_2","","","","","","","","","","","",""
"null","<span style='color:red; font-size: 70px;'>错误! </span>","null","html-keyboard-response","108","272801","0.0-7.0-1.0-1.1-0.1-1.48","4","4","4","4","4","4","4","4","4","4","5","5","5","5","5","5","5","5","5","5","1","1","1","1","1","1","1","1","1","0","1","0","0","0","1","0","0","0","0","0","0","0","1","0","5","1","5","1","1","1","3","5","3","4","1","783441385641742337","陈","141","","","","","","","","","","","","","","","","","","","","","","","","","","","","","","feedback_test","","","","","","","","","","","",""
"377","","f","psychophysics","109","274180","0.0-7.0-1.0-1.1-0.1-0.49","4","4","4","4","4","4","4","4","4","4","5","5","5","5","5","5","5","5","5","5","1","1","1","1","1","1","1","1","1","0","1","0","0","0","1","0","0","0","0","0","0","0","1","0","5","1","5","1","1","1","3","5","3","4","1","783441385641742337","陈","141","","","","nonmatch","","","","","","","","","","","","","","key","f","16.55777777777769","720","446","f","true","nonmatch","img/pentagon.png","菱形","五边","ALT1_2","prac_ALT1_2","","","","","","","","","","","",""
"null","<span style='color:GreenYellow; font-size: 70px;'>正确! </span>","null","html-keyboard-response","110","274682","0.0-7.0-1.0-1.1-0.1-1.49","4","4","4","4","4","4","4","4","4","4","5","5","5","5","5","5","5","5","5","5","1","1","1","1","1","1","1","1","1","0","1","0","0","0","1","0","0","0","0","0","0","0","1","0","5","1","5","1","1","1","3","5","3","4","1","783441385641742337","陈","141","","","","","","","","","","","","","","","","","","","","","","","","","","","","","","feedback_test","","","","","","","","","","","",""
"337","","f","psychophysics","111","276021","0.0-7.0-1.0-1.1-0.1-0.50","4","4","4","4","4","4","4","4","4","4","5","5","5","5","5","5","5","5","5","5","1","1","1","1","1","1","1","1","1","0","1","0","0","0","1","0","0","0","0","0","0","0","1","0","5","1","5","1","1","1","3","5","3","4","1","783441385641742337","陈","141","","","","nonmatch","","","","","","","","","","","","","","key","f","16.698632911392163","720","446","j","false","match","img/triangle.png","三角","三角","ALT1_2","prac_ALT1_2","","","","","","","","","","","",""
"null","<span style='color:red; font-size: 70px;'>错误! </span>","null","html-keyboard-response","112","276522","0.0-7.0-1.0-1.1-0.1-1.50","4","4","4","4","4","4","4","4","4","4","5","5","5","5","5","5","5","5","5","5","1","1","1","1","1","1","1","1","1","0","1","0","0","0","1","0","0","0","0","0","0","0","1","0","5","1","5","1","1","1","3","5","3","4","1","783441385641742337","陈","141","","","","","","","","","","","","","","","","","","","","","","","","","","","","","","feedback_test","","","","","","","","","","","",""
"346","","j","psychophysics","113","277870","0.0-7.0-1.0-1.1-0.1-0.51","4","4","4","4","4","4","4","4","4","4","5","5","5","5","5","5","5","5","5","5","1","1","1","1","1","1","1","1","1","0","1","0","0","0","1","0","0","0","0","0","0","0","1","0","5","1","5","1","1","1","3","5","3","4","1","783441385641742337","陈","141","","","","match","","","","","","","","","","","","","","key","j","16.701062499999534","720","446","j","true","match","img/triangle.png","三角","三角","ALT1_2","prac_ALT1_2","","","","","","","","","","","",""
"null","<span style='color:GreenYellow; font-size: 70px;'>正确! </span>","null","html-keyboard-response","114","278372","0.0-7.0-1.0-1.1-0.1-1.51","4","4","4","4","4","4","4","4","4","4","5","5","5","5","5","5","5","5","5","5","1","1","1","1","1","1","1","1","1","0","1","0","0","0","1","0","0","0","0","0","0","0","1","0","5","1","5","1","1","1","3","5","3","4","1","783441385641742337","陈","141","","","","","","","","","","","","","","","","","","","","","","","","","","","","","","feedback_test","","","","","","","","","","","",""
"207","","j","psychophysics","115","279581","0.0-7.0-1.0-1.1-0.1-0.52","4","4","4","4","4","4","4","4","4","4","5","5","5","5","5","5","5","5","5","5","1","1","1","1","1","1","1","1","1","0","1","0","0","0","1","0","0","0","0","0","0","0","1","0","5","1","5","1","1","1","3","5","3","4","1","783441385641742337","陈","141","","","","match","","","","","","","","","","","","","","key","j","16.698690140845326","720","446","f","false","nonmatch","img/diamond.png","五边","菱形","ALT1_2","prac_ALT1_2","","","","","","","","","","","",""
"null","<span style='color:red; font-size: 70px;'>错误! </span>","null","html-keyboard-response","116","280094","0.0-7.0-1.0-1.1-0.1-1.52","4","4","4","4","4","4","4","4","4","4","5","5","5","5","5","5","5","5","5","5","1","1","1","1","1","1","1","1","1","0","1","0","0","0","1","0","0","0","0","0","0","0","1","0","5","1","5","1","1","1","3","5","3","4","1","783441385641742337","陈","141","","","","","","","","","","","","","","","","","","","","","","","","","","","","","","feedback_test","","","","","","","","","","","",""
"366","","f","psychophysics","117","281461","0.0-7.0-1.0-1.1-0.1-0.53","4","4","4","4","4","4","4","4","4","4","5","5","5","5","5","5","5","5","5","5","1","1","1","1","1","1","1","1","1","0","1","0","0","0","1","0","0","0","0","0","0","0","1","0","5","1","5","1","1","1","3","5","3","4","1","783441385641742337","陈","141","","","","nonmatch","","","","","","","","","","","","","","key","f","16.70051851851886","720","446","f","true","nonmatch","img/ellipse.png","菱形","椭圆","ALT1_2","prac_ALT1_2","","","","","","","","","","","",""
"null","<span style='color:GreenYellow; font-size: 70px;'>正确! </span>","null","html-keyboard-response","118","281964","0.0-7.0-1.0-1.1-0.1-1.53","4","4","4","4","4","4","4","4","4","4","5","5","5","5","5","5","5","5","5","5","1","1","1","1","1","1","1","1","1","0","1","0","0","0","1","0","0","0","0","0","0","0","1","0","5","1","5","1","1","1","3","5","3","4","1","783441385641742337","陈","141","","","","","","","","","","","","","","","","","","","","","","","","","","","","","","feedback_test","","","","","","","","","","","",""
"249","","f","psychophysics","119","283214","0.0-7.0-1.0-1.1-0.1-0.54","4","4","4","4","4","4","4","4","4","4","5","5","5","5","5","5","5","5","5","5","1","1","1","1","1","1","1","1","1","0","1","0","0","0","1","0","0","0","0","0","0","0","1","0","5","1","5","1","1","1","3","5","3","4","1","783441385641742337","陈","141","","","","nonmatch","","","","","","","","","","","","","","key","f","16.70110810810788","720","446","f","true","nonmatch","img/diamond.png","椭圆","菱形","ALT1_2","prac_ALT1_2","","","","","","","","","","","",""
"null","<span style='color:GreenYellow; font-size: 70px;'>正确! </span>","null","html-keyboard-response","120","283716","0.0-7.0-1.0-1.1-0.1-1.54","4","4","4","4","4","4","4","4","4","4","5","5","5","5","5","5","5","5","5","5","1","1","1","1","1","1","1","1","1","0","1","0","0","0","1","0","0","0","0","0","0","0","1","0","5","1","5","1","1","1","3","5","3","4","1","783441385641742337","陈","141","","","","","","","","","","","","","","","","","","","","","","","","","","","","","","feedback_test","","","","","","","","","","","",""
"256","","f","psychophysics","121","284974","0.0-7.0-1.0-1.1-0.1-0.55","4","4","4","4","4","4","4","4","4","4","5","5","5","5","5","5","5","5","5","5","1","1","1","1","1","1","1","1","1","0","1","0","0","0","1","0","0","0","0","0","0","0","1","0","5","1","5","1","1","1","3","5","3","4","1","783441385641742337","陈","141","","","","nonmatch","","","","","","","","","","","","","","key","f","16.69949999999969","720","446","j","false","match","img/diamond.png","菱形","菱形","ALT1_2","prac_ALT1_2","","","","","","","","","","","",""
"null","<span style='color:red; font-size: 70px;'>错误! </span>","null","html-keyboard-response","122","285475","0.0-7.0-1.0-1.1-0.1-1.55","4","4","4","4","4","4","4","4","4","4","5","5","5","5","5","5","5","5","5","5","1","1","1","1","1","1","1","1","1","0","1","0","0","0","1","0","0","0","0","0","0","0","1","0","5","1","5","1","1","1","3","5","3","4","1","783441385641742337","陈","141","","","","","","","","","","","","","","","","","","","","","","","","","","","","","","feedback_test","","","","","","","","","","","",""
"329","","f","psychophysics","123","286806","0.0-7.0-1.0-1.1-0.1-0.56","4","4","4","4","4","4","4","4","4","4","5","5","5","5","5","5","5","5","5","5","1","1","1","1","1","1","1","1","1","0","1","0","0","0","1","0","0","0","0","0","0","0","1","0","5","1","5","1","1","1","3","5","3","4","1","783441385641742337","陈","141","","","","nonmatch","","","","","","","","","","","","","","key","f","16.70003797468299","720","446","f","true","nonmatch","img/pentagon.png","三角","五边","ALT1_2","prac_ALT1_2","","","","","","","","","","","",""
"null","<span style='color:GreenYellow; font-size: 70px;'>正确! </span>","null","html-keyboard-response","124","287307","0.0-7.0-1.0-1.1-0.1-1.56","4","4","4","4","4","4","4","4","4","4","5","5","5","5","5","5","5","5","5","5","1","1","1","1","1","1","1","1","1","0","1","0","0","0","1","0","0","0","0","0","0","0","1","0","5","1","5","1","1","1","3","5","3","4","1","783441385641742337","陈","141","","","","","","","","","","","","","","","","","","","","","","","","","","","","","","feedback_test","","","","","","","","","","","",""
"201","","f","psychophysics","125","288510","0.0-7.0-1.0-1.1-0.1-0.57","4","4","4","4","4","4","4","4","4","4","5","5","5","5","5","5","5","5","5","5","1","1","1","1","1","1","1","1","1","0","1","0","0","0","1","0","0","0","0","0","0","0","1","0","5","1","5","1","1","1","3","5","3","4","1","783441385641742337","陈","141","","","","nonmatch","","","","","","","","","","","","","","key","f","16.700408450704114","720","446","f","true","nonmatch","img/triangle.png","五边","三角","ALT1_2","prac_ALT1_2","","","","","","","","","","","",""
"null","<span style='color:GreenYellow; font-size: 70px;'>正确! </span>","null","html-keyboard-response","126","289010","0.0-7.0-1.0-1.1-0.1-1.57","4","4","4","4","4","4","4","4","4","4","5","5","5","5","5","5","5","5","5","5","1","1","1","1","1","1","1","1","1","0","1","0","0","0","1","0","0","0","0","0","0","0","1","0","5","1","5","1","1","1","3","5","3","4","1","783441385641742337","陈","141","","","","","","","","","","","","","","","","","","","","","","","","","","","","","","feedback_test","","","","","","","","","","","",""
"323","","f","psychophysics","127","290334","0.0-7.0-1.0-1.1-0.1-0.58","4","4","4","4","4","4","4","4","4","4","5","5","5","5","5","5","5","5","5","5","1","1","1","1","1","1","1","1","1","0","1","0","0","0","1","0","0","0","0","0","0","0","1","0","5","1","5","1","1","1","3","5","3","4","1","783441385641742337","陈","141","","","","nonmatch","","","","","","","","","","","","","","key","f","16.702666666666165","720","446","j","false","match","img/pentagon.png","五边","五边","ALT1_2","prac_ALT1_2","","","","","","","","","","","",""
"null","<span style='color:red; font-size: 70px;'>错误! </span>","null","html-keyboard-response","128","290835","0.0-7.0-1.0-1.1-0.1-1.58","4","4","4","4","4","4","4","4","4","4","5","5","5","5","5","5","5","5","5","5","1","1","1","1","1","1","1","1","1","0","1","0","0","0","1","0","0","0","0","0","0","0","1","0","5","1","5","1","1","1","3","5","3","4","1","783441385641742337","陈","141","","","","","","","","","","","","","","","","","","","","","","","","","","","","","","feedback_test","","","","","","","","","","","",""
"250","","f","psychophysics","129","292086","0.0-7.0-1.0-1.1-0.1-0.59","4","4","4","4","4","4","4","4","4","4","5","5","5","5","5","5","5","5","5","5","1","1","1","1","1","1","1","1","1","0","1","0","0","0","1","0","0","0","0","0","0","0","1","0","5","1","5","1","1","1","3","5","3","4","1","783441385641742337","陈","141","","","","nonmatch","","","","","","","","","","","","","","key","f","16.698729729729806","720","446","f","true","nonmatch","img/ellipse.png","三角","椭圆","ALT1_2","prac_ALT1_2","","","","","","","","","","","",""
"null","<span style='color:GreenYellow; font-size: 70px;'>正确! </span>","null","html-keyboard-response","130","292587","0.0-7.0-1.0-1.1-0.1-1.59","4","4","4","4","4","4","4","4","4","4","5","5","5","5","5","5","5","5","5","5","1","1","1","1","1","1","1","1","1","0","1","0","0","0","1","0","0","0","0","0","0","0","1","0","5","1","5","1","1","1","3","5","3","4","1","783441385641742337","陈","141","","","","","","","","","","","","","","","","","","","","","","","","","","","","","","feedback_test","","","","","","","","","","","",""
"281","","f","psychophysics","131","293870","0.0-7.0-1.0-1.1-0.1-0.60","4","4","4","4","4","4","4","4","4","4","5","5","5","5","5","5","5","5","5","5","1","1","1","1","1","1","1","1","1","0","1","0","0","0","1","0","0","0","0","0","0","0","1","0","5","1","5","1","1","1","3","5","3","4","1","783441385641742337","陈","141","","","","nonmatch","","","","","","","","","","","","","","key","f","16.700131578947644","720","446","j","false","match","img/ellipse.png","椭圆","椭圆","ALT1_2","prac_ALT1_2","","","","","","","","","","","",""
"null","<span style='color:red; font-size: 70px;'>错误! </span>","null","html-keyboard-response","132","294372","0.0-7.0-1.0-1.1-0.1-1.60","4","4","4","4","4","4","4","4","4","4","5","5","5","5","5","5","5","5","5","5","1","1","1","1","1","1","1","1","1","0","1","0","0","0","1","0","0","0","0","0","0","0","1","0","5","1","5","1","1","1","3","5","3","4","1","783441385641742337","陈","141","","","","","","","","","","","","","","","","","","","","","","","","","","","","","","feedback_test","","","","","","","","","","","",""
"240","","f","psychophysics","133","295614","0.0-7.0-1.0-1.1-0.1-0.61","4","4","4","4","4","4","4","4","4","4","5","5","5","5","5","5","5","5","5","5","1","1","1","1","1","1","1","1","1","0","1","0","0","0","1","0","0","0","0","0","0","0","1","0","5","1","5","1","1","1","3","5","3","4","1","783441385641742337","陈","141","","","","nonmatch","","","","","","","","","","","","","","key","f","16.6986891891897","720","446","f","true","nonmatch","img/pentagon.png","椭圆","五边","ALT1_2","prac_ALT1_2","","","","","","","","","","","",""
"null","<span style='color:GreenYellow; font-size: 70px;'>正确! </span>","null","html-keyboard-response","134","296116","0.0-7.0-1.0-1.1-0.1-1.61","4","4","4","4","4","4","4","4","4","4","5","5","5","5","5","5","5","5","5","5","1","1","1","1","1","1","1","1","1","0","1","0","0","0","1","0","0","0","0","0","0","0","1","0","5","1","5","1","1","1","3","5","3","4","1","783441385641742337","陈","141","","","","","","","","","","","","","","","","","","","","","","","","","","","","","","feedback_test","","","","","","","","","","","",""
"234","","j","psychophysics","135","297351","0.0-7.0-1.0-1.1-0.1-0.62","4","4","4","4","4","4","4","4","4","4","5","5","5","5","5","5","5","5","5","5","1","1","1","1","1","1","1","1","1","0","1","0","0","0","1","0","0","0","0","0","0","0","1","0","5","1","5","1","1","1","3","5","3","4","1","783441385641742337","陈","141","","","","match","","","","","","","","","","","","","","key","j","16.69941095890372","720","446","f","false","nonmatch","img/diamond.png","三角","菱形","ALT1_2","prac_ALT1_2","","","","","","","","","","","",""
"null","<span style='color:red; font-size: 70px;'>错误! </span>","null","html-keyboard-response","136","297852","0.0-7.0-1.0-1.1-0.1-1.62","4","4","4","4","4","4","4","4","4","4","5","5","5","5","5","5","5","5","5","5","1","1","1","1","1","1","1","1","1","0","1","0","0","0","1","0","0","0","0","0","0","0","1","0","5","1","5","1","1","1","3","5","3","4","1","783441385641742337","陈","141","","","","","","","","","","","","","","","","","","","","","","","","","","","","","","feedback_test","","","","","","","","","","","",""
"201","","f","psychophysics","137","299055","0.0-7.0-1.0-1.1-0.1-0.63","4","4","4","4","4","4","4","4","4","4","5","5","5","5","5","5","5","5","5","5","1","1","1","1","1","1","1","1","1","0","1","0","0","0","1","0","0","0","0","0","0","0","1","0","5","1","5","1","1","1","3","5","3","4","1","783441385641742337","陈","141","","","","nonmatch","","","","","","","","","","","","","","key","f","16.70121126760594","720","446","j","false","match","img/triangle.png","三角","三角","ALT1_2","prac_ALT1_2","","","","","","","","","","","",""
"null","<span style='color:red; font-size: 70px;'>错误! </span>","null","html-keyboard-response","138","299571","0.0-7.0-1.0-1.1-0.1-1.63","4","4","4","4","4","4","4","4","4","4","5","5","5","5","5","5","5","5","5","5","1","1","1","1","1","1","1","1","1","0","1","0","0","0","1","0","0","0","0","0","0","0","1","0","5","1","5","1","1","1","3","5","3","4","1","783441385641742337","陈","141","","","","","","","","","","","","","","","","","","","","","","","","","","","","","","feedback_test","","","","","","","","","","","",""
"320","","j","psychophysics","139","300892","0.0-7.0-1.0-1.1-0.1-0.64","4","4","4","4","4","4","4","4","4","4","5","5","5","5","5","5","5","5","5","5","1","1","1","1","1","1","1","1","1","0","1","0","0","0","1","0","0","0","0","0","0","0","1","0","5","1","5","1","1","1","3","5","3","4","1","783441385641742337","陈","141","","","","match","","","","","","","","","","","","","","key","j","16.50739743589731","720","446","f","false","nonmatch","img/ellipse.png","五边","椭圆","ALT1_2","prac_ALT1_2","","","","","","","","","","","",""
"null","<span style='color:red; font-size: 70px;'>错误! </span>","null","html-keyboard-response","140","301394","0.0-7.0-1.0-1.1-0.1-1.64","4","4","4","4","4","4","4","4","4","4","5","5","5","5","5","5","5","5","5","5","1","1","1","1","1","1","1","1","1","0","1","0","0","0","1","0","0","0","0","0","0","0","1","0","5","1","5","1","1","1","3","5","3","4","1","783441385641742337","陈","141","","","","","","","","","","","","","","","","","","","","","","","","","","","","","","feedback_test","","","","","","","","","","","",""
"324","","j","psychophysics","141","302719","0.0-7.0-1.0-1.1-0.1-0.65","4","4","4","4","4","4","4","4","4","4","5","5","5","5","5","5","5","5","5","5","1","1","1","1","1","1","1","1","1","0","1","0","0","0","1","0","0","0","0","0","0","0","1","0","5","1","5","1","1","1","3","5","3","4","1","783441385641742337","陈","141","","","","match","","","","","","","","","","","","","","key","j","16.698576923076942","720","446","j","true","match","img/pentagon.png","五边","五边","ALT1_2","prac_ALT1_2","","","","","","","","","","","",""
"null","<span style='color:GreenYellow; font-size: 70px;'>正确! </span>","null","html-keyboard-response","142","303221","0.0-7.0-1.0-1.1-0.1-1.65","4","4","4","4","4","4","4","4","4","4","5","5","5","5","5","5","5","5","5","5","1","1","1","1","1","1","1","1","1","0","1","0","0","0","1","0","0","0","0","0","0","0","1","0","5","1","5","1","1","1","3","5","3","4","1","783441385641742337","陈","141","","","","","","","","","","","","","","","","","","","","","","","","","","","","","","feedback_test","","","","","","","","","","","",""
"216","","j","psychophysics","143","304439","0.0-7.0-1.0-1.1-0.1-0.66","4","4","4","4","4","4","4","4","4","4","5","5","5","5","5","5","5","5","5","5","1","1","1","1","1","1","1","1","1","0","1","0","0","0","1","0","0","0","0","0","0","0","1","0","5","1","5","1","1","1","3","5","3","4","1","783441385641742337","陈","141","","","","match","","","","","","","","","","","","","","key","j","16.69879166666619","720","446","j","true","match","img/diamond.png","菱形","菱形","ALT1_2","prac_ALT1_2","","","","","","","","","","","",""
"null","<span style='color:GreenYellow; font-size: 70px;'>正确! </span>","null","html-keyboard-response","144","304941","0.0-7.0-1.0-1.1-0.1-1.66","4","4","4","4","4","4","4","4","4","4","5","5","5","5","5","5","5","5","5","5","1","1","1","1","1","1","1","1","1","0","1","0","0","0","1","0","0","0","0","0","0","0","1","0","5","1","5","1","1","1","3","5","3","4","1","783441385641742337","陈","141","","","","","","","","","","","","","","","","","","","","","","","","","","","","","","feedback_test","","","","","","","","","","","",""
"225","","j","psychophysics","145","306167","0.0-7.0-1.0-1.1-0.1-0.67","4","4","4","4","4","4","4","4","4","4","5","5","5","5","5","5","5","5","5","5","1","1","1","1","1","1","1","1","1","0","1","0","0","0","1","0","0","0","0","0","0","0","1","0","5","1","5","1","1","1","3","5","3","4","1","783441385641742337","陈","141","","","","match","","","","","","","","","","","","","","key","j","16.699888888888786","720","446","j","true","match","img/pentagon.png","五边","五边","ALT1_2","prac_ALT1_2","","","","","","","","","","","",""
"null","<span style='color:GreenYellow; font-size: 70px;'>正确! </span>","null","html-keyboard-response","146","306669","0.0-7.0-1.0-1.1-0.1-1.67","4","4","4","4","4","4","4","4","4","4","5","5","5","5","5","5","5","5","5","5","1","1","1","1","1","1","1","1","1","0","1","0","0","0","1","0","0","0","0","0","0","0","1","0","5","1","5","1","1","1","3","5","3","4","1","783441385641742337","陈","141","","","","","","","","","","","","","","","","","","","","","","","","","","","","","","feedback_test","","","","","","","","","","","",""
"234","","j","psychophysics","147","307904","0.0-7.0-1.0-1.1-0.1-0.68","4","4","4","4","4","4","4","4","4","4","5","5","5","5","5","5","5","5","5","5","1","1","1","1","1","1","1","1","1","0","1","0","0","0","1","0","0","0","0","0","0","0","1","0","5","1","5","1","1","1","3","5","3","4","1","783441385641742337","陈","141","","","","match","","","","","","","","","","","","","","key","j","16.700833333332817","720","446","j","true","match","img/ellipse.png","椭圆","椭圆","ALT1_2","prac_ALT1_2","","","","","","","","","","","",""
"null","<span style='color:GreenYellow; font-size: 70px;'>正确! </span>","null","html-keyboard-response","148","308405","0.0-7.0-1.0-1.1-0.1-1.68","4","4","4","4","4","4","4","4","4","4","5","5","5","5","5","5","5","5","5","5","1","1","1","1","1","1","1","1","1","0","1","0","0","0","1","0","0","0","0","0","0","0","1","0","5","1","5","1","1","1","3","5","3","4","1","783441385641742337","陈","141","","","","","","","","","","","","","","","","","","","","","","","","","","","","","","feedback_test","","","","","","","","","","","",""
"236","","j","psychophysics","149","309642","0.0-7.0-1.0-1.1-0.1-0.69","4","4","4","4","4","4","4","4","4","4","5","5","5","5","5","5","5","5","5","5","1","1","1","1","1","1","1","1","1","0","1","0","0","0","1","0","0","0","0","0","0","0","1","0","5","1","5","1","1","1","3","5","3","4","1","783441385641742337","陈","141","","","","match","","","","","","","","","","","","","","key","j","16.6966164383562","720","446","j","true","match","img/diamond.png","菱形","菱形","ALT1_2","prac_ALT1_2","","","","","","","","","","","",""
"null","<span style='color:GreenYellow; font-size: 70px;'>正确! </span>","null","html-keyboard-response","150","310145","0.0-7.0-1.0-1.1-0.1-1.69","4","4","4","4","4","4","4","4","4","4","5","5","5","5","5","5","5","5","5","5","1","1","1","1","1","1","1","1","1","0","1","0","0","0","1","0","0","0","0","0","0","0","1","0","5","1","5","1","1","1","3","5","3","4","1","783441385641742337","陈","141","","","","","","","","","","","","","","","","","","","","","","","","","","","","","","feedback_test","","","","","","","","","","","",""
"223","","j","psychophysics","151","311370","0.0-7.0-1.0-1.1-0.1-0.70","4","4","4","4","4","4","4","4","4","4","5","5","5","5","5","5","5","5","5","5","1","1","1","1","1","1","1","1","1","0","1","0","0","0","1","0","0","0","0","0","0","0","1","0","5","1","5","1","1","1","3","5","3","4","1","783441385641742337","陈","141","","","","match","","","","","","","","","","","","","","key","j","16.699319444444782","720","446","f","false","nonmatch","img/triangle.png","菱形","三角","ALT1_2","prac_ALT1_2","","","","","","","","","","","",""
"null","<span style='color:red; font-size: 70px;'>错误! </span>","null","html-keyboard-response","152","311871","0.0-7.0-1.0-1.1-0.1-1.70","4","4","4","4","4","4","4","4","4","4","5","5","5","5","5","5","5","5","5","5","1","1","1","1","1","1","1","1","1","0","1","0","0","0","1","0","0","0","0","0","0","0","1","0","5","1","5","1","1","1","3","5","3","4","1","783441385641742337","陈","141","","","","","","","","","","","","","","","","","","","","","","","","","","","","","","feedback_test","","","","","","","","","","","",""
"208","","f","psychophysics","153","313080","0.0-7.0-1.0-1.1-0.1-0.71","4","4","4","4","4","4","4","4","4","4","5","5","5","5","5","5","5","5","5","5","1","1","1","1","1","1","1","1","1","0","1","0","0","0","1","0","0","0","0","0","0","0","1","0","5","1","5","1","1","1","3","5","3","4","1","783441385641742337","陈","141","","","","nonmatch","","","","","","","","","","","","","","key","f","16.701352112675675","720","446","j","false","match","img/ellipse.png","椭圆","椭圆","ALT1_2","prac_ALT1_2","","","","","","","","","","","",""
"null","<span style='color:red; font-size: 70px;'>错误! </span>","null","html-keyboard-response","154","313582","0.0-7.0-1.0-1.1-0.1-1.71","4","4","4","4","4","4","4","4","4","4","5","5","5","5","5","5","5","5","5","5","1","1","1","1","1","1","1","1","1","0","1","0","0","0","1","0","0","0","0","0","0","0","1","0","5","1","5","1","1","1","3","5","3","4","1","783441385641742337","陈","141","","","","","","","","","","","","","","","","","","","","","","","","","","","","","","feedback_test","","","","","","","","","","","",""
"184","","f","psychophysics","155","314769","0.0-7.0-1.0-1.1-0.1-0.72","4","4","4","4","4","4","4","4","4","4","5","5","5","5","5","5","5","5","5","5","1","1","1","1","1","1","1","1","1","0","1","0","0","0","1","0","0","0","0","0","0","0","1","0","5","1","5","1","1","1","3","5","3","4","1","783441385641742337","陈","141","","","","nonmatch","","","","","","","","","","","","","","key","f","16.699985714285866","720","446","j","false","match","img/diamond.png","菱形","菱形","ALT1_2","prac_ALT1_2","","","","","","","","","","","",""
"null","<span style='color:yellow; font-size: 70px;'>过快! </span>","null","html-keyboard-response","156","315270","0.0-7.0-1.0-1.1-0.1-1.72","4","4","4","4","4","4","4","4","4","4","5","5","5","5","5","5","5","5","5","5","1","1","1","1","1","1","1","1","1","0","1","0","0","0","1","0","0","0","0","0","0","0","1","0","5","1","5","1","1","1","3","5","3","4","1","783441385641742337","陈","141","","","","","","","","","","","","","","","","","","","","","","","","","","","","","","feedback_test","","","","","","","","","","","",""
"233","","j","psychophysics","157","316505","0.0-7.0-1.0-1.1-0.1-0.73","4","4","4","4","4","4","4","4","4","4","5","5","5","5","5","5","5","5","5","5","1","1","1","1","1","1","1","1","1","0","1","0","0","0","1","0","0","0","0","0","0","0","1","0","5","1","5","1","1","1","3","5","3","4","1","783441385641742337","陈","141","","","","match","","","","","","","","","","","","","","key","j","16.699287671233012","720","446","f","false","nonmatch","img/ellipse.png","三角","椭圆","ALT1_2","prac_ALT1_2","","","","","","","","","","","",""
"null","<span style='color:red; font-size: 70px;'>错误! </span>","null","html-keyboard-response","158","317006","0.0-7.0-1.0-1.1-0.1-1.73","4","4","4","4","4","4","4","4","4","4","5","5","5","5","5","5","5","5","5","5","1","1","1","1","1","1","1","1","1","0","1","0","0","0","1","0","0","0","0","0","0","0","1","0","5","1","5","1","1","1","3","5","3","4","1","783441385641742337","陈","141","","","","","","","","","","","","","","","","","","","","","","","","","","","","","","feedback_test","","","","","","","","","","","",""
"265","","f","psychophysics","159","318273","0.0-7.0-1.0-1.1-0.1-0.74","4","4","4","4","4","4","4","4","4","4","5","5","5","5","5","5","5","5","5","5","1","1","1","1","1","1","1","1","1","0","1","0","0","0","1","0","0","0","0","0","0","0","1","0","5","1","5","1","1","1","3","5","3","4","1","783441385641742337","陈","141","","","","nonmatch","","","","","","","","","","","","","","key","f","16.699108108108064","720","446","f","true","nonmatch","img/pentagon.png","椭圆","五边","ALT1_2","prac_ALT1_2","","","","","","","","","","","",""
"null","<span style='color:GreenYellow; font-size: 70px;'>正确! </span>","null","html-keyboard-response","160","318774","0.0-7.0-1.0-1.1-0.1-1.74","4","4","4","4","4","4","4","4","4","4","5","5","5","5","5","5","5","5","5","5","1","1","1","1","1","1","1","1","1","0","1","0","0","0","1","0","0","0","0","0","0","0","1","0","5","1","5","1","1","1","3","5","3","4","1","783441385641742337","陈","141","","","","","","","","","","","","","","","","","","","","","","","","","","","","","","feedback_test","","","","","","","","","","","",""
"299","","f","psychophysics","161","320074","0.0-7.0-1.0-1.1-0.1-0.75","4","4","4","4","4","4","4","4","4","4","5","5","5","5","5","5","5","5","5","5","1","1","1","1","1","1","1","1","1","0","1","0","0","0","1","0","0","0","0","0","0","0","1","0","5","1","5","1","1","1","3","5","3","4","1","783441385641742337","陈","141","","","","nonmatch","","","","","","","","","","","","","","key","f","16.684552631579113","720","446","j","false","match","img/ellipse.png","椭圆","椭圆","ALT1_2","prac_ALT1_2","","","","","","","","","","","",""
"null","<span style='color:red; font-size: 70px;'>错误! </span>","null","html-keyboard-response","162","320575","0.0-7.0-1.0-1.1-0.1-1.75","4","4","4","4","4","4","4","4","4","4","5","5","5","5","5","5","5","5","5","5","1","1","1","1","1","1","1","1","1","0","1","0","0","0","1","0","0","0","0","0","0","0","1","0","5","1","5","1","1","1","3","5","3","4","1","783441385641742337","陈","141","","","","","","","","","","","","","","","","","","","","","","","","","","","","","","feedback_test","","","","","","","","","","","",""
"312","","f","psychophysics","163","321889","0.0-7.0-1.0-1.1-0.1-0.76","4","4","4","4","4","4","4","4","4","4","5","5","5","5","5","5","5","5","5","5","1","1","1","1","1","1","1","1","1","0","1","0","0","0","1","0","0","0","0","0","0","0","1","0","5","1","5","1","1","1","3","5","3","4","1","783441385641742337","陈","141","","","","nonmatch","","","","","","","","","","","","","","key","f","16.701346153846362","720","446","f","true","nonmatch","img/diamond.png","椭圆","菱形","ALT1_2","prac_ALT1_2","","","","","","","","","","","",""
"null","<span style='color:GreenYellow; font-size: 70px;'>正确! </span>","null","html-keyboard-response","164","322390","0.0-7.0-1.0-1.1-0.1-1.76","4","4","4","4","4","4","4","4","4","4","5","5","5","5","5","5","5","5","5","5","1","1","1","1","1","1","1","1","1","0","1","0","0","0","1","0","0","0","0","0","0","0","1","0","5","1","5","1","1","1","3","5","3","4","1","783441385641742337","陈","141","","","","","","","","","","","","","","","","","","","","","","","","","","","","","","feedback_test","","","","","","","","","","","",""
"242","","f","psychophysics","165","323634","0.0-7.0-1.0-1.1-0.1-0.77","4","4","4","4","4","4","4","4","4","4","5","5","5","5","5","5","5","5","5","5","1","1","1","1","1","1","1","1","1","0","1","0","0","0","1","0","0","0","0","0","0","0","1","0","5","1","5","1","1","1","3","5","3","4","1","783441385641742337","陈","141","","","","nonmatch","","","","","","","","","","","","","","key","f","16.69993150684973","720","446","j","false","match","img/triangle.png","三角","三角","ALT1_2","prac_ALT1_2","","","","","","","","","","","",""
"null","<span style='color:red; font-size: 70px;'>错误! </span>","null","html-keyboard-response","166","324135","0.0-7.0-1.0-1.1-0.1-1.77","4","4","4","4","4","4","4","4","4","4","5","5","5","5","5","5","5","5","5","5","1","1","1","1","1","1","1","1","1","0","1","0","0","0","1","0","0","0","0","0","0","0","1","0","5","1","5","1","1","1","3","5","3","4","1","783441385641742337","陈","141","","","","","","","","","","","","","","","","","","","","","","","","","","","","","","feedback_test","","","","","","","","","","","",""
"225","","f","psychophysics","167","325361","0.0-7.0-1.0-1.1-0.1-0.78","4","4","4","4","4","4","4","4","4","4","5","5","5","5","5","5","5","5","5","5","1","1","1","1","1","1","1","1","1","0","1","0","0","0","1","0","0","0","0","0","0","0","1","0","5","1","5","1","1","1","3","5","3","4","1","783441385641742337","陈","141","","","","nonmatch","","","","","","","","","","","","","","key","f","16.698208333333444","720","446","j","false","match","img/pentagon.png","五边","五边","ALT1_2","prac_ALT1_2","","","","","","","","","","","",""
"null","<span style='color:red; font-size: 70px;'>错误! </span>","null","html-keyboard-response","168","325863","0.0-7.0-1.0-1.1-0.1-1.78","4","4","4","4","4","4","4","4","4","4","5","5","5","5","5","5","5","5","5","5","1","1","1","1","1","1","1","1","1","0","1","0","0","0","1","0","0","0","0","0","0","0","1","0","5","1","5","1","1","1","3","5","3","4","1","783441385641742337","陈","141","","","","","","","","","","","","","","","","","","","","","","","","","","","","","","feedback_test","","","","","","","","","","","",""
"249","","f","psychophysics","169","327114","0.0-7.0-1.0-1.1-0.1-0.79","4","4","4","4","4","4","4","4","4","4","5","5","5","5","5","5","5","5","5","5","1","1","1","1","1","1","1","1","1","0","1","0","0","0","1","0","0","0","0","0","0","0","1","0","5","1","5","1","1","1","3","5","3","4","1","783441385641742337","陈","141","","","","nonmatch","","","","","","","","","","","","","","key","f","16.701810810810922","720","446","f","true","nonmatch","img/triangle.png","五边","三角","ALT1_2","prac_ALT1_2","","","","","","","","","","","",""
"null","<span style='color:GreenYellow; font-size: 70px;'>正确! </span>","null","html-keyboard-response","170","327615","0.0-7.0-1.0-1.1-0.1-1.79","4","4","4","4","4","4","4","4","4","4","5","5","5","5","5","5","5","5","5","5","1","1","1","1","1","1","1","1","1","0","1","0","0","0","1","0","0","0","0","0","0","0","1","0","5","1","5","1","1","1","3","5","3","4","1","783441385641742337","陈","141","","","","","","","","","","","","","","","","","","","","","","","","","","","","","","feedback_test","","","","","","","","","","","",""
"192","","j","psychophysics","171","328810","0.0-7.0-1.0-1.1-0.1-0.80","4","4","4","4","4","4","4","4","4","4","5","5","5","5","5","5","5","5","5","5","1","1","1","1","1","1","1","1","1","0","1","0","0","0","1","0","0","0","0","0","0","0","1","0","5","1","5","1","1","1","3","5","3","4","1","783441385641742337","陈","141","","","","match","","","","","","","","","","","","","","key","j","16.70091428571447","720","446","j","true","match","img/pentagon.png","五边","五边","ALT1_2","prac_ALT1_2","","","","","","","","","","","",""
"null","<span style='color:yellow; font-size: 70px;'>过快! </span>","null","html-keyboard-response","172","329311","0.0-7.0-1.0-1.1-0.1-1.80","4","4","4","4","4","4","4","4","4","4","5","5","5","5","5","5","5","5","5","5","1","1","1","1","1","1","1","1","1","0","1","0","0","0","1","0","0","0","0","0","0","0","1","0","5","1","5","1","1","1","3","5","3","4","1","783441385641742337","陈","141","","","","","","","","","","","","","","","","","","","","","","","","","","","","","","feedback_test","","","","","","","","","","","",""
"273","","j","psychophysics","173","330586","0.0-7.0-1.0-1.1-0.1-0.81","4","4","4","4","4","4","4","4","4","4","5","5","5","5","5","5","5","5","5","5","1","1","1","1","1","1","1","1","1","0","1","0","0","0","1","0","0","0","0","0","0","0","1","0","5","1","5","1","1","1","3","5","3","4","1","783441385641742337","陈","141","","","","match","","","","","","","","","","","","","","key","j","16.67145333333329","720","446","f","false","nonmatch","img/ellipse.png","菱形","椭圆","ALT1_2","prac_ALT1_2","","","","","","","","","","","",""
"null","<span style='color:red; font-size: 70px;'>错误! </span>","null","html-keyboard-response","174","331087","0.0-7.0-1.0-1.1-0.1-1.81","4","4","4","4","4","4","4","4","4","4","5","5","5","5","5","5","5","5","5","5","1","1","1","1","1","1","1","1","1","0","1","0","0","0","1","0","0","0","0","0","0","0","1","0","5","1","5","1","1","1","3","5","3","4","1","783441385641742337","陈","141","","","","","","","","","","","","","","","","","","","","","","","","","","","","","","feedback_test","","","","","","","","","","","",""
"338","","j","psychophysics","175","332427","0.0-7.0-1.0-1.1-0.1-0.82","4","4","4","4","4","4","4","4","4","4","5","5","5","5","5","5","5","5","5","5","1","1","1","1","1","1","1","1","1","0","1","0","0","0","1","0","0","0","0","0","0","0","1","0","5","1","5","1","1","1","3","5","3","4","1","783441385641742337","陈","141","","","","match","","","","","","","","","","","","","","key","j","16.701873417721938","720","446","f","false","nonmatch","img/diamond.png","三角","菱形","ALT1_2","prac_ALT1_2","","","","","","","","","","","",""
"null","<span style='color:red; font-size: 70px;'>错误! </span>","null","html-keyboard-response","176","332939","0.0-7.0-1.0-1.1-0.1-1.82","4","4","4","4","4","4","4","4","4","4","5","5","5","5","5","5","5","5","5","5","1","1","1","1","1","1","1","1","1","0","1","0","0","0","1","0","0","0","0","0","0","0","1","0","5","1","5","1","1","1","3","5","3","4","1","783441385641742337","陈","141","","","","","","","","","","","","","","","","","","","","","","","","","","","","","","feedback_test","","","","","","","","","","","",""
"125","","j","psychophysics","177","334067","0.0-7.0-1.0-1.1-0.1-0.83","4","4","4","4","4","4","4","4","4","4","5","5","5","5","5","5","5","5","5","5","1","1","1","1","1","1","1","1","1","0","1","0","0","0","1","0","0","0","0","0","0","0","1","0","5","1","5","1","1","1","3","5","3","4","1","783441385641742337","陈","141","","","","match","","","","","","","","","","","","","","key","j","16.701045454545017","720","446","f","false","nonmatch","img/triangle.png","椭圆","三角","ALT1_2","prac_ALT1_2","","","","","","","","","","","",""
"null","<span style='color:yellow; font-size: 70px;'>过快! </span>","null","html-keyboard-response","178","334573","0.0-7.0-1.0-1.1-0.1-1.83","4","4","4","4","4","4","4","4","4","4","5","5","5","5","5","5","5","5","5","5","1","1","1","1","1","1","1","1","1","0","1","0","0","0","1","0","0","0","0","0","0","0","1","0","5","1","5","1","1","1","3","5","3","4","1","783441385641742337","陈","141","","","","","","","","","","","","","","","","","","","","","","","","","","","","","","feedback_test","","","","","","","","","","","",""
"324","","f","psychophysics","179","335899","0.0-7.0-1.0-1.1-0.1-0.84","4","4","4","4","4","4","4","4","4","4","5","5","5","5","5","5","5","5","5","5","1","1","1","1","1","1","1","1","1","0","1","0","0","0","1","0","0","0","0","0","0","0","1","0","5","1","5","1","1","1","3","5","3","4","1","783441385641742337","陈","141","","","","nonmatch","","","","","","","","","","","","","","key","f","16.69888461538507","720","446","j","false","match","img/ellipse.png","椭圆","椭圆","ALT1_2","prac_ALT1_2","","","","","","","","","","","",""
"null","<span style='color:red; font-size: 70px;'>错误! </span>","null","html-keyboard-response","180","336400","0.0-7.0-1.0-1.1-0.1-1.84","4","4","4","4","4","4","4","4","4","4","5","5","5","5","5","5","5","5","5","5","1","1","1","1","1","1","1","1","1","0","1","0","0","0","1","0","0","0","0","0","0","0","1","0","5","1","5","1","1","1","3","5","3","4","1","783441385641742337","陈","141","","","","","","","","","","","","","","","","","","","","","","","","","","","","","","feedback_test","","","","","","","","","","","",""
"25","","f","psychophysics","181","337427","0.0-7.0-1.0-1.1-0.1-0.85","4","4","4","4","4","4","4","4","4","4","5","5","5","5","5","5","5","5","5","5","1","1","1","1","1","1","1","1","1","0","1","0","0","0","1","0","0","0","0","0","0","0","1","0","5","1","5","1","1","1","3","5","3","4","1","783441385641742337","陈","141","","","","nonmatch","","","","","","","","","","","","","","key","f","16.702533333333363","720","446","j","false","match","img/diamond.png","菱形","菱形","ALT1_2","prac_ALT1_2","","","","","","","","","","","",""
"null","<span style='color:yellow; font-size: 70px;'>过快! </span>","null","html-keyboard-response","182","337928","0.0-7.0-1.0-1.1-0.1-1.85","4","4","4","4","4","4","4","4","4","4","5","5","5","5","5","5","5","5","5","5","1","1","1","1","1","1","1","1","1","0","1","0","0","0","1","0","0","0","0","0","0","0","1","0","5","1","5","1","1","1","3","5","3","4","1","783441385641742337","陈","141","","","","","","","","","","","","","","","","","","","","","","","","","","","","","","feedback_test","","","","","","","","","","","",""
