"rt","stimulus","response","trial_type","trial_index","time_elapsed","internal_node_id","ses_1","ses_2","ses_3","ses_4","ses_5","ses_6","ses_7","ses_8","ses_9","ses_10","coreself_1","coreself_2","coreself_3","coreself_4","coreself_5","coreself_6","coreself_7","coreself_8","coreself_9","coreself_10","SGPS_1","SGPS_2","SGPS_3","SGPS_4","SGPS_5","SGPS_6","SGPS_7","SGPS_8","SGPS_9","NPI1","NPI2","NPI3","NPI4","NPI5","NPI6","NPI7","NPI8","NPI9","NPI10","NPI11","NPI12","NPI13","NPI14","NPI15","hsns_1","hsns_2","hsns_3","hsns_4","hsns_5","trap1","hsns_6","hsns_7","hsns_8","hsns_9","hsns_10","subj_idx","friend_name","ParticipantID","value","success","user_agent","responses","item_order","radio_event_ids","radio_event_times","key_event_times","mouse_event_times","straightlining","zigzagging","honeypot","timeout","failed_images","failed_audio","failed_video","version_attrib","version_target","correct","IAT","screen_id","task_id","RT","condition","word","varname","summary","version_attrib2","version_target2","time_stamp","view_history","response_type","key_press","avg_frame_time","center_x","center_y","correct_response","identity","Image","question_order","correct_answer","trap1_item"
"19809","
   <p><div style = ""color: white;font-size:25px;"">您好，欢迎参加本次实验。</div> </p>
   <p><div style = ""color: white;font-size:25px;"">为充分保障您的权利，请确保您已经知晓并同意《参与实验同意书》以及《数据公开知情同意书》。</div></p>
   <p><div style = ""color: white;font-size:25px;"">如果您未见过上述内容，请咨询实验员。</div></p>
   <p><div style = ""color: white;font-size:25px;"">如果您选择继续实验，则表示您已经清楚两份知情同意书的内容并同意。</div></p>
   <p><div style = ""color: pink;font-size:30px;"">请确保您记得day0的实验编号，您将在本次实验输入该编号，若您忘记，请咨询实验员后作答。</div></p>
   <p><div style = ""color: lightblue;font-size:25px;"">请您尽可能认真地作答，我们将依据您在各问卷和按键任务中的作答质量发放报酬。</div></p>
   <p> <div style = ""color: green;font-size:25px;""><按空格键至下页></div> </p>
   "," ","html-keyboard-response","0","19813","0.0-0.0","4","4","4","4","3","3","3","3","4","4","4","4","4","4","5","4","4","3","4","5","2","2","2","1","3","2","2","2","3","1","0","1","1","0","0","0","1","1","1","1","0","1","0","1","4","3","2","2","3","5","3","4","2","2","3","799043796162715650","李","133","","","","","","","","","","","","","","","","","","","","","","","","","","","","","","","","","","","","","","","","","",""
"","","","call-function","1","19816","0.0-1.0-0.0","4","4","4","4","3","3","3","3","4","4","4","4","4","4","5","4","4","3","4","5","2","2","2","1","3","2","2","2","3","1","0","1","1","0","0","0","1","1","1","1","0","1","0","1","4","3","2","2","3","5","3","4","2","2","3","799043796162715650","李","133","","","","","","","","","","","","","","","","","","","","","","","","","","","","","","","","","","","","","","","","","",""
"12802","","{""friend_name"":""李"",""ParticipantID"":""133""}","survey-html-form","2","32621","0.0-1.0-1.0","4","4","4","4","3","3","3","3","4","4","4","4","4","4","5","4","4","3","4","5","2","2","2","1","3","2","2","2","3","1","0","1","1","0","0","0","1","1","1","1","0","1","0","1","4","3","2","2","3","5","3","4","2","2","3","799043796162715650","李","133","","","","","","","","","","","","","","","","","","","","","","","","","","","","","","","","","","","","","","","","","",""
"","","","fullscreen","3","49016","0.0-2.0","4","4","4","4","3","3","3","3","4","4","4","4","4","4","5","4","4","3","4","5","2","2","2","1","3","2","2","2","3","1","0","1","1","0","0","0","1","1","1","1","0","1","0","1","4","3","2","2","3","5","3","4","2","2","3","799043796162715650","李","133","","true","{}","","","","","","","","","","","","","","","","","","","","","","","","","","","","","","","","","","","","","","",""
"31173.79999998212","","{""Q01"":""4"",""Q02"":""4"",""Q03"":""4"",""Q04"":""4"",""Q05"":""3"",""Q06"":""3"",""Q07"":""3"",""Q08"":""3"",""Q09"":""4"",""Q10"":""4""}","survey-template","4","80194","0.0-3.0","4","4","4","4","3","3","3","3","4","4","4","4","4","4","5","4","4","3","4","5","2","2","2","1","3","2","2","2","3","1","0","1","1","0","0","0","1","1","1","1","0","1","0","1","4","3","2","2","3","5","3","4","2","2","3","799043796162715650","李","133","","","","{""Q01"":""4"",""Q02"":""4"",""Q03"":""4"",""Q04"":""4"",""Q05"":""3"",""Q06"":""3"",""Q07"":""3"",""Q08"":""3"",""Q09"":""4"",""Q10"":""4""}","[0,1,2,3,4,5,6,7,8,9]","[""Q01"",""Q02"",""Q03"",""Q04"",""Q05"",""Q06"",""Q07"",""Q08"",""Q09"",""Q10""]","[4436.699999988079,6572.299999982119,9262.299999982119,12993.199999988079,16302.699999988079,18630.59999999404,19988.09999999404,24989.19999998808,26814.09999999404,27986.899999976158]","[]","[4436.699999988079,6572.299999982119,9262.299999982119,12993.199999988079,16302.699999988079,18630.59999999404,19988.09999999404,24989.19999998808,26814.09999999404,27986.899999976158,31172.399999976158]","0.3","0.5555555555555556","0","","","","","","","","","","","","","","","","","","","","","","","","","","","","","",""
"22148.5","","{""Q01"":""4"",""Q02"":""4"",""Q03"":""4"",""Q04"":""4"",""Q05"":""5"",""Q06"":""4"",""Q07"":""4"",""Q08"":""3"",""Q09"":""4"",""Q10"":""5""}","survey-template","5","102373","0.0-4.0","4","4","4","4","3","3","3","3","4","4","4","4","4","4","5","4","4","3","4","5","2","2","2","1","3","2","2","2","3","1","0","1","1","0","0","0","1","1","1","1","0","1","0","1","4","3","2","2","3","5","3","4","2","2","3","799043796162715650","李","133","","","","{""Q01"":""4"",""Q02"":""4"",""Q03"":""4"",""Q04"":""4"",""Q05"":""5"",""Q06"":""4"",""Q07"":""4"",""Q08"":""3"",""Q09"":""4"",""Q10"":""5""}","[0,1,2,3,4,5,6,7,8,9]","[""Q01"",""Q02"",""Q03"",""Q04"",""Q05"",""Q06"",""Q07"",""Q08"",""Q09"",""Q10""]","[2181.5999999940395,4879.700000017881,7125.4000000059605,8748,11414.09999999404,12995.90000000596,14437.90000000596,17477.30000001192,19393.40000000596,21069.80000001192]","[]","[2181.5999999940395,4879.700000017881,7125.4000000059605,8748,11414.09999999404,12995.90000000596,14437.90000000596,17477.30000001192,19393.40000000596,21069.80000001192,22146.80000001192]","0.4","0.2222222222222222","0","","","","","","","","","","","","","","","","","","","","","","","","","","","","","",""
"","","","preload","6","102712","0.0-5.0","4","4","4","4","3","3","3","3","4","4","4","4","4","4","5","4","4","3","4","5","2","2","2","1","3","2","2","2","3","1","0","1","1","0","0","0","1","1","1","1","0","1","0","1","4","3","2","2","3","5","3","4","2","2","3","799043796162715650","李","133","","true","","","","","","","","","","","false","[]","[]","[]","","","","","","","","","","","","","","","","","","","","","","","","","",""
"22868","
    <h3>词语分类任务</h3>
    <p>在接下来的任务中，你需要对一系列词语进行分类。</p>
    <p>请先熟悉这些词语，这有利于你完成接下来的任务。</p>
    <table align=""center"" border=1 cellpadding=3 cellspacing=0>
    <tr> <th>类别</th> <th>词语</th> </tr>
    <tr> <td>&emsp;积极&emsp;</td> <td>&emsp;能干、全能、全才、高效、精干、天才&emsp;</td> </tr>
    <tr> <td>&emsp;消极&emsp;</td> <td>&emsp;无能、低能、废物、拙笨、愚钝、蠢笨&emsp;</td> </tr>
    <tr> <td>&emsp;自我&emsp;</td> <td>&emsp;我、我的、自己、自己的、本人、本人的&emsp;</td> </tr>
    <tr> <td>&emsp;他人&emsp;</td> <td>&emsp;他、他的、别人、别人的、他人、他人的&emsp;</td> </tr>
    </table><br/>","0","html-button-response","7","125584","0.0-6.0-0.0-0.0","4","4","4","4","3","3","3","3","4","4","4","4","4","4","5","4","4","3","4","5","2","2","2","1","3","2","2","2","3","1","0","1","1","0","0","0","1","1","1","1","0","1","0","1","4","3","2","2","3","5","3","4","2","2","3","799043796162715650","李","133","","","","","","","","","","","","","","","","","1","1","","","","","","","","","","","","","","","","","","","","","","","",""
"20468","
    <div class=""tag-bottom"">
    <p> —— 任务1：对“自我”词和“他人”词分类 ——<p/>
    不同词语会出现在屏幕中央，类别标签将始终显示在屏幕上方<p/>   
    <span style=""color:#FFD866""><b>请根据上方标签的提示，尽可能正确并且快速地做出按键反应</b></span><p/>
    当按键错误时屏幕中会出现<span style=""color:red""> X </span>，需要按另一个键纠正才能继续<br/><p/>
    请把双手食指分别放在键盘的“E”键和“I”键上<p/>
    按<空格键>开始
    </p></div>"," ","html-keyboard-response","8","146058","0.0-6.0-0.0-1.0","4","4","4","4","3","3","3","3","4","4","4","4","4","4","5","4","4","3","4","5","2","2","2","1","3","2","2","2","3","1","0","1","1","0","0","0","1","1","1","1","0","1","0","1","4","3","2","2","3","5","3","4","2","2","3","799043796162715650","李","133","","","","","","","","","","","","","","","","","","","","","","","","","","","","","","","","","","","","","","","","","",""
"null","","null","html-keyboard-response","9","146310","0.0-6.0-0.0-2.0-0.0","4","4","4","4","3","3","3","3","4","4","4","4","4","4","5","4","4","3","4","5","2","2","2","1","3","2","2","2","3","1","0","1","1","0","0","0","1","1","1","1","0","1","0","1","4","3","2","2","3","5","3","4","2","2","3","799043796162715650","李","133","","","","","","","","","","","","","","","","","","","","","","","","","","","","","","","","","","","","","","","","","",""
"857","<p style=""color:rgb(150, 250, 100); font-size: 35px;"">本人的</p>","e","categorize-html","10","147172","0.0-6.0-0.0-2.0-1.0","4","4","4","4","3","3","3","3","4","4","4","4","4","4","5","4","4","3","4","5","2","2","2","1","3","2","2","2","3","1","0","1","1","0","0","0","1","1","1","1","0","1","0","1","4","3","2","2","3","5","3","4","2","2","3","799043796162715650","李","133","","","","","","","","","","","","","","","","","","","true","1","1","ability","857","self","本人的","","","","","","","","","","","","","","","","",""
"null","","null","html-keyboard-response","11","147424","0.0-6.0-0.0-2.0-0.1","4","4","4","4","3","3","3","3","4","4","4","4","4","4","5","4","4","3","4","5","2","2","2","1","3","2","2","2","3","1","0","1","1","0","0","0","1","1","1","1","0","1","0","1","4","3","2","2","3","5","3","4","2","2","3","799043796162715650","李","133","","","","","","","","","","","","","","","","","","","","","","","","","","","","","","","","","","","","","","","","","",""
"800","<p style=""color:rgb(150, 250, 100); font-size: 35px;"">我</p>","e","categorize-html","12","148229","0.0-6.0-0.0-2.0-1.1","4","4","4","4","3","3","3","3","4","4","4","4","4","4","5","4","4","3","4","5","2","2","2","1","3","2","2","2","3","1","0","1","1","0","0","0","1","1","1","1","0","1","0","1","4","3","2","2","3","5","3","4","2","2","3","799043796162715650","李","133","","","","","","","","","","","","","","","","","","","true","1","1","ability","800","self","我","","","","","","","","","","","","","","","","",""
"null","","null","html-keyboard-response","13","148481","0.0-6.0-0.0-2.0-0.2","4","4","4","4","3","3","3","3","4","4","4","4","4","4","5","4","4","3","4","5","2","2","2","1","3","2","2","2","3","1","0","1","1","0","0","0","1","1","1","1","0","1","0","1","4","3","2","2","3","5","3","4","2","2","3","799043796162715650","李","133","","","","","","","","","","","","","","","","","","","","","","","","","","","","","","","","","","","","","","","","","",""
"563","<p style=""color:rgb(150, 250, 100); font-size: 35px;"">自己</p>","e","categorize-html","14","149048","0.0-6.0-0.0-2.0-1.2","4","4","4","4","3","3","3","3","4","4","4","4","4","4","5","4","4","3","4","5","2","2","2","1","3","2","2","2","3","1","0","1","1","0","0","0","1","1","1","1","0","1","0","1","4","3","2","2","3","5","3","4","2","2","3","799043796162715650","李","133","","","","","","","","","","","","","","","","","","","true","1","1","ability","563","self","自己","","","","","","","","","","","","","","","","",""
"null","","null","html-keyboard-response","15","149299","0.0-6.0-0.0-2.0-0.3","4","4","4","4","3","3","3","3","4","4","4","4","4","4","5","4","4","3","4","5","2","2","2","1","3","2","2","2","3","1","0","1","1","0","0","0","1","1","1","1","0","1","0","1","4","3","2","2","3","5","3","4","2","2","3","799043796162715650","李","133","","","","","","","","","","","","","","","","","","","","","","","","","","","","","","","","","","","","","","","","","",""
"455","<p style=""color:rgb(150, 250, 100); font-size: 35px;"">别人</p>","i","categorize-html","16","149757","0.0-6.0-0.0-2.0-1.3","4","4","4","4","3","3","3","3","4","4","4","4","4","4","5","4","4","3","4","5","2","2","2","1","3","2","2","2","3","1","0","1","1","0","0","0","1","1","1","1","0","1","0","1","4","3","2","2","3","5","3","4","2","2","3","799043796162715650","李","133","","","","","","","","","","","","","","","","","","","true","1","1","ability","455","other","别人","","","","","","","","","","","","","","","","",""
"null","","null","html-keyboard-response","17","150010","0.0-6.0-0.0-2.0-0.4","4","4","4","4","3","3","3","3","4","4","4","4","4","4","5","4","4","3","4","5","2","2","2","1","3","2","2","2","3","1","0","1","1","0","0","0","1","1","1","1","0","1","0","1","4","3","2","2","3","5","3","4","2","2","3","799043796162715650","李","133","","","","","","","","","","","","","","","","","","","","","","","","","","","","","","","","","","","","","","","","","",""
"548","<p style=""color:rgb(150, 250, 100); font-size: 35px;"">别人的</p>","i","categorize-html","18","150561","0.0-6.0-0.0-2.0-1.4","4","4","4","4","3","3","3","3","4","4","4","4","4","4","5","4","4","3","4","5","2","2","2","1","3","2","2","2","3","1","0","1","1","0","0","0","1","1","1","1","0","1","0","1","4","3","2","2","3","5","3","4","2","2","3","799043796162715650","李","133","","","","","","","","","","","","","","","","","","","true","1","1","ability","548","other","别人的","","","","","","","","","","","","","","","","",""
"null","","null","html-keyboard-response","19","150813","0.0-6.0-0.0-2.0-0.5","4","4","4","4","3","3","3","3","4","4","4","4","4","4","5","4","4","3","4","5","2","2","2","1","3","2","2","2","3","1","0","1","1","0","0","0","1","1","1","1","0","1","0","1","4","3","2","2","3","5","3","4","2","2","3","799043796162715650","李","133","","","","","","","","","","","","","","","","","","","","","","","","","","","","","","","","","","","","","","","","","",""
"547","<p style=""color:rgb(150, 250, 100); font-size: 35px;"">他</p>","i","categorize-html","20","151363","0.0-6.0-0.0-2.0-1.5","4","4","4","4","3","3","3","3","4","4","4","4","4","4","5","4","4","3","4","5","2","2","2","1","3","2","2","2","3","1","0","1","1","0","0","0","1","1","1","1","0","1","0","1","4","3","2","2","3","5","3","4","2","2","3","799043796162715650","李","133","","","","","","","","","","","","","","","","","","","true","1","1","ability","547","other","他","","","","","","","","","","","","","","","","",""
"null","","null","html-keyboard-response","21","151616","0.0-6.0-0.0-2.0-0.6","4","4","4","4","3","3","3","3","4","4","4","4","4","4","5","4","4","3","4","5","2","2","2","1","3","2","2","2","3","1","0","1","1","0","0","0","1","1","1","1","0","1","0","1","4","3","2","2","3","5","3","4","2","2","3","799043796162715650","李","133","","","","","","","","","","","","","","","","","","","","","","","","","","","","","","","","","","","","","","","","","",""
"533","<p style=""color:rgb(150, 250, 100); font-size: 35px;"">我的</p>","e","categorize-html","22","152152","0.0-6.0-0.0-2.0-1.6","4","4","4","4","3","3","3","3","4","4","4","4","4","4","5","4","4","3","4","5","2","2","2","1","3","2","2","2","3","1","0","1","1","0","0","0","1","1","1","1","0","1","0","1","4","3","2","2","3","5","3","4","2","2","3","799043796162715650","李","133","","","","","","","","","","","","","","","","","","","true","1","1","ability","533","self","我的","","","","","","","","","","","","","","","","",""
"null","","null","html-keyboard-response","23","152404","0.0-6.0-0.0-2.0-0.7","4","4","4","4","3","3","3","3","4","4","4","4","4","4","5","4","4","3","4","5","2","2","2","1","3","2","2","2","3","1","0","1","1","0","0","0","1","1","1","1","0","1","0","1","4","3","2","2","3","5","3","4","2","2","3","799043796162715650","李","133","","","","","","","","","","","","","","","","","","","","","","","","","","","","","","","","","","","","","","","","","",""
"504","<p style=""color:rgb(150, 250, 100); font-size: 35px;"">他人的</p>","i","categorize-html","24","152910","0.0-6.0-0.0-2.0-1.7","4","4","4","4","3","3","3","3","4","4","4","4","4","4","5","4","4","3","4","5","2","2","2","1","3","2","2","2","3","1","0","1","1","0","0","0","1","1","1","1","0","1","0","1","4","3","2","2","3","5","3","4","2","2","3","799043796162715650","李","133","","","","","","","","","","","","","","","","","","","true","1","1","ability","504","other","他人的","","","","","","","","","","","","","","","","",""
"null","","null","html-keyboard-response","25","153161","0.0-6.0-0.0-2.0-0.8","4","4","4","4","3","3","3","3","4","4","4","4","4","4","5","4","4","3","4","5","2","2","2","1","3","2","2","2","3","1","0","1","1","0","0","0","1","1","1","1","0","1","0","1","4","3","2","2","3","5","3","4","2","2","3","799043796162715650","李","133","","","","","","","","","","","","","","","","","","","","","","","","","","","","","","","","","","","","","","","","","",""
"651","<p style=""color:rgb(150, 250, 100); font-size: 35px;"">本人</p>","e","categorize-html","26","153816","0.0-6.0-0.0-2.0-1.8","4","4","4","4","3","3","3","3","4","4","4","4","4","4","5","4","4","3","4","5","2","2","2","1","3","2","2","2","3","1","0","1","1","0","0","0","1","1","1","1","0","1","0","1","4","3","2","2","3","5","3","4","2","2","3","799043796162715650","李","133","","","","","","","","","","","","","","","","","","","true","1","1","ability","651","self","本人","","","","","","","","","","","","","","","","",""
"null","","null","html-keyboard-response","27","154068","0.0-6.0-0.0-2.0-0.9","4","4","4","4","3","3","3","3","4","4","4","4","4","4","5","4","4","3","4","5","2","2","2","1","3","2","2","2","3","1","0","1","1","0","0","0","1","1","1","1","0","1","0","1","4","3","2","2","3","5","3","4","2","2","3","799043796162715650","李","133","","","","","","","","","","","","","","","","","","","","","","","","","","","","","","","","","","","","","","","","","",""
"656","<p style=""color:rgb(150, 250, 100); font-size: 35px;"">自己的</p>","e","categorize-html","28","154728","0.0-6.0-0.0-2.0-1.9","4","4","4","4","3","3","3","3","4","4","4","4","4","4","5","4","4","3","4","5","2","2","2","1","3","2","2","2","3","1","0","1","1","0","0","0","1","1","1","1","0","1","0","1","4","3","2","2","3","5","3","4","2","2","3","799043796162715650","李","133","","","","","","","","","","","","","","","","","","","true","1","1","ability","656","self","自己的","","","","","","","","","","","","","","","","",""
"null","","null","html-keyboard-response","29","154980","0.0-6.0-0.0-2.0-0.10","4","4","4","4","3","3","3","3","4","4","4","4","4","4","5","4","4","3","4","5","2","2","2","1","3","2","2","2","3","1","0","1","1","0","0","0","1","1","1","1","0","1","0","1","4","3","2","2","3","5","3","4","2","2","3","799043796162715650","李","133","","","","","","","","","","","","","","","","","","","","","","","","","","","","","","","","","","","","","","","","","",""
"508","<p style=""color:rgb(150, 250, 100); font-size: 35px;"">他的</p>","i","categorize-html","30","155491","0.0-6.0-0.0-2.0-1.10","4","4","4","4","3","3","3","3","4","4","4","4","4","4","5","4","4","3","4","5","2","2","2","1","3","2","2","2","3","1","0","1","1","0","0","0","1","1","1","1","0","1","0","1","4","3","2","2","3","5","3","4","2","2","3","799043796162715650","李","133","","","","","","","","","","","","","","","","","","","true","1","1","ability","508","other","他的","","","","","","","","","","","","","","","","",""
"null","","null","html-keyboard-response","31","155743","0.0-6.0-0.0-2.0-0.11","4","4","4","4","3","3","3","3","4","4","4","4","4","4","5","4","4","3","4","5","2","2","2","1","3","2","2","2","3","1","0","1","1","0","0","0","1","1","1","1","0","1","0","1","4","3","2","2","3","5","3","4","2","2","3","799043796162715650","李","133","","","","","","","","","","","","","","","","","","","","","","","","","","","","","","","","","","","","","","","","","",""
"578","<p style=""color:rgb(150, 250, 100); font-size: 35px;"">他人</p>","i","categorize-html","32","156327","0.0-6.0-0.0-2.0-1.11","4","4","4","4","3","3","3","3","4","4","4","4","4","4","5","4","4","3","4","5","2","2","2","1","3","2","2","2","3","1","0","1","1","0","0","0","1","1","1","1","0","1","0","1","4","3","2","2","3","5","3","4","2","2","3","799043796162715650","李","133","","","","","","","","","","","","","","","","","","","true","1","1","ability","578","other","他人","","","","","","","","","","","","","","","","",""
"9353","
    <div class=""tag-bottom""><p>
    —— 任务2：对“积极”词和“消极”词分类 ——<p/>   
    <span style=""color:#78DCE8""><b>注意上方，类别标签和需要分类的词语都已经改变</b></span><p/>
    <span style=""color:#FFD866""><b>请根据上方标签的提示，尽可能正确并且快速地做出按键反应</b></span><p/>
    当按键错误时屏幕中会出现<span style=""color:red""> X </span>，需要按另一个键纠正才能继续<br/><p/>
    请把双手食指分别放在键盘的“E”键和“I”键上<p/>
    按<空格键>开始
    </p></div>"," ","html-keyboard-response","33","165681","0.0-6.0-0.0-3.0","4","4","4","4","3","3","3","3","4","4","4","4","4","4","5","4","4","3","4","5","2","2","2","1","3","2","2","2","3","1","0","1","1","0","0","0","1","1","1","1","0","1","0","1","4","3","2","2","3","5","3","4","2","2","3","799043796162715650","李","133","","","","","","","","","","","","","","","","","","","","","","","","","","","","","","","","","","","","","","","","","",""
"null","","null","html-keyboard-response","34","165932","0.0-6.0-0.0-4.0-0.0","4","4","4","4","3","3","3","3","4","4","4","4","4","4","5","4","4","3","4","5","2","2","2","1","3","2","2","2","3","1","0","1","1","0","0","0","1","1","1","1","0","1","0","1","4","3","2","2","3","5","3","4","2","2","3","799043796162715650","李","133","","","","","","","","","","","","","","","","","","","","","","","","","","","","","","","","","","","","","","","","","",""
"608","<p style=""color:white; font-size: 35px;"">天才</p>","e","categorize-html","35","166543","0.0-6.0-0.0-4.0-1.0","4","4","4","4","3","3","3","3","4","4","4","4","4","4","5","4","4","3","4","5","2","2","2","1","3","2","2","2","3","1","0","1","1","0","0","0","1","1","1","1","0","1","0","1","4","3","2","2","3","5","3","4","2","2","3","799043796162715650","李","133","","","","","","","","","","","","","","","","","","","true","2","2","ability","608","positive","天才","","","","","","","","","","","","","","","","",""
"null","","null","html-keyboard-response","36","166795","0.0-6.0-0.0-4.0-0.1","4","4","4","4","3","3","3","3","4","4","4","4","4","4","5","4","4","3","4","5","2","2","2","1","3","2","2","2","3","1","0","1","1","0","0","0","1","1","1","1","0","1","0","1","4","3","2","2","3","5","3","4","2","2","3","799043796162715650","李","133","","","","","","","","","","","","","","","","","","","","","","","","","","","","","","","","","","","","","","","","","",""
"516","<p style=""color:white; font-size: 35px;"">废物</p>","i","categorize-html","37","167314","0.0-6.0-0.0-4.0-1.1","4","4","4","4","3","3","3","3","4","4","4","4","4","4","5","4","4","3","4","5","2","2","2","1","3","2","2","2","3","1","0","1","1","0","0","0","1","1","1","1","0","1","0","1","4","3","2","2","3","5","3","4","2","2","3","799043796162715650","李","133","","","","","","","","","","","","","","","","","","","true","2","2","ability","516","negative","废物","","","","","","","","","","","","","","","","",""
"null","","null","html-keyboard-response","38","167567","0.0-6.0-0.0-4.0-0.2","4","4","4","4","3","3","3","3","4","4","4","4","4","4","5","4","4","3","4","5","2","2","2","1","3","2","2","2","3","1","0","1","1","0","0","0","1","1","1","1","0","1","0","1","4","3","2","2","3","5","3","4","2","2","3","799043796162715650","李","133","","","","","","","","","","","","","","","","","","","","","","","","","","","","","","","","","","","","","","","","","",""
"575","<p style=""color:white; font-size: 35px;"">全才</p>","e","categorize-html","39","168144","0.0-6.0-0.0-4.0-1.2","4","4","4","4","3","3","3","3","4","4","4","4","4","4","5","4","4","3","4","5","2","2","2","1","3","2","2","2","3","1","0","1","1","0","0","0","1","1","1","1","0","1","0","1","4","3","2","2","3","5","3","4","2","2","3","799043796162715650","李","133","","","","","","","","","","","","","","","","","","","true","2","2","ability","575","positive","全才","","","","","","","","","","","","","","","","",""
"null","","null","html-keyboard-response","40","168395","0.0-6.0-0.0-4.0-0.3","4","4","4","4","3","3","3","3","4","4","4","4","4","4","5","4","4","3","4","5","2","2","2","1","3","2","2","2","3","1","0","1","1","0","0","0","1","1","1","1","0","1","0","1","4","3","2","2","3","5","3","4","2","2","3","799043796162715650","李","133","","","","","","","","","","","","","","","","","","","","","","","","","","","","","","","","","","","","","","","","","",""
"585","<p style=""color:white; font-size: 35px;"">蠢笨</p>","i","categorize-html","41","168983","0.0-6.0-0.0-4.0-1.3","4","4","4","4","3","3","3","3","4","4","4","4","4","4","5","4","4","3","4","5","2","2","2","1","3","2","2","2","3","1","0","1","1","0","0","0","1","1","1","1","0","1","0","1","4","3","2","2","3","5","3","4","2","2","3","799043796162715650","李","133","","","","","","","","","","","","","","","","","","","true","2","2","ability","585","negative","蠢笨","","","","","","","","","","","","","","","","",""
"null","","null","html-keyboard-response","42","169235","0.0-6.0-0.0-4.0-0.4","4","4","4","4","3","3","3","3","4","4","4","4","4","4","5","4","4","3","4","5","2","2","2","1","3","2","2","2","3","1","0","1","1","0","0","0","1","1","1","1","0","1","0","1","4","3","2","2","3","5","3","4","2","2","3","799043796162715650","李","133","","","","","","","","","","","","","","","","","","","","","","","","","","","","","","","","","","","","","","","","","",""
"738","<p style=""color:white; font-size: 35px;"">无能</p>","i","categorize-html","43","169975","0.0-6.0-0.0-4.0-1.4","4","4","4","4","3","3","3","3","4","4","4","4","4","4","5","4","4","3","4","5","2","2","2","1","3","2","2","2","3","1","0","1","1","0","0","0","1","1","1","1","0","1","0","1","4","3","2","2","3","5","3","4","2","2","3","799043796162715650","李","133","","","","","","","","","","","","","","","","","","","true","2","2","ability","738","negative","无能","","","","","","","","","","","","","","","","",""
"null","","null","html-keyboard-response","44","170228","0.0-6.0-0.0-4.0-0.5","4","4","4","4","3","3","3","3","4","4","4","4","4","4","5","4","4","3","4","5","2","2","2","1","3","2","2","2","3","1","0","1","1","0","0","0","1","1","1","1","0","1","0","1","4","3","2","2","3","5","3","4","2","2","3","799043796162715650","李","133","","","","","","","","","","","","","","","","","","","","","","","","","","","","","","","","","","","","","","","","","",""
"504","<p style=""color:white; font-size: 35px;"">全能</p>","e","categorize-html","45","170734","0.0-6.0-0.0-4.0-1.5","4","4","4","4","3","3","3","3","4","4","4","4","4","4","5","4","4","3","4","5","2","2","2","1","3","2","2","2","3","1","0","1","1","0","0","0","1","1","1","1","0","1","0","1","4","3","2","2","3","5","3","4","2","2","3","799043796162715650","李","133","","","","","","","","","","","","","","","","","","","true","2","2","ability","504","positive","全能","","","","","","","","","","","","","","","","",""
"null","","null","html-keyboard-response","46","170987","0.0-6.0-0.0-4.0-0.6","4","4","4","4","3","3","3","3","4","4","4","4","4","4","5","4","4","3","4","5","2","2","2","1","3","2","2","2","3","1","0","1","1","0","0","0","1","1","1","1","0","1","0","1","4","3","2","2","3","5","3","4","2","2","3","799043796162715650","李","133","","","","","","","","","","","","","","","","","","","","","","","","","","","","","","","","","","","","","","","","","",""
"440","<p style=""color:white; font-size: 35px;"">高效</p>","e","categorize-html","47","171430","0.0-6.0-0.0-4.0-1.6","4","4","4","4","3","3","3","3","4","4","4","4","4","4","5","4","4","3","4","5","2","2","2","1","3","2","2","2","3","1","0","1","1","0","0","0","1","1","1","1","0","1","0","1","4","3","2","2","3","5","3","4","2","2","3","799043796162715650","李","133","","","","","","","","","","","","","","","","","","","true","2","2","ability","440","positive","高效","","","","","","","","","","","","","","","","",""
"null","","null","html-keyboard-response","48","171681","0.0-6.0-0.0-4.0-0.7","4","4","4","4","3","3","3","3","4","4","4","4","4","4","5","4","4","3","4","5","2","2","2","1","3","2","2","2","3","1","0","1","1","0","0","0","1","1","1","1","0","1","0","1","4","3","2","2","3","5","3","4","2","2","3","799043796162715650","李","133","","","","","","","","","","","","","","","","","","","","","","","","","","","","","","","","","","","","","","","","","",""
"667","<p style=""color:white; font-size: 35px;"">精干</p>","e","categorize-html","49","172352","0.0-6.0-0.0-4.0-1.7","4","4","4","4","3","3","3","3","4","4","4","4","4","4","5","4","4","3","4","5","2","2","2","1","3","2","2","2","3","1","0","1","1","0","0","0","1","1","1","1","0","1","0","1","4","3","2","2","3","5","3","4","2","2","3","799043796162715650","李","133","","","","","","","","","","","","","","","","","","","true","2","2","ability","667","positive","精干","","","","","","","","","","","","","","","","",""
"null","","null","html-keyboard-response","50","172603","0.0-6.0-0.0-4.0-0.8","4","4","4","4","3","3","3","3","4","4","4","4","4","4","5","4","4","3","4","5","2","2","2","1","3","2","2","2","3","1","0","1","1","0","0","0","1","1","1","1","0","1","0","1","4","3","2","2","3","5","3","4","2","2","3","799043796162715650","李","133","","","","","","","","","","","","","","","","","","","","","","","","","","","","","","","","","","","","","","","","","",""
"517","<p style=""color:white; font-size: 35px;"">愚钝</p>","i","categorize-html","51","173122","0.0-6.0-0.0-4.0-1.8","4","4","4","4","3","3","3","3","4","4","4","4","4","4","5","4","4","3","4","5","2","2","2","1","3","2","2","2","3","1","0","1","1","0","0","0","1","1","1","1","0","1","0","1","4","3","2","2","3","5","3","4","2","2","3","799043796162715650","李","133","","","","","","","","","","","","","","","","","","","true","2","2","ability","517","negative","愚钝","","","","","","","","","","","","","","","","",""
"null","","null","html-keyboard-response","52","173373","0.0-6.0-0.0-4.0-0.9","4","4","4","4","3","3","3","3","4","4","4","4","4","4","5","4","4","3","4","5","2","2","2","1","3","2","2","2","3","1","0","1","1","0","0","0","1","1","1","1","0","1","0","1","4","3","2","2","3","5","3","4","2","2","3","799043796162715650","李","133","","","","","","","","","","","","","","","","","","","","","","","","","","","","","","","","","","","","","","","","","",""
"516","<p style=""color:white; font-size: 35px;"">低能</p>","i","categorize-html","53","173893","0.0-6.0-0.0-4.0-1.9","4","4","4","4","3","3","3","3","4","4","4","4","4","4","5","4","4","3","4","5","2","2","2","1","3","2","2","2","3","1","0","1","1","0","0","0","1","1","1","1","0","1","0","1","4","3","2","2","3","5","3","4","2","2","3","799043796162715650","李","133","","","","","","","","","","","","","","","","","","","true","2","2","ability","516","negative","低能","","","","","","","","","","","","","","","","",""
"null","","null","html-keyboard-response","54","174144","0.0-6.0-0.0-4.0-0.10","4","4","4","4","3","3","3","3","4","4","4","4","4","4","5","4","4","3","4","5","2","2","2","1","3","2","2","2","3","1","0","1","1","0","0","0","1","1","1","1","0","1","0","1","4","3","2","2","3","5","3","4","2","2","3","799043796162715650","李","133","","","","","","","","","","","","","","","","","","","","","","","","","","","","","","","","","","","","","","","","","",""
"492","<p style=""color:white; font-size: 35px;"">拙笨</p>","i","categorize-html","55","174641","0.0-6.0-0.0-4.0-1.10","4","4","4","4","3","3","3","3","4","4","4","4","4","4","5","4","4","3","4","5","2","2","2","1","3","2","2","2","3","1","0","1","1","0","0","0","1","1","1","1","0","1","0","1","4","3","2","2","3","5","3","4","2","2","3","799043796162715650","李","133","","","","","","","","","","","","","","","","","","","true","2","2","ability","492","negative","拙笨","","","","","","","","","","","","","","","","",""
"null","","null","html-keyboard-response","56","174893","0.0-6.0-0.0-4.0-0.11","4","4","4","4","3","3","3","3","4","4","4","4","4","4","5","4","4","3","4","5","2","2","2","1","3","2","2","2","3","1","0","1","1","0","0","0","1","1","1","1","0","1","0","1","4","3","2","2","3","5","3","4","2","2","3","799043796162715650","李","133","","","","","","","","","","","","","","","","","","","","","","","","","","","","","","","","","","","","","","","","","",""
"647","<p style=""color:white; font-size: 35px;"">能干</p>","e","categorize-html","57","175543","0.0-6.0-0.0-4.0-1.11","4","4","4","4","3","3","3","3","4","4","4","4","4","4","5","4","4","3","4","5","2","2","2","1","3","2","2","2","3","1","0","1","1","0","0","0","1","1","1","1","0","1","0","1","4","3","2","2","3","5","3","4","2","2","3","799043796162715650","李","133","","","","","","","","","","","","","","","","","","","true","2","2","ability","647","positive","能干","","","","","","","","","","","","","","","","",""
"14378","
    <div class=""tag-bottom""><p>
    —— 任务3：对“自我/积极”词和“他人/消极”词分类 ——<p/>
    <span style=""color:#78DCE8""><b>注意上方，之前的四类词语将混合在一起交替呈现</b></span><p/>
    <span style=""color:#FFD866""><b>请根据上方标签的提示，尽可能正确并且快速地做出按键反应</b></span><p/>
    当按键错误时屏幕中会出现<span style=""color:red""> X </span>，需要按另一个键纠正才能继续<br/><p/>
    请把双手食指分别放在键盘的“E”键和“I”键上<p/>
    按<空格键>开始
    </p></div>"," ","html-keyboard-response","58","189923","0.0-6.0-0.0-5.0","4","4","4","4","3","3","3","3","4","4","4","4","4","4","5","4","4","3","4","5","2","2","2","1","3","2","2","2","3","1","0","1","1","0","0","0","1","1","1","1","0","1","0","1","4","3","2","2","3","5","3","4","2","2","3","799043796162715650","李","133","","","","","","","","","","","","","","","","","","","","","","","","","","","","","","","","","","","","","","","","","",""
"null","","null","html-keyboard-response","59","190175","0.0-6.0-0.0-6.0-0.0","4","4","4","4","3","3","3","3","4","4","4","4","4","4","5","4","4","3","4","5","2","2","2","1","3","2","2","2","3","1","0","1","1","0","0","0","1","1","1","1","0","1","0","1","4","3","2","2","3","5","3","4","2","2","3","799043796162715650","李","133","","","","","","","","","","","","","","","","","","","","","","","","","","","","","","","","","","","","","","","","","",""
"602","<p style=""color:rgb(150, 250, 100); font-size: 35px;"">自己</p>","e","categorize-html","60","190780","0.0-6.0-0.0-6.0-1.0","4","4","4","4","3","3","3","3","4","4","4","4","4","4","5","4","4","3","4","5","2","2","2","1","3","2","2","2","3","1","0","1","1","0","0","0","1","1","1","1","0","1","0","1","4","3","2","2","3","5","3","4","2","2","3","799043796162715650","李","133","","","","","","","","","","","","","","","","","","","true","3","3","ability","602","self","自己","","","","","","","","","","","","","","","","",""
"null","","null","html-keyboard-response","61","191033","0.0-6.0-0.0-6.0-0.1","4","4","4","4","3","3","3","3","4","4","4","4","4","4","5","4","4","3","4","5","2","2","2","1","3","2","2","2","3","1","0","1","1","0","0","0","1","1","1","1","0","1","0","1","4","3","2","2","3","5","3","4","2","2","3","799043796162715650","李","133","","","","","","","","","","","","","","","","","","","","","","","","","","","","","","","","","","","","","","","","","",""
"548","<p style=""color:white; font-size: 35px;"">愚钝</p>","i","categorize-html","62","191584","0.0-6.0-0.0-6.0-1.1","4","4","4","4","3","3","3","3","4","4","4","4","4","4","5","4","4","3","4","5","2","2","2","1","3","2","2","2","3","1","0","1","1","0","0","0","1","1","1","1","0","1","0","1","4","3","2","2","3","5","3","4","2","2","3","799043796162715650","李","133","","","","","","","","","","","","","","","","","","","true","3","3","ability","548","negative","愚钝","","","","","","","","","","","","","","","","",""
"null","","null","html-keyboard-response","63","191836","0.0-6.0-0.0-6.0-0.2","4","4","4","4","3","3","3","3","4","4","4","4","4","4","5","4","4","3","4","5","2","2","2","1","3","2","2","2","3","1","0","1","1","0","0","0","1","1","1","1","0","1","0","1","4","3","2","2","3","5","3","4","2","2","3","799043796162715650","李","133","","","","","","","","","","","","","","","","","","","","","","","","","","","","","","","","","","","","","","","","","",""
"624","<p style=""color:rgb(150, 250, 100); font-size: 35px;"">他的</p>","i","categorize-html","64","192463","0.0-6.0-0.0-6.0-1.2","4","4","4","4","3","3","3","3","4","4","4","4","4","4","5","4","4","3","4","5","2","2","2","1","3","2","2","2","3","1","0","1","1","0","0","0","1","1","1","1","0","1","0","1","4","3","2","2","3","5","3","4","2","2","3","799043796162715650","李","133","","","","","","","","","","","","","","","","","","","true","3","3","ability","624","other","他的","","","","","","","","","","","","","","","","",""
"null","","null","html-keyboard-response","65","192715","0.0-6.0-0.0-6.0-0.3","4","4","4","4","3","3","3","3","4","4","4","4","4","4","5","4","4","3","4","5","2","2","2","1","3","2","2","2","3","1","0","1","1","0","0","0","1","1","1","1","0","1","0","1","4","3","2","2","3","5","3","4","2","2","3","799043796162715650","李","133","","","","","","","","","","","","","","","","","","","","","","","","","","","","","","","","","","","","","","","","","",""
"543","<p style=""color:white; font-size: 35px;"">天才</p>","e","categorize-html","66","193261","0.0-6.0-0.0-6.0-1.3","4","4","4","4","3","3","3","3","4","4","4","4","4","4","5","4","4","3","4","5","2","2","2","1","3","2","2","2","3","1","0","1","1","0","0","0","1","1","1","1","0","1","0","1","4","3","2","2","3","5","3","4","2","2","3","799043796162715650","李","133","","","","","","","","","","","","","","","","","","","true","3","3","ability","543","positive","天才","","","","","","","","","","","","","","","","",""
"null","","null","html-keyboard-response","67","193513","0.0-6.0-0.0-6.0-0.4","4","4","4","4","3","3","3","3","4","4","4","4","4","4","5","4","4","3","4","5","2","2","2","1","3","2","2","2","3","1","0","1","1","0","0","0","1","1","1","1","0","1","0","1","4","3","2","2","3","5","3","4","2","2","3","799043796162715650","李","133","","","","","","","","","","","","","","","","","","","","","","","","","","","","","","","","","","","","","","","","","",""
"479","<p style=""color:rgb(150, 250, 100); font-size: 35px;"">我的</p>","e","categorize-html","68","193996","0.0-6.0-0.0-6.0-1.4","4","4","4","4","3","3","3","3","4","4","4","4","4","4","5","4","4","3","4","5","2","2","2","1","3","2","2","2","3","1","0","1","1","0","0","0","1","1","1","1","0","1","0","1","4","3","2","2","3","5","3","4","2","2","3","799043796162715650","李","133","","","","","","","","","","","","","","","","","","","true","3","3","ability","479","self","我的","","","","","","","","","","","","","","","","",""
"null","","null","html-keyboard-response","69","194248","0.0-6.0-0.0-6.0-0.5","4","4","4","4","3","3","3","3","4","4","4","4","4","4","5","4","4","3","4","5","2","2","2","1","3","2","2","2","3","1","0","1","1","0","0","0","1","1","1","1","0","1","0","1","4","3","2","2","3","5","3","4","2","2","3","799043796162715650","李","133","","","","","","","","","","","","","","","","","","","","","","","","","","","","","","","","","","","","","","","","","",""
"607","<p style=""color:white; font-size: 35px;"">无能</p>","i","categorize-html","70","194859","0.0-6.0-0.0-6.0-1.5","4","4","4","4","3","3","3","3","4","4","4","4","4","4","5","4","4","3","4","5","2","2","2","1","3","2","2","2","3","1","0","1","1","0","0","0","1","1","1","1","0","1","0","1","4","3","2","2","3","5","3","4","2","2","3","799043796162715650","李","133","","","","","","","","","","","","","","","","","","","true","3","3","ability","607","negative","无能","","","","","","","","","","","","","","","","",""
"null","","null","html-keyboard-response","71","195110","0.0-6.0-0.0-6.0-0.6","4","4","4","4","3","3","3","3","4","4","4","4","4","4","5","4","4","3","4","5","2","2","2","1","3","2","2","2","3","1","0","1","1","0","0","0","1","1","1","1","0","1","0","1","4","3","2","2","3","5","3","4","2","2","3","799043796162715650","李","133","","","","","","","","","","","","","","","","","","","","","","","","","","","","","","","","","","","","","","","","","",""
"621","<p style=""color:rgb(150, 250, 100); font-size: 35px;"">他人的</p>","i","categorize-html","72","195735","0.0-6.0-0.0-6.0-1.6","4","4","4","4","3","3","3","3","4","4","4","4","4","4","5","4","4","3","4","5","2","2","2","1","3","2","2","2","3","1","0","1","1","0","0","0","1","1","1","1","0","1","0","1","4","3","2","2","3","5","3","4","2","2","3","799043796162715650","李","133","","","","","","","","","","","","","","","","","","","true","3","3","ability","621","other","他人的","","","","","","","","","","","","","","","","",""
"null","","null","html-keyboard-response","73","195987","0.0-6.0-0.0-6.0-0.7","4","4","4","4","3","3","3","3","4","4","4","4","4","4","5","4","4","3","4","5","2","2","2","1","3","2","2","2","3","1","0","1","1","0","0","0","1","1","1","1","0","1","0","1","4","3","2","2","3","5","3","4","2","2","3","799043796162715650","李","133","","","","","","","","","","","","","","","","","","","","","","","","","","","","","","","","","","","","","","","","","",""
"660","<p style=""color:white; font-size: 35px;"">能干</p>","e","categorize-html","74","196650","0.0-6.0-0.0-6.0-1.7","4","4","4","4","3","3","3","3","4","4","4","4","4","4","5","4","4","3","4","5","2","2","2","1","3","2","2","2","3","1","0","1","1","0","0","0","1","1","1","1","0","1","0","1","4","3","2","2","3","5","3","4","2","2","3","799043796162715650","李","133","","","","","","","","","","","","","","","","","","","true","3","3","ability","660","positive","能干","","","","","","","","","","","","","","","","",""
"null","","null","html-keyboard-response","75","196903","0.0-6.0-0.0-6.0-0.8","4","4","4","4","3","3","3","3","4","4","4","4","4","4","5","4","4","3","4","5","2","2","2","1","3","2","2","2","3","1","0","1","1","0","0","0","1","1","1","1","0","1","0","1","4","3","2","2","3","5","3","4","2","2","3","799043796162715650","李","133","","","","","","","","","","","","","","","","","","","","","","","","","","","","","","","","","","","","","","","","","",""
"610","<p style=""color:rgb(150, 250, 100); font-size: 35px;"">别人的</p>","i","categorize-html","76","197516","0.0-6.0-0.0-6.0-1.8","4","4","4","4","3","3","3","3","4","4","4","4","4","4","5","4","4","3","4","5","2","2","2","1","3","2","2","2","3","1","0","1","1","0","0","0","1","1","1","1","0","1","0","1","4","3","2","2","3","5","3","4","2","2","3","799043796162715650","李","133","","","","","","","","","","","","","","","","","","","true","3","3","ability","610","other","别人的","","","","","","","","","","","","","","","","",""
"null","","null","html-keyboard-response","77","197769","0.0-6.0-0.0-6.0-0.9","4","4","4","4","3","3","3","3","4","4","4","4","4","4","5","4","4","3","4","5","2","2","2","1","3","2","2","2","3","1","0","1","1","0","0","0","1","1","1","1","0","1","0","1","4","3","2","2","3","5","3","4","2","2","3","799043796162715650","李","133","","","","","","","","","","","","","","","","","","","","","","","","","","","","","","","","","","","","","","","","","",""
"576","<p style=""color:white; font-size: 35px;"">拙笨</p>","i","categorize-html","78","198348","0.0-6.0-0.0-6.0-1.9","4","4","4","4","3","3","3","3","4","4","4","4","4","4","5","4","4","3","4","5","2","2","2","1","3","2","2","2","3","1","0","1","1","0","0","0","1","1","1","1","0","1","0","1","4","3","2","2","3","5","3","4","2","2","3","799043796162715650","李","133","","","","","","","","","","","","","","","","","","","true","3","3","ability","576","negative","拙笨","","","","","","","","","","","","","","","","",""
"null","","null","html-keyboard-response","79","198599","0.0-6.0-0.0-6.0-0.10","4","4","4","4","3","3","3","3","4","4","4","4","4","4","5","4","4","3","4","5","2","2","2","1","3","2","2","2","3","1","0","1","1","0","0","0","1","1","1","1","0","1","0","1","4","3","2","2","3","5","3","4","2","2","3","799043796162715650","李","133","","","","","","","","","","","","","","","","","","","","","","","","","","","","","","","","","","","","","","","","","",""
"569","<p style=""color:rgb(150, 250, 100); font-size: 35px;"">自己的</p>","e","categorize-html","80","199172","0.0-6.0-0.0-6.0-1.10","4","4","4","4","3","3","3","3","4","4","4","4","4","4","5","4","4","3","4","5","2","2","2","1","3","2","2","2","3","1","0","1","1","0","0","0","1","1","1","1","0","1","0","1","4","3","2","2","3","5","3","4","2","2","3","799043796162715650","李","133","","","","","","","","","","","","","","","","","","","true","3","3","ability","569","self","自己的","","","","","","","","","","","","","","","","",""
"null","","null","html-keyboard-response","81","199424","0.0-6.0-0.0-6.0-0.11","4","4","4","4","3","3","3","3","4","4","4","4","4","4","5","4","4","3","4","5","2","2","2","1","3","2","2","2","3","1","0","1","1","0","0","0","1","1","1","1","0","1","0","1","4","3","2","2","3","5","3","4","2","2","3","799043796162715650","李","133","","","","","","","","","","","","","","","","","","","","","","","","","","","","","","","","","","","","","","","","","",""
"535","<p style=""color:white; font-size: 35px;"">全能</p>","e","categorize-html","82","199962","0.0-6.0-0.0-6.0-1.11","4","4","4","4","3","3","3","3","4","4","4","4","4","4","5","4","4","3","4","5","2","2","2","1","3","2","2","2","3","1","0","1","1","0","0","0","1","1","1","1","0","1","0","1","4","3","2","2","3","5","3","4","2","2","3","799043796162715650","李","133","","","","","","","","","","","","","","","","","","","true","3","3","ability","535","positive","全能","","","","","","","","","","","","","","","","",""
"null","","null","html-keyboard-response","83","200214","0.0-6.0-0.0-6.0-0.12","4","4","4","4","3","3","3","3","4","4","4","4","4","4","5","4","4","3","4","5","2","2","2","1","3","2","2","2","3","1","0","1","1","0","0","0","1","1","1","1","0","1","0","1","4","3","2","2","3","5","3","4","2","2","3","799043796162715650","李","133","","","","","","","","","","","","","","","","","","","","","","","","","","","","","","","","","","","","","","","","","",""
"490","<p style=""color:rgb(150, 250, 100); font-size: 35px;"">他</p>","i","categorize-html","84","200707","0.0-6.0-0.0-6.0-1.12","4","4","4","4","3","3","3","3","4","4","4","4","4","4","5","4","4","3","4","5","2","2","2","1","3","2","2","2","3","1","0","1","1","0","0","0","1","1","1","1","0","1","0","1","4","3","2","2","3","5","3","4","2","2","3","799043796162715650","李","133","","","","","","","","","","","","","","","","","","","true","3","3","ability","490","other","他","","","","","","","","","","","","","","","","",""
"null","","null","html-keyboard-response","85","200964","0.0-6.0-0.0-6.0-0.13","4","4","4","4","3","3","3","3","4","4","4","4","4","4","5","4","4","3","4","5","2","2","2","1","3","2","2","2","3","1","0","1","1","0","0","0","1","1","1","1","0","1","0","1","4","3","2","2","3","5","3","4","2","2","3","799043796162715650","李","133","","","","","","","","","","","","","","","","","","","","","","","","","","","","","","","","","","","","","","","","","",""
"548","<p style=""color:white; font-size: 35px;"">蠢笨</p>","i","categorize-html","86","201515","0.0-6.0-0.0-6.0-1.13","4","4","4","4","3","3","3","3","4","4","4","4","4","4","5","4","4","3","4","5","2","2","2","1","3","2","2","2","3","1","0","1","1","0","0","0","1","1","1","1","0","1","0","1","4","3","2","2","3","5","3","4","2","2","3","799043796162715650","李","133","","","","","","","","","","","","","","","","","","","true","3","3","ability","548","negative","蠢笨","","","","","","","","","","","","","","","","",""
"null","","null","html-keyboard-response","87","201767","0.0-6.0-0.0-6.0-0.14","4","4","4","4","3","3","3","3","4","4","4","4","4","4","5","4","4","3","4","5","2","2","2","1","3","2","2","2","3","1","0","1","1","0","0","0","1","1","1","1","0","1","0","1","4","3","2","2","3","5","3","4","2","2","3","799043796162715650","李","133","","","","","","","","","","","","","","","","","","","","","","","","","","","","","","","","","","","","","","","","","",""
"542","<p style=""color:rgb(150, 250, 100); font-size: 35px;"">我</p>","e","categorize-html","88","202314","0.0-6.0-0.0-6.0-1.14","4","4","4","4","3","3","3","3","4","4","4","4","4","4","5","4","4","3","4","5","2","2","2","1","3","2","2","2","3","1","0","1","1","0","0","0","1","1","1","1","0","1","0","1","4","3","2","2","3","5","3","4","2","2","3","799043796162715650","李","133","","","","","","","","","","","","","","","","","","","true","3","3","ability","542","self","我","","","","","","","","","","","","","","","","",""
"null","","null","html-keyboard-response","89","202566","0.0-6.0-0.0-6.0-0.15","4","4","4","4","3","3","3","3","4","4","4","4","4","4","5","4","4","3","4","5","2","2","2","1","3","2","2","2","3","1","0","1","1","0","0","0","1","1","1","1","0","1","0","1","4","3","2","2","3","5","3","4","2","2","3","799043796162715650","李","133","","","","","","","","","","","","","","","","","","","","","","","","","","","","","","","","","","","","","","","","","",""
"532","<p style=""color:white; font-size: 35px;"">高效</p>","e","categorize-html","90","203101","0.0-6.0-0.0-6.0-1.15","4","4","4","4","3","3","3","3","4","4","4","4","4","4","5","4","4","3","4","5","2","2","2","1","3","2","2","2","3","1","0","1","1","0","0","0","1","1","1","1","0","1","0","1","4","3","2","2","3","5","3","4","2","2","3","799043796162715650","李","133","","","","","","","","","","","","","","","","","","","true","3","3","ability","532","positive","高效","","","","","","","","","","","","","","","","",""
"null","","null","html-keyboard-response","91","203353","0.0-6.0-0.0-6.0-0.16","4","4","4","4","3","3","3","3","4","4","4","4","4","4","5","4","4","3","4","5","2","2","2","1","3","2","2","2","3","1","0","1","1","0","0","0","1","1","1","1","0","1","0","1","4","3","2","2","3","5","3","4","2","2","3","799043796162715650","李","133","","","","","","","","","","","","","","","","","","","","","","","","","","","","","","","","","","","","","","","","","",""
"524","<p style=""color:rgb(150, 250, 100); font-size: 35px;"">本人的</p>","i","categorize-html","92","204778","0.0-6.0-0.0-6.0-1.16","4","4","4","4","3","3","3","3","4","4","4","4","4","4","5","4","4","3","4","5","2","2","2","1","3","2","2","2","3","1","0","1","1","0","0","0","1","1","1","1","0","1","0","1","4","3","2","2","3","5","3","4","2","2","3","799043796162715650","李","133","","","","","","","","","","","","","","","","","","","false","3","3","ability","1246.1304347826087","self","本人的","","","","","","","","","","","","","","","","",""
"null","","null","html-keyboard-response","93","205040","0.0-6.0-0.0-6.0-0.17","4","4","4","4","3","3","3","3","4","4","4","4","4","4","5","4","4","3","4","5","2","2","2","1","3","2","2","2","3","1","0","1","1","0","0","0","1","1","1","1","0","1","0","1","4","3","2","2","3","5","3","4","2","2","3","799043796162715650","李","133","","","","","","","","","","","","","","","","","","","","","","","","","","","","","","","","","","","","","","","","","",""
"1149","<p style=""color:white; font-size: 35px;"">低能</p>","i","categorize-html","94","206193","0.0-6.0-0.0-6.0-1.17","4","4","4","4","3","3","3","3","4","4","4","4","4","4","5","4","4","3","4","5","2","2","2","1","3","2","2","2","3","1","0","1","1","0","0","0","1","1","1","1","0","1","0","1","4","3","2","2","3","5","3","4","2","2","3","799043796162715650","李","133","","","","","","","","","","","","","","","","","","","true","3","3","ability","1149","negative","低能","","","","","","","","","","","","","","","","",""
"null","","null","html-keyboard-response","95","206444","0.0-6.0-0.0-6.0-0.18","4","4","4","4","3","3","3","3","4","4","4","4","4","4","5","4","4","3","4","5","2","2","2","1","3","2","2","2","3","1","0","1","1","0","0","0","1","1","1","1","0","1","0","1","4","3","2","2","3","5","3","4","2","2","3","799043796162715650","李","133","","","","","","","","","","","","","","","","","","","","","","","","","","","","","","","","","","","","","","","","","",""
"724","<p style=""color:rgb(150, 250, 100); font-size: 35px;"">别人</p>","i","categorize-html","96","207171","0.0-6.0-0.0-6.0-1.18","4","4","4","4","3","3","3","3","4","4","4","4","4","4","5","4","4","3","4","5","2","2","2","1","3","2","2","2","3","1","0","1","1","0","0","0","1","1","1","1","0","1","0","1","4","3","2","2","3","5","3","4","2","2","3","799043796162715650","李","133","","","","","","","","","","","","","","","","","","","true","3","3","ability","724","other","别人","","","","","","","","","","","","","","","","",""
"null","","null","html-keyboard-response","97","207424","0.0-6.0-0.0-6.0-0.19","4","4","4","4","3","3","3","3","4","4","4","4","4","4","5","4","4","3","4","5","2","2","2","1","3","2","2","2","3","1","0","1","1","0","0","0","1","1","1","1","0","1","0","1","4","3","2","2","3","5","3","4","2","2","3","799043796162715650","李","133","","","","","","","","","","","","","","","","","","","","","","","","","","","","","","","","","","","","","","","","","",""
"723","<p style=""color:white; font-size: 35px;"">精干</p>","e","categorize-html","98","208150","0.0-6.0-0.0-6.0-1.19","4","4","4","4","3","3","3","3","4","4","4","4","4","4","5","4","4","3","4","5","2","2","2","1","3","2","2","2","3","1","0","1","1","0","0","0","1","1","1","1","0","1","0","1","4","3","2","2","3","5","3","4","2","2","3","799043796162715650","李","133","","","","","","","","","","","","","","","","","","","true","3","3","ability","723","positive","精干","","","","","","","","","","","","","","","","",""
"null","","null","html-keyboard-response","99","208402","0.0-6.0-0.0-6.0-0.20","4","4","4","4","3","3","3","3","4","4","4","4","4","4","5","4","4","3","4","5","2","2","2","1","3","2","2","2","3","1","0","1","1","0","0","0","1","1","1","1","0","1","0","1","4","3","2","2","3","5","3","4","2","2","3","799043796162715650","李","133","","","","","","","","","","","","","","","","","","","","","","","","","","","","","","","","","","","","","","","","","",""
"726","<p style=""color:rgb(150, 250, 100); font-size: 35px;"">本人</p>","e","categorize-html","100","209131","0.0-6.0-0.0-6.0-1.20","4","4","4","4","3","3","3","3","4","4","4","4","4","4","5","4","4","3","4","5","2","2","2","1","3","2","2","2","3","1","0","1","1","0","0","0","1","1","1","1","0","1","0","1","4","3","2","2","3","5","3","4","2","2","3","799043796162715650","李","133","","","","","","","","","","","","","","","","","","","true","3","3","ability","726","self","本人","","","","","","","","","","","","","","","","",""
"null","","null","html-keyboard-response","101","209384","0.0-6.0-0.0-6.0-0.21","4","4","4","4","3","3","3","3","4","4","4","4","4","4","5","4","4","3","4","5","2","2","2","1","3","2","2","2","3","1","0","1","1","0","0","0","1","1","1","1","0","1","0","1","4","3","2","2","3","5","3","4","2","2","3","799043796162715650","李","133","","","","","","","","","","","","","","","","","","","","","","","","","","","","","","","","","","","","","","","","","",""
"1138","<p style=""color:white; font-size: 35px;"">废物</p>","i","categorize-html","102","210525","0.0-6.0-0.0-6.0-1.21","4","4","4","4","3","3","3","3","4","4","4","4","4","4","5","4","4","3","4","5","2","2","2","1","3","2","2","2","3","1","0","1","1","0","0","0","1","1","1","1","0","1","0","1","4","3","2","2","3","5","3","4","2","2","3","799043796162715650","李","133","","","","","","","","","","","","","","","","","","","true","3","3","ability","1138","negative","废物","","","","","","","","","","","","","","","","",""
"null","","null","html-keyboard-response","103","210778","0.0-6.0-0.0-6.0-0.22","4","4","4","4","3","3","3","3","4","4","4","4","4","4","5","4","4","3","4","5","2","2","2","1","3","2","2","2","3","1","0","1","1","0","0","0","1","1","1","1","0","1","0","1","4","3","2","2","3","5","3","4","2","2","3","799043796162715650","李","133","","","","","","","","","","","","","","","","","","","","","","","","","","","","","","","","","","","","","","","","","",""
"719","<p style=""color:rgb(150, 250, 100); font-size: 35px;"">他人</p>","i","categorize-html","104","211502","0.0-6.0-0.0-6.0-1.22","4","4","4","4","3","3","3","3","4","4","4","4","4","4","5","4","4","3","4","5","2","2","2","1","3","2","2","2","3","1","0","1","1","0","0","0","1","1","1","1","0","1","0","1","4","3","2","2","3","5","3","4","2","2","3","799043796162715650","李","133","","","","","","","","","","","","","","","","","","","true","3","3","ability","719","other","他人","","","","","","","","","","","","","","","","",""
"null","","null","html-keyboard-response","105","211753","0.0-6.0-0.0-6.0-0.23","4","4","4","4","3","3","3","3","4","4","4","4","4","4","5","4","4","3","4","5","2","2","2","1","3","2","2","2","3","1","0","1","1","0","0","0","1","1","1","1","0","1","0","1","4","3","2","2","3","5","3","4","2","2","3","799043796162715650","李","133","","","","","","","","","","","","","","","","","","","","","","","","","","","","","","","","","","","","","","","","","",""
"596","<p style=""color:white; font-size: 35px;"">全才</p>","e","categorize-html","106","212353","0.0-6.0-0.0-6.0-1.23","4","4","4","4","3","3","3","3","4","4","4","4","4","4","5","4","4","3","4","5","2","2","2","1","3","2","2","2","3","1","0","1","1","0","0","0","1","1","1","1","0","1","0","1","4","3","2","2","3","5","3","4","2","2","3","799043796162715650","李","133","","","","","","","","","","","","","","","","","","","true","3","3","ability","596","positive","全才","","","","","","","","","","","","","","","","",""
"11334","
    <div class=""tag-bottom""><p>
    —— 任务4：对“自我/积极”词和“他人/消极”词分类 ——<p/>
    <span style=""color:#78DCE8""><b>与刚才的任务完全相同，请再次对这四类词语分类</b></span><p/>
    <span style=""color:#FFD866""><b>请根据上方标签的提示，尽可能正确并且快速地做出按键反应</b></span><p/>
    当按键错误时屏幕中会出现<span style=""color:red""> X </span>，需要按另一个键纠正才能继续<br/><p/>
    请把双手食指分别放在键盘的“E”键和“I”键上<p/>
    按<空格键>开始
    </p></div>"," ","html-keyboard-response","107","223688","0.0-6.0-0.0-7.0","4","4","4","4","3","3","3","3","4","4","4","4","4","4","5","4","4","3","4","5","2","2","2","1","3","2","2","2","3","1","0","1","1","0","0","0","1","1","1","1","0","1","0","1","4","3","2","2","3","5","3","4","2","2","3","799043796162715650","李","133","","","","","","","","","","","","","","","","","","","","","","","","","","","","","","","","","","","","","","","","","",""
"null","","null","html-keyboard-response","108","223939","0.0-6.0-0.0-8.0-0.0","4","4","4","4","3","3","3","3","4","4","4","4","4","4","5","4","4","3","4","5","2","2","2","1","3","2","2","2","3","1","0","1","1","0","0","0","1","1","1","1","0","1","0","1","4","3","2","2","3","5","3","4","2","2","3","799043796162715650","李","133","","","","","","","","","","","","","","","","","","","","","","","","","","","","","","","","","","","","","","","","","",""
"587","<p style=""color:rgb(150, 250, 100); font-size: 35px;"">本人的</p>","e","categorize-html","109","224530","0.0-6.0-0.0-8.0-1.0","4","4","4","4","3","3","3","3","4","4","4","4","4","4","5","4","4","3","4","5","2","2","2","1","3","2","2","2","3","1","0","1","1","0","0","0","1","1","1","1","0","1","0","1","4","3","2","2","3","5","3","4","2","2","3","799043796162715650","李","133","","","","","","","","","","","","","","","","","","","true","4","4","ability","587","self","本人的","","","","","","","","","","","","","","","","",""
"null","","null","html-keyboard-response","110","224782","0.0-6.0-0.0-8.0-0.1","4","4","4","4","3","3","3","3","4","4","4","4","4","4","5","4","4","3","4","5","2","2","2","1","3","2","2","2","3","1","0","1","1","0","0","0","1","1","1","1","0","1","0","1","4","3","2","2","3","5","3","4","2","2","3","799043796162715650","李","133","","","","","","","","","","","","","","","","","","","","","","","","","","","","","","","","","","","","","","","","","",""
"530","<p style=""color:white; font-size: 35px;"">无能</p>","i","categorize-html","111","225315","0.0-6.0-0.0-8.0-1.1","4","4","4","4","3","3","3","3","4","4","4","4","4","4","5","4","4","3","4","5","2","2","2","1","3","2","2","2","3","1","0","1","1","0","0","0","1","1","1","1","0","1","0","1","4","3","2","2","3","5","3","4","2","2","3","799043796162715650","李","133","","","","","","","","","","","","","","","","","","","true","4","4","ability","530","negative","无能","","","","","","","","","","","","","","","","",""
"null","","null","html-keyboard-response","112","225566","0.0-6.0-0.0-8.0-0.2","4","4","4","4","3","3","3","3","4","4","4","4","4","4","5","4","4","3","4","5","2","2","2","1","3","2","2","2","3","1","0","1","1","0","0","0","1","1","1","1","0","1","0","1","4","3","2","2","3","5","3","4","2","2","3","799043796162715650","李","133","","","","","","","","","","","","","","","","","","","","","","","","","","","","","","","","","","","","","","","","","",""
"706","<p style=""color:rgb(150, 250, 100); font-size: 35px;"">别人的</p>","i","categorize-html","113","226275","0.0-6.0-0.0-8.0-1.2","4","4","4","4","3","3","3","3","4","4","4","4","4","4","5","4","4","3","4","5","2","2","2","1","3","2","2","2","3","1","0","1","1","0","0","0","1","1","1","1","0","1","0","1","4","3","2","2","3","5","3","4","2","2","3","799043796162715650","李","133","","","","","","","","","","","","","","","","","","","true","4","4","ability","706","other","别人的","","","","","","","","","","","","","","","","",""
"null","","null","html-keyboard-response","114","226527","0.0-6.0-0.0-8.0-0.3","4","4","4","4","3","3","3","3","4","4","4","4","4","4","5","4","4","3","4","5","2","2","2","1","3","2","2","2","3","1","0","1","1","0","0","0","1","1","1","1","0","1","0","1","4","3","2","2","3","5","3","4","2","2","3","799043796162715650","李","133","","","","","","","","","","","","","","","","","","","","","","","","","","","","","","","","","","","","","","","","","",""
"543","<p style=""color:white; font-size: 35px;"">高效</p>","e","categorize-html","115","227074","0.0-6.0-0.0-8.0-1.3","4","4","4","4","3","3","3","3","4","4","4","4","4","4","5","4","4","3","4","5","2","2","2","1","3","2","2","2","3","1","0","1","1","0","0","0","1","1","1","1","0","1","0","1","4","3","2","2","3","5","3","4","2","2","3","799043796162715650","李","133","","","","","","","","","","","","","","","","","","","true","4","4","ability","543","positive","高效","","","","","","","","","","","","","","","","",""
"null","","null","html-keyboard-response","116","227327","0.0-6.0-0.0-8.0-0.4","4","4","4","4","3","3","3","3","4","4","4","4","4","4","5","4","4","3","4","5","2","2","2","1","3","2","2","2","3","1","0","1","1","0","0","0","1","1","1","1","0","1","0","1","4","3","2","2","3","5","3","4","2","2","3","799043796162715650","李","133","","","","","","","","","","","","","","","","","","","","","","","","","","","","","","","","","","","","","","","","","",""
"583","<p style=""color:rgb(150, 250, 100); font-size: 35px;"">别人</p>","i","categorize-html","117","227913","0.0-6.0-0.0-8.0-1.4","4","4","4","4","3","3","3","3","4","4","4","4","4","4","5","4","4","3","4","5","2","2","2","1","3","2","2","2","3","1","0","1","1","0","0","0","1","1","1","1","0","1","0","1","4","3","2","2","3","5","3","4","2","2","3","799043796162715650","李","133","","","","","","","","","","","","","","","","","","","true","4","4","ability","583","other","别人","","","","","","","","","","","","","","","","",""
"null","","null","html-keyboard-response","118","228165","0.0-6.0-0.0-8.0-0.5","4","4","4","4","3","3","3","3","4","4","4","4","4","4","5","4","4","3","4","5","2","2","2","1","3","2","2","2","3","1","0","1","1","0","0","0","1","1","1","1","0","1","0","1","4","3","2","2","3","5","3","4","2","2","3","799043796162715650","李","133","","","","","","","","","","","","","","","","","","","","","","","","","","","","","","","","","","","","","","","","","",""
"533","<p style=""color:white; font-size: 35px;"">拙笨</p>","i","categorize-html","119","228701","0.0-6.0-0.0-8.0-1.5","4","4","4","4","3","3","3","3","4","4","4","4","4","4","5","4","4","3","4","5","2","2","2","1","3","2","2","2","3","1","0","1","1","0","0","0","1","1","1","1","0","1","0","1","4","3","2","2","3","5","3","4","2","2","3","799043796162715650","李","133","","","","","","","","","","","","","","","","","","","true","4","4","ability","533","negative","拙笨","","","","","","","","","","","","","","","","",""
"null","","null","html-keyboard-response","120","228954","0.0-6.0-0.0-8.0-0.6","4","4","4","4","3","3","3","3","4","4","4","4","4","4","5","4","4","3","4","5","2","2","2","1","3","2","2","2","3","1","0","1","1","0","0","0","1","1","1","1","0","1","0","1","4","3","2","2","3","5","3","4","2","2","3","799043796162715650","李","133","","","","","","","","","","","","","","","","","","","","","","","","","","","","","","","","","","","","","","","","","",""
"561","<p style=""color:rgb(150, 250, 100); font-size: 35px;"">我的</p>","e","categorize-html","121","229518","0.0-6.0-0.0-8.0-1.6","4","4","4","4","3","3","3","3","4","4","4","4","4","4","5","4","4","3","4","5","2","2","2","1","3","2","2","2","3","1","0","1","1","0","0","0","1","1","1","1","0","1","0","1","4","3","2","2","3","5","3","4","2","2","3","799043796162715650","李","133","","","","","","","","","","","","","","","","","","","true","4","4","ability","561","self","我的","","","","","","","","","","","","","","","","",""
"null","","null","html-keyboard-response","122","229771","0.0-6.0-0.0-8.0-0.7","4","4","4","4","3","3","3","3","4","4","4","4","4","4","5","4","4","3","4","5","2","2","2","1","3","2","2","2","3","1","0","1","1","0","0","0","1","1","1","1","0","1","0","1","4","3","2","2","3","5","3","4","2","2","3","799043796162715650","李","133","","","","","","","","","","","","","","","","","","","","","","","","","","","","","","","","","","","","","","","","","",""
"553","<p style=""color:white; font-size: 35px;"">天才</p>","e","categorize-html","123","230327","0.0-6.0-0.0-8.0-1.7","4","4","4","4","3","3","3","3","4","4","4","4","4","4","5","4","4","3","4","5","2","2","2","1","3","2","2","2","3","1","0","1","1","0","0","0","1","1","1","1","0","1","0","1","4","3","2","2","3","5","3","4","2","2","3","799043796162715650","李","133","","","","","","","","","","","","","","","","","","","true","4","4","ability","553","positive","天才","","","","","","","","","","","","","","","","",""
"null","","null","html-keyboard-response","124","230580","0.0-6.0-0.0-8.0-0.8","4","4","4","4","3","3","3","3","4","4","4","4","4","4","5","4","4","3","4","5","2","2","2","1","3","2","2","2","3","1","0","1","1","0","0","0","1","1","1","1","0","1","0","1","4","3","2","2","3","5","3","4","2","2","3","799043796162715650","李","133","","","","","","","","","","","","","","","","","","","","","","","","","","","","","","","","","","","","","","","","","",""
"560","<p style=""color:rgb(150, 250, 100); font-size: 35px;"">自己</p>","e","categorize-html","125","231143","0.0-6.0-0.0-8.0-1.8","4","4","4","4","3","3","3","3","4","4","4","4","4","4","5","4","4","3","4","5","2","2","2","1","3","2","2","2","3","1","0","1","1","0","0","0","1","1","1","1","0","1","0","1","4","3","2","2","3","5","3","4","2","2","3","799043796162715650","李","133","","","","","","","","","","","","","","","","","","","true","4","4","ability","560","self","自己","","","","","","","","","","","","","","","","",""
"null","","null","html-keyboard-response","126","231396","0.0-6.0-0.0-8.0-0.9","4","4","4","4","3","3","3","3","4","4","4","4","4","4","5","4","4","3","4","5","2","2","2","1","3","2","2","2","3","1","0","1","1","0","0","0","1","1","1","1","0","1","0","1","4","3","2","2","3","5","3","4","2","2","3","799043796162715650","李","133","","","","","","","","","","","","","","","","","","","","","","","","","","","","","","","","","","","","","","","","","",""
"523","<p style=""color:white; font-size: 35px;"">全才</p>","e","categorize-html","127","231922","0.0-6.0-0.0-8.0-1.9","4","4","4","4","3","3","3","3","4","4","4","4","4","4","5","4","4","3","4","5","2","2","2","1","3","2","2","2","3","1","0","1","1","0","0","0","1","1","1","1","0","1","0","1","4","3","2","2","3","5","3","4","2","2","3","799043796162715650","李","133","","","","","","","","","","","","","","","","","","","true","4","4","ability","523","positive","全才","","","","","","","","","","","","","","","","",""
"null","","null","html-keyboard-response","128","232173","0.0-6.0-0.0-8.0-0.10","4","4","4","4","3","3","3","3","4","4","4","4","4","4","5","4","4","3","4","5","2","2","2","1","3","2","2","2","3","1","0","1","1","0","0","0","1","1","1","1","0","1","0","1","4","3","2","2","3","5","3","4","2","2","3","799043796162715650","李","133","","","","","","","","","","","","","","","","","","","","","","","","","","","","","","","","","","","","","","","","","",""
"535","<p style=""color:rgb(150, 250, 100); font-size: 35px;"">别人</p>","i","categorize-html","129","232712","0.0-6.0-0.0-8.0-1.10","4","4","4","4","3","3","3","3","4","4","4","4","4","4","5","4","4","3","4","5","2","2","2","1","3","2","2","2","3","1","0","1","1","0","0","0","1","1","1","1","0","1","0","1","4","3","2","2","3","5","3","4","2","2","3","799043796162715650","李","133","","","","","","","","","","","","","","","","","","","true","4","4","ability","535","other","别人","","","","","","","","","","","","","","","","",""
"null","","null","html-keyboard-response","130","232964","0.0-6.0-0.0-8.0-0.11","4","4","4","4","3","3","3","3","4","4","4","4","4","4","5","4","4","3","4","5","2","2","2","1","3","2","2","2","3","1","0","1","1","0","0","0","1","1","1","1","0","1","0","1","4","3","2","2","3","5","3","4","2","2","3","799043796162715650","李","133","","","","","","","","","","","","","","","","","","","","","","","","","","","","","","","","","","","","","","","","","",""
"616","<p style=""color:white; font-size: 35px;"">低能</p>","i","categorize-html","131","233584","0.0-6.0-0.0-8.0-1.11","4","4","4","4","3","3","3","3","4","4","4","4","4","4","5","4","4","3","4","5","2","2","2","1","3","2","2","2","3","1","0","1","1","0","0","0","1","1","1","1","0","1","0","1","4","3","2","2","3","5","3","4","2","2","3","799043796162715650","李","133","","","","","","","","","","","","","","","","","","","true","4","4","ability","616","negative","低能","","","","","","","","","","","","","","","","",""
"null","","null","html-keyboard-response","132","233835","0.0-6.0-0.0-8.0-0.12","4","4","4","4","3","3","3","3","4","4","4","4","4","4","5","4","4","3","4","5","2","2","2","1","3","2","2","2","3","1","0","1","1","0","0","0","1","1","1","1","0","1","0","1","4","3","2","2","3","5","3","4","2","2","3","799043796162715650","李","133","","","","","","","","","","","","","","","","","","","","","","","","","","","","","","","","","","","","","","","","","",""
"496","<p style=""color:rgb(150, 250, 100); font-size: 35px;"">他人的</p>","i","categorize-html","133","234335","0.0-6.0-0.0-8.0-1.12","4","4","4","4","3","3","3","3","4","4","4","4","4","4","5","4","4","3","4","5","2","2","2","1","3","2","2","2","3","1","0","1","1","0","0","0","1","1","1","1","0","1","0","1","4","3","2","2","3","5","3","4","2","2","3","799043796162715650","李","133","","","","","","","","","","","","","","","","","","","true","4","4","ability","496","other","他人的","","","","","","","","","","","","","","","","",""
"null","","null","html-keyboard-response","134","234587","0.0-6.0-0.0-8.0-0.13","4","4","4","4","3","3","3","3","4","4","4","4","4","4","5","4","4","3","4","5","2","2","2","1","3","2","2","2","3","1","0","1","1","0","0","0","1","1","1","1","0","1","0","1","4","3","2","2","3","5","3","4","2","2","3","799043796162715650","李","133","","","","","","","","","","","","","","","","","","","","","","","","","","","","","","","","","","","","","","","","","",""
"558","<p style=""color:white; font-size: 35px;"">废物</p>","i","categorize-html","135","235149","0.0-6.0-0.0-8.0-1.13","4","4","4","4","3","3","3","3","4","4","4","4","4","4","5","4","4","3","4","5","2","2","2","1","3","2","2","2","3","1","0","1","1","0","0","0","1","1","1","1","0","1","0","1","4","3","2","2","3","5","3","4","2","2","3","799043796162715650","李","133","","","","","","","","","","","","","","","","","","","true","4","4","ability","558","negative","废物","","","","","","","","","","","","","","","","",""
"null","","null","html-keyboard-response","136","235400","0.0-6.0-0.0-8.0-0.14","4","4","4","4","3","3","3","3","4","4","4","4","4","4","5","4","4","3","4","5","2","2","2","1","3","2","2","2","3","1","0","1","1","0","0","0","1","1","1","1","0","1","0","1","4","3","2","2","3","5","3","4","2","2","3","799043796162715650","李","133","","","","","","","","","","","","","","","","","","","","","","","","","","","","","","","","","","","","","","","","","",""
"525","<p style=""color:rgb(150, 250, 100); font-size: 35px;"">我</p>","e","categorize-html","137","235929","0.0-6.0-0.0-8.0-1.14","4","4","4","4","3","3","3","3","4","4","4","4","4","4","5","4","4","3","4","5","2","2","2","1","3","2","2","2","3","1","0","1","1","0","0","0","1","1","1","1","0","1","0","1","4","3","2","2","3","5","3","4","2","2","3","799043796162715650","李","133","","","","","","","","","","","","","","","","","","","true","4","4","ability","525","self","我","","","","","","","","","","","","","","","","",""
"null","","null","html-keyboard-response","138","236192","0.0-6.0-0.0-8.0-0.15","4","4","4","4","3","3","3","3","4","4","4","4","4","4","5","4","4","3","4","5","2","2","2","1","3","2","2","2","3","1","0","1","1","0","0","0","1","1","1","1","0","1","0","1","4","3","2","2","3","5","3","4","2","2","3","799043796162715650","李","133","","","","","","","","","","","","","","","","","","","","","","","","","","","","","","","","","","","","","","","","","",""
"466","<p style=""color:white; font-size: 35px;"">高效</p>","e","categorize-html","139","236660","0.0-6.0-0.0-8.0-1.15","4","4","4","4","3","3","3","3","4","4","4","4","4","4","5","4","4","3","4","5","2","2","2","1","3","2","2","2","3","1","0","1","1","0","0","0","1","1","1","1","0","1","0","1","4","3","2","2","3","5","3","4","2","2","3","799043796162715650","李","133","","","","","","","","","","","","","","","","","","","true","4","4","ability","466","positive","高效","","","","","","","","","","","","","","","","",""
"null","","null","html-keyboard-response","140","236911","0.0-6.0-0.0-8.0-0.16","4","4","4","4","3","3","3","3","4","4","4","4","4","4","5","4","4","3","4","5","2","2","2","1","3","2","2","2","3","1","0","1","1","0","0","0","1","1","1","1","0","1","0","1","4","3","2","2","3","5","3","4","2","2","3","799043796162715650","李","133","","","","","","","","","","","","","","","","","","","","","","","","","","","","","","","","","","","","","","","","","",""
"540","<p style=""color:rgb(150, 250, 100); font-size: 35px;"">他人的</p>","i","categorize-html","141","237455","0.0-6.0-0.0-8.0-1.16","4","4","4","4","3","3","3","3","4","4","4","4","4","4","5","4","4","3","4","5","2","2","2","1","3","2","2","2","3","1","0","1","1","0","0","0","1","1","1","1","0","1","0","1","4","3","2","2","3","5","3","4","2","2","3","799043796162715650","李","133","","","","","","","","","","","","","","","","","","","true","4","4","ability","540","other","他人的","","","","","","","","","","","","","","","","",""
"null","","null","html-keyboard-response","142","237707","0.0-6.0-0.0-8.0-0.17","4","4","4","4","3","3","3","3","4","4","4","4","4","4","5","4","4","3","4","5","2","2","2","1","3","2","2","2","3","1","0","1","1","0","0","0","1","1","1","1","0","1","0","1","4","3","2","2","3","5","3","4","2","2","3","799043796162715650","李","133","","","","","","","","","","","","","","","","","","","","","","","","","","","","","","","","","","","","","","","","","",""
"545","<p style=""color:white; font-size: 35px;"">废物</p>","i","categorize-html","143","238256","0.0-6.0-0.0-8.0-1.17","4","4","4","4","3","3","3","3","4","4","4","4","4","4","5","4","4","3","4","5","2","2","2","1","3","2","2","2","3","1","0","1","1","0","0","0","1","1","1","1","0","1","0","1","4","3","2","2","3","5","3","4","2","2","3","799043796162715650","李","133","","","","","","","","","","","","","","","","","","","true","4","4","ability","545","negative","废物","","","","","","","","","","","","","","","","",""
"null","","null","html-keyboard-response","144","238508","0.0-6.0-0.0-8.0-0.18","4","4","4","4","3","3","3","3","4","4","4","4","4","4","5","4","4","3","4","5","2","2","2","1","3","2","2","2","3","1","0","1","1","0","0","0","1","1","1","1","0","1","0","1","4","3","2","2","3","5","3","4","2","2","3","799043796162715650","李","133","","","","","","","","","","","","","","","","","","","","","","","","","","","","","","","","","","","","","","","","","",""
"561","<p style=""color:rgb(150, 250, 100); font-size: 35px;"">本人</p>","e","categorize-html","145","239073","0.0-6.0-0.0-8.0-1.18","4","4","4","4","3","3","3","3","4","4","4","4","4","4","5","4","4","3","4","5","2","2","2","1","3","2","2","2","3","1","0","1","1","0","0","0","1","1","1","1","0","1","0","1","4","3","2","2","3","5","3","4","2","2","3","799043796162715650","李","133","","","","","","","","","","","","","","","","","","","true","4","4","ability","561","self","本人","","","","","","","","","","","","","","","","",""
"null","","null","html-keyboard-response","146","239326","0.0-6.0-0.0-8.0-0.19","4","4","4","4","3","3","3","3","4","4","4","4","4","4","5","4","4","3","4","5","2","2","2","1","3","2","2","2","3","1","0","1","1","0","0","0","1","1","1","1","0","1","0","1","4","3","2","2","3","5","3","4","2","2","3","799043796162715650","李","133","","","","","","","","","","","","","","","","","","","","","","","","","","","","","","","","","","","","","","","","","",""
"492","<p style=""color:white; font-size: 35px;"">全才</p>","e","categorize-html","147","239821","0.0-6.0-0.0-8.0-1.19","4","4","4","4","3","3","3","3","4","4","4","4","4","4","5","4","4","3","4","5","2","2","2","1","3","2","2","2","3","1","0","1","1","0","0","0","1","1","1","1","0","1","0","1","4","3","2","2","3","5","3","4","2","2","3","799043796162715650","李","133","","","","","","","","","","","","","","","","","","","true","4","4","ability","492","positive","全才","","","","","","","","","","","","","","","","",""
"null","","null","html-keyboard-response","148","240073","0.0-6.0-0.0-8.0-0.20","4","4","4","4","3","3","3","3","4","4","4","4","4","4","5","4","4","3","4","5","2","2","2","1","3","2","2","2","3","1","0","1","1","0","0","0","1","1","1","1","0","1","0","1","4","3","2","2","3","5","3","4","2","2","3","799043796162715650","李","133","","","","","","","","","","","","","","","","","","","","","","","","","","","","","","","","","","","","","","","","","",""
"792","<p style=""color:rgb(150, 250, 100); font-size: 35px;"">本人的</p>","e","categorize-html","149","240869","0.0-6.0-0.0-8.0-1.20","4","4","4","4","3","3","3","3","4","4","4","4","4","4","5","4","4","3","4","5","2","2","2","1","3","2","2","2","3","1","0","1","1","0","0","0","1","1","1","1","0","1","0","1","4","3","2","2","3","5","3","4","2","2","3","799043796162715650","李","133","","","","","","","","","","","","","","","","","","","true","4","4","ability","792","self","本人的","","","","","","","","","","","","","","","","",""
"null","","null","html-keyboard-response","150","241121","0.0-6.0-0.0-8.0-0.21","4","4","4","4","3","3","3","3","4","4","4","4","4","4","5","4","4","3","4","5","2","2","2","1","3","2","2","2","3","1","0","1","1","0","0","0","1","1","1","1","0","1","0","1","4","3","2","2","3","5","3","4","2","2","3","799043796162715650","李","133","","","","","","","","","","","","","","","","","","","","","","","","","","","","","","","","","","","","","","","","","",""
"464","<p style=""color:white; font-size: 35px;"">精干</p>","e","categorize-html","151","241588","0.0-6.0-0.0-8.0-1.21","4","4","4","4","3","3","3","3","4","4","4","4","4","4","5","4","4","3","4","5","2","2","2","1","3","2","2","2","3","1","0","1","1","0","0","0","1","1","1","1","0","1","0","1","4","3","2","2","3","5","3","4","2","2","3","799043796162715650","李","133","","","","","","","","","","","","","","","","","","","true","4","4","ability","464","positive","精干","","","","","","","","","","","","","","","","",""
"null","","null","html-keyboard-response","152","241839","0.0-6.0-0.0-8.0-0.22","4","4","4","4","3","3","3","3","4","4","4","4","4","4","5","4","4","3","4","5","2","2","2","1","3","2","2","2","3","1","0","1","1","0","0","0","1","1","1","1","0","1","0","1","4","3","2","2","3","5","3","4","2","2","3","799043796162715650","李","133","","","","","","","","","","","","","","","","","","","","","","","","","","","","","","","","","","","","","","","","","",""
"480","<p style=""color:rgb(150, 250, 100); font-size: 35px;"">他</p>","i","categorize-html","153","242322","0.0-6.0-0.0-8.0-1.22","4","4","4","4","3","3","3","3","4","4","4","4","4","4","5","4","4","3","4","5","2","2","2","1","3","2","2","2","3","1","0","1","1","0","0","0","1","1","1","1","0","1","0","1","4","3","2","2","3","5","3","4","2","2","3","799043796162715650","李","133","","","","","","","","","","","","","","","","","","","true","4","4","ability","480","other","他","","","","","","","","","","","","","","","","",""
"null","","null","html-keyboard-response","154","242574","0.0-6.0-0.0-8.0-0.23","4","4","4","4","3","3","3","3","4","4","4","4","4","4","5","4","4","3","4","5","2","2","2","1","3","2","2","2","3","1","0","1","1","0","0","0","1","1","1","1","0","1","0","1","4","3","2","2","3","5","3","4","2","2","3","799043796162715650","李","133","","","","","","","","","","","","","","","","","","","","","","","","","","","","","","","","","","","","","","","","","",""
"435","<p style=""color:white; font-size: 35px;"">蠢笨</p>","i","categorize-html","155","243013","0.0-6.0-0.0-8.0-1.23","4","4","4","4","3","3","3","3","4","4","4","4","4","4","5","4","4","3","4","5","2","2","2","1","3","2","2","2","3","1","0","1","1","0","0","0","1","1","1","1","0","1","0","1","4","3","2","2","3","5","3","4","2","2","3","799043796162715650","李","133","","","","","","","","","","","","","","","","","","","true","4","4","ability","435","negative","蠢笨","","","","","","","","","","","","","","","","",""
"null","","null","html-keyboard-response","156","243265","0.0-6.0-0.0-8.0-0.24","4","4","4","4","3","3","3","3","4","4","4","4","4","4","5","4","4","3","4","5","2","2","2","1","3","2","2","2","3","1","0","1","1","0","0","0","1","1","1","1","0","1","0","1","4","3","2","2","3","5","3","4","2","2","3","799043796162715650","李","133","","","","","","","","","","","","","","","","","","","","","","","","","","","","","","","","","","","","","","","","","",""
"478","<p style=""color:rgb(150, 250, 100); font-size: 35px;"">他的</p>","i","categorize-html","157","243746","0.0-6.0-0.0-8.0-1.24","4","4","4","4","3","3","3","3","4","4","4","4","4","4","5","4","4","3","4","5","2","2","2","1","3","2","2","2","3","1","0","1","1","0","0","0","1","1","1","1","0","1","0","1","4","3","2","2","3","5","3","4","2","2","3","799043796162715650","李","133","","","","","","","","","","","","","","","","","","","true","4","4","ability","478","other","他的","","","","","","","","","","","","","","","","",""
"null","","null","html-keyboard-response","158","243998","0.0-6.0-0.0-8.0-0.25","4","4","4","4","3","3","3","3","4","4","4","4","4","4","5","4","4","3","4","5","2","2","2","1","3","2","2","2","3","1","0","1","1","0","0","0","1","1","1","1","0","1","0","1","4","3","2","2","3","5","3","4","2","2","3","799043796162715650","李","133","","","","","","","","","","","","","","","","","","","","","","","","","","","","","","","","","","","","","","","","","",""
"476","<p style=""color:white; font-size: 35px;"">精干</p>","e","categorize-html","159","244477","0.0-6.0-0.0-8.0-1.25","4","4","4","4","3","3","3","3","4","4","4","4","4","4","5","4","4","3","4","5","2","2","2","1","3","2","2","2","3","1","0","1","1","0","0","0","1","1","1","1","0","1","0","1","4","3","2","2","3","5","3","4","2","2","3","799043796162715650","李","133","","","","","","","","","","","","","","","","","","","true","4","4","ability","476","positive","精干","","","","","","","","","","","","","","","","",""
"null","","null","html-keyboard-response","160","244729","0.0-6.0-0.0-8.0-0.26","4","4","4","4","3","3","3","3","4","4","4","4","4","4","5","4","4","3","4","5","2","2","2","1","3","2","2","2","3","1","0","1","1","0","0","0","1","1","1","1","0","1","0","1","4","3","2","2","3","5","3","4","2","2","3","799043796162715650","李","133","","","","","","","","","","","","","","","","","","","","","","","","","","","","","","","","","","","","","","","","","",""
"659","<p style=""color:rgb(150, 250, 100); font-size: 35px;"">自己的</p>","e","categorize-html","161","245392","0.0-6.0-0.0-8.0-1.26","4","4","4","4","3","3","3","3","4","4","4","4","4","4","5","4","4","3","4","5","2","2","2","1","3","2","2","2","3","1","0","1","1","0","0","0","1","1","1","1","0","1","0","1","4","3","2","2","3","5","3","4","2","2","3","799043796162715650","李","133","","","","","","","","","","","","","","","","","","","true","4","4","ability","659","self","自己的","","","","","","","","","","","","","","","","",""
"null","","null","html-keyboard-response","162","245645","0.0-6.0-0.0-8.0-0.27","4","4","4","4","3","3","3","3","4","4","4","4","4","4","5","4","4","3","4","5","2","2","2","1","3","2","2","2","3","1","0","1","1","0","0","0","1","1","1","1","0","1","0","1","4","3","2","2","3","5","3","4","2","2","3","799043796162715650","李","133","","","","","","","","","","","","","","","","","","","","","","","","","","","","","","","","","","","","","","","","","",""
"900","<p style=""color:white; font-size: 35px;"">无能</p>","i","categorize-html","163","246548","0.0-6.0-0.0-8.0-1.27","4","4","4","4","3","3","3","3","4","4","4","4","4","4","5","4","4","3","4","5","2","2","2","1","3","2","2","2","3","1","0","1","1","0","0","0","1","1","1","1","0","1","0","1","4","3","2","2","3","5","3","4","2","2","3","799043796162715650","李","133","","","","","","","","","","","","","","","","","","","true","4","4","ability","900","negative","无能","","","","","","","","","","","","","","","","",""
"null","","null","html-keyboard-response","164","246800","0.0-6.0-0.0-8.0-0.28","4","4","4","4","3","3","3","3","4","4","4","4","4","4","5","4","4","3","4","5","2","2","2","1","3","2","2","2","3","1","0","1","1","0","0","0","1","1","1","1","0","1","0","1","4","3","2","2","3","5","3","4","2","2","3","799043796162715650","李","133","","","","","","","","","","","","","","","","","","","","","","","","","","","","","","","","","","","","","","","","","",""
"856","<p style=""color:rgb(150, 250, 100); font-size: 35px;"">自己</p>","e","categorize-html","165","247660","0.0-6.0-0.0-8.0-1.28","4","4","4","4","3","3","3","3","4","4","4","4","4","4","5","4","4","3","4","5","2","2","2","1","3","2","2","2","3","1","0","1","1","0","0","0","1","1","1","1","0","1","0","1","4","3","2","2","3","5","3","4","2","2","3","799043796162715650","李","133","","","","","","","","","","","","","","","","","","","true","4","4","ability","856","self","自己","","","","","","","","","","","","","","","","",""
"null","","null","html-keyboard-response","166","247911","0.0-6.0-0.0-8.0-0.29","4","4","4","4","3","3","3","3","4","4","4","4","4","4","5","4","4","3","4","5","2","2","2","1","3","2","2","2","3","1","0","1","1","0","0","0","1","1","1","1","0","1","0","1","4","3","2","2","3","5","3","4","2","2","3","799043796162715650","李","133","","","","","","","","","","","","","","","","","","","","","","","","","","","","","","","","","","","","","","","","","",""
"494","<p style=""color:white; font-size: 35px;"">愚钝</p>","i","categorize-html","167","248409","0.0-6.0-0.0-8.0-1.29","4","4","4","4","3","3","3","3","4","4","4","4","4","4","5","4","4","3","4","5","2","2","2","1","3","2","2","2","3","1","0","1","1","0","0","0","1","1","1","1","0","1","0","1","4","3","2","2","3","5","3","4","2","2","3","799043796162715650","李","133","","","","","","","","","","","","","","","","","","","true","4","4","ability","494","negative","愚钝","","","","","","","","","","","","","","","","",""
"null","","null","html-keyboard-response","168","248661","0.0-6.0-0.0-8.0-0.30","4","4","4","4","3","3","3","3","4","4","4","4","4","4","5","4","4","3","4","5","2","2","2","1","3","2","2","2","3","1","0","1","1","0","0","0","1","1","1","1","0","1","0","1","4","3","2","2","3","5","3","4","2","2","3","799043796162715650","李","133","","","","","","","","","","","","","","","","","","","","","","","","","","","","","","","","","","","","","","","","","",""
"641","<p style=""color:rgb(150, 250, 100); font-size: 35px;"">他的</p>","i","categorize-html","169","249305","0.0-6.0-0.0-8.0-1.30","4","4","4","4","3","3","3","3","4","4","4","4","4","4","5","4","4","3","4","5","2","2","2","1","3","2","2","2","3","1","0","1","1","0","0","0","1","1","1","1","0","1","0","1","4","3","2","2","3","5","3","4","2","2","3","799043796162715650","李","133","","","","","","","","","","","","","","","","","","","true","4","4","ability","641","other","他的","","","","","","","","","","","","","","","","",""
"null","","null","html-keyboard-response","170","249558","0.0-6.0-0.0-8.0-0.31","4","4","4","4","3","3","3","3","4","4","4","4","4","4","5","4","4","3","4","5","2","2","2","1","3","2","2","2","3","1","0","1","1","0","0","0","1","1","1","1","0","1","0","1","4","3","2","2","3","5","3","4","2","2","3","799043796162715650","李","133","","","","","","","","","","","","","","","","","","","","","","","","","","","","","","","","","","","","","","","","","",""
"537","<p style=""color:white; font-size: 35px;"">天才</p>","e","categorize-html","171","250098","0.0-6.0-0.0-8.0-1.31","4","4","4","4","3","3","3","3","4","4","4","4","4","4","5","4","4","3","4","5","2","2","2","1","3","2","2","2","3","1","0","1","1","0","0","0","1","1","1","1","0","1","0","1","4","3","2","2","3","5","3","4","2","2","3","799043796162715650","李","133","","","","","","","","","","","","","","","","","","","true","4","4","ability","537","positive","天才","","","","","","","","","","","","","","","","",""
"null","","null","html-keyboard-response","172","250350","0.0-6.0-0.0-8.0-0.32","4","4","4","4","3","3","3","3","4","4","4","4","4","4","5","4","4","3","4","5","2","2","2","1","3","2","2","2","3","1","0","1","1","0","0","0","1","1","1","1","0","1","0","1","4","3","2","2","3","5","3","4","2","2","3","799043796162715650","李","133","","","","","","","","","","","","","","","","","","","","","","","","","","","","","","","","","","","","","","","","","",""
"873","<p style=""color:rgb(150, 250, 100); font-size: 35px;"">别人的</p>","i","categorize-html","173","251227","0.0-6.0-0.0-8.0-1.32","4","4","4","4","3","3","3","3","4","4","4","4","4","4","5","4","4","3","4","5","2","2","2","1","3","2","2","2","3","1","0","1","1","0","0","0","1","1","1","1","0","1","0","1","4","3","2","2","3","5","3","4","2","2","3","799043796162715650","李","133","","","","","","","","","","","","","","","","","","","true","4","4","ability","873","other","别人的","","","","","","","","","","","","","","","","",""
"null","","null","html-keyboard-response","174","251479","0.0-6.0-0.0-8.0-0.33","4","4","4","4","3","3","3","3","4","4","4","4","4","4","5","4","4","3","4","5","2","2","2","1","3","2","2","2","3","1","0","1","1","0","0","0","1","1","1","1","0","1","0","1","4","3","2","2","3","5","3","4","2","2","3","799043796162715650","李","133","","","","","","","","","","","","","","","","","","","","","","","","","","","","","","","","","","","","","","","","","",""
"491","<p style=""color:white; font-size: 35px;"">全能</p>","e","categorize-html","175","251974","0.0-6.0-0.0-8.0-1.33","4","4","4","4","3","3","3","3","4","4","4","4","4","4","5","4","4","3","4","5","2","2","2","1","3","2","2","2","3","1","0","1","1","0","0","0","1","1","1","1","0","1","0","1","4","3","2","2","3","5","3","4","2","2","3","799043796162715650","李","133","","","","","","","","","","","","","","","","","","","true","4","4","ability","491","positive","全能","","","","","","","","","","","","","","","","",""
"null","","null","html-keyboard-response","176","252226","0.0-6.0-0.0-8.0-0.34","4","4","4","4","3","3","3","3","4","4","4","4","4","4","5","4","4","3","4","5","2","2","2","1","3","2","2","2","3","1","0","1","1","0","0","0","1","1","1","1","0","1","0","1","4","3","2","2","3","5","3","4","2","2","3","799043796162715650","李","133","","","","","","","","","","","","","","","","","","","","","","","","","","","","","","","","","","","","","","","","","",""
"588","<p style=""color:rgb(150, 250, 100); font-size: 35px;"">本人</p>","e","categorize-html","177","252817","0.0-6.0-0.0-8.0-1.34","4","4","4","4","3","3","3","3","4","4","4","4","4","4","5","4","4","3","4","5","2","2","2","1","3","2","2","2","3","1","0","1","1","0","0","0","1","1","1","1","0","1","0","1","4","3","2","2","3","5","3","4","2","2","3","799043796162715650","李","133","","","","","","","","","","","","","","","","","","","true","4","4","ability","588","self","本人","","","","","","","","","","","","","","","","",""
"null","","null","html-keyboard-response","178","253069","0.0-6.0-0.0-8.0-0.35","4","4","4","4","3","3","3","3","4","4","4","4","4","4","5","4","4","3","4","5","2","2","2","1","3","2","2","2","3","1","0","1","1","0","0","0","1","1","1","1","0","1","0","1","4","3","2","2","3","5","3","4","2","2","3","799043796162715650","李","133","","","","","","","","","","","","","","","","","","","","","","","","","","","","","","","","","","","","","","","","","",""
"624","<p style=""color:white; font-size: 35px;"">愚钝</p>","i","categorize-html","179","253696","0.0-6.0-0.0-8.0-1.35","4","4","4","4","3","3","3","3","4","4","4","4","4","4","5","4","4","3","4","5","2","2","2","1","3","2","2","2","3","1","0","1","1","0","0","0","1","1","1","1","0","1","0","1","4","3","2","2","3","5","3","4","2","2","3","799043796162715650","李","133","","","","","","","","","","","","","","","","","","","true","4","4","ability","624","negative","愚钝","","","","","","","","","","","","","","","","",""
"null","","null","html-keyboard-response","180","253948","0.0-6.0-0.0-8.0-0.36","4","4","4","4","3","3","3","3","4","4","4","4","4","4","5","4","4","3","4","5","2","2","2","1","3","2","2","2","3","1","0","1","1","0","0","0","1","1","1","1","0","1","0","1","4","3","2","2","3","5","3","4","2","2","3","799043796162715650","李","133","","","","","","","","","","","","","","","","","","","","","","","","","","","","","","","","","","","","","","","","","",""
"567","<p style=""color:rgb(150, 250, 100); font-size: 35px;"">我的</p>","e","categorize-html","181","254518","0.0-6.0-0.0-8.0-1.36","4","4","4","4","3","3","3","3","4","4","4","4","4","4","5","4","4","3","4","5","2","2","2","1","3","2","2","2","3","1","0","1","1","0","0","0","1","1","1","1","0","1","0","1","4","3","2","2","3","5","3","4","2","2","3","799043796162715650","李","133","","","","","","","","","","","","","","","","","","","true","4","4","ability","567","self","我的","","","","","","","","","","","","","","","","",""
"null","","null","html-keyboard-response","182","254770","0.0-6.0-0.0-8.0-0.37","4","4","4","4","3","3","3","3","4","4","4","4","4","4","5","4","4","3","4","5","2","2","2","1","3","2","2","2","3","1","0","1","1","0","0","0","1","1","1","1","0","1","0","1","4","3","2","2","3","5","3","4","2","2","3","799043796162715650","李","133","","","","","","","","","","","","","","","","","","","","","","","","","","","","","","","","","","","","","","","","","",""
"506","<p style=""color:white; font-size: 35px;"">能干</p>","e","categorize-html","183","255279","0.0-6.0-0.0-8.0-1.37","4","4","4","4","3","3","3","3","4","4","4","4","4","4","5","4","4","3","4","5","2","2","2","1","3","2","2","2","3","1","0","1","1","0","0","0","1","1","1","1","0","1","0","1","4","3","2","2","3","5","3","4","2","2","3","799043796162715650","李","133","","","","","","","","","","","","","","","","","","","true","4","4","ability","506","positive","能干","","","","","","","","","","","","","","","","",""
"null","","null","html-keyboard-response","184","255530","0.0-6.0-0.0-8.0-0.38","4","4","4","4","3","3","3","3","4","4","4","4","4","4","5","4","4","3","4","5","2","2","2","1","3","2","2","2","3","1","0","1","1","0","0","0","1","1","1","1","0","1","0","1","4","3","2","2","3","5","3","4","2","2","3","799043796162715650","李","133","","","","","","","","","","","","","","","","","","","","","","","","","","","","","","","","","","","","","","","","","",""
"531","<p style=""color:rgb(150, 250, 100); font-size: 35px;"">他人</p>","i","categorize-html","185","256064","0.0-6.0-0.0-8.0-1.38","4","4","4","4","3","3","3","3","4","4","4","4","4","4","5","4","4","3","4","5","2","2","2","1","3","2","2","2","3","1","0","1","1","0","0","0","1","1","1","1","0","1","0","1","4","3","2","2","3","5","3","4","2","2","3","799043796162715650","李","133","","","","","","","","","","","","","","","","","","","true","4","4","ability","531","other","他人","","","","","","","","","","","","","","","","",""
"null","","null","html-keyboard-response","186","256317","0.0-6.0-0.0-8.0-0.39","4","4","4","4","3","3","3","3","4","4","4","4","4","4","5","4","4","3","4","5","2","2","2","1","3","2","2","2","3","1","0","1","1","0","0","0","1","1","1","1","0","1","0","1","4","3","2","2","3","5","3","4","2","2","3","799043796162715650","李","133","","","","","","","","","","","","","","","","","","","","","","","","","","","","","","","","","","","","","","","","","",""
"487","<p style=""color:white; font-size: 35px;"">低能</p>","i","categorize-html","187","256807","0.0-6.0-0.0-8.0-1.39","4","4","4","4","3","3","3","3","4","4","4","4","4","4","5","4","4","3","4","5","2","2","2","1","3","2","2","2","3","1","0","1","1","0","0","0","1","1","1","1","0","1","0","1","4","3","2","2","3","5","3","4","2","2","3","799043796162715650","李","133","","","","","","","","","","","","","","","","","","","true","4","4","ability","487","negative","低能","","","","","","","","","","","","","","","","",""
"null","","null","html-keyboard-response","188","257060","0.0-6.0-0.0-8.0-0.40","4","4","4","4","3","3","3","3","4","4","4","4","4","4","5","4","4","3","4","5","2","2","2","1","3","2","2","2","3","1","0","1","1","0","0","0","1","1","1","1","0","1","0","1","4","3","2","2","3","5","3","4","2","2","3","799043796162715650","李","133","","","","","","","","","","","","","","","","","","","","","","","","","","","","","","","","","","","","","","","","","",""
"543","<p style=""color:rgb(150, 250, 100); font-size: 35px;"">自己的</p>","e","categorize-html","189","257607","0.0-6.0-0.0-8.0-1.40","4","4","4","4","3","3","3","3","4","4","4","4","4","4","5","4","4","3","4","5","2","2","2","1","3","2","2","2","3","1","0","1","1","0","0","0","1","1","1","1","0","1","0","1","4","3","2","2","3","5","3","4","2","2","3","799043796162715650","李","133","","","","","","","","","","","","","","","","","","","true","4","4","ability","543","self","自己的","","","","","","","","","","","","","","","","",""
"null","","null","html-keyboard-response","190","257859","0.0-6.0-0.0-8.0-0.41","4","4","4","4","3","3","3","3","4","4","4","4","4","4","5","4","4","3","4","5","2","2","2","1","3","2","2","2","3","1","0","1","1","0","0","0","1","1","1","1","0","1","0","1","4","3","2","2","3","5","3","4","2","2","3","799043796162715650","李","133","","","","","","","","","","","","","","","","","","","","","","","","","","","","","","","","","","","","","","","","","",""
"689","<p style=""color:white; font-size: 35px;"">拙笨</p>","i","categorize-html","191","258551","0.0-6.0-0.0-8.0-1.41","4","4","4","4","3","3","3","3","4","4","4","4","4","4","5","4","4","3","4","5","2","2","2","1","3","2","2","2","3","1","0","1","1","0","0","0","1","1","1","1","0","1","0","1","4","3","2","2","3","5","3","4","2","2","3","799043796162715650","李","133","","","","","","","","","","","","","","","","","","","true","4","4","ability","689","negative","拙笨","","","","","","","","","","","","","","","","",""
"null","","null","html-keyboard-response","192","258805","0.0-6.0-0.0-8.0-0.42","4","4","4","4","3","3","3","3","4","4","4","4","4","4","5","4","4","3","4","5","2","2","2","1","3","2","2","2","3","1","0","1","1","0","0","0","1","1","1","1","0","1","0","1","4","3","2","2","3","5","3","4","2","2","3","799043796162715650","李","133","","","","","","","","","","","","","","","","","","","","","","","","","","","","","","","","","","","","","","","","","",""
"769","<p style=""color:rgb(150, 250, 100); font-size: 35px;"">他人</p>","i","categorize-html","193","259576","0.0-6.0-0.0-8.0-1.42","4","4","4","4","3","3","3","3","4","4","4","4","4","4","5","4","4","3","4","5","2","2","2","1","3","2","2","2","3","1","0","1","1","0","0","0","1","1","1","1","0","1","0","1","4","3","2","2","3","5","3","4","2","2","3","799043796162715650","李","133","","","","","","","","","","","","","","","","","","","true","4","4","ability","769","other","他人","","","","","","","","","","","","","","","","",""
