"rt","stimulus","response","trial_type","trial_index","time_elapsed","internal_node_id","ses_1","ses_2","ses_3","ses_4","ses_5","ses_6","ses_7","ses_8","ses_9","ses_10","coreself_1","coreself_2","coreself_3","coreself_4","coreself_5","coreself_6","coreself_7","coreself_8","coreself_9","coreself_10","SGPS_1","SGPS_2","SGPS_3","SGPS_4","SGPS_5","SGPS_6","SGPS_7","SGPS_8","SGPS_9","NPI1","NPI2","NPI3","NPI4","NPI5","NPI6","NPI7","NPI8","NPI9","NPI10","NPI11","NPI12","NPI13","NPI14","NPI15","hsns_1","hsns_2","hsns_3","hsns_4","hsns_5","trap1","hsns_6","hsns_7","hsns_8","hsns_9","hsns_10","subj_idx","friend_name","ParticipantID","value","success","user_agent","responses","item_order","radio_event_ids","radio_event_times","key_event_times","mouse_event_times","straightlining","zigzagging","honeypot","timeout","failed_images","failed_audio","failed_video","view_history","response_type","key_press","avg_frame_time","center_x","center_y","correct_response","correct","identity","Image","word","condition","task_id","screen_id","time_stamp","version_attrib2","version_target2","IAT","RT","varname","summary","version_attrib","version_target","question_order","correct_answer","trap1_item"
"10856","
   <p><div style = ""color: white;font-size:25px;"">您好，欢迎参加本次实验。</div> </p>
   <p><div style = ""color: white;font-size:25px;"">为充分保障您的权利，请确保您已经知晓并同意《参与实验同意书》以及《数据公开知情同意书》。</div></p>
   <p><div style = ""color: white;font-size:25px;"">如果您未见过上述内容，请咨询实验员。</div></p>
   <p><div style = ""color: white;font-size:25px;"">如果您选择继续实验，则表示您已经清楚两份知情同意书的内容并同意。</div></p>
   <p><div style = ""color: pink;font-size:30px;"">请确保您记得day0的实验编号，您将在本次实验输入该编号，若您忘记，请咨询实验员后作答。</div></p>
   <p><div style = ""color: lightblue;font-size:25px;"">请您尽可能认真地作答，我们将依据您在各问卷和按键任务中的作答质量发放报酬。</div></p>
   <p> <div style = ""color: green;font-size:25px;""><按空格键至下页></div> </p>
   "," ","html-keyboard-response","0","10860","0.0-0.0","3","3","4","4","3","3","3","3","3","3","4","3","4","3","4","4","4","3","4","4","4","5","3","3","4","4","4","3","4","1","0","1","1","0","0","1","1","1","1","1","0","1","0","1","4","3","4","2","3","1","3","4","4","2","2","781518061500108802","郭","148","","","","","","","","","","","","","","","","","","","","","","","","","","","","","","","","","","","","","","","","","",""
"","","","call-function","1","10863","0.0-1.0-0.0","3","3","4","4","3","3","3","3","3","3","4","3","4","3","4","4","4","3","4","4","4","5","3","3","4","4","4","3","4","1","0","1","1","0","0","1","1","1","1","1","0","1","0","1","4","3","4","2","3","1","3","4","4","2","2","781518061500108802","郭","148","","","","","","","","","","","","","","","","","","","","","","","","","","","","","","","","","","","","","","","","","",""
"29866","","{""friend_name"":""郭"",""ParticipantID"":""148""}","survey-html-form","2","40730","0.0-1.0-1.0","3","3","4","4","3","3","3","3","3","3","4","3","4","3","4","4","4","3","4","4","4","5","3","3","4","4","4","3","4","1","0","1","1","0","0","1","1","1","1","1","0","1","0","1","4","3","4","2","3","1","3","4","4","2","2","781518061500108802","郭","148","","","","","","","","","","","","","","","","","","","","","","","","","","","","","","","","","","","","","","","","","",""
"","","","fullscreen","3","51456","0.0-2.0","3","3","4","4","3","3","3","3","3","3","4","3","4","3","4","4","4","3","4","4","4","5","3","3","4","4","4","3","4","1","0","1","1","0","0","1","1","1","1","1","0","1","0","1","4","3","4","2","3","1","3","4","4","2","2","781518061500108802","郭","148","","true","{}","","","","","","","","","","","","","","","","","","","","","","","","","","","","","","","","","","","","","","",""
"29482.5","","{""Q01"":""3"",""Q02"":""3"",""Q03"":""4"",""Q04"":""4"",""Q05"":""3"",""Q06"":""3"",""Q07"":""3"",""Q08"":""3"",""Q09"":""3"",""Q10"":""3""}","survey-template","4","80944","0.0-3.0","3","3","4","4","3","3","3","3","3","3","4","3","4","3","4","4","4","3","4","4","4","5","3","3","4","4","4","3","4","1","0","1","1","0","0","1","1","1","1","1","0","1","0","1","4","3","4","2","3","1","3","4","4","2","2","781518061500108802","郭","148","","","","{""Q01"":""3"",""Q02"":""3"",""Q03"":""4"",""Q04"":""4"",""Q05"":""3"",""Q06"":""3"",""Q07"":""3"",""Q08"":""3"",""Q09"":""3"",""Q10"":""3""}","[0,1,2,3,4,5,6,7,8,9]","[""Q01"",""Q02"",""Q03"",""Q04"",""Q05"",""Q06"",""Q07"",""Q08"",""Q09"",""Q10""]","[2923.7999999998137,5000,6736.799999999814,8679.899999999907,13982.899999999907,17424.299999999814,19018.09999999986,21512.09999999986,26258.09999999986,27700.199999999953]","[]","[2923.7999999998137,5000,6736.799999999814,8679.899999999907,11434.399999999907,13982.899999999907,17424.299999999814,19018.09999999986,21512.09999999986,26258.09999999986,27700.199999999953,29478.59999999986]","0.4","0.3333333333333333","0","","","","","","","","","","","","","","","","","","","","","","","","","","","","","",""
"26207.100000000093","","{""Q01"":""4"",""Q02"":""3"",""Q03"":""4"",""Q04"":""3"",""Q05"":""4"",""Q06"":""4"",""Q07"":""4"",""Q08"":""3"",""Q09"":""4"",""Q10"":""4""}","survey-template","5","107157","0.0-4.0","3","3","4","4","3","3","3","3","3","3","4","3","4","3","4","4","4","3","4","4","4","5","3","3","4","4","4","3","4","1","0","1","1","0","0","1","1","1","1","1","0","1","0","1","4","3","4","2","3","1","3","4","4","2","2","781518061500108802","郭","148","","","","{""Q01"":""4"",""Q02"":""3"",""Q03"":""4"",""Q04"":""3"",""Q05"":""4"",""Q06"":""4"",""Q07"":""4"",""Q08"":""3"",""Q09"":""4"",""Q10"":""4""}","[0,1,2,3,4,5,6,7,8,9]","[""Q01"",""Q02"",""Q03"",""Q04"",""Q05"",""Q06"",""Q07"",""Q08"",""Q09"",""Q10""]","[2159.7000000001863,3604.4000000001397,7142,9704.5,11686,13127.90000000014,17235.100000000093,18537.800000000047,20225.200000000186,24661.600000000093]","[]","[2159.7000000001863,3604.4000000001397,7142,9704.5,11686,13127.90000000014,14899.300000000047,17235.100000000093,18537.800000000047,20225.200000000186,21983.40000000014,24661.600000000093,26203]","0.4","0.6666666666666666","0","","","","","","","","","","","","","","","","","","","","","","","","","","","","","",""
"","","","preload","6","107461","0.0-5.0","3","3","4","4","3","3","3","3","3","3","4","3","4","3","4","4","4","3","4","4","4","5","3","3","4","4","4","3","4","1","0","1","1","0","0","1","1","1","1","1","0","1","0","1","4","3","4","2","3","1","3","4","4","2","2","781518061500108802","郭","148","","true","","","","","","","","","","","false","[]","[]","[]","","","","","","","","","","","","","","","","","","","","","","","","","",""
"11517","","","instructions","7","118979","0.0-6.0","3","3","4","4","3","3","3","3","3","3","4","3","4","3","4","4","4","3","4","4","4","5","3","3","4","4","4","3","4","1","0","1","1","0","0","1","1","1","1","1","0","1","0","1","4","3","4","2","3","1","3","4","4","2","2","781518061500108802","郭","148","","","","","","","","","","","","","","","","","[{""page_index"":0,""viewing_time"":11516}]","","","","","","","","","","","","","","","","","","","","","","","","",""
"23715","","","instructions","8","142698","0.0-7.0-1.0-0.0","3","3","4","4","3","3","3","3","3","3","4","3","4","3","4","4","4","3","4","4","4","5","3","3","4","4","4","3","4","1","0","1","1","0","0","1","1","1","1","1","0","1","0","1","4","3","4","2","3","1","3","4","4","2","2","781518061500108802","郭","148","","","","","","","","","","","","","","","","","[{""page_index"":0,""viewing_time"":17217},{""page_index"":1,""viewing_time"":4393},{""page_index"":2,""viewing_time"":2105}]","","","","","","","","","","","","","","","","","","","","","","","","",""
"null","","null","psychophysics","9","144909","0.0-7.0-1.0-1.0-0.0-0.0","3","3","4","4","3","3","3","3","3","3","4","3","4","3","4","4","4","3","4","4","4","5","3","3","4","4","4","3","4","1","0","1","1","0","0","1","1","1","1","1","0","1","0","1","4","3","4","2","3","1","3","4","4","2","2","781518061500108802","郭","148","","","","null","","","","","","","","","","","","","","key","null","16.66717557251904","640","356","j","false","nonmatch","img/hexagon.png","椭圆","六边","ALT1_2","prac_ALT1_2","","","","","","","","","","","",""
"null","<span class='add_' style='color:yellow; font-size: 70px;'> 太慢! </span>","null","html-keyboard-response","10","145412","0.0-7.0-1.0-1.0-0.0-1.0","3","3","4","4","3","3","3","3","3","3","4","3","4","3","4","4","4","3","4","4","4","5","3","3","4","4","4","3","4","1","0","1","1","0","0","1","1","1","1","1","0","1","0","1","4","3","4","2","3","1","3","4","4","2","2","781518061500108802","郭","148","","","","","","","","","","","","","","","","","","","","","","","","","","","","","","feedback_test","","","","","","","","","","","",""
"430","","j","psychophysics","11","146846","0.0-7.0-1.0-1.0-0.0-0.1","3","3","4","4","3","3","3","3","3","3","4","3","4","3","4","4","4","3","4","4","4","5","3","3","4","4","4","3","4","1","0","1","1","0","0","1","1","1","1","1","0","1","0","1","4","3","4","2","3","1","3","4","4","2","2","781518061500108802","郭","148","","","","nonmatch","","","","","","","","","","","","","","key","j","16.67176470588242","640","356","f","false","match","img/hexagon.png","六边","六边","ALT1_2","prac_ALT1_2","","","","","","","","","","","",""
"null","<span style='color:red; font-size: 70px;'>错误! </span>","null","html-keyboard-response","12","147348","0.0-7.0-1.0-1.0-0.0-1.1","3","3","4","4","3","3","3","3","3","3","4","3","4","3","4","4","4","3","4","4","4","5","3","3","4","4","4","3","4","1","0","1","1","0","0","1","1","1","1","1","0","1","0","1","4","3","4","2","3","1","3","4","4","2","2","781518061500108802","郭","148","","","","","","","","","","","","","","","","","","","","","","","","","","","","","","feedback_test","","","","","","","","","","","",""
"606","","j","psychophysics","13","148965","0.0-7.0-1.0-1.0-0.0-0.2","3","3","4","4","3","3","3","3","3","3","4","3","4","3","4","4","4","3","4","4","4","5","3","3","4","4","4","3","4","1","0","1","1","0","0","1","1","1","1","1","0","1","0","1","4","3","4","2","3","1","3","4","4","2","2","781518061500108802","郭","148","","","","nonmatch","","","","","","","","","","","","","","key","j","16.66875000000012","640","356","j","true","nonmatch","img/ellipse.png","六边","椭圆","ALT1_2","prac_ALT1_2","","","","","","","","","","","",""
"null","<span style='color:GreenYellow; font-size: 70px;'>正确! </span>","null","html-keyboard-response","14","149467","0.0-7.0-1.0-1.0-0.0-1.2","3","3","4","4","3","3","3","3","3","3","4","3","4","3","4","4","4","3","4","4","4","5","3","3","4","4","4","3","4","1","0","1","1","0","0","1","1","1","1","1","0","1","0","1","4","3","4","2","3","1","3","4","4","2","2","781518061500108802","郭","148","","","","","","","","","","","","","","","","","","","","","","","","","","","","","","feedback_test","","","","","","","","","","","",""
"415","","f","psychophysics","15","150885","0.0-7.0-1.0-1.0-0.0-0.3","3","3","4","4","3","3","3","3","3","3","4","3","4","3","4","4","4","3","4","4","4","5","3","3","4","4","4","3","4","1","0","1","1","0","0","1","1","1","1","1","0","1","0","1","4","3","4","2","3","1","3","4","4","2","2","781518061500108802","郭","148","","","","match","","","","","","","","","","","","","","key","f","16.672619047619047","640","356","j","false","nonmatch","img/triangle.png","六边","三角","ALT1_2","prac_ALT1_2","","","","","","","","","","","",""
"null","<span style='color:red; font-size: 70px;'>错误! </span>","null","html-keyboard-response","16","151387","0.0-7.0-1.0-1.0-0.0-1.3","3","3","4","4","3","3","3","3","3","3","4","3","4","3","4","4","4","3","4","4","4","5","3","3","4","4","4","3","4","1","0","1","1","0","0","1","1","1","1","1","0","1","0","1","4","3","4","2","3","1","3","4","4","2","2","781518061500108802","郭","148","","","","","","","","","","","","","","","","","","","","","","","","","","","","","","feedback_test","","","","","","","","","","","",""
"503","","f","psychophysics","17","152894","0.0-7.0-1.0-1.0-0.0-0.4","3","3","4","4","3","3","3","3","3","3","4","3","4","3","4","4","4","3","4","4","4","5","3","3","4","4","4","3","4","1","0","1","1","0","0","1","1","1","1","1","0","1","0","1","4","3","4","2","3","1","3","4","4","2","2","781518061500108802","郭","148","","","","match","","","","","","","","","","","","","","key","f","16.666666666666668","640","356","f","true","match","img/triangle.png","三角","三角","ALT1_2","prac_ALT1_2","","","","","","","","","","","",""
"null","<span style='color:GreenYellow; font-size: 70px;'>正确! </span>","null","html-keyboard-response","18","153397","0.0-7.0-1.0-1.0-0.0-1.4","3","3","4","4","3","3","3","3","3","3","4","3","4","3","4","4","4","3","4","4","4","5","3","3","4","4","4","3","4","1","0","1","1","0","0","1","1","1","1","1","0","1","0","1","4","3","4","2","3","1","3","4","4","2","2","781518061500108802","郭","148","","","","","","","","","","","","","","","","","","","","","","","","","","","","","","feedback_test","","","","","","","","","","","",""
"640","","j","psychophysics","19","155040","0.0-7.0-1.0-1.0-0.0-0.5","3","3","4","4","3","3","3","3","3","3","4","3","4","3","4","4","4","3","4","4","4","5","3","3","4","4","4","3","4","1","0","1","1","0","0","1","1","1","1","1","0","1","0","1","4","3","4","2","3","1","3","4","4","2","2","781518061500108802","郭","148","","","","nonmatch","","","","","","","","","","","","","","key","j","16.66804123711358","640","356","j","true","nonmatch","img/triangle.png","梯形","三角","ALT1_2","prac_ALT1_2","","","","","","","","","","","",""
"null","<span style='color:GreenYellow; font-size: 70px;'>正确! </span>","null","html-keyboard-response","20","155549","0.0-7.0-1.0-1.0-0.0-1.5","3","3","4","4","3","3","3","3","3","3","4","3","4","3","4","4","4","3","4","4","4","5","3","3","4","4","4","3","4","1","0","1","1","0","0","1","1","1","1","1","0","1","0","1","4","3","4","2","3","1","3","4","4","2","2","781518061500108802","郭","148","","","","","","","","","","","","","","","","","","","","","","","","","","","","","","feedback_test","","","","","","","","","","","",""
"551","","j","psychophysics","21","157103","0.0-7.0-1.0-1.0-0.0-0.6","3","3","4","4","3","3","3","3","3","3","4","3","4","3","4","4","4","3","4","4","4","5","3","3","4","4","4","3","4","1","0","1","1","0","0","1","1","1","1","1","0","1","0","1","4","3","4","2","3","1","3","4","4","2","2","781518061500108802","郭","148","","","","nonmatch","","","","","","","","","","","","","","key","j","16.67282608695646","640","356","j","true","nonmatch","img/hexagon.png","梯形","六边","ALT1_2","prac_ALT1_2","","","","","","","","","","","",""
"null","<span style='color:GreenYellow; font-size: 70px;'>正确! </span>","null","html-keyboard-response","22","157606","0.0-7.0-1.0-1.0-0.0-1.6","3","3","4","4","3","3","3","3","3","3","4","3","4","3","4","4","4","3","4","4","4","5","3","3","4","4","4","3","4","1","0","1","1","0","0","1","1","1","1","1","0","1","0","1","4","3","4","2","3","1","3","4","4","2","2","781518061500108802","郭","148","","","","","","","","","","","","","","","","","","","","","","","","","","","","","","feedback_test","","","","","","","","","","","",""
"836","","f","psychophysics","23","159444","0.0-7.0-1.0-1.0-0.0-0.7","3","3","4","4","3","3","3","3","3","3","4","3","4","3","4","4","4","3","4","4","4","5","3","3","4","4","4","3","4","1","0","1","1","0","0","1","1","1","1","1","0","1","0","1","4","3","4","2","3","1","3","4","4","2","2","781518061500108802","郭","148","","","","match","","","","","","","","","","","","","","key","f","16.652293577981705","640","356","f","true","match","img/hexagon.png","六边","六边","ALT1_2","prac_ALT1_2","","","","","","","","","","","",""
"null","<span style='color:GreenYellow; font-size: 70px;'>正确! </span>","null","html-keyboard-response","24","159946","0.0-7.0-1.0-1.0-0.0-1.7","3","3","4","4","3","3","3","3","3","3","4","3","4","3","4","4","4","3","4","4","4","5","3","3","4","4","4","3","4","1","0","1","1","0","0","1","1","1","1","1","0","1","0","1","4","3","4","2","3","1","3","4","4","2","2","781518061500108802","郭","148","","","","","","","","","","","","","","","","","","","","","","","","","","","","","","feedback_test","","","","","","","","","","","",""
"466","","j","psychophysics","25","161416","0.0-7.0-1.0-1.0-0.0-0.8","3","3","4","4","3","3","3","3","3","3","4","3","4","3","4","4","4","3","4","4","4","5","3","3","4","4","4","3","4","1","0","1","1","0","0","1","1","1","1","1","0","1","0","1","4","3","4","2","3","1","3","4","4","2","2","781518061500108802","郭","148","","","","nonmatch","","","","","","","","","","","","","","key","j","16.67241379310345","640","356","j","true","nonmatch","img/ellipse.png","梯形","椭圆","ALT1_2","prac_ALT1_2","","","","","","","","","","","",""
"null","<span style='color:GreenYellow; font-size: 70px;'>正确! </span>","null","html-keyboard-response","26","161918","0.0-7.0-1.0-1.0-0.0-1.8","3","3","4","4","3","3","3","3","3","3","4","3","4","3","4","4","4","3","4","4","4","5","3","3","4","4","4","3","4","1","0","1","1","0","0","1","1","1","1","1","0","1","0","1","4","3","4","2","3","1","3","4","4","2","2","781518061500108802","郭","148","","","","","","","","","","","","","","","","","","","","","","","","","","","","","","feedback_test","","","","","","","","","","","",""
"530","","j","psychophysics","27","163452","0.0-7.0-1.0-1.0-0.0-0.9","3","3","4","4","3","3","3","3","3","3","4","3","4","3","4","4","4","3","4","4","4","5","3","3","4","4","4","3","4","1","0","1","1","0","0","1","1","1","1","1","0","1","0","1","4","3","4","2","3","1","3","4","4","2","2","781518061500108802","郭","148","","","","nonmatch","","","","","","","","","","","","","","key","j","16.6725274725276","640","356","f","false","match","img/ellipse.png","椭圆","椭圆","ALT1_2","prac_ALT1_2","","","","","","","","","","","",""
"null","<span style='color:red; font-size: 70px;'>错误! </span>","null","html-keyboard-response","28","163955","0.0-7.0-1.0-1.0-0.0-1.9","3","3","4","4","3","3","3","3","3","3","4","3","4","3","4","4","4","3","4","4","4","5","3","3","4","4","4","3","4","1","0","1","1","0","0","1","1","1","1","1","0","1","0","1","4","3","4","2","3","1","3","4","4","2","2","781518061500108802","郭","148","","","","","","","","","","","","","","","","","","","","","","","","","","","","","","feedback_test","","","","","","","","","","","",""
"595","","j","psychophysics","29","165553","0.0-7.0-1.0-1.0-0.0-0.10","3","3","4","4","3","3","3","3","3","3","4","3","4","3","4","4","4","3","4","4","4","5","3","3","4","4","4","3","4","1","0","1","1","0","0","1","1","1","1","1","0","1","0","1","4","3","4","2","3","1","3","4","4","2","2","781518061500108802","郭","148","","","","nonmatch","","","","","","","","","","","","","","key","j","16.665263157894554","640","356","f","false","match","img/hexagon.png","六边","六边","ALT1_2","prac_ALT1_2","","","","","","","","","","","",""
"null","<span style='color:red; font-size: 70px;'>错误! </span>","null","html-keyboard-response","30","166055","0.0-7.0-1.0-1.0-0.0-1.10","3","3","4","4","3","3","3","3","3","3","4","3","4","3","4","4","4","3","4","4","4","5","3","3","4","4","4","3","4","1","0","1","1","0","0","1","1","1","1","1","0","1","0","1","4","3","4","2","3","1","3","4","4","2","2","781518061500108802","郭","148","","","","","","","","","","","","","","","","","","","","","","","","","","","","","","feedback_test","","","","","","","","","","","",""
"511","","f","psychophysics","31","167569","0.0-7.0-1.0-1.0-0.0-0.11","3","3","4","4","3","3","3","3","3","3","4","3","4","3","4","4","4","3","4","4","4","5","3","3","4","4","4","3","4","1","0","1","1","0","0","1","1","1","1","1","0","1","0","1","4","3","4","2","3","1","3","4","4","2","2","781518061500108802","郭","148","","","","match","","","","","","","","","","","","","","key","f","16.668888888888695","640","356","f","true","match","img/ellipse.png","椭圆","椭圆","ALT1_2","prac_ALT1_2","","","","","","","","","","","",""
"null","<span style='color:GreenYellow; font-size: 70px;'>正确! </span>","null","html-keyboard-response","32","168071","0.0-7.0-1.0-1.0-0.0-1.11","3","3","4","4","3","3","3","3","3","3","4","3","4","3","4","4","4","3","4","4","4","5","3","3","4","4","4","3","4","1","0","1","1","0","0","1","1","1","1","1","0","1","0","1","4","3","4","2","3","1","3","4","4","2","2","781518061500108802","郭","148","","","","","","","","","","","","","","","","","","","","","","","","","","","","","","feedback_test","","","","","","","","","","","",""
"445","","j","psychophysics","33","169519","0.0-7.0-1.0-1.0-0.0-0.12","3","3","4","4","3","3","3","3","3","3","4","3","4","3","4","4","4","3","4","4","4","5","3","3","4","4","4","3","4","1","0","1","1","0","0","1","1","1","1","1","0","1","0","1","4","3","4","2","3","1","3","4","4","2","2","781518061500108802","郭","148","","","","nonmatch","","","","","","","","","","","","","","key","j","16.665116279069903","640","356","j","true","nonmatch","img/trapezoid.png","六边","梯形","ALT1_2","prac_ALT1_2","","","","","","","","","","","",""
"null","<span style='color:GreenYellow; font-size: 70px;'>正确! </span>","null","html-keyboard-response","34","170022","0.0-7.0-1.0-1.0-0.0-1.12","3","3","4","4","3","3","3","3","3","3","4","3","4","3","4","4","4","3","4","4","4","5","3","3","4","4","4","3","4","1","0","1","1","0","0","1","1","1","1","1","0","1","0","1","4","3","4","2","3","1","3","4","4","2","2","781518061500108802","郭","148","","","","","","","","","","","","","","","","","","","","","","","","","","","","","","feedback_test","","","","","","","","","","","",""
"493","","f","psychophysics","35","171517","0.0-7.0-1.0-1.0-0.0-0.13","3","3","4","4","3","3","3","3","3","3","4","3","4","3","4","4","4","3","4","4","4","5","3","3","4","4","4","3","4","1","0","1","1","0","0","1","1","1","1","1","0","1","0","1","4","3","4","2","3","1","3","4","4","2","2","781518061500108802","郭","148","","","","match","","","","","","","","","","","","","","key","f","16.66966292134838","640","356","f","true","match","img/triangle.png","三角","三角","ALT1_2","prac_ALT1_2","","","","","","","","","","","",""
"null","<span style='color:GreenYellow; font-size: 70px;'>正确! </span>","null","html-keyboard-response","36","172020","0.0-7.0-1.0-1.0-0.0-1.13","3","3","4","4","3","3","3","3","3","3","4","3","4","3","4","4","4","3","4","4","4","5","3","3","4","4","4","3","4","1","0","1","1","0","0","1","1","1","1","1","0","1","0","1","4","3","4","2","3","1","3","4","4","2","2","781518061500108802","郭","148","","","","","","","","","","","","","","","","","","","","","","","","","","","","","","feedback_test","","","","","","","","","","","",""
"543","","j","psychophysics","37","173568","0.0-7.0-1.0-1.0-0.0-0.14","3","3","4","4","3","3","3","3","3","3","4","3","4","3","4","4","4","3","4","4","4","5","3","3","4","4","4","3","4","1","0","1","1","0","0","1","1","1","1","1","0","1","0","1","4","3","4","2","3","1","3","4","4","2","2","781518061500108802","郭","148","","","","nonmatch","","","","","","","","","","","","","","key","j","16.667391304347763","640","356","j","true","nonmatch","img/trapezoid.png","椭圆","梯形","ALT1_2","prac_ALT1_2","","","","","","","","","","","",""
"null","<span style='color:GreenYellow; font-size: 70px;'>正确! </span>","null","html-keyboard-response","38","174071","0.0-7.0-1.0-1.0-0.0-1.14","3","3","4","4","3","3","3","3","3","3","4","3","4","3","4","4","4","3","4","4","4","5","3","3","4","4","4","3","4","1","0","1","1","0","0","1","1","1","1","1","0","1","0","1","4","3","4","2","3","1","3","4","4","2","2","781518061500108802","郭","148","","","","","","","","","","","","","","","","","","","","","","","","","","","","","","feedback_test","","","","","","","","","","","",""
"554","","f","psychophysics","39","175627","0.0-7.0-1.0-1.0-0.0-0.15","3","3","4","4","3","3","3","3","3","3","4","3","4","3","4","4","4","3","4","4","4","5","3","3","4","4","4","3","4","1","0","1","1","0","0","1","1","1","1","1","0","1","0","1","4","3","4","2","3","1","3","4","4","2","2","781518061500108802","郭","148","","","","match","","","","","","","","","","","","","","key","f","16.664516129032133","640","356","j","false","nonmatch","img/hexagon.png","三角","六边","ALT1_2","prac_ALT1_2","","","","","","","","","","","",""
"null","<span style='color:red; font-size: 70px;'>错误! </span>","null","html-keyboard-response","40","176130","0.0-7.0-1.0-1.0-0.0-1.15","3","3","4","4","3","3","3","3","3","3","4","3","4","3","4","4","4","3","4","4","4","5","3","3","4","4","4","3","4","1","0","1","1","0","0","1","1","1","1","1","0","1","0","1","4","3","4","2","3","1","3","4","4","2","2","781518061500108802","郭","148","","","","","","","","","","","","","","","","","","","","","","","","","","","","","","feedback_test","","","","","","","","","","","",""
"666","","j","psychophysics","41","177799","0.0-7.0-1.0-1.0-0.0-0.16","3","3","4","4","3","3","3","3","3","3","4","3","4","3","4","4","4","3","4","4","4","5","3","3","4","4","4","3","4","1","0","1","1","0","0","1","1","1","1","1","0","1","0","1","4","3","4","2","3","1","3","4","4","2","2","781518061500108802","郭","148","","","","nonmatch","","","","","","","","","","","","","","key","j","16.666666666666668","640","356","j","true","nonmatch","img/triangle.png","椭圆","三角","ALT1_2","prac_ALT1_2","","","","","","","","","","","",""
"null","<span style='color:GreenYellow; font-size: 70px;'>正确! </span>","null","html-keyboard-response","42","178301","0.0-7.0-1.0-1.0-0.0-1.16","3","3","4","4","3","3","3","3","3","3","4","3","4","3","4","4","4","3","4","4","4","5","3","3","4","4","4","3","4","1","0","1","1","0","0","1","1","1","1","1","0","1","0","1","4","3","4","2","3","1","3","4","4","2","2","781518061500108802","郭","148","","","","","","","","","","","","","","","","","","","","","","","","","","","","","","feedback_test","","","","","","","","","","","",""
"547","","f","psychophysics","43","179851","0.0-7.0-1.0-1.0-0.0-0.17","3","3","4","4","3","3","3","3","3","3","4","3","4","3","4","4","4","3","4","4","4","5","3","3","4","4","4","3","4","1","0","1","1","0","0","1","1","1","1","1","0","1","0","1","4","3","4","2","3","1","3","4","4","2","2","781518061500108802","郭","148","","","","match","","","","","","","","","","","","","","key","f","16.66956521739137","640","356","f","true","match","img/ellipse.png","椭圆","椭圆","ALT1_2","prac_ALT1_2","","","","","","","","","","","",""
"null","<span style='color:GreenYellow; font-size: 70px;'>正确! </span>","null","html-keyboard-response","44","180362","0.0-7.0-1.0-1.0-0.0-1.17","3","3","4","4","3","3","3","3","3","3","4","3","4","3","4","4","4","3","4","4","4","5","3","3","4","4","4","3","4","1","0","1","1","0","0","1","1","1","1","1","0","1","0","1","4","3","4","2","3","1","3","4","4","2","2","781518061500108802","郭","148","","","","","","","","","","","","","","","","","","","","","","","","","","","","","","feedback_test","","","","","","","","","","","",""
"1031","","f","psychophysics","45","182395","0.0-7.0-1.0-1.0-0.0-0.18","3","3","4","4","3","3","3","3","3","3","4","3","4","3","4","4","4","3","4","4","4","5","3","3","4","4","4","3","4","1","0","1","1","0","0","1","1","1","1","1","0","1","0","1","4","3","4","2","3","1","3","4","4","2","2","781518061500108802","郭","148","","","","match","","","","","","","","","","","","","","key","f","16.667768595041466","640","356","f","true","match","img/trapezoid.png","梯形","梯形","ALT1_2","prac_ALT1_2","","","","","","","","","","","",""
"null","<span style='color:GreenYellow; font-size: 70px;'>正确! </span>","null","html-keyboard-response","46","182899","0.0-7.0-1.0-1.0-0.0-1.18","3","3","4","4","3","3","3","3","3","3","4","3","4","3","4","4","4","3","4","4","4","5","3","3","4","4","4","3","4","1","0","1","1","0","0","1","1","1","1","1","0","1","0","1","4","3","4","2","3","1","3","4","4","2","2","781518061500108802","郭","148","","","","","","","","","","","","","","","","","","","","","","","","","","","","","","feedback_test","","","","","","","","","","","",""
"532","","j","psychophysics","47","184435","0.0-7.0-1.0-1.0-0.0-0.19","3","3","4","4","3","3","3","3","3","3","4","3","4","3","4","4","4","3","4","4","4","5","3","3","4","4","4","3","4","1","0","1","1","0","0","1","1","1","1","1","0","1","0","1","4","3","4","2","3","1","3","4","4","2","2","781518061500108802","郭","148","","","","nonmatch","","","","","","","","","","","","","","key","j","16.672527472527282","640","356","j","true","nonmatch","img/ellipse.png","三角","椭圆","ALT1_2","prac_ALT1_2","","","","","","","","","","","",""
"null","<span style='color:GreenYellow; font-size: 70px;'>正确! </span>","null","html-keyboard-response","48","184941","0.0-7.0-1.0-1.0-0.0-1.19","3","3","4","4","3","3","3","3","3","3","4","3","4","3","4","4","4","3","4","4","4","5","3","3","4","4","4","3","4","1","0","1","1","0","0","1","1","1","1","1","0","1","0","1","4","3","4","2","3","1","3","4","4","2","2","781518061500108802","郭","148","","","","","","","","","","","","","","","","","","","","","","","","","","","","","","feedback_test","","","","","","","","","","","",""
"543","","f","psychophysics","49","186486","0.0-7.0-1.0-1.0-0.0-0.20","3","3","4","4","3","3","3","3","3","3","4","3","4","3","4","4","4","3","4","4","4","5","3","3","4","4","4","3","4","1","0","1","1","0","0","1","1","1","1","1","0","1","0","1","4","3","4","2","3","1","3","4","4","2","2","781518061500108802","郭","148","","","","match","","","","","","","","","","","","","","key","f","16.67032967032967","640","356","f","true","match","img/triangle.png","三角","三角","ALT1_2","prac_ALT1_2","","","","","","","","","","","",""
"null","<span style='color:GreenYellow; font-size: 70px;'>正确! </span>","null","html-keyboard-response","50","186988","0.0-7.0-1.0-1.0-0.0-1.20","3","3","4","4","3","3","3","3","3","3","4","3","4","3","4","4","4","3","4","4","4","5","3","3","4","4","4","3","4","1","0","1","1","0","0","1","1","1","1","1","0","1","0","1","4","3","4","2","3","1","3","4","4","2","2","781518061500108802","郭","148","","","","","","","","","","","","","","","","","","","","","","","","","","","","","","feedback_test","","","","","","","","","","","",""
"492","","j","psychophysics","51","188482","0.0-7.0-1.0-1.0-0.0-0.21","3","3","4","4","3","3","3","3","3","3","4","3","4","3","4","4","4","3","4","4","4","5","3","3","4","4","4","3","4","1","0","1","1","0","0","1","1","1","1","1","0","1","0","1","4","3","4","2","3","1","3","4","4","2","2","781518061500108802","郭","148","","","","nonmatch","","","","","","","","","","","","","","key","j","16.669662921348053","640","356","f","false","match","img/trapezoid.png","梯形","梯形","ALT1_2","prac_ALT1_2","","","","","","","","","","","",""
"null","<span style='color:red; font-size: 70px;'>错误! </span>","null","html-keyboard-response","52","188983","0.0-7.0-1.0-1.0-0.0-1.21","3","3","4","4","3","3","3","3","3","3","4","3","4","3","4","4","4","3","4","4","4","5","3","3","4","4","4","3","4","1","0","1","1","0","0","1","1","1","1","1","0","1","0","1","4","3","4","2","3","1","3","4","4","2","2","781518061500108802","郭","148","","","","","","","","","","","","","","","","","","","","","","","","","","","","","","feedback_test","","","","","","","","","","","",""
"659","","f","psychophysics","53","190646","0.0-7.0-1.0-1.0-0.0-0.22","3","3","4","4","3","3","3","3","3","3","4","3","4","3","4","4","4","3","4","4","4","5","3","3","4","4","4","3","4","1","0","1","1","0","0","1","1","1","1","1","0","1","0","1","4","3","4","2","3","1","3","4","4","2","2","781518061500108802","郭","148","","","","match","","","","","","","","","","","","","","key","f","16.66868686868669","640","356","f","true","match","img/trapezoid.png","梯形","梯形","ALT1_2","prac_ALT1_2","","","","","","","","","","","",""
"null","<span style='color:GreenYellow; font-size: 70px;'>正确! </span>","null","html-keyboard-response","54","191153","0.0-7.0-1.0-1.0-0.0-1.22","3","3","4","4","3","3","3","3","3","3","4","3","4","3","4","4","4","3","4","4","4","5","3","3","4","4","4","3","4","1","0","1","1","0","0","1","1","1","1","1","0","1","0","1","4","3","4","2","3","1","3","4","4","2","2","781518061500108802","郭","148","","","","","","","","","","","","","","","","","","","","","","","","","","","","","","feedback_test","","","","","","","","","","","",""
"623","","j","psychophysics","55","192780","0.0-7.0-1.0-1.0-0.0-0.23","3","3","4","4","3","3","3","3","3","3","4","3","4","3","4","4","4","3","4","4","4","5","3","3","4","4","4","3","4","1","0","1","1","0","0","1","1","1","1","1","0","1","0","1","4","3","4","2","3","1","3","4","4","2","2","781518061500108802","郭","148","","","","nonmatch","","","","","","","","","","","","","","key","j","16.672164948453727","640","356","j","true","nonmatch","img/trapezoid.png","三角","梯形","ALT1_2","prac_ALT1_2","","","","","","","","","","","",""
"null","<span style='color:GreenYellow; font-size: 70px;'>正确! </span>","null","html-keyboard-response","56","193299","0.0-7.0-1.0-1.0-0.0-1.23","3","3","4","4","3","3","3","3","3","3","4","3","4","3","4","4","4","3","4","4","4","5","3","3","4","4","4","3","4","1","0","1","1","0","0","1","1","1","1","1","0","1","0","1","4","3","4","2","3","1","3","4","4","2","2","781518061500108802","郭","148","","","","","","","","","","","","","","","","","","","","","","","","","","","","","","feedback_test","","","","","","","","","","","",""
"780","","f","psychophysics","57","195085","0.0-7.0-1.0-1.0-0.0-0.24","3","3","4","4","3","3","3","3","3","3","4","3","4","3","4","4","4","3","4","4","4","5","3","3","4","4","4","3","4","1","0","1","1","0","0","1","1","1","1","1","0","1","0","1","4","3","4","2","3","1","3","4","4","2","2","781518061500108802","郭","148","","","","match","","","","","","","","","","","","","","key","f","16.670754716981186","640","356","f","true","match","img/hexagon.png","六边","六边","ALT1_2","prac_ALT1_2","","","","","","","","","","","",""
"null","<span style='color:GreenYellow; font-size: 70px;'>正确! </span>","null","html-keyboard-response","58","195587","0.0-7.0-1.0-1.0-0.0-1.24","3","3","4","4","3","3","3","3","3","3","4","3","4","3","4","4","4","3","4","4","4","5","3","3","4","4","4","3","4","1","0","1","1","0","0","1","1","1","1","1","0","1","0","1","4","3","4","2","3","1","3","4","4","2","2","781518061500108802","郭","148","","","","","","","","","","","","","","","","","","","","","","","","","","","","","","feedback_test","","","","","","","","","","","",""
"655","","f","psychophysics","59","197245","0.0-7.0-1.0-1.0-0.0-0.25","3","3","4","4","3","3","3","3","3","3","4","3","4","3","4","4","4","3","4","4","4","5","3","3","4","4","4","3","4","1","0","1","1","0","0","1","1","1","1","1","0","1","0","1","4","3","4","2","3","1","3","4","4","2","2","781518061500108802","郭","148","","","","match","","","","","","","","","","","","","","key","f","16.666666666666668","640","356","f","true","match","img/ellipse.png","椭圆","椭圆","ALT1_2","prac_ALT1_2","","","","","","","","","","","",""
"null","<span style='color:GreenYellow; font-size: 70px;'>正确! </span>","null","html-keyboard-response","60","197748","0.0-7.0-1.0-1.0-0.0-1.25","3","3","4","4","3","3","3","3","3","3","4","3","4","3","4","4","4","3","4","4","4","5","3","3","4","4","4","3","4","1","0","1","1","0","0","1","1","1","1","1","0","1","0","1","4","3","4","2","3","1","3","4","4","2","2","781518061500108802","郭","148","","","","","","","","","","","","","","","","","","","","","","","","","","","","","","feedback_test","","","","","","","","","","","",""
"549","","j","psychophysics","61","199308","0.0-7.0-1.0-1.0-0.0-0.26","3","3","4","4","3","3","3","3","3","3","4","3","4","3","4","4","4","3","4","4","4","5","3","3","4","4","4","3","4","1","0","1","1","0","0","1","1","1","1","1","0","1","0","1","4","3","4","2","3","1","3","4","4","2","2","781518061500108802","郭","148","","","","nonmatch","","","","","","","","","","","","","","key","j","16.671739130434972","640","356","f","false","match","img/trapezoid.png","梯形","梯形","ALT1_2","prac_ALT1_2","","","","","","","","","","","",""
"null","<span style='color:red; font-size: 70px;'>错误! </span>","null","html-keyboard-response","62","199812","0.0-7.0-1.0-1.0-0.0-1.26","3","3","4","4","3","3","3","3","3","3","4","3","4","3","4","4","4","3","4","4","4","5","3","3","4","4","4","3","4","1","0","1","1","0","0","1","1","1","1","1","0","1","0","1","4","3","4","2","3","1","3","4","4","2","2","781518061500108802","郭","148","","","","","","","","","","","","","","","","","","","","","","","","","","","","","","feedback_test","","","","","","","","","","","",""
"567","","f","psychophysics","63","201381","0.0-7.0-1.0-1.0-0.0-0.27","3","3","4","4","3","3","3","3","3","3","4","3","4","3","4","4","4","3","4","4","4","5","3","3","4","4","4","3","4","1","0","1","1","0","0","1","1","1","1","1","0","1","0","1","4","3","4","2","3","1","3","4","4","2","2","781518061500108802","郭","148","","","","match","","","","","","","","","","","","","","key","f","16.672043010752688","640","356","j","false","nonmatch","img/ellipse.png","梯形","椭圆","ALT1_2","prac_ALT1_2","","","","","","","","","","","",""
"null","<span style='color:red; font-size: 70px;'>错误! </span>","null","html-keyboard-response","64","201885","0.0-7.0-1.0-1.0-0.0-1.27","3","3","4","4","3","3","3","3","3","3","4","3","4","3","4","4","4","3","4","4","4","5","3","3","4","4","4","3","4","1","0","1","1","0","0","1","1","1","1","1","0","1","0","1","4","3","4","2","3","1","3","4","4","2","2","781518061500108802","郭","148","","","","","","","","","","","","","","","","","","","","","","","","","","","","","","feedback_test","","","","","","","","","","","",""
"665","","f","psychophysics","65","203552","0.0-7.0-1.0-1.0-0.0-0.28","3","3","4","4","3","3","3","3","3","3","4","3","4","3","4","4","4","3","4","4","4","5","3","3","4","4","4","3","4","1","0","1","1","0","0","1","1","1","1","1","0","1","0","1","4","3","4","2","3","1","3","4","4","2","2","781518061500108802","郭","148","","","","match","","","","","","","","","","","","","","key","f","16.668686868686986","640","356","f","true","match","img/ellipse.png","椭圆","椭圆","ALT1_2","prac_ALT1_2","","","","","","","","","","","",""
"null","<span style='color:GreenYellow; font-size: 70px;'>正确! </span>","null","html-keyboard-response","66","204055","0.0-7.0-1.0-1.0-0.0-1.28","3","3","4","4","3","3","3","3","3","3","4","3","4","3","4","4","4","3","4","4","4","5","3","3","4","4","4","3","4","1","0","1","1","0","0","1","1","1","1","1","0","1","0","1","4","3","4","2","3","1","3","4","4","2","2","781518061500108802","郭","148","","","","","","","","","","","","","","","","","","","","","","","","","","","","","","feedback_test","","","","","","","","","","","",""
"892","","j","psychophysics","67","205949","0.0-7.0-1.0-1.0-0.0-0.29","3","3","4","4","3","3","3","3","3","3","4","3","4","3","4","4","4","3","4","4","4","5","3","3","4","4","4","3","4","1","0","1","1","0","0","1","1","1","1","1","0","1","0","1","4","3","4","2","3","1","3","4","4","2","2","781518061500108802","郭","148","","","","nonmatch","","","","","","","","","","","","","","key","j","16.66548672566382","640","356","j","true","nonmatch","img/trapezoid.png","椭圆","梯形","ALT1_2","prac_ALT1_2","","","","","","","","","","","",""
"null","<span style='color:GreenYellow; font-size: 70px;'>正确! </span>","null","html-keyboard-response","68","206452","0.0-7.0-1.0-1.0-0.0-1.29","3","3","4","4","3","3","3","3","3","3","4","3","4","3","4","4","4","3","4","4","4","5","3","3","4","4","4","3","4","1","0","1","1","0","0","1","1","1","1","1","0","1","0","1","4","3","4","2","3","1","3","4","4","2","2","781518061500108802","郭","148","","","","","","","","","","","","","","","","","","","","","","","","","","","","","","feedback_test","","","","","","","","","","","",""
"740","","f","psychophysics","69","208195","0.0-7.0-1.0-1.0-0.0-0.30","3","3","4","4","3","3","3","3","3","3","4","3","4","3","4","4","4","3","4","4","4","5","3","3","4","4","4","3","4","1","0","1","1","0","0","1","1","1","1","1","0","1","0","1","4","3","4","2","3","1","3","4","4","2","2","781518061500108802","郭","148","","","","match","","","","","","","","","","","","","","key","f","16.67019230769214","640","356","f","true","match","img/trapezoid.png","梯形","梯形","ALT1_2","prac_ALT1_2","","","","","","","","","","","",""
"null","<span style='color:GreenYellow; font-size: 70px;'>正确! </span>","null","html-keyboard-response","70","208708","0.0-7.0-1.0-1.0-0.0-1.30","3","3","4","4","3","3","3","3","3","3","4","3","4","3","4","4","4","3","4","4","4","5","3","3","4","4","4","3","4","1","0","1","1","0","0","1","1","1","1","1","0","1","0","1","4","3","4","2","3","1","3","4","4","2","2","781518061500108802","郭","148","","","","","","","","","","","","","","","","","","","","","","","","","","","","","","feedback_test","","","","","","","","","","","",""
"539","","f","psychophysics","71","210251","0.0-7.0-1.0-1.0-0.0-0.31","3","3","4","4","3","3","3","3","3","3","4","3","4","3","4","4","4","3","4","4","4","5","3","3","4","4","4","3","4","1","0","1","1","0","0","1","1","1","1","1","0","1","0","1","4","3","4","2","3","1","3","4","4","2","2","781518061500108802","郭","148","","","","match","","","","","","","","","","","","","","key","f","16.67032967032967","640","356","f","true","match","img/triangle.png","三角","三角","ALT1_2","prac_ALT1_2","","","","","","","","","","","",""
"null","<span style='color:GreenYellow; font-size: 70px;'>正确! </span>","null","html-keyboard-response","72","210762","0.0-7.0-1.0-1.0-0.0-1.31","3","3","4","4","3","3","3","3","3","3","4","3","4","3","4","4","4","3","4","4","4","5","3","3","4","4","4","3","4","1","0","1","1","0","0","1","1","1","1","1","0","1","0","1","4","3","4","2","3","1","3","4","4","2","2","781518061500108802","郭","148","","","","","","","","","","","","","","","","","","","","","","","","","","","","","","feedback_test","","","","","","","","","","","",""
"800","","f","psychophysics","73","212565","0.0-7.0-1.0-1.0-0.0-0.32","3","3","4","4","3","3","3","3","3","3","4","3","4","3","4","4","4","3","4","4","4","5","3","3","4","4","4","3","4","1","0","1","1","0","0","1","1","1","1","1","0","1","0","1","4","3","4","2","3","1","3","4","4","2","2","781518061500108802","郭","148","","","","match","","","","","","","","","","","","","","key","f","16.671028037383067","640","356","j","false","nonmatch","img/trapezoid.png","六边","梯形","ALT1_2","prac_ALT1_2","","","","","","","","","","","",""
"null","<span style='color:red; font-size: 70px;'>错误! </span>","null","html-keyboard-response","74","213069","0.0-7.0-1.0-1.0-0.0-1.32","3","3","4","4","3","3","3","3","3","3","4","3","4","3","4","4","4","3","4","4","4","5","3","3","4","4","4","3","4","1","0","1","1","0","0","1","1","1","1","1","0","1","0","1","4","3","4","2","3","1","3","4","4","2","2","781518061500108802","郭","148","","","","","","","","","","","","","","","","","","","","","","","","","","","","","","feedback_test","","","","","","","","","","","",""
"697","","j","psychophysics","75","214768","0.0-7.0-1.0-1.0-0.0-0.33","3","3","4","4","3","3","3","3","3","3","4","3","4","3","4","4","4","3","4","4","4","5","3","3","4","4","4","3","4","1","0","1","1","0","0","1","1","1","1","1","0","1","0","1","4","3","4","2","3","1","3","4","4","2","2","781518061500108802","郭","148","","","","nonmatch","","","","","","","","","","","","","","key","j","16.668316831683168","640","356","j","true","nonmatch","img/hexagon.png","椭圆","六边","ALT1_2","prac_ALT1_2","","","","","","","","","","","",""
"null","<span style='color:GreenYellow; font-size: 70px;'>正确! </span>","null","html-keyboard-response","76","215270","0.0-7.0-1.0-1.0-0.0-1.33","3","3","4","4","3","3","3","3","3","3","4","3","4","3","4","4","4","3","4","4","4","5","3","3","4","4","4","3","4","1","0","1","1","0","0","1","1","1","1","1","0","1","0","1","4","3","4","2","3","1","3","4","4","2","2","781518061500108802","郭","148","","","","","","","","","","","","","","","","","","","","","","","","","","","","","","feedback_test","","","","","","","","","","","",""
"703","","j","psychophysics","77","216976","0.0-7.0-1.0-1.0-0.0-0.34","3","3","4","4","3","3","3","3","3","3","4","3","4","3","4","4","4","3","4","4","4","5","3","3","4","4","4","3","4","1","0","1","1","0","0","1","1","1","1","1","0","1","0","1","4","3","4","2","3","1","3","4","4","2","2","781518061500108802","郭","148","","","","nonmatch","","","","","","","","","","","","","","key","j","16.670297029703086","640","356","j","true","nonmatch","img/triangle.png","六边","三角","ALT1_2","prac_ALT1_2","","","","","","","","","","","",""
"null","<span style='color:GreenYellow; font-size: 70px;'>正确! </span>","null","html-keyboard-response","78","217478","0.0-7.0-1.0-1.0-0.0-1.34","3","3","4","4","3","3","3","3","3","3","4","3","4","3","4","4","4","3","4","4","4","5","3","3","4","4","4","3","4","1","0","1","1","0","0","1","1","1","1","1","0","1","0","1","4","3","4","2","3","1","3","4","4","2","2","781518061500108802","郭","148","","","","","","","","","","","","","","","","","","","","","","","","","","","","","","feedback_test","","","","","","","","","","","",""
"711","","f","psychophysics","79","219191","0.0-7.0-1.0-1.0-0.0-0.35","3","3","4","4","3","3","3","3","3","3","4","3","4","3","4","4","4","3","4","4","4","5","3","3","4","4","4","3","4","1","0","1","1","0","0","1","1","1","1","1","0","1","0","1","4","3","4","2","3","1","3","4","4","2","2","781518061500108802","郭","148","","","","match","","","","","","","","","","","","","","key","f","16.671287128712756","640","356","f","true","match","img/trapezoid.png","梯形","梯形","ALT1_2","prac_ALT1_2","","","","","","","","","","","",""
"null","<span style='color:GreenYellow; font-size: 70px;'>正确! </span>","null","html-keyboard-response","80","219692","0.0-7.0-1.0-1.0-0.0-1.35","3","3","4","4","3","3","3","3","3","3","4","3","4","3","4","4","4","3","4","4","4","5","3","3","4","4","4","3","4","1","0","1","1","0","0","1","1","1","1","1","0","1","0","1","4","3","4","2","3","1","3","4","4","2","2","781518061500108802","郭","148","","","","","","","","","","","","","","","","","","","","","","","","","","","","","","feedback_test","","","","","","","","","","","",""
"657","","f","psychophysics","81","221351","0.0-7.0-1.0-1.0-0.0-0.36","3","3","4","4","3","3","3","3","3","3","4","3","4","3","4","4","4","3","4","4","4","5","3","3","4","4","4","3","4","1","0","1","1","0","0","1","1","1","1","1","0","1","0","1","4","3","4","2","3","1","3","4","4","2","2","781518061500108802","郭","148","","","","match","","","","","","","","","","","","","","key","f","16.668367346938776","640","356","f","true","match","img/hexagon.png","六边","六边","ALT1_2","prac_ALT1_2","","","","","","","","","","","",""
"null","<span style='color:GreenYellow; font-size: 70px;'>正确! </span>","null","html-keyboard-response","82","221857","0.0-7.0-1.0-1.0-0.0-1.36","3","3","4","4","3","3","3","3","3","3","4","3","4","3","4","4","4","3","4","4","4","5","3","3","4","4","4","3","4","1","0","1","1","0","0","1","1","1","1","1","0","1","0","1","4","3","4","2","3","1","3","4","4","2","2","781518061500108802","郭","148","","","","","","","","","","","","","","","","","","","","","","","","","","","","","","feedback_test","","","","","","","","","","","",""
"1080","","f","psychophysics","83","223941","0.0-7.0-1.0-1.0-0.0-0.37","3","3","4","4","3","3","3","3","3","3","4","3","4","3","4","4","4","3","4","4","4","5","3","3","4","4","4","3","4","1","0","1","1","0","0","1","1","1","1","1","0","1","0","1","4","3","4","2","3","1","3","4","4","2","2","781518061500108802","郭","148","","","","match","","","","","","","","","","","","","","key","f","16.666666666666668","640","356","f","true","match","img/hexagon.png","六边","六边","ALT1_2","prac_ALT1_2","","","","","","","","","","","",""
"null","<span style='color:GreenYellow; font-size: 70px;'>正确! </span>","null","html-keyboard-response","84","224444","0.0-7.0-1.0-1.0-0.0-1.37","3","3","4","4","3","3","3","3","3","3","4","3","4","3","4","4","4","3","4","4","4","5","3","3","4","4","4","3","4","1","0","1","1","0","0","1","1","1","1","1","0","1","0","1","4","3","4","2","3","1","3","4","4","2","2","781518061500108802","郭","148","","","","","","","","","","","","","","","","","","","","","","","","","","","","","","feedback_test","","","","","","","","","","","",""
"553","","f","psychophysics","85","225999","0.0-7.0-1.0-1.0-0.0-0.38","3","3","4","4","3","3","3","3","3","3","4","3","4","3","4","4","4","3","4","4","4","5","3","3","4","4","4","3","4","1","0","1","1","0","0","1","1","1","1","1","0","1","0","1","4","3","4","2","3","1","3","4","4","2","2","781518061500108802","郭","148","","","","match","","","","","","","","","","","","","","key","f","16.66956521739137","640","356","f","true","match","img/triangle.png","三角","三角","ALT1_2","prac_ALT1_2","","","","","","","","","","","",""
"null","<span style='color:GreenYellow; font-size: 70px;'>正确! </span>","null","html-keyboard-response","86","226515","0.0-7.0-1.0-1.0-0.0-1.38","3","3","4","4","3","3","3","3","3","3","4","3","4","3","4","4","4","3","4","4","4","5","3","3","4","4","4","3","4","1","0","1","1","0","0","1","1","1","1","1","0","1","0","1","4","3","4","2","3","1","3","4","4","2","2","781518061500108802","郭","148","","","","","","","","","","","","","","","","","","","","","","","","","","","","","","feedback_test","","","","","","","","","","","",""
"590","","j","psychophysics","87","228108","0.0-7.0-1.0-1.0-0.0-0.39","3","3","4","4","3","3","3","3","3","3","4","3","4","3","4","4","4","3","4","4","4","5","3","3","4","4","4","3","4","1","0","1","1","0","0","1","1","1","1","1","0","1","0","1","4","3","4","2","3","1","3","4","4","2","2","781518061500108802","郭","148","","","","nonmatch","","","","","","","","","","","","","","key","j","16.668085106383163","640","356","j","true","nonmatch","img/triangle.png","梯形","三角","ALT1_2","prac_ALT1_2","","","","","","","","","","","",""
"null","<span style='color:GreenYellow; font-size: 70px;'>正确! </span>","null","html-keyboard-response","88","228616","0.0-7.0-1.0-1.0-0.0-1.39","3","3","4","4","3","3","3","3","3","3","4","3","4","3","4","4","4","3","4","4","4","5","3","3","4","4","4","3","4","1","0","1","1","0","0","1","1","1","1","1","0","1","0","1","4","3","4","2","3","1","3","4","4","2","2","781518061500108802","郭","148","","","","","","","","","","","","","","","","","","","","","","","","","","","","","","feedback_test","","","","","","","","","","","",""
"635","","j","psychophysics","89","230254","0.0-7.0-1.0-1.0-0.0-0.40","3","3","4","4","3","3","3","3","3","3","4","3","4","3","4","4","4","3","4","4","4","5","3","3","4","4","4","3","4","1","0","1","1","0","0","1","1","1","1","1","0","1","0","1","4","3","4","2","3","1","3","4","4","2","2","781518061500108802","郭","148","","","","nonmatch","","","","","","","","","","","","","","key","j","16.671134020618318","640","356","j","true","nonmatch","img/ellipse.png","三角","椭圆","ALT1_2","prac_ALT1_2","","","","","","","","","","","",""
"null","<span style='color:GreenYellow; font-size: 70px;'>正确! </span>","null","html-keyboard-response","90","230755","0.0-7.0-1.0-1.0-0.0-1.40","3","3","4","4","3","3","3","3","3","3","4","3","4","3","4","4","4","3","4","4","4","5","3","3","4","4","4","3","4","1","0","1","1","0","0","1","1","1","1","1","0","1","0","1","4","3","4","2","3","1","3","4","4","2","2","781518061500108802","郭","148","","","","","","","","","","","","","","","","","","","","","","","","","","","","","","feedback_test","","","","","","","","","","","",""
"576","","f","psychophysics","91","232335","0.0-7.0-1.0-1.0-0.0-0.41","3","3","4","4","3","3","3","3","3","3","4","3","4","3","4","4","4","3","4","4","4","5","3","3","4","4","4","3","4","1","0","1","1","0","0","1","1","1","1","1","0","1","0","1","4","3","4","2","3","1","3","4","4","2","2","781518061500108802","郭","148","","","","match","","","","","","","","","","","","","","key","f","16.66702127659556","640","356","f","true","match","img/ellipse.png","椭圆","椭圆","ALT1_2","prac_ALT1_2","","","","","","","","","","","",""
"null","<span style='color:GreenYellow; font-size: 70px;'>正确! </span>","null","html-keyboard-response","92","232837","0.0-7.0-1.0-1.0-0.0-1.41","3","3","4","4","3","3","3","3","3","3","4","3","4","3","4","4","4","3","4","4","4","5","3","3","4","4","4","3","4","1","0","1","1","0","0","1","1","1","1","1","0","1","0","1","4","3","4","2","3","1","3","4","4","2","2","781518061500108802","郭","148","","","","","","","","","","","","","","","","","","","","","","","","","","","","","","feedback_test","","","","","","","","","","","",""
"668","","j","psychophysics","93","234509","0.0-7.0-1.0-1.0-0.0-0.42","3","3","4","4","3","3","3","3","3","3","4","3","4","3","4","4","4","3","4","4","4","5","3","3","4","4","4","3","4","1","0","1","1","0","0","1","1","1","1","1","0","1","0","1","4","3","4","2","3","1","3","4","4","2","2","781518061500108802","郭","148","","","","nonmatch","","","","","","","","","","","","","","key","j","16.66565656565651","640","356","j","true","nonmatch","img/hexagon.png","三角","六边","ALT1_2","prac_ALT1_2","","","","","","","","","","","",""
"null","<span style='color:GreenYellow; font-size: 70px;'>正确! </span>","null","html-keyboard-response","94","235012","0.0-7.0-1.0-1.0-0.0-1.42","3","3","4","4","3","3","3","3","3","3","4","3","4","3","4","4","4","3","4","4","4","5","3","3","4","4","4","3","4","1","0","1","1","0","0","1","1","1","1","1","0","1","0","1","4","3","4","2","3","1","3","4","4","2","2","781518061500108802","郭","148","","","","","","","","","","","","","","","","","","","","","","","","","","","","","","feedback_test","","","","","","","","","","","",""
"633","","j","psychophysics","95","236648","0.0-7.0-1.0-1.0-0.0-0.43","3","3","4","4","3","3","3","3","3","3","4","3","4","3","4","4","4","3","4","4","4","5","3","3","4","4","4","3","4","1","0","1","1","0","0","1","1","1","1","1","0","1","0","1","4","3","4","2","3","1","3","4","4","2","2","781518061500108802","郭","148","","","","nonmatch","","","","","","","","","","","","","","key","j","16.668041237113282","640","356","j","true","nonmatch","img/triangle.png","椭圆","三角","ALT1_2","prac_ALT1_2","","","","","","","","","","","",""
"null","<span style='color:GreenYellow; font-size: 70px;'>正确! </span>","null","html-keyboard-response","96","237155","0.0-7.0-1.0-1.0-0.0-1.43","3","3","4","4","3","3","3","3","3","3","4","3","4","3","4","4","4","3","4","4","4","5","3","3","4","4","4","3","4","1","0","1","1","0","0","1","1","1","1","1","0","1","0","1","4","3","4","2","3","1","3","4","4","2","2","781518061500108802","郭","148","","","","","","","","","","","","","","","","","","","","","","","","","","","","","","feedback_test","","","","","","","","","","","",""
"659","","f","psychophysics","97","238817","0.0-7.0-1.0-1.0-0.0-0.44","3","3","4","4","3","3","3","3","3","3","4","3","4","3","4","4","4","3","4","4","4","5","3","3","4","4","4","3","4","1","0","1","1","0","0","1","1","1","1","1","0","1","0","1","4","3","4","2","3","1","3","4","4","2","2","781518061500108802","郭","148","","","","match","","","","","","","","","","","","","","key","f","16.66868686868669","640","356","j","false","nonmatch","img/trapezoid.png","三角","梯形","ALT1_2","prac_ALT1_2","","","","","","","","","","","",""
"null","<span style='color:red; font-size: 70px;'>错误! </span>","null","html-keyboard-response","98","239321","0.0-7.0-1.0-1.0-0.0-1.44","3","3","4","4","3","3","3","3","3","3","4","3","4","3","4","4","4","3","4","4","4","5","3","3","4","4","4","3","4","1","0","1","1","0","0","1","1","1","1","1","0","1","0","1","4","3","4","2","3","1","3","4","4","2","2","781518061500108802","郭","148","","","","","","","","","","","","","","","","","","","","","","","","","","","","","","feedback_test","","","","","","","","","","","",""
"723","","j","psychophysics","99","241047","0.0-7.0-1.0-1.0-0.0-0.45","3","3","4","4","3","3","3","3","3","3","4","3","4","3","4","4","4","3","4","4","4","5","3","3","4","4","4","3","4","1","0","1","1","0","0","1","1","1","1","1","0","1","0","1","4","3","4","2","3","1","3","4","4","2","2","781518061500108802","郭","148","","","","nonmatch","","","","","","","","","","","","","","key","j","16.670873786407824","640","356","j","true","nonmatch","img/hexagon.png","梯形","六边","ALT1_2","prac_ALT1_2","","","","","","","","","","","",""
"null","<span style='color:GreenYellow; font-size: 70px;'>正确! </span>","null","html-keyboard-response","100","241549","0.0-7.0-1.0-1.0-0.0-1.45","3","3","4","4","3","3","3","3","3","3","4","3","4","3","4","4","4","3","4","4","4","5","3","3","4","4","4","3","4","1","0","1","1","0","0","1","1","1","1","1","0","1","0","1","4","3","4","2","3","1","3","4","4","2","2","781518061500108802","郭","148","","","","","","","","","","","","","","","","","","","","","","","","","","","","","","feedback_test","","","","","","","","","","","",""
"548","","j","psychophysics","101","243100","0.0-7.0-1.0-1.0-0.0-0.46","3","3","4","4","3","3","3","3","3","3","4","3","4","3","4","4","4","3","4","4","4","5","3","3","4","4","4","3","4","1","0","1","1","0","0","1","1","1","1","1","0","1","0","1","4","3","4","2","3","1","3","4","4","2","2","781518061500108802","郭","148","","","","nonmatch","","","","","","","","","","","","","","key","j","16.671739130434972","640","356","j","true","nonmatch","img/ellipse.png","六边","椭圆","ALT1_2","prac_ALT1_2","","","","","","","","","","","",""
"null","<span style='color:GreenYellow; font-size: 70px;'>正确! </span>","null","html-keyboard-response","102","243603","0.0-7.0-1.0-1.0-0.0-1.46","3","3","4","4","3","3","3","3","3","3","4","3","4","3","4","4","4","3","4","4","4","5","3","3","4","4","4","3","4","1","0","1","1","0","0","1","1","1","1","1","0","1","0","1","4","3","4","2","3","1","3","4","4","2","2","781518061500108802","郭","148","","","","","","","","","","","","","","","","","","","","","","","","","","","","","","feedback_test","","","","","","","","","","","",""
"541","","f","psychophysics","103","245148","0.0-7.0-1.0-1.0-0.0-0.47","3","3","4","4","3","3","3","3","3","3","4","3","4","3","4","4","4","3","4","4","4","5","3","3","4","4","4","3","4","1","0","1","1","0","0","1","1","1","1","1","0","1","0","1","4","3","4","2","3","1","3","4","4","2","2","781518061500108802","郭","148","","","","match","","","","","","","","","","","","","","key","f","16.668478260869566","640","356","f","true","match","img/triangle.png","三角","三角","ALT1_2","prac_ALT1_2","","","","","","","","","","","",""
"null","<span style='color:GreenYellow; font-size: 70px;'>正确! </span>","null","html-keyboard-response","104","245650","0.0-7.0-1.0-1.0-0.0-1.47","3","3","4","4","3","3","3","3","3","3","4","3","4","3","4","4","4","3","4","4","4","5","3","3","4","4","4","3","4","1","0","1","1","0","0","1","1","1","1","1","0","1","0","1","4","3","4","2","3","1","3","4","4","2","2","781518061500108802","郭","148","","","","","","","","","","","","","","","","","","","","","","","","","","","","","","feedback_test","","","","","","","","","","","",""
"9009","<style>.context{color:white; font-size: 35px; line-height:40px}</style>                          <div><p class='context'>您正确回答了77% 的试次。</p><p class='context'>您的平均反应时为643毫秒。</p><p class='context'>恭喜您完成练习。按空格键进入正式实验。</p><p class='footer' style='font-size: 35px; line-height:40px;'>请在进入正式实验实验之前将您的<span style='color: lightgreen;'>食指</span>放在电脑键盘的相应键位上进行按键。</p>"," ","html-keyboard-response","105","254665","0.0-7.0-1.0-2.0","3","3","4","4","3","3","3","3","3","3","4","3","4","3","4","4","4","3","4","4","4","5","3","3","4","4","4","3","4","1","0","1","1","0","0","1","1","1","1","1","0","1","0","1","4","3","4","2","3","1","3","4","4","2","2","781518061500108802","郭","148","","","","","","","","","","","","","","","","","","","","","","","","","","","","","","","","","","","","","","","","","",""
"2927","
  <p style='color: white; font-size: 22px'>请您将手指放在按键上，准备进入正式的匹配任务。</p>
  <p> <div style = ""color: green""><按空格键进入下一阶段的匹配任务></div></p>
  "," ","html-keyboard-response","106","257599","0.0-7.0-1.0-3.0","3","3","4","4","3","3","3","3","3","3","4","3","4","3","4","4","4","3","4","4","4","5","3","3","4","4","4","3","4","1","0","1","1","0","0","1","1","1","1","1","0","1","0","1","4","3","4","2","3","1","3","4","4","2","2","781518061500108802","郭","148","","","","","","","","","","","","","","","","","","","","","","","","","","","","","","","","","","","","","","","","","",""
"496","","f","psychophysics","107","259098","0.0-7.0-1.0-4.0-0.0-0.0","3","3","4","4","3","3","3","3","3","3","4","3","4","3","4","4","4","3","4","4","4","5","3","3","4","4","4","3","4","1","0","1","1","0","0","1","1","1","1","1","0","1","0","1","4","3","4","2","3","1","3","4","4","2","2","781518061500108802","郭","148","","","","match","","","","","","","","","","","","","","key","f","16.670786516853738","640","356","f","true","match","img/triangle.png","三角","三角","ALT1","formal_ALT1_2","","","","","","","","","","","",""
"null","<span style='color:GreenYellow; font-size: 70px;'>正确! </span>","null","html-keyboard-response","108","259600","0.0-7.0-1.0-4.0-0.0-1.0","3","3","4","4","3","3","3","3","3","3","4","3","4","3","4","4","4","3","4","4","4","5","3","3","4","4","4","3","4","1","0","1","1","0","0","1","1","1","1","1","0","1","0","1","4","3","4","2","3","1","3","4","4","2","2","781518061500108802","郭","148","","","","","","","","","","","","","","","","","","","","","","","","","","","","","","feedback_test","","","","","","","","","","","",""
"482","","f","psychophysics","109","261085","0.0-7.0-1.0-4.0-0.0-0.1","3","3","4","4","3","3","3","3","3","3","4","3","4","3","4","4","4","3","4","4","4","5","3","3","4","4","4","3","4","1","0","1","1","0","0","1","1","1","1","1","0","1","0","1","4","3","4","2","3","1","3","4","4","2","2","781518061500108802","郭","148","","","","match","","","","","","","","","","","","","","key","f","16.671590909090643","640","356","f","true","match","img/triangle.png","三角","三角","ALT1","formal_ALT1_2","","","","","","","","","","","",""
"null","<span style='color:GreenYellow; font-size: 70px;'>正确! </span>","null","html-keyboard-response","110","261587","0.0-7.0-1.0-4.0-0.0-1.1","3","3","4","4","3","3","3","3","3","3","4","3","4","3","4","4","4","3","4","4","4","5","3","3","4","4","4","3","4","1","0","1","1","0","0","1","1","1","1","1","0","1","0","1","4","3","4","2","3","1","3","4","4","2","2","781518061500108802","郭","148","","","","","","","","","","","","","","","","","","","","","","","","","","","","","","feedback_test","","","","","","","","","","","",""
"580","","j","psychophysics","111","263170","0.0-7.0-1.0-4.0-0.0-0.2","3","3","4","4","3","3","3","3","3","3","4","3","4","3","4","4","4","3","4","4","4","5","3","3","4","4","4","3","4","1","0","1","1","0","0","1","1","1","1","1","0","1","0","1","4","3","4","2","3","1","3","4","4","2","2","781518061500108802","郭","148","","","","nonmatch","","","","","","","","","","","","","","key","j","16.671276595744434","640","356","j","true","nonmatch","img/ellipse.png","六边","椭圆","ALT1","formal_ALT1_2","","","","","","","","","","","",""
"null","<span style='color:GreenYellow; font-size: 70px;'>正确! </span>","null","html-keyboard-response","112","263672","0.0-7.0-1.0-4.0-0.0-1.2","3","3","4","4","3","3","3","3","3","3","4","3","4","3","4","4","4","3","4","4","4","5","3","3","4","4","4","3","4","1","0","1","1","0","0","1","1","1","1","1","0","1","0","1","4","3","4","2","3","1","3","4","4","2","2","781518061500108802","郭","148","","","","","","","","","","","","","","","","","","","","","","","","","","","","","","feedback_test","","","","","","","","","","","",""
"828","","j","psychophysics","113","265503","0.0-7.0-1.0-4.0-0.0-0.3","3","3","4","4","3","3","3","3","3","3","4","3","4","3","4","4","4","3","4","4","4","5","3","3","4","4","4","3","4","1","0","1","1","0","0","1","1","1","1","1","0","1","0","1","4","3","4","2","3","1","3","4","4","2","2","781518061500108802","郭","148","","","","nonmatch","","","","","","","","","","","","","","key","j","16.666972477064327","640","356","f","false","match","img/trapezoid.png","梯形","梯形","ALT1","formal_ALT1_2","","","","","","","","","","","",""
"null","<span style='color:red; font-size: 70px;'>错误! </span>","null","html-keyboard-response","114","266005","0.0-7.0-1.0-4.0-0.0-1.3","3","3","4","4","3","3","3","3","3","3","4","3","4","3","4","4","4","3","4","4","4","5","3","3","4","4","4","3","4","1","0","1","1","0","0","1","1","1","1","1","0","1","0","1","4","3","4","2","3","1","3","4","4","2","2","781518061500108802","郭","148","","","","","","","","","","","","","","","","","","","","","","","","","","","","","","feedback_test","","","","","","","","","","","",""
"568","","j","psychophysics","115","267576","0.0-7.0-1.0-4.0-0.0-0.4","3","3","4","4","3","3","3","3","3","3","4","3","4","3","4","4","4","3","4","4","4","5","3","3","4","4","4","3","4","1","0","1","1","0","0","1","1","1","1","1","0","1","0","1","4","3","4","2","3","1","3","4","4","2","2","781518061500108802","郭","148","","","","nonmatch","","","","","","","","","","","","","","key","j","16.673118279570268","640","356","f","false","match","img/hexagon.png","六边","六边","ALT1","formal_ALT1_2","","","","","","","","","","","",""
"null","<span style='color:red; font-size: 70px;'>错误! </span>","null","html-keyboard-response","116","268077","0.0-7.0-1.0-4.0-0.0-1.4","3","3","4","4","3","3","3","3","3","3","4","3","4","3","4","4","4","3","4","4","4","5","3","3","4","4","4","3","4","1","0","1","1","0","0","1","1","1","1","1","0","1","0","1","4","3","4","2","3","1","3","4","4","2","2","781518061500108802","郭","148","","","","","","","","","","","","","","","","","","","","","","","","","","","","","","feedback_test","","","","","","","","","","","",""
"575","","f","psychophysics","117","269655","0.0-7.0-1.0-4.0-0.0-0.5","3","3","4","4","3","3","3","3","3","3","4","3","4","3","4","4","4","3","4","4","4","5","3","3","4","4","4","3","4","1","0","1","1","0","0","1","1","1","1","1","0","1","0","1","4","3","4","2","3","1","3","4","4","2","2","781518061500108802","郭","148","","","","match","","","","","","","","","","","","","","key","f","16.6688172043012","640","356","f","true","match","img/ellipse.png","椭圆","椭圆","ALT1","formal_ALT1_2","","","","","","","","","","","",""
"null","<span style='color:GreenYellow; font-size: 70px;'>正确! </span>","null","html-keyboard-response","118","270157","0.0-7.0-1.0-4.0-0.0-1.5","3","3","4","4","3","3","3","3","3","3","4","3","4","3","4","4","4","3","4","4","4","5","3","3","4","4","4","3","4","1","0","1","1","0","0","1","1","1","1","1","0","1","0","1","4","3","4","2","3","1","3","4","4","2","2","781518061500108802","郭","148","","","","","","","","","","","","","","","","","","","","","","","","","","","","","","feedback_test","","","","","","","","","","","",""
"572","","j","psychophysics","119","271732","0.0-7.0-1.0-4.0-0.0-0.6","3","3","4","4","3","3","3","3","3","3","4","3","4","3","4","4","4","3","4","4","4","5","3","3","4","4","4","3","4","1","0","1","1","0","0","1","1","1","1","1","0","1","0","1","4","3","4","2","3","1","3","4","4","2","2","781518061500108802","郭","148","","","","nonmatch","","","","","","","","","","","","","","key","j","16.667021276595868","640","356","j","true","nonmatch","img/triangle.png","六边","三角","ALT1","formal_ALT1_2","","","","","","","","","","","",""
"null","<span style='color:GreenYellow; font-size: 70px;'>正确! </span>","null","html-keyboard-response","120","272234","0.0-7.0-1.0-4.0-0.0-1.6","3","3","4","4","3","3","3","3","3","3","4","3","4","3","4","4","4","3","4","4","4","5","3","3","4","4","4","3","4","1","0","1","1","0","0","1","1","1","1","1","0","1","0","1","4","3","4","2","3","1","3","4","4","2","2","781518061500108802","郭","148","","","","","","","","","","","","","","","","","","","","","","","","","","","","","","feedback_test","","","","","","","","","","","",""
"645","","j","psychophysics","121","273886","0.0-7.0-1.0-4.0-0.0-0.7","3","3","4","4","3","3","3","3","3","3","4","3","4","3","4","4","4","3","4","4","4","5","3","3","4","4","4","3","4","1","0","1","1","0","0","1","1","1","1","1","0","1","0","1","4","3","4","2","3","1","3","4","4","2","2","781518061500108802","郭","148","","","","nonmatch","","","","","","","","","","","","","","key","j","16.671428571428454","640","356","j","true","nonmatch","img/ellipse.png","梯形","椭圆","ALT1","formal_ALT1_2","","","","","","","","","","","",""
"null","<span style='color:GreenYellow; font-size: 70px;'>正确! </span>","null","html-keyboard-response","122","274388","0.0-7.0-1.0-4.0-0.0-1.7","3","3","4","4","3","3","3","3","3","3","4","3","4","3","4","4","4","3","4","4","4","5","3","3","4","4","4","3","4","1","0","1","1","0","0","1","1","1","1","1","0","1","0","1","4","3","4","2","3","1","3","4","4","2","2","781518061500108802","郭","148","","","","","","","","","","","","","","","","","","","","","","","","","","","","","","feedback_test","","","","","","","","","","","",""
"729","","f","psychophysics","123","276120","0.0-7.0-1.0-4.0-0.0-0.8","3","3","4","4","3","3","3","3","3","3","4","3","4","3","4","4","4","3","4","4","4","5","3","3","4","4","4","3","4","1","0","1","1","0","0","1","1","1","1","1","0","1","0","1","4","3","4","2","3","1","3","4","4","2","2","781518061500108802","郭","148","","","","match","","","","","","","","","","","","","","key","f","16.664077669902575","640","356","f","true","match","img/hexagon.png","六边","六边","ALT1","formal_ALT1_2","","","","","","","","","","","",""
"null","<span style='color:GreenYellow; font-size: 70px;'>正确! </span>","null","html-keyboard-response","124","276622","0.0-7.0-1.0-4.0-0.0-1.8","3","3","4","4","3","3","3","3","3","3","4","3","4","3","4","4","4","3","4","4","4","5","3","3","4","4","4","3","4","1","0","1","1","0","0","1","1","1","1","1","0","1","0","1","4","3","4","2","3","1","3","4","4","2","2","781518061500108802","郭","148","","","","","","","","","","","","","","","","","","","","","","","","","","","","","","feedback_test","","","","","","","","","","","",""
"725","","j","psychophysics","125","278349","0.0-7.0-1.0-4.0-0.0-0.9","3","3","4","4","3","3","3","3","3","3","4","3","4","3","4","4","4","3","4","4","4","5","3","3","4","4","4","3","4","1","0","1","1","0","0","1","1","1","1","1","0","1","0","1","4","3","4","2","3","1","3","4","4","2","2","781518061500108802","郭","148","","","","nonmatch","","","","","","","","","","","","","","key","j","16.66601941747607","640","356","f","false","match","img/trapezoid.png","梯形","梯形","ALT1","formal_ALT1_2","","","","","","","","","","","",""
"null","<span style='color:red; font-size: 70px;'>错误! </span>","null","html-keyboard-response","126","278853","0.0-7.0-1.0-4.0-0.0-1.9","3","3","4","4","3","3","3","3","3","3","4","3","4","3","4","4","4","3","4","4","4","5","3","3","4","4","4","3","4","1","0","1","1","0","0","1","1","1","1","1","0","1","0","1","4","3","4","2","3","1","3","4","4","2","2","781518061500108802","郭","148","","","","","","","","","","","","","","","","","","","","","","","","","","","","","","feedback_test","","","","","","","","","","","",""
"579","","f","psychophysics","127","280434","0.0-7.0-1.0-4.0-0.0-0.10","3","3","4","4","3","3","3","3","3","3","4","3","4","3","4","4","4","3","4","4","4","5","3","3","4","4","4","3","4","1","0","1","1","0","0","1","1","1","1","1","0","1","0","1","4","3","4","2","3","1","3","4","4","2","2","781518061500108802","郭","148","","","","match","","","","","","","","","","","","","","key","f","16.672340425532038","640","356","f","true","match","img/ellipse.png","椭圆","椭圆","ALT1","formal_ALT1_2","","","","","","","","","","","",""
"null","<span style='color:GreenYellow; font-size: 70px;'>正确! </span>","null","html-keyboard-response","128","280937","0.0-7.0-1.0-4.0-0.0-1.10","3","3","4","4","3","3","3","3","3","3","4","3","4","3","4","4","4","3","4","4","4","5","3","3","4","4","4","3","4","1","0","1","1","0","0","1","1","1","1","1","0","1","0","1","4","3","4","2","3","1","3","4","4","2","2","781518061500108802","郭","148","","","","","","","","","","","","","","","","","","","","","","","","","","","","","","feedback_test","","","","","","","","","","","",""
"589","","j","psychophysics","129","282529","0.0-7.0-1.0-4.0-0.0-0.11","3","3","4","4","3","3","3","3","3","3","4","3","4","3","4","4","4","3","4","4","4","5","3","3","4","4","4","3","4","1","0","1","1","0","0","1","1","1","1","1","0","1","0","1","4","3","4","2","3","1","3","4","4","2","2","781518061500108802","郭","148","","","","nonmatch","","","","","","","","","","","","","","key","j","16.66842105263158","640","356","j","true","nonmatch","img/hexagon.png","三角","六边","ALT1","formal_ALT1_2","","","","","","","","","","","",""
"null","<span style='color:GreenYellow; font-size: 70px;'>正确! </span>","null","html-keyboard-response","130","283031","0.0-7.0-1.0-4.0-0.0-1.11","3","3","4","4","3","3","3","3","3","3","4","3","4","3","4","4","4","3","4","4","4","5","3","3","4","4","4","3","4","1","0","1","1","0","0","1","1","1","1","1","0","1","0","1","4","3","4","2","3","1","3","4","4","2","2","781518061500108802","郭","148","","","","","","","","","","","","","","","","","","","","","","","","","","","","","","feedback_test","","","","","","","","","","","",""
"661","","j","psychophysics","131","284696","0.0-7.0-1.0-4.0-0.0-0.12","3","3","4","4","3","3","3","3","3","3","4","3","4","3","4","4","4","3","4","4","4","5","3","3","4","4","4","3","4","1","0","1","1","0","0","1","1","1","1","1","0","1","0","1","4","3","4","2","3","1","3","4","4","2","2","781518061500108802","郭","148","","","","nonmatch","","","","","","","","","","","","","","key","j","16.6656565656568","640","356","j","true","nonmatch","img/ellipse.png","三角","椭圆","ALT1","formal_ALT1_2","","","","","","","","","","","",""
"null","<span style='color:GreenYellow; font-size: 70px;'>正确! </span>","null","html-keyboard-response","132","285198","0.0-7.0-1.0-4.0-0.0-1.12","3","3","4","4","3","3","3","3","3","3","4","3","4","3","4","4","4","3","4","4","4","5","3","3","4","4","4","3","4","1","0","1","1","0","0","1","1","1","1","1","0","1","0","1","4","3","4","2","3","1","3","4","4","2","2","781518061500108802","郭","148","","","","","","","","","","","","","","","","","","","","","","","","","","","","","","feedback_test","","","","","","","","","","","",""
"606","","f","psychophysics","133","286806","0.0-7.0-1.0-4.0-0.0-0.13","3","3","4","4","3","3","3","3","3","3","4","3","4","3","4","4","4","3","4","4","4","5","3","3","4","4","4","3","4","1","0","1","1","0","0","1","1","1","1","1","0","1","0","1","4","3","4","2","3","1","3","4","4","2","2","781518061500108802","郭","148","","","","match","","","","","","","","","","","","","","key","f","16.667368421052878","640","356","f","true","match","img/hexagon.png","六边","六边","ALT1","formal_ALT1_2","","","","","","","","","","","",""
"null","<span style='color:GreenYellow; font-size: 70px;'>正确! </span>","null","html-keyboard-response","134","287309","0.0-7.0-1.0-4.0-0.0-1.13","3","3","4","4","3","3","3","3","3","3","4","3","4","3","4","4","4","3","4","4","4","5","3","3","4","4","4","3","4","1","0","1","1","0","0","1","1","1","1","1","0","1","0","1","4","3","4","2","3","1","3","4","4","2","2","781518061500108802","郭","148","","","","","","","","","","","","","","","","","","","","","","","","","","","","","","feedback_test","","","","","","","","","","","",""
"676","","f","psychophysics","135","288987","0.0-7.0-1.0-4.0-0.0-0.14","3","3","4","4","3","3","3","3","3","3","4","3","4","3","4","4","4","3","4","4","4","5","3","3","4","4","4","3","4","1","0","1","1","0","0","1","1","1","1","1","0","1","0","1","4","3","4","2","3","1","3","4","4","2","2","781518061500108802","郭","148","","","","match","","","","","","","","","","","","","","key","f","16.667676767676532","640","356","f","true","match","img/ellipse.png","椭圆","椭圆","ALT1","formal_ALT1_2","","","","","","","","","","","",""
"null","<span style='color:GreenYellow; font-size: 70px;'>正确! </span>","null","html-keyboard-response","136","289489","0.0-7.0-1.0-4.0-0.0-1.14","3","3","4","4","3","3","3","3","3","3","4","3","4","3","4","4","4","3","4","4","4","5","3","3","4","4","4","3","4","1","0","1","1","0","0","1","1","1","1","1","0","1","0","1","4","3","4","2","3","1","3","4","4","2","2","781518061500108802","郭","148","","","","","","","","","","","","","","","","","","","","","","","","","","","","","","feedback_test","","","","","","","","","","","",""
"616","","f","psychophysics","137","291109","0.0-7.0-1.0-4.0-0.0-0.15","3","3","4","4","3","3","3","3","3","3","4","3","4","3","4","4","4","3","4","4","4","5","3","3","4","4","4","3","4","1","0","1","1","0","0","1","1","1","1","1","0","1","0","1","4","3","4","2","3","1","3","4","4","2","2","781518061500108802","郭","148","","","","match","","","","","","","","","","","","","","key","f","16.667708333333092","640","356","f","true","match","img/trapezoid.png","梯形","梯形","ALT1","formal_ALT1_2","","","","","","","","","","","",""
"null","<span style='color:GreenYellow; font-size: 70px;'>正确! </span>","null","html-keyboard-response","138","291612","0.0-7.0-1.0-4.0-0.0-1.15","3","3","4","4","3","3","3","3","3","3","4","3","4","3","4","4","4","3","4","4","4","5","3","3","4","4","4","3","4","1","0","1","1","0","0","1","1","1","1","1","0","1","0","1","4","3","4","2","3","1","3","4","4","2","2","781518061500108802","郭","148","","","","","","","","","","","","","","","","","","","","","","","","","","","","","","feedback_test","","","","","","","","","","","",""
"511","","j","psychophysics","139","293126","0.0-7.0-1.0-4.0-0.0-0.16","3","3","4","4","3","3","3","3","3","3","4","3","4","3","4","4","4","3","4","4","4","5","3","3","4","4","4","3","4","1","0","1","1","0","0","1","1","1","1","1","0","1","0","1","4","3","4","2","3","1","3","4","4","2","2","781518061500108802","郭","148","","","","nonmatch","","","","","","","","","","","","","","key","j","16.670786516854065","640","356","j","true","nonmatch","img/trapezoid.png","六边","梯形","ALT1","formal_ALT1_2","","","","","","","","","","","",""
"null","<span style='color:GreenYellow; font-size: 70px;'>正确! </span>","null","html-keyboard-response","140","293628","0.0-7.0-1.0-4.0-0.0-1.16","3","3","4","4","3","3","3","3","3","3","4","3","4","3","4","4","4","3","4","4","4","5","3","3","4","4","4","3","4","1","0","1","1","0","0","1","1","1","1","1","0","1","0","1","4","3","4","2","3","1","3","4","4","2","2","781518061500108802","郭","148","","","","","","","","","","","","","","","","","","","","","","","","","","","","","","feedback_test","","","","","","","","","","","",""
"434","","f","psychophysics","141","295065","0.0-7.0-1.0-4.0-0.0-0.17","3","3","4","4","3","3","3","3","3","3","4","3","4","3","4","4","4","3","4","4","4","5","3","3","4","4","4","3","4","1","0","1","1","0","0","1","1","1","1","1","0","1","0","1","4","3","4","2","3","1","3","4","4","2","2","781518061500108802","郭","148","","","","match","","","","","","","","","","","","","","key","f","16.67058823529412","640","356","j","false","nonmatch","img/triangle.png","椭圆","三角","ALT1","formal_ALT1_2","","","","","","","","","","","",""
"null","<span style='color:red; font-size: 70px;'>错误! </span>","null","html-keyboard-response","142","295575","0.0-7.0-1.0-4.0-0.0-1.17","3","3","4","4","3","3","3","3","3","3","4","3","4","3","4","4","4","3","4","4","4","5","3","3","4","4","4","3","4","1","0","1","1","0","0","1","1","1","1","1","0","1","0","1","4","3","4","2","3","1","3","4","4","2","2","781518061500108802","郭","148","","","","","","","","","","","","","","","","","","","","","","","","","","","","","","feedback_test","","","","","","","","","","","",""
"506","","f","psychophysics","143","297085","0.0-7.0-1.0-4.0-0.0-0.18","3","3","4","4","3","3","3","3","3","3","4","3","4","3","4","4","4","3","4","4","4","5","3","3","4","4","4","3","4","1","0","1","1","0","0","1","1","1","1","1","0","1","0","1","4","3","4","2","3","1","3","4","4","2","2","781518061500108802","郭","148","","","","match","","","","","","","","","","","","","","key","f","16.667415730336685","640","356","f","true","match","img/triangle.png","三角","三角","ALT1","formal_ALT1_2","","","","","","","","","","","",""
"null","<span style='color:GreenYellow; font-size: 70px;'>正确! </span>","null","html-keyboard-response","144","297587","0.0-7.0-1.0-4.0-0.0-1.18","3","3","4","4","3","3","3","3","3","3","4","3","4","3","4","4","4","3","4","4","4","5","3","3","4","4","4","3","4","1","0","1","1","0","0","1","1","1","1","1","0","1","0","1","4","3","4","2","3","1","3","4","4","2","2","781518061500108802","郭","148","","","","","","","","","","","","","","","","","","","","","","","","","","","","","","feedback_test","","","","","","","","","","","",""
"578","","j","psychophysics","145","299168","0.0-7.0-1.0-4.0-0.0-0.19","3","3","4","4","3","3","3","3","3","3","4","3","4","3","4","4","4","3","4","4","4","5","3","3","4","4","4","3","4","1","0","1","1","0","0","1","1","1","1","1","0","1","0","1","4","3","4","2","3","1","3","4","4","2","2","781518061500108802","郭","148","","","","nonmatch","","","","","","","","","","","","","","key","j","16.673404255319024","640","356","j","true","nonmatch","img/triangle.png","梯形","三角","ALT1","formal_ALT1_2","","","","","","","","","","","",""
"null","<span style='color:GreenYellow; font-size: 70px;'>正确! </span>","null","html-keyboard-response","146","299670","0.0-7.0-1.0-4.0-0.0-1.19","3","3","4","4","3","3","3","3","3","3","4","3","4","3","4","4","4","3","4","4","4","5","3","3","4","4","4","3","4","1","0","1","1","0","0","1","1","1","1","1","0","1","0","1","4","3","4","2","3","1","3","4","4","2","2","781518061500108802","郭","148","","","","","","","","","","","","","","","","","","","","","","","","","","","","","","feedback_test","","","","","","","","","","","",""
"844","","j","psychophysics","147","301518","0.0-7.0-1.0-4.0-0.0-0.20","3","3","4","4","3","3","3","3","3","3","4","3","4","3","4","4","4","3","4","4","4","5","3","3","4","4","4","3","4","1","0","1","1","0","0","1","1","1","1","1","0","1","0","1","4","3","4","2","3","1","3","4","4","2","2","781518061500108802","郭","148","","","","nonmatch","","","","","","","","","","","","","","key","j","16.670000000000105","640","356","j","true","nonmatch","img/hexagon.png","梯形","六边","ALT1","formal_ALT1_2","","","","","","","","","","","",""
"null","<span style='color:GreenYellow; font-size: 70px;'>正确! </span>","null","html-keyboard-response","148","302020","0.0-7.0-1.0-4.0-0.0-1.20","3","3","4","4","3","3","3","3","3","3","4","3","4","3","4","4","4","3","4","4","4","5","3","3","4","4","4","3","4","1","0","1","1","0","0","1","1","1","1","1","0","1","0","1","4","3","4","2","3","1","3","4","4","2","2","781518061500108802","郭","148","","","","","","","","","","","","","","","","","","","","","","","","","","","","","","feedback_test","","","","","","","","","","","",""
"778","","j","psychophysics","149","303802","0.0-7.0-1.0-4.0-0.0-0.21","3","3","4","4","3","3","3","3","3","3","4","3","4","3","4","4","4","3","4","4","4","5","3","3","4","4","4","3","4","1","0","1","1","0","0","1","1","1","1","1","0","1","0","1","4","3","4","2","3","1","3","4","4","2","2","781518061500108802","郭","148","","","","nonmatch","","","","","","","","","","","","","","key","j","16.669811320754718","640","356","j","true","nonmatch","img/hexagon.png","椭圆","六边","ALT1","formal_ALT1_2","","","","","","","","","","","",""
"null","<span style='color:GreenYellow; font-size: 70px;'>正确! </span>","null","html-keyboard-response","150","304304","0.0-7.0-1.0-4.0-0.0-1.21","3","3","4","4","3","3","3","3","3","3","4","3","4","3","4","4","4","3","4","4","4","5","3","3","4","4","4","3","4","1","0","1","1","0","0","1","1","1","1","1","0","1","0","1","4","3","4","2","3","1","3","4","4","2","2","781518061500108802","郭","148","","","","","","","","","","","","","","","","","","","","","","","","","","","","","","feedback_test","","","","","","","","","","","",""
"712","","j","psychophysics","151","306019","0.0-7.0-1.0-4.0-0.0-0.22","3","3","4","4","3","3","3","3","3","3","4","3","4","3","4","4","4","3","4","4","4","5","3","3","4","4","4","3","4","1","0","1","1","0","0","1","1","1","1","1","0","1","0","1","4","3","4","2","3","1","3","4","4","2","2","781518061500108802","郭","148","","","","nonmatch","","","","","","","","","","","","","","key","j","16.66960784313714","640","356","j","true","nonmatch","img/trapezoid.png","椭圆","梯形","ALT1","formal_ALT1_2","","","","","","","","","","","",""
"null","<span style='color:GreenYellow; font-size: 70px;'>正确! </span>","null","html-keyboard-response","152","306521","0.0-7.0-1.0-4.0-0.0-1.22","3","3","4","4","3","3","3","3","3","3","4","3","4","3","4","4","4","3","4","4","4","5","3","3","4","4","4","3","4","1","0","1","1","0","0","1","1","1","1","1","0","1","0","1","4","3","4","2","3","1","3","4","4","2","2","781518061500108802","郭","148","","","","","","","","","","","","","","","","","","","","","","","","","","","","","","feedback_test","","","","","","","","","","","",""
"592","","j","psychophysics","153","308116","0.0-7.0-1.0-4.0-0.0-0.23","3","3","4","4","3","3","3","3","3","3","4","3","4","3","4","4","4","3","4","4","4","5","3","3","4","4","4","3","4","1","0","1","1","0","0","1","1","1","1","1","0","1","0","1","4","3","4","2","3","1","3","4","4","2","2","781518061500108802","郭","148","","","","nonmatch","","","","","","","","","","","","","","key","j","16.667368421052878","640","356","j","true","nonmatch","img/trapezoid.png","三角","梯形","ALT1","formal_ALT1_2","","","","","","","","","","","",""
"null","<span style='color:GreenYellow; font-size: 70px;'>正确! </span>","null","html-keyboard-response","154","308620","0.0-7.0-1.0-4.0-0.0-1.23","3","3","4","4","3","3","3","3","3","3","4","3","4","3","4","4","4","3","4","4","4","5","3","3","4","4","4","3","4","1","0","1","1","0","0","1","1","1","1","1","0","1","0","1","4","3","4","2","3","1","3","4","4","2","2","781518061500108802","郭","148","","","","","","","","","","","","","","","","","","","","","","","","","","","","","","feedback_test","","","","","","","","","","","",""
"698","","j","psychophysics","155","310323","0.0-7.0-1.0-4.0-0.0-0.24","3","3","4","4","3","3","3","3","3","3","4","3","4","3","4","4","4","3","4","4","4","5","3","3","4","4","4","3","4","1","0","1","1","0","0","1","1","1","1","1","0","1","0","1","4","3","4","2","3","1","3","4","4","2","2","781518061500108802","郭","148","","","","nonmatch","","","","","","","","","","","","","","key","j","16.672277227723004","640","356","j","true","nonmatch","img/hexagon.png","梯形","六边","ALT1","formal_ALT1_2","","","","","","","","","","","",""
"null","<span style='color:GreenYellow; font-size: 70px;'>正确! </span>","null","html-keyboard-response","156","310824","0.0-7.0-1.0-4.0-0.0-1.24","3","3","4","4","3","3","3","3","3","3","4","3","4","3","4","4","4","3","4","4","4","5","3","3","4","4","4","3","4","1","0","1","1","0","0","1","1","1","1","1","0","1","0","1","4","3","4","2","3","1","3","4","4","2","2","781518061500108802","郭","148","","","","","","","","","","","","","","","","","","","","","","","","","","","","","","feedback_test","","","","","","","","","","","",""
"675","","f","psychophysics","157","312502","0.0-7.0-1.0-4.0-0.0-0.25","3","3","4","4","3","3","3","3","3","3","4","3","4","3","4","4","4","3","4","4","4","5","3","3","4","4","4","3","4","1","0","1","1","0","0","1","1","1","1","1","0","1","0","1","4","3","4","2","3","1","3","4","4","2","2","781518061500108802","郭","148","","","","match","","","","","","","","","","","","","","key","f","16.667999999999882","640","356","j","false","nonmatch","img/trapezoid.png","六边","梯形","ALT1","formal_ALT1_2","","","","","","","","","","","",""
"null","<span style='color:red; font-size: 70px;'>错误! </span>","null","html-keyboard-response","158","313005","0.0-7.0-1.0-4.0-0.0-1.25","3","3","4","4","3","3","3","3","3","3","4","3","4","3","4","4","4","3","4","4","4","5","3","3","4","4","4","3","4","1","0","1","1","0","0","1","1","1","1","1","0","1","0","1","4","3","4","2","3","1","3","4","4","2","2","781518061500108802","郭","148","","","","","","","","","","","","","","","","","","","","","","","","","","","","","","feedback_test","","","","","","","","","","","",""
"550","","f","psychophysics","159","314559","0.0-7.0-1.0-4.0-0.0-0.26","3","3","4","4","3","3","3","3","3","3","4","3","4","3","4","4","4","3","4","4","4","5","3","3","4","4","4","3","4","1","0","1","1","0","0","1","1","1","1","1","0","1","0","1","4","3","4","2","3","1","3","4","4","2","2","781518061500108802","郭","148","","","","match","","","","","","","","","","","","","","key","f","16.67065217391317","640","356","f","true","match","img/ellipse.png","椭圆","椭圆","ALT1","formal_ALT1_2","","","","","","","","","","","",""
"null","<span style='color:GreenYellow; font-size: 70px;'>正确! </span>","null","html-keyboard-response","160","315061","0.0-7.0-1.0-4.0-0.0-1.26","3","3","4","4","3","3","3","3","3","3","4","3","4","3","4","4","4","3","4","4","4","5","3","3","4","4","4","3","4","1","0","1","1","0","0","1","1","1","1","1","0","1","0","1","4","3","4","2","3","1","3","4","4","2","2","781518061500108802","郭","148","","","","","","","","","","","","","","","","","","","","","","","","","","","","","","feedback_test","","","","","","","","","","","",""
"790","","f","psychophysics","161","316854","0.0-7.0-1.0-4.0-0.0-0.27","3","3","4","4","3","3","3","3","3","3","4","3","4","3","4","4","4","3","4","4","4","5","3","3","4","4","4","3","4","1","0","1","1","0","0","1","1","1","1","1","0","1","0","1","4","3","4","2","3","1","3","4","4","2","2","781518061500108802","郭","148","","","","match","","","","","","","","","","","","","","key","f","16.670754716980912","640","356","f","true","match","img/trapezoid.png","梯形","梯形","ALT1","formal_ALT1_2","","","","","","","","","","","",""
"null","<span style='color:GreenYellow; font-size: 70px;'>正确! </span>","null","html-keyboard-response","162","317357","0.0-7.0-1.0-4.0-0.0-1.27","3","3","4","4","3","3","3","3","3","3","4","3","4","3","4","4","4","3","4","4","4","5","3","3","4","4","4","3","4","1","0","1","1","0","0","1","1","1","1","1","0","1","0","1","4","3","4","2","3","1","3","4","4","2","2","781518061500108802","郭","148","","","","","","","","","","","","","","","","","","","","","","","","","","","","","","feedback_test","","","","","","","","","","","",""
"562","","f","psychophysics","163","318922","0.0-7.0-1.0-4.0-0.0-0.28","3","3","4","4","3","3","3","3","3","3","4","3","4","3","4","4","4","3","4","4","4","5","3","3","4","4","4","3","4","1","0","1","1","0","0","1","1","1","1","1","0","1","0","1","4","3","4","2","3","1","3","4","4","2","2","781518061500108802","郭","148","","","","match","","","","","","","","","","","","","","key","f","16.666666666666668","640","356","f","true","match","img/triangle.png","三角","三角","ALT1","formal_ALT1_2","","","","","","","","","","","",""
"null","<span style='color:GreenYellow; font-size: 70px;'>正确! </span>","null","html-keyboard-response","164","319426","0.0-7.0-1.0-4.0-0.0-1.28","3","3","4","4","3","3","3","3","3","3","4","3","4","3","4","4","4","3","4","4","4","5","3","3","4","4","4","3","4","1","0","1","1","0","0","1","1","1","1","1","0","1","0","1","4","3","4","2","3","1","3","4","4","2","2","781518061500108802","郭","148","","","","","","","","","","","","","","","","","","","","","","","","","","","","","","feedback_test","","","","","","","","","","","",""
"571","","f","psychophysics","165","320999","0.0-7.0-1.0-4.0-0.0-0.29","3","3","4","4","3","3","3","3","3","3","4","3","4","3","4","4","4","3","4","4","4","5","3","3","4","4","4","3","4","1","0","1","1","0","0","1","1","1","1","1","0","1","0","1","4","3","4","2","3","1","3","4","4","2","2","781518061500108802","郭","148","","","","match","","","","","","","","","","","","","","key","f","16.666666666666668","640","356","f","true","match","img/ellipse.png","椭圆","椭圆","ALT1","formal_ALT1_2","","","","","","","","","","","",""
"null","<span style='color:GreenYellow; font-size: 70px;'>正确! </span>","null","html-keyboard-response","166","321503","0.0-7.0-1.0-4.0-0.0-1.29","3","3","4","4","3","3","3","3","3","3","4","3","4","3","4","4","4","3","4","4","4","5","3","3","4","4","4","3","4","1","0","1","1","0","0","1","1","1","1","1","0","1","0","1","4","3","4","2","3","1","3","4","4","2","2","781518061500108802","郭","148","","","","","","","","","","","","","","","","","","","","","","","","","","","","","","feedback_test","","","","","","","","","","","",""
"667","","f","psychophysics","167","323173","0.0-7.0-1.0-4.0-0.0-0.30","3","3","4","4","3","3","3","3","3","3","4","3","4","3","4","4","4","3","4","4","4","5","3","3","4","4","4","3","4","1","0","1","1","0","0","1","1","1","1","1","0","1","0","1","4","3","4","2","3","1","3","4","4","2","2","781518061500108802","郭","148","","","","match","","","","","","","","","","","","","","key","f","16.667676767676532","640","356","f","true","match","img/trapezoid.png","梯形","梯形","ALT1","formal_ALT1_2","","","","","","","","","","","",""
"null","<span style='color:GreenYellow; font-size: 70px;'>正确! </span>","null","html-keyboard-response","168","323675","0.0-7.0-1.0-4.0-0.0-1.30","3","3","4","4","3","3","3","3","3","3","4","3","4","3","4","4","4","3","4","4","4","5","3","3","4","4","4","3","4","1","0","1","1","0","0","1","1","1","1","1","0","1","0","1","4","3","4","2","3","1","3","4","4","2","2","781518061500108802","郭","148","","","","","","","","","","","","","","","","","","","","","","","","","","","","","","feedback_test","","","","","","","","","","","",""
"585","","j","psychophysics","169","325263","0.0-7.0-1.0-4.0-0.0-0.31","3","3","4","4","3","3","3","3","3","3","4","3","4","3","4","4","4","3","4","4","4","5","3","3","4","4","4","3","4","1","0","1","1","0","0","1","1","1","1","1","0","1","0","1","4","3","4","2","3","1","3","4","4","2","2","781518061500108802","郭","148","","","","nonmatch","","","","","","","","","","","","","","key","j","16.66526315789425","640","356","j","true","nonmatch","img/triangle.png","椭圆","三角","ALT1","formal_ALT1_2","","","","","","","","","","","",""
"null","<span style='color:GreenYellow; font-size: 70px;'>正确! </span>","null","html-keyboard-response","170","325765","0.0-7.0-1.0-4.0-0.0-1.31","3","3","4","4","3","3","3","3","3","3","4","3","4","3","4","4","4","3","4","4","4","5","3","3","4","4","4","3","4","1","0","1","1","0","0","1","1","1","1","1","0","1","0","1","4","3","4","2","3","1","3","4","4","2","2","781518061500108802","郭","148","","","","","","","","","","","","","","","","","","","","","","","","","","","","","","feedback_test","","","","","","","","","","","",""
"574","","j","psychophysics","171","327342","0.0-7.0-1.0-4.0-0.0-0.32","3","3","4","4","3","3","3","3","3","3","4","3","4","3","4","4","4","3","4","4","4","5","3","3","4","4","4","3","4","1","0","1","1","0","0","1","1","1","1","1","0","1","0","1","4","3","4","2","3","1","3","4","4","2","2","781518061500108802","郭","148","","","","nonmatch","","","","","","","","","","","","","","key","j","16.668817204300574","640","356","j","true","nonmatch","img/triangle.png","六边","三角","ALT1","formal_ALT1_2","","","","","","","","","","","",""
"null","<span style='color:GreenYellow; font-size: 70px;'>正确! </span>","null","html-keyboard-response","172","327845","0.0-7.0-1.0-4.0-0.0-1.32","3","3","4","4","3","3","3","3","3","3","4","3","4","3","4","4","4","3","4","4","4","5","3","3","4","4","4","3","4","1","0","1","1","0","0","1","1","1","1","1","0","1","0","1","4","3","4","2","3","1","3","4","4","2","2","781518061500108802","郭","148","","","","","","","","","","","","","","","","","","","","","","","","","","","","","","feedback_test","","","","","","","","","","","",""
"691","","j","psychophysics","173","329538","0.0-7.0-1.0-4.0-0.0-0.33","3","3","4","4","3","3","3","3","3","3","4","3","4","3","4","4","4","3","4","4","4","5","3","3","4","4","4","3","4","1","0","1","1","0","0","1","1","1","1","1","0","1","0","1","4","3","4","2","3","1","3","4","4","2","2","781518061500108802","郭","148","","","","nonmatch","","","","","","","","","","","","","","key","j","16.665","640","356","j","true","nonmatch","img/hexagon.png","三角","六边","ALT1","formal_ALT1_2","","","","","","","","","","","",""
"null","<span style='color:GreenYellow; font-size: 70px;'>正确! </span>","null","html-keyboard-response","174","330040","0.0-7.0-1.0-4.0-0.0-1.33","3","3","4","4","3","3","3","3","3","3","4","3","4","3","4","4","4","3","4","4","4","5","3","3","4","4","4","3","4","1","0","1","1","0","0","1","1","1","1","1","0","1","0","1","4","3","4","2","3","1","3","4","4","2","2","781518061500108802","郭","148","","","","","","","","","","","","","","","","","","","","","","","","","","","","","","feedback_test","","","","","","","","","","","",""
"638","","j","psychophysics","175","331682","0.0-7.0-1.0-4.0-0.0-0.34","3","3","4","4","3","3","3","3","3","3","4","3","4","3","4","4","4","3","4","4","4","5","3","3","4","4","4","3","4","1","0","1","1","0","0","1","1","1","1","1","0","1","0","1","4","3","4","2","3","1","3","4","4","2","2","781518061500108802","郭","148","","","","nonmatch","","","","","","","","","","","","","","key","j","16.664285714285477","640","356","j","true","nonmatch","img/triangle.png","梯形","三角","ALT1","formal_ALT1_2","","","","","","","","","","","",""
"null","<span style='color:GreenYellow; font-size: 70px;'>正确! </span>","null","html-keyboard-response","176","332185","0.0-7.0-1.0-4.0-0.0-1.34","3","3","4","4","3","3","3","3","3","3","4","3","4","3","4","4","4","3","4","4","4","5","3","3","4","4","4","3","4","1","0","1","1","0","0","1","1","1","1","1","0","1","0","1","4","3","4","2","3","1","3","4","4","2","2","781518061500108802","郭","148","","","","","","","","","","","","","","","","","","","","","","","","","","","","","","feedback_test","","","","","","","","","","","",""
"536","","f","psychophysics","177","333725","0.0-7.0-1.0-4.0-0.0-0.35","3","3","4","4","3","3","3","3","3","3","4","3","4","3","4","4","4","3","4","4","4","5","3","3","4","4","4","3","4","1","0","1","1","0","0","1","1","1","1","1","0","1","0","1","4","3","4","2","3","1","3","4","4","2","2","781518061500108802","郭","148","","","","match","","","","","","","","","","","","","","key","f","16.67032967032967","640","356","f","true","match","img/triangle.png","三角","三角","ALT1","formal_ALT1_2","","","","","","","","","","","",""
"null","<span style='color:GreenYellow; font-size: 70px;'>正确! </span>","null","html-keyboard-response","178","334226","0.0-7.0-1.0-4.0-0.0-1.35","3","3","4","4","3","3","3","3","3","3","4","3","4","3","4","4","4","3","4","4","4","5","3","3","4","4","4","3","4","1","0","1","1","0","0","1","1","1","1","1","0","1","0","1","4","3","4","2","3","1","3","4","4","2","2","781518061500108802","郭","148","","","","","","","","","","","","","","","","","","","","","","","","","","","","","","feedback_test","","","","","","","","","","","",""
"603","","f","psychophysics","179","335831","0.0-7.0-1.0-4.0-0.0-0.36","3","3","4","4","3","3","3","3","3","3","4","3","4","3","4","4","4","3","4","4","4","5","3","3","4","4","4","3","4","1","0","1","1","0","0","1","1","1","1","1","0","1","0","1","4","3","4","2","3","1","3","4","4","2","2","781518061500108802","郭","148","","","","match","","","","","","","","","","","","","","key","f","16.66842105263158","640","356","f","true","match","img/ellipse.png","椭圆","椭圆","ALT1","formal_ALT1_2","","","","","","","","","","","",""
"null","<span style='color:GreenYellow; font-size: 70px;'>正确! </span>","null","html-keyboard-response","180","336332","0.0-7.0-1.0-4.0-0.0-1.36","3","3","4","4","3","3","3","3","3","3","4","3","4","3","4","4","4","3","4","4","4","5","3","3","4","4","4","3","4","1","0","1","1","0","0","1","1","1","1","1","0","1","0","1","4","3","4","2","3","1","3","4","4","2","2","781518061500108802","郭","148","","","","","","","","","","","","","","","","","","","","","","","","","","","","","","feedback_test","","","","","","","","","","","",""
"616","","f","psychophysics","181","337951","0.0-7.0-1.0-4.0-0.0-0.37","3","3","4","4","3","3","3","3","3","3","4","3","4","3","4","4","4","3","4","4","4","5","3","3","4","4","4","3","4","1","0","1","1","0","0","1","1","1","1","1","0","1","0","1","4","3","4","2","3","1","3","4","4","2","2","781518061500108802","郭","148","","","","match","","","","","","","","","","","","","","key","f","16.669791666666544","640","356","f","true","match","img/hexagon.png","六边","六边","ALT1","formal_ALT1_2","","","","","","","","","","","",""
