"rt","stimulus","response","trial_type","trial_index","time_elapsed","internal_node_id","ses_1","ses_2","ses_3","ses_4","ses_5","ses_6","ses_7","ses_8","ses_9","ses_10","coreself_1","coreself_2","coreself_3","coreself_4","coreself_5","coreself_6","coreself_7","coreself_8","coreself_9","coreself_10","SGPS_1","SGPS_2","SGPS_3","SGPS_4","SGPS_5","SGPS_6","SGPS_7","SGPS_8","SGPS_9","NPI1","NPI2","NPI3","NPI4","NPI5","NPI6","NPI7","NPI8","NPI9","NPI10","NPI11","NPI12","NPI13","NPI14","NPI15","hsns_1","hsns_2","hsns_3","hsns_4","hsns_5","trap1","hsns_6","hsns_7","hsns_8","hsns_9","hsns_10","subj_idx","friend_name","ParticipantID","value","success","user_agent","responses","item_order","radio_event_ids","radio_event_times","key_event_times","mouse_event_times","straightlining","zigzagging","honeypot","timeout","failed_images","failed_audio","failed_video","view_history","response_type","key_press","avg_frame_time","center_x","center_y","correct_response","correct","identity","Image","word","condition","task_id","screen_id","time_stamp","version_attrib","version_target","IAT","RT","varname","summary","version_attrib2","version_target2","question_order","correct_answer","trap1_item"
"2685","
   <p><div style = ""color: white;font-size:25px;"">您好，欢迎参加本次实验。</div> </p>
   <p><div style = ""color: white;font-size:25px;"">为充分保障您的权利，请确保您已经知晓并同意《参与实验同意书》以及《数据公开知情同意书》。</div></p>
   <p><div style = ""color: white;font-size:25px;"">如果您未见过上述内容，请咨询实验员。</div></p>
   <p><div style = ""color: white;font-size:25px;"">如果您选择继续实验，则表示您已经清楚两份知情同意书的内容并同意。</div></p>
   <p><div style = ""color: pink;font-size:30px;"">请确保您记得day0的实验编号，您将在本次实验输入该编号，若您忘记，请咨询实验员后作答。</div></p>
   <p><div style = ""color: lightblue;font-size:25px;"">请您尽可能认真地作答，我们将依据您在各问卷和按键任务中的作答质量发放报酬。</div></p>
   <p> <div style = ""color: green;font-size:25px;""><按空格键至下页></div> </p>
   "," ","html-keyboard-response","0","2688","0.0-0.0","3","3","3","3","3","3","3","3","3","4","3","4","4","3","2","3","3","3","4","4","4","4","3","2","4","4","3","2","2","1","0","1","1","0","0","1","1","0","1","1","0","1","0","1","3","2","2","2","4","1","2","2","3","2","1","745755632388542465","吴","171","","","","","","","","","","","","","","","","","","","","","","","","","","","","","","","","","","","","","","","","","",""
"","","","call-function","1","2690","0.0-1.0-0.0","3","3","3","3","3","3","3","3","3","4","3","4","4","3","2","3","3","3","4","4","4","4","3","2","4","4","3","2","2","1","0","1","1","0","0","1","1","0","1","1","0","1","0","1","3","2","2","2","4","1","2","2","3","2","1","745755632388542465","吴","171","","","","","","","","","","","","","","","","","","","","","","","","","","","","","","","","","","","","","","","","","",""
"11069","","{""friend_name"":""吴"",""ParticipantID"":""171""}","survey-html-form","2","13761","0.0-1.0-1.0","3","3","3","3","3","3","3","3","3","4","3","4","4","3","2","3","3","3","4","4","4","4","3","2","4","4","3","2","2","1","0","1","1","0","0","1","1","0","1","1","0","1","0","1","3","2","2","2","4","1","2","2","3","2","1","745755632388542465","吴","171","","","","","","","","","","","","","","","","","","","","","","","","","","","","","","","","","","","","","","","","","",""
"","","","fullscreen","3","21737","0.0-2.0","3","3","3","3","3","3","3","3","3","4","3","4","4","3","2","3","3","3","4","4","4","4","3","2","4","4","3","2","2","1","0","1","1","0","0","1","1","0","1","1","0","1","0","1","3","2","2","2","4","1","2","2","3","2","1","745755632388542465","吴","171","","true","{}","","","","","","","","","","","","","","","","","","","","","","","","","","","","","","","","","","","","","","",""
"30025.20000000298","","{""Q01"":""3"",""Q02"":""3"",""Q03"":""3"",""Q04"":""3"",""Q05"":""3"",""Q06"":""3"",""Q07"":""3"",""Q08"":""3"",""Q09"":""3"",""Q10"":""4""}","survey-template","4","51765","0.0-3.0","3","3","3","3","3","3","3","3","3","4","3","4","4","3","2","3","3","3","4","4","4","4","3","2","4","4","3","2","2","1","0","1","1","0","0","1","1","0","1","1","0","1","0","1","3","2","2","2","4","1","2","2","3","2","1","745755632388542465","吴","171","","","","{""Q01"":""3"",""Q02"":""3"",""Q03"":""3"",""Q04"":""3"",""Q05"":""3"",""Q06"":""3"",""Q07"":""3"",""Q08"":""3"",""Q09"":""3"",""Q10"":""4""}","[0,1,2,3,4,5,6,7,8,9]","[""Q01"",""Q01"",""Q02"",""Q02"",""Q02"",""Q03"",""Q04"",""Q05"",""Q06"",""Q07"",""Q08"",""Q09"",""Q10""]","[7770.70000000298,12722.79999999702,14551.59999999404,15600.29999999702,17401.70000000298,19125.5,21586.29999999702,23243.29999999702,24217.70000000298,25425.59999999404,27143.39999999106,27960.89999999106,29249.59999999404]","[]","[7770.70000000298,12722.79999999702,14551.59999999404,15600.29999999702,17401.70000000298,18272,19125.5,21586.29999999702,23243.29999999702,24217.70000000298,25425.59999999404,27143.39999999106,27960.89999999106,29249.59999999404,30023.20000000298]","0.5","0.6666666666666666","0","","","","","","","","","","","","","","","","","","","","","","","","","","","","","",""
"27809.5","","{""Q01"":""3"",""Q02"":""4"",""Q03"":""4"",""Q04"":""3"",""Q05"":""2"",""Q06"":""3"",""Q07"":""3"",""Q08"":""3"",""Q09"":""4"",""Q10"":""4""}","survey-template","5","79584","0.0-4.0","3","3","3","3","3","3","3","3","3","4","3","4","4","3","2","3","3","3","4","4","4","4","3","2","4","4","3","2","2","1","0","1","1","0","0","1","1","0","1","1","0","1","0","1","3","2","2","2","4","1","2","2","3","2","1","745755632388542465","吴","171","","","","{""Q01"":""3"",""Q02"":""4"",""Q03"":""4"",""Q04"":""3"",""Q05"":""2"",""Q06"":""3"",""Q07"":""3"",""Q08"":""3"",""Q09"":""4"",""Q10"":""4""}","[0,1,2,3,4,5,6,7,8,9]","[""Q01"",""Q02"",""Q03"",""Q04"",""Q05"",""Q06"",""Q07"",""Q08"",""Q09"",""Q10""]","[4848.800000011921,6334.9000000059605,10610.60000000894,13330.800000011921,17276.5,18927.70000000298,20613.20000000298,23053.30000001192,26104,27079.90000000596]","[]","[4848.800000011921,6334.9000000059605,10610.60000000894,13330.800000011921,17276.5,18927.70000000298,20613.20000000298,23053.30000001192,24605.40000000596,26104,27079.90000000596,27807.5]","0.5","0.5555555555555556","0","","","","","","","","","","","","","","","","","","","","","","","","","","","","","",""
"","","","preload","6","79969","0.0-5.0","3","3","3","3","3","3","3","3","3","4","3","4","4","3","2","3","3","3","4","4","4","4","3","2","4","4","3","2","2","1","0","1","1","0","0","1","1","0","1","1","0","1","0","1","3","2","2","2","4","1","2","2","3","2","1","745755632388542465","吴","171","","true","","","","","","","","","","","false","[]","[]","[]","","","","","","","","","","","","","","","","","","","","","","","","","",""
"17237","","","instructions","7","97207","0.0-6.0","3","3","3","3","3","3","3","3","3","4","3","4","4","3","2","3","3","3","4","4","4","4","3","2","4","4","3","2","2","1","0","1","1","0","0","1","1","0","1","1","0","1","0","1","3","2","2","2","4","1","2","2","3","2","1","745755632388542465","吴","171","","","","","","","","","","","","","","","","","[{""page_index"":0,""viewing_time"":17236}]","","","","","","","","","","","","","","","","","","","","","","","","",""
"30655","","","instructions","8","127864","0.0-7.0-0.0-0.0","3","3","3","3","3","3","3","3","3","4","3","4","4","3","2","3","3","3","4","4","4","4","3","2","4","4","3","2","2","1","0","1","1","0","0","1","1","0","1","1","0","1","0","1","3","2","2","2","4","1","2","2","3","2","1","745755632388542465","吴","171","","","","","","","","","","","","","","","","","[{""page_index"":0,""viewing_time"":18418},{""page_index"":1,""viewing_time"":10673},{""page_index"":2,""viewing_time"":1564}]","","","","","","","","","","","","","","","","","","","","","","","","",""
"null","","null","psychophysics","9","130073","0.0-7.0-0.0-1.0-0.0-0.0","3","3","3","3","3","3","3","3","3","4","3","4","4","3","2","3","3","3","4","4","4","4","3","2","4","4","3","2","2","1","0","1","1","0","0","1","1","0","1","1","0","1","0","1","3","2","2","2","4","1","2","2","3","2","1","745755632388542465","吴","171","","","","null","","","","","","","","","","","","","","key","null","16.66717557251904","735","456","f","false","nonmatch","img/hexagon.png","椭圆","六边","ALT1_1","prac_ALT1_1","","","","","","","","","","","",""
"null","<span class='add_' style='color:yellow; font-size: 70px;'> 太慢! </span>","null","html-keyboard-response","10","130576","0.0-7.0-0.0-1.0-0.0-1.0","3","3","3","3","3","3","3","3","3","4","3","4","4","3","2","3","3","3","4","4","4","4","3","2","4","4","3","2","2","1","0","1","1","0","0","1","1","0","1","1","0","1","0","1","3","2","2","2","4","1","2","2","3","2","1","745755632388542465","吴","171","","","","","","","","","","","","","","","","","","","","","","","","","","","","","","feedback_test","","","","","","","","","","","",""
"933","","f","psychophysics","11","132513","0.0-7.0-0.0-1.0-0.0-0.1","3","3","3","3","3","3","3","3","3","4","3","4","4","3","2","3","3","3","4","4","4","4","3","2","4","4","3","2","2","1","0","1","1","0","0","1","1","0","1","1","0","1","0","1","3","2","2","2","4","1","2","2","3","2","1","745755632388542465","吴","171","","","","nonmatch","","","","","","","","","","","","","","key","f","16.66608695652179","735","456","f","true","nonmatch","img/triangle.png","菱形","三角","ALT1_1","prac_ALT1_1","","","","","","","","","","","",""
"null","<span style='color:GreenYellow; font-size: 70px;'>正确! </span>","null","html-keyboard-response","12","133015","0.0-7.0-0.0-1.0-0.0-1.1","3","3","3","3","3","3","3","3","3","4","3","4","4","3","2","3","3","3","4","4","4","4","3","2","4","4","3","2","2","1","0","1","1","0","0","1","1","0","1","1","0","1","0","1","3","2","2","2","4","1","2","2","3","2","1","745755632388542465","吴","171","","","","","","","","","","","","","","","","","","","","","","","","","","","","","","feedback_test","","","","","","","","","","","",""
"831","","j","psychophysics","13","134848","0.0-7.0-0.0-1.0-0.0-0.2","3","3","3","3","3","3","3","3","3","4","3","4","4","3","2","3","3","3","4","4","4","4","3","2","4","4","3","2","2","1","0","1","1","0","0","1","1","0","1","1","0","1","0","1","3","2","2","2","4","1","2","2","3","2","1","745755632388542465","吴","171","","","","match","","","","","","","","","","","","","","key","j","16.665740740740958","735","456","j","true","match","img/hexagon.png","六边","六边","ALT1_1","prac_ALT1_1","","","","","","","","","","","",""
"null","<span style='color:GreenYellow; font-size: 70px;'>正确! </span>","null","html-keyboard-response","14","135351","0.0-7.0-0.0-1.0-0.0-1.2","3","3","3","3","3","3","3","3","3","4","3","4","4","3","2","3","3","3","4","4","4","4","3","2","4","4","3","2","2","1","0","1","1","0","0","1","1","0","1","1","0","1","0","1","3","2","2","2","4","1","2","2","3","2","1","745755632388542465","吴","171","","","","","","","","","","","","","","","","","","","","","","","","","","","","","","feedback_test","","","","","","","","","","","",""
"1039","","f","psychophysics","15","137393","0.0-7.0-0.0-1.0-0.0-0.3","3","3","3","3","3","3","3","3","3","4","3","4","4","3","2","3","3","3","4","4","4","4","3","2","4","4","3","2","2","1","0","1","1","0","0","1","1","0","1","1","0","1","0","1","3","2","2","2","4","1","2","2","3","2","1","745755632388542465","吴","171","","","","nonmatch","","","","","","","","","","","","","","key","f","16.668595041322266","735","456","j","false","match","img/diamond.png","菱形","菱形","ALT1_1","prac_ALT1_1","","","","","","","","","","","",""
"null","<span style='color:red; font-size: 70px;'>错误! </span>","null","html-keyboard-response","16","137894","0.0-7.0-0.0-1.0-0.0-1.3","3","3","3","3","3","3","3","3","3","4","3","4","4","3","2","3","3","3","4","4","4","4","3","2","4","4","3","2","2","1","0","1","1","0","0","1","1","0","1","1","0","1","0","1","3","2","2","2","4","1","2","2","3","2","1","745755632388542465","吴","171","","","","","","","","","","","","","","","","","","","","","","","","","","","","","","feedback_test","","","","","","","","","","","",""
"861","","f","psychophysics","17","139758","0.0-7.0-0.0-1.0-0.0-0.4","3","3","3","3","3","3","3","3","3","4","3","4","4","3","2","3","3","3","4","4","4","4","3","2","4","4","3","2","2","1","0","1","1","0","0","1","1","0","1","1","0","1","0","1","3","2","2","2","4","1","2","2","3","2","1","745755632388542465","吴","171","","","","nonmatch","","","","","","","","","","","","","","key","f","16.665765765765713","735","456","f","true","nonmatch","img/ellipse.png","三角","椭圆","ALT1_1","prac_ALT1_1","","","","","","","","","","","",""
"null","<span style='color:GreenYellow; font-size: 70px;'>正确! </span>","null","html-keyboard-response","18","140259","0.0-7.0-0.0-1.0-0.0-1.4","3","3","3","3","3","3","3","3","3","4","3","4","4","3","2","3","3","3","4","4","4","4","3","2","4","4","3","2","2","1","0","1","1","0","0","1","1","0","1","1","0","1","0","1","3","2","2","2","4","1","2","2","3","2","1","745755632388542465","吴","171","","","","","","","","","","","","","","","","","","","","","","","","","","","","","","feedback_test","","","","","","","","","","","",""
"1134","","j","psychophysics","19","142397","0.0-7.0-0.0-1.0-0.0-0.5","3","3","3","3","3","3","3","3","3","4","3","4","4","3","2","3","3","3","4","4","4","4","3","2","4","4","3","2","2","1","0","1","1","0","0","1","1","0","1","1","0","1","0","1","3","2","2","2","4","1","2","2","3","2","1","745755632388542465","吴","171","","","","match","","","","","","","","","","","","","","key","j","16.666141732283283","735","456","j","true","match","img/triangle.png","三角","三角","ALT1_1","prac_ALT1_1","","","","","","","","","","","",""
"null","<span style='color:GreenYellow; font-size: 70px;'>正确! </span>","null","html-keyboard-response","20","142899","0.0-7.0-0.0-1.0-0.0-1.5","3","3","3","3","3","3","3","3","3","4","3","4","4","3","2","3","3","3","4","4","4","4","3","2","4","4","3","2","2","1","0","1","1","0","0","1","1","0","1","1","0","1","0","1","3","2","2","2","4","1","2","2","3","2","1","745755632388542465","吴","171","","","","","","","","","","","","","","","","","","","","","","","","","","","","","","feedback_test","","","","","","","","","","","",""
"784","","f","psychophysics","21","144686","0.0-7.0-0.0-1.0-0.0-0.6","3","3","3","3","3","3","3","3","3","4","3","4","4","3","2","3","3","3","4","4","4","4","3","2","4","4","3","2","2","1","0","1","1","0","0","1","1","0","1","1","0","1","0","1","3","2","2","2","4","1","2","2","3","2","1","745755632388542465","吴","171","","","","nonmatch","","","","","","","","","","","","","","key","f","16.666037735849113","735","456","j","false","match","img/diamond.png","菱形","菱形","ALT1_1","prac_ALT1_1","","","","","","","","","","","",""
"null","<span style='color:red; font-size: 70px;'>错误! </span>","null","html-keyboard-response","22","145188","0.0-7.0-0.0-1.0-0.0-1.6","3","3","3","3","3","3","3","3","3","4","3","4","4","3","2","3","3","3","4","4","4","4","3","2","4","4","3","2","2","1","0","1","1","0","0","1","1","0","1","1","0","1","0","1","3","2","2","2","4","1","2","2","3","2","1","745755632388542465","吴","171","","","","","","","","","","","","","","","","","","","","","","","","","","","","","","feedback_test","","","","","","","","","","","",""
"1099","","f","psychophysics","23","147289","0.0-7.0-0.0-1.0-0.0-0.7","3","3","3","3","3","3","3","3","3","4","3","4","4","3","2","3","3","3","4","4","4","4","3","2","4","4","3","2","2","1","0","1","1","0","0","1","1","0","1","1","0","1","0","1","3","2","2","2","4","1","2","2","3","2","1","745755632388542465","吴","171","","","","nonmatch","","","","","","","","","","","","","","key","f","16.668800000000047","735","456","j","false","match","img/ellipse.png","椭圆","椭圆","ALT1_1","prac_ALT1_1","","","","","","","","","","","",""
"null","<span style='color:red; font-size: 70px;'>错误! </span>","null","html-keyboard-response","24","147790","0.0-7.0-0.0-1.0-0.0-1.7","3","3","3","3","3","3","3","3","3","4","3","4","4","3","2","3","3","3","4","4","4","4","3","2","4","4","3","2","2","1","0","1","1","0","0","1","1","0","1","1","0","1","0","1","3","2","2","2","4","1","2","2","3","2","1","745755632388542465","吴","171","","","","","","","","","","","","","","","","","","","","","","","","","","","","","","feedback_test","","","","","","","","","","","",""
"818","","f","psychophysics","25","149611","0.0-7.0-0.0-1.0-0.0-0.8","3","3","3","3","3","3","3","3","3","4","3","4","4","3","2","3","3","3","4","4","4","4","3","2","4","4","3","2","2","1","0","1","1","0","0","1","1","0","1","1","0","1","0","1","3","2","2","2","4","1","2","2","3","2","1","745755632388542465","吴","171","","","","nonmatch","","","","","","","","","","","","","","key","f","16.666666666666668","735","456","f","true","nonmatch","img/hexagon.png","三角","六边","ALT1_1","prac_ALT1_1","","","","","","","","","","","",""
"null","<span style='color:GreenYellow; font-size: 70px;'>正确! </span>","null","html-keyboard-response","26","150112","0.0-7.0-0.0-1.0-0.0-1.8","3","3","3","3","3","3","3","3","3","4","3","4","4","3","2","3","3","3","4","4","4","4","3","2","4","4","3","2","2","1","0","1","1","0","0","1","1","0","1","1","0","1","0","1","3","2","2","2","4","1","2","2","3","2","1","745755632388542465","吴","171","","","","","","","","","","","","","","","","","","","","","","","","","","","","","","feedback_test","","","","","","","","","","","",""
"808","","j","psychophysics","27","151923","0.0-7.0-0.0-1.0-0.0-0.9","3","3","3","3","3","3","3","3","3","4","3","4","4","3","2","3","3","3","4","4","4","4","3","2","4","4","3","2","2","1","0","1","1","0","0","1","1","0","1","1","0","1","0","1","3","2","2","2","4","1","2","2","3","2","1","745755632388542465","吴","171","","","","match","","","","","","","","","","","","","","key","j","16.666666666666668","735","456","j","true","match","img/ellipse.png","椭圆","椭圆","ALT1_1","prac_ALT1_1","","","","","","","","","","","",""
"null","<span style='color:GreenYellow; font-size: 70px;'>正确! </span>","null","html-keyboard-response","28","152425","0.0-7.0-0.0-1.0-0.0-1.9","3","3","3","3","3","3","3","3","3","4","3","4","4","3","2","3","3","3","4","4","4","4","3","2","4","4","3","2","2","1","0","1","1","0","0","1","1","0","1","1","0","1","0","1","3","2","2","2","4","1","2","2","3","2","1","745755632388542465","吴","171","","","","","","","","","","","","","","","","","","","","","","","","","","","","","","feedback_test","","","","","","","","","","","",""
"1065","","f","psychophysics","29","154493","0.0-7.0-0.0-1.0-0.0-0.10","3","3","3","3","3","3","3","3","3","4","3","4","4","3","2","3","3","3","4","4","4","4","3","2","4","4","3","2","2","1","0","1","1","0","0","1","1","0","1","1","0","1","0","1","3","2","2","2","4","1","2","2","3","2","1","745755632388542465","吴","171","","","","nonmatch","","","","","","","","","","","","","","key","f","16.666666666666668","735","456","f","true","nonmatch","img/diamond.png","三角","菱形","ALT1_1","prac_ALT1_1","","","","","","","","","","","",""
"null","<span style='color:GreenYellow; font-size: 70px;'>正确! </span>","null","html-keyboard-response","30","154996","0.0-7.0-0.0-1.0-0.0-1.10","3","3","3","3","3","3","3","3","3","4","3","4","4","3","2","3","3","3","4","4","4","4","3","2","4","4","3","2","2","1","0","1","1","0","0","1","1","0","1","1","0","1","0","1","3","2","2","2","4","1","2","2","3","2","1","745755632388542465","吴","171","","","","","","","","","","","","","","","","","","","","","","","","","","","","","","feedback_test","","","","","","","","","","","",""
"745","","j","psychophysics","31","156744","0.0-7.0-0.0-1.0-0.0-0.11","3","3","3","3","3","3","3","3","3","4","3","4","4","3","2","3","3","3","4","4","4","4","3","2","4","4","3","2","2","1","0","1","1","0","0","1","1","0","1","1","0","1","0","1","3","2","2","2","4","1","2","2","3","2","1","745755632388542465","吴","171","","","","match","","","","","","","","","","","","","","key","j","16.669230769230825","735","456","f","false","nonmatch","img/hexagon.png","菱形","六边","ALT1_1","prac_ALT1_1","","","","","","","","","","","",""
"null","<span style='color:red; font-size: 70px;'>错误! </span>","null","html-keyboard-response","32","157246","0.0-7.0-0.0-1.0-0.0-1.11","3","3","3","3","3","3","3","3","3","4","3","4","4","3","2","3","3","3","4","4","4","4","3","2","4","4","3","2","2","1","0","1","1","0","0","1","1","0","1","1","0","1","0","1","3","2","2","2","4","1","2","2","3","2","1","745755632388542465","吴","171","","","","","","","","","","","","","","","","","","","","","","","","","","","","","","feedback_test","","","","","","","","","","","",""
"922","","f","psychophysics","33","159171","0.0-7.0-0.0-1.0-0.0-0.12","3","3","3","3","3","3","3","3","3","4","3","4","4","3","2","3","3","3","4","4","4","4","3","2","4","4","3","2","2","1","0","1","1","0","0","1","1","0","1","1","0","1","0","1","3","2","2","2","4","1","2","2","3","2","1","745755632388542465","吴","171","","","","nonmatch","","","","","","","","","","","","","","key","f","16.66695652173923","735","456","f","true","nonmatch","img/diamond.png","椭圆","菱形","ALT1_1","prac_ALT1_1","","","","","","","","","","","",""
"null","<span style='color:GreenYellow; font-size: 70px;'>正确! </span>","null","html-keyboard-response","34","159673","0.0-7.0-0.0-1.0-0.0-1.12","3","3","3","3","3","3","3","3","3","4","3","4","4","3","2","3","3","3","4","4","4","4","3","2","4","4","3","2","2","1","0","1","1","0","0","1","1","0","1","1","0","1","0","1","3","2","2","2","4","1","2","2","3","2","1","745755632388542465","吴","171","","","","","","","","","","","","","","","","","","","","","","","","","","","","","","feedback_test","","","","","","","","","","","",""
"821","","j","psychophysics","35","161496","0.0-7.0-0.0-1.0-0.0-0.13","3","3","3","3","3","3","3","3","3","4","3","4","4","3","2","3","3","3","4","4","4","4","3","2","4","4","3","2","2","1","0","1","1","0","0","1","1","0","1","1","0","1","0","1","3","2","2","2","4","1","2","2","3","2","1","745755632388542465","吴","171","","","","match","","","","","","","","","","","","","","key","j","16.665740740740958","735","456","j","true","match","img/hexagon.png","六边","六边","ALT1_1","prac_ALT1_1","","","","","","","","","","","",""
"null","<span style='color:GreenYellow; font-size: 70px;'>正确! </span>","null","html-keyboard-response","36","161998","0.0-7.0-0.0-1.0-0.0-1.13","3","3","3","3","3","3","3","3","3","4","3","4","4","3","2","3","3","3","4","4","4","4","3","2","4","4","3","2","2","1","0","1","1","0","0","1","1","0","1","1","0","1","0","1","3","2","2","2","4","1","2","2","3","2","1","745755632388542465","吴","171","","","","","","","","","","","","","","","","","","","","","","","","","","","","","","feedback_test","","","","","","","","","","","",""
"839","","f","psychophysics","37","163840","0.0-7.0-0.0-1.0-0.0-0.14","3","3","3","3","3","3","3","3","3","4","3","4","4","3","2","3","3","3","4","4","4","4","3","2","4","4","3","2","2","1","0","1","1","0","0","1","1","0","1","1","0","1","0","1","3","2","2","2","4","1","2","2","3","2","1","745755632388542465","吴","171","","","","nonmatch","","","","","","","","","","","","","","key","f","16.666055045871612","735","456","f","true","nonmatch","img/diamond.png","六边","菱形","ALT1_1","prac_ALT1_1","","","","","","","","","","","",""
"null","<span style='color:GreenYellow; font-size: 70px;'>正确! </span>","null","html-keyboard-response","38","164342","0.0-7.0-0.0-1.0-0.0-1.14","3","3","3","3","3","3","3","3","3","4","3","4","4","3","2","3","3","3","4","4","4","4","3","2","4","4","3","2","2","1","0","1","1","0","0","1","1","0","1","1","0","1","0","1","3","2","2","2","4","1","2","2","3","2","1","745755632388542465","吴","171","","","","","","","","","","","","","","","","","","","","","","","","","","","","","","feedback_test","","","","","","","","","","","",""
"768","","f","psychophysics","39","166112","0.0-7.0-0.0-1.0-0.0-0.15","3","3","3","3","3","3","3","3","3","4","3","4","4","3","2","3","3","3","4","4","4","4","3","2","4","4","3","2","2","1","0","1","1","0","0","1","1","0","1","1","0","1","0","1","3","2","2","2","4","1","2","2","3","2","1","745755632388542465","吴","171","","","","nonmatch","","","","","","","","","","","","","","key","f","16.66857142857154","735","456","f","true","nonmatch","img/triangle.png","椭圆","三角","ALT1_1","prac_ALT1_1","","","","","","","","","","","",""
"null","<span style='color:GreenYellow; font-size: 70px;'>正确! </span>","null","html-keyboard-response","40","166614","0.0-7.0-0.0-1.0-0.0-1.15","3","3","3","3","3","3","3","3","3","4","3","4","4","3","2","3","3","3","4","4","4","4","3","2","4","4","3","2","2","1","0","1","1","0","0","1","1","0","1","1","0","1","0","1","3","2","2","2","4","1","2","2","3","2","1","745755632388542465","吴","171","","","","","","","","","","","","","","","","","","","","","","","","","","","","","","feedback_test","","","","","","","","","","","",""
"905","","f","psychophysics","41","168522","0.0-7.0-0.0-1.0-0.0-0.16","3","3","3","3","3","3","3","3","3","4","3","4","4","3","2","3","3","3","4","4","4","4","3","2","4","4","3","2","2","1","0","1","1","0","0","1","1","0","1","1","0","1","0","1","3","2","2","2","4","1","2","2","3","2","1","745755632388542465","吴","171","","","","nonmatch","","","","","","","","","","","","","","key","f","16.666371681416084","735","456","f","true","nonmatch","img/ellipse.png","六边","椭圆","ALT1_1","prac_ALT1_1","","","","","","","","","","","",""
"null","<span style='color:GreenYellow; font-size: 70px;'>正确! </span>","null","html-keyboard-response","42","169024","0.0-7.0-0.0-1.0-0.0-1.16","3","3","3","3","3","3","3","3","3","4","3","4","4","3","2","3","3","3","4","4","4","4","3","2","4","4","3","2","2","1","0","1","1","0","0","1","1","0","1","1","0","1","0","1","3","2","2","2","4","1","2","2","3","2","1","745755632388542465","吴","171","","","","","","","","","","","","","","","","","","","","","","","","","","","","","","feedback_test","","","","","","","","","","","",""
"797","","j","psychophysics","43","170823","0.0-7.0-0.0-1.0-0.0-0.17","3","3","3","3","3","3","3","3","3","4","3","4","4","3","2","3","3","3","4","4","4","4","3","2","4","4","3","2","2","1","0","1","1","0","0","1","1","0","1","1","0","1","0","1","3","2","2","2","4","1","2","2","3","2","1","745755632388542465","吴","171","","","","match","","","","","","","","","","","","","","key","j","16.666355140186806","735","456","j","true","match","img/hexagon.png","六边","六边","ALT1_1","prac_ALT1_1","","","","","","","","","","","",""
"null","<span style='color:GreenYellow; font-size: 70px;'>正确! </span>","null","html-keyboard-response","44","171325","0.0-7.0-0.0-1.0-0.0-1.17","3","3","3","3","3","3","3","3","3","4","3","4","4","3","2","3","3","3","4","4","4","4","3","2","4","4","3","2","2","1","0","1","1","0","0","1","1","0","1","1","0","1","0","1","3","2","2","2","4","1","2","2","3","2","1","745755632388542465","吴","171","","","","","","","","","","","","","","","","","","","","","","","","","","","","","","feedback_test","","","","","","","","","","","",""
"702","","j","psychophysics","45","173030","0.0-7.0-0.0-1.0-0.0-0.18","3","3","3","3","3","3","3","3","3","4","3","4","4","3","2","3","3","3","4","4","4","4","3","2","4","4","3","2","2","1","0","1","1","0","0","1","1","0","1","1","0","1","0","1","3","2","2","2","4","1","2","2","3","2","1","745755632388542465","吴","171","","","","match","","","","","","","","","","","","","","key","j","16.665346534653292","735","456","j","true","match","img/triangle.png","三角","三角","ALT1_1","prac_ALT1_1","","","","","","","","","","","",""
"null","<span style='color:GreenYellow; font-size: 70px;'>正确! </span>","null","html-keyboard-response","46","173532","0.0-7.0-0.0-1.0-0.0-1.18","3","3","3","3","3","3","3","3","3","4","3","4","4","3","2","3","3","3","4","4","4","4","3","2","4","4","3","2","2","1","0","1","1","0","0","1","1","0","1","1","0","1","0","1","3","2","2","2","4","1","2","2","3","2","1","745755632388542465","吴","171","","","","","","","","","","","","","","","","","","","","","","","","","","","","","","feedback_test","","","","","","","","","","","",""
"772","","j","psychophysics","47","175307","0.0-7.0-0.0-1.0-0.0-0.19","3","3","3","3","3","3","3","3","3","4","3","4","4","3","2","3","3","3","4","4","4","4","3","2","4","4","3","2","2","1","0","1","1","0","0","1","1","0","1","1","0","1","0","1","3","2","2","2","4","1","2","2","3","2","1","745755632388542465","吴","171","","","","match","","","","","","","","","","","","","","key","j","16.666666666666668","735","456","j","true","match","img/ellipse.png","椭圆","椭圆","ALT1_1","prac_ALT1_1","","","","","","","","","","","",""
"null","<span style='color:GreenYellow; font-size: 70px;'>正确! </span>","null","html-keyboard-response","48","175809","0.0-7.0-0.0-1.0-0.0-1.19","3","3","3","3","3","3","3","3","3","4","3","4","4","3","2","3","3","3","4","4","4","4","3","2","4","4","3","2","2","1","0","1","1","0","0","1","1","0","1","1","0","1","0","1","3","2","2","2","4","1","2","2","3","2","1","745755632388542465","吴","171","","","","","","","","","","","","","","","","","","","","","","","","","","","","","","feedback_test","","","","","","","","","","","",""
"796","","f","psychophysics","49","177608","0.0-7.0-0.0-1.0-0.0-0.20","3","3","3","3","3","3","3","3","3","4","3","4","4","3","2","3","3","3","4","4","4","4","3","2","4","4","3","2","2","1","0","1","1","0","0","1","1","0","1","1","0","1","0","1","3","2","2","2","4","1","2","2","3","2","1","745755632388542465","吴","171","","","","nonmatch","","","","","","","","","","","","","","key","f","16.669158878504728","735","456","f","true","nonmatch","img/triangle.png","六边","三角","ALT1_1","prac_ALT1_1","","","","","","","","","","","",""
"null","<span style='color:GreenYellow; font-size: 70px;'>正确! </span>","null","html-keyboard-response","50","178109","0.0-7.0-0.0-1.0-0.0-1.20","3","3","3","3","3","3","3","3","3","4","3","4","4","3","2","3","3","3","4","4","4","4","3","2","4","4","3","2","2","1","0","1","1","0","0","1","1","0","1","1","0","1","0","1","3","2","2","2","4","1","2","2","3","2","1","745755632388542465","吴","171","","","","","","","","","","","","","","","","","","","","","","","","","","","","","","feedback_test","","","","","","","","","","","",""
"862","","j","psychophysics","51","179974","0.0-7.0-0.0-1.0-0.0-0.21","3","3","3","3","3","3","3","3","3","4","3","4","4","3","2","3","3","3","4","4","4","4","3","2","4","4","3","2","2","1","0","1","1","0","0","1","1","0","1","1","0","1","0","1","3","2","2","2","4","1","2","2","3","2","1","745755632388542465","吴","171","","","","match","","","","","","","","","","","","","","key","j","16.666666666666668","735","456","j","true","match","img/diamond.png","菱形","菱形","ALT1_1","prac_ALT1_1","","","","","","","","","","","",""
"null","<span style='color:GreenYellow; font-size: 70px;'>正确! </span>","null","html-keyboard-response","52","180476","0.0-7.0-0.0-1.0-0.0-1.21","3","3","3","3","3","3","3","3","3","4","3","4","4","3","2","3","3","3","4","4","4","4","3","2","4","4","3","2","2","1","0","1","1","0","0","1","1","0","1","1","0","1","0","1","3","2","2","2","4","1","2","2","3","2","1","745755632388542465","吴","171","","","","","","","","","","","","","","","","","","","","","","","","","","","","","","feedback_test","","","","","","","","","","","",""
"1020","","f","psychophysics","53","182499","0.0-7.0-0.0-1.0-0.0-0.22","3","3","3","3","3","3","3","3","3","4","3","4","4","3","2","3","3","3","4","4","4","4","3","2","4","4","3","2","2","1","0","1","1","0","0","1","1","0","1","1","0","1","0","1","3","2","2","2","4","1","2","2","3","2","1","745755632388542465","吴","171","","","","nonmatch","","","","","","","","","","","","","","key","f","16.665833333333286","735","456","f","true","nonmatch","img/ellipse.png","菱形","椭圆","ALT1_1","prac_ALT1_1","","","","","","","","","","","",""
"null","<span style='color:GreenYellow; font-size: 70px;'>正确! </span>","null","html-keyboard-response","54","183001","0.0-7.0-0.0-1.0-0.0-1.22","3","3","3","3","3","3","3","3","3","4","3","4","4","3","2","3","3","3","4","4","4","4","3","2","4","4","3","2","2","1","0","1","1","0","0","1","1","0","1","1","0","1","0","1","3","2","2","2","4","1","2","2","3","2","1","745755632388542465","吴","171","","","","","","","","","","","","","","","","","","","","","","","","","","","","","","feedback_test","","","","","","","","","","","",""
"879","","j","psychophysics","55","184883","0.0-7.0-0.0-1.0-0.0-0.23","3","3","3","3","3","3","3","3","3","4","3","4","4","3","2","3","3","3","4","4","4","4","3","2","4","4","3","2","2","1","0","1","1","0","0","1","1","0","1","1","0","1","0","1","3","2","2","2","4","1","2","2","3","2","1","745755632388542465","吴","171","","","","match","","","","","","","","","","","","","","key","j","16.666666666666668","735","456","j","true","match","img/triangle.png","三角","三角","ALT1_1","prac_ALT1_1","","","","","","","","","","","",""
"null","<span style='color:GreenYellow; font-size: 70px;'>正确! </span>","null","html-keyboard-response","56","185384","0.0-7.0-0.0-1.0-0.0-1.23","3","3","3","3","3","3","3","3","3","4","3","4","4","3","2","3","3","3","4","4","4","4","3","2","4","4","3","2","2","1","0","1","1","0","0","1","1","0","1","1","0","1","0","1","3","2","2","2","4","1","2","2","3","2","1","745755632388542465","吴","171","","","","","","","","","","","","","","","","","","","","","","","","","","","","","","feedback_test","","","","","","","","","","","",""
"809","","f","psychophysics","57","187197","0.0-7.0-0.0-1.0-0.0-0.24","3","3","3","3","3","3","3","3","3","4","3","4","4","3","2","3","3","3","4","4","4","4","3","2","4","4","3","2","2","1","0","1","1","0","0","1","1","0","1","1","0","1","0","1","3","2","2","2","4","1","2","2","3","2","1","745755632388542465","吴","171","","","","nonmatch","","","","","","","","","","","","","","key","f","16.67009345794376","735","456","j","false","match","img/diamond.png","菱形","菱形","ALT1_1","prac_ALT1_1","","","","","","","","","","","",""
"null","<span style='color:red; font-size: 70px;'>错误! </span>","null","html-keyboard-response","58","187699","0.0-7.0-0.0-1.0-0.0-1.24","3","3","3","3","3","3","3","3","3","4","3","4","4","3","2","3","3","3","4","4","4","4","3","2","4","4","3","2","2","1","0","1","1","0","0","1","1","0","1","1","0","1","0","1","3","2","2","2","4","1","2","2","3","2","1","745755632388542465","吴","171","","","","","","","","","","","","","","","","","","","","","","","","","","","","","","feedback_test","","","","","","","","","","","",""
"889","","f","psychophysics","59","189590","0.0-7.0-0.0-1.0-0.0-0.25","3","3","3","3","3","3","3","3","3","4","3","4","4","3","2","3","3","3","4","4","4","4","3","2","4","4","3","2","2","1","0","1","1","0","0","1","1","0","1","1","0","1","0","1","3","2","2","2","4","1","2","2","3","2","1","745755632388542465","吴","171","","","","nonmatch","","","","","","","","","","","","","","key","f","16.66607142857148","735","456","f","true","nonmatch","img/diamond.png","椭圆","菱形","ALT1_1","prac_ALT1_1","","","","","","","","","","","",""
"null","<span style='color:GreenYellow; font-size: 70px;'>正确! </span>","null","html-keyboard-response","60","190092","0.0-7.0-0.0-1.0-0.0-1.25","3","3","3","3","3","3","3","3","3","4","3","4","4","3","2","3","3","3","4","4","4","4","3","2","4","4","3","2","2","1","0","1","1","0","0","1","1","0","1","1","0","1","0","1","3","2","2","2","4","1","2","2","3","2","1","745755632388542465","吴","171","","","","","","","","","","","","","","","","","","","","","","","","","","","","","","feedback_test","","","","","","","","","","","",""
"893","","j","psychophysics","61","191988","0.0-7.0-0.0-1.0-0.0-0.26","3","3","3","3","3","3","3","3","3","4","3","4","4","3","2","3","3","3","4","4","4","4","3","2","4","4","3","2","2","1","0","1","1","0","0","1","1","0","1","1","0","1","0","1","3","2","2","2","4","1","2","2","3","2","1","745755632388542465","吴","171","","","","match","","","","","","","","","","","","","","key","j","16.66548672566382","735","456","f","false","nonmatch","img/ellipse.png","菱形","椭圆","ALT1_1","prac_ALT1_1","","","","","","","","","","","",""
"null","<span style='color:red; font-size: 70px;'>错误! </span>","null","html-keyboard-response","62","192489","0.0-7.0-0.0-1.0-0.0-1.26","3","3","3","3","3","3","3","3","3","4","3","4","4","3","2","3","3","3","4","4","4","4","3","2","4","4","3","2","2","1","0","1","1","0","0","1","1","0","1","1","0","1","0","1","3","2","2","2","4","1","2","2","3","2","1","745755632388542465","吴","171","","","","","","","","","","","","","","","","","","","","","","","","","","","","","","feedback_test","","","","","","","","","","","",""
"923","","j","psychophysics","63","194415","0.0-7.0-0.0-1.0-0.0-0.27","3","3","3","3","3","3","3","3","3","4","3","4","4","3","2","3","3","3","4","4","4","4","3","2","4","4","3","2","2","1","0","1","1","0","0","1","1","0","1","1","0","1","0","1","3","2","2","2","4","1","2","2","3","2","1","745755632388542465","吴","171","","","","match","","","","","","","","","","","","","","key","j","16.666666666666668","735","456","j","true","match","img/hexagon.png","六边","六边","ALT1_1","prac_ALT1_1","","","","","","","","","","","",""
"null","<span style='color:GreenYellow; font-size: 70px;'>正确! </span>","null","html-keyboard-response","64","194918","0.0-7.0-0.0-1.0-0.0-1.27","3","3","3","3","3","3","3","3","3","4","3","4","4","3","2","3","3","3","4","4","4","4","3","2","4","4","3","2","2","1","0","1","1","0","0","1","1","0","1","1","0","1","0","1","3","2","2","2","4","1","2","2","3","2","1","745755632388542465","吴","171","","","","","","","","","","","","","","","","","","","","","","","","","","","","","","feedback_test","","","","","","","","","","","",""
"729","","f","psychophysics","65","196650","0.0-7.0-0.0-1.0-0.0-0.28","3","3","3","3","3","3","3","3","3","4","3","4","4","3","2","3","3","3","4","4","4","4","3","2","4","4","3","2","2","1","0","1","1","0","0","1","1","0","1","1","0","1","0","1","3","2","2","2","4","1","2","2","3","2","1","745755632388542465","吴","171","","","","nonmatch","","","","","","","","","","","","","","key","f","16.669607843137427","735","456","f","true","nonmatch","img/triangle.png","菱形","三角","ALT1_1","prac_ALT1_1","","","","","","","","","","","",""
"null","<span style='color:GreenYellow; font-size: 70px;'>正确! </span>","null","html-keyboard-response","66","197152","0.0-7.0-0.0-1.0-0.0-1.28","3","3","3","3","3","3","3","3","3","4","3","4","4","3","2","3","3","3","4","4","4","4","3","2","4","4","3","2","2","1","0","1","1","0","0","1","1","0","1","1","0","1","0","1","3","2","2","2","4","1","2","2","3","2","1","745755632388542465","吴","171","","","","","","","","","","","","","","","","","","","","","","","","","","","","","","feedback_test","","","","","","","","","","","",""
"769","","f","psychophysics","67","198923","0.0-7.0-0.0-1.0-0.0-0.29","3","3","3","3","3","3","3","3","3","4","3","4","4","3","2","3","3","3","4","4","4","4","3","2","4","4","3","2","2","1","0","1","1","0","0","1","1","0","1","1","0","1","0","1","3","2","2","2","4","1","2","2","3","2","1","745755632388542465","吴","171","","","","nonmatch","","","","","","","","","","","","","","key","f","16.666666666666668","735","456","f","true","nonmatch","img/ellipse.png","三角","椭圆","ALT1_1","prac_ALT1_1","","","","","","","","","","","",""
"null","<span style='color:GreenYellow; font-size: 70px;'>正确! </span>","null","html-keyboard-response","68","199425","0.0-7.0-0.0-1.0-0.0-1.29","3","3","3","3","3","3","3","3","3","4","3","4","4","3","2","3","3","3","4","4","4","4","3","2","4","4","3","2","2","1","0","1","1","0","0","1","1","0","1","1","0","1","0","1","3","2","2","2","4","1","2","2","3","2","1","745755632388542465","吴","171","","","","","","","","","","","","","","","","","","","","","","","","","","","","","","feedback_test","","","","","","","","","","","",""
"861","","j","psychophysics","69","201289","0.0-7.0-0.0-1.0-0.0-0.30","3","3","3","3","3","3","3","3","3","4","3","4","4","3","2","3","3","3","4","4","4","4","3","2","4","4","3","2","2","1","0","1","1","0","0","1","1","0","1","1","0","1","0","1","3","2","2","2","4","1","2","2","3","2","1","745755632388542465","吴","171","","","","match","","","","","","","","","","","","","","key","j","16.665765765765713","735","456","j","true","match","img/hexagon.png","六边","六边","ALT1_1","prac_ALT1_1","","","","","","","","","","","",""
"null","<span style='color:GreenYellow; font-size: 70px;'>正确! </span>","null","html-keyboard-response","70","201791","0.0-7.0-0.0-1.0-0.0-1.30","3","3","3","3","3","3","3","3","3","4","3","4","4","3","2","3","3","3","4","4","4","4","3","2","4","4","3","2","2","1","0","1","1","0","0","1","1","0","1","1","0","1","0","1","3","2","2","2","4","1","2","2","3","2","1","745755632388542465","吴","171","","","","","","","","","","","","","","","","","","","","","","","","","","","","","","feedback_test","","","","","","","","","","","",""
"828","","f","psychophysics","71","203622","0.0-7.0-0.0-1.0-0.0-0.31","3","3","3","3","3","3","3","3","3","4","3","4","4","3","2","3","3","3","4","4","4","4","3","2","4","4","3","2","2","1","0","1","1","0","0","1","1","0","1","1","0","1","0","1","3","2","2","2","4","1","2","2","3","2","1","745755632388542465","吴","171","","","","nonmatch","","","","","","","","","","","","","","key","f","16.666055045871346","735","456","f","true","nonmatch","img/hexagon.png","菱形","六边","ALT1_1","prac_ALT1_1","","","","","","","","","","","",""
"null","<span style='color:GreenYellow; font-size: 70px;'>正确! </span>","null","html-keyboard-response","72","204123","0.0-7.0-0.0-1.0-0.0-1.31","3","3","3","3","3","3","3","3","3","4","3","4","4","3","2","3","3","3","4","4","4","4","3","2","4","4","3","2","2","1","0","1","1","0","0","1","1","0","1","1","0","1","0","1","3","2","2","2","4","1","2","2","3","2","1","745755632388542465","吴","171","","","","","","","","","","","","","","","","","","","","","","","","","","","","","","feedback_test","","","","","","","","","","","",""
"748","","j","psychophysics","73","205874","0.0-7.0-0.0-1.0-0.0-0.32","3","3","3","3","3","3","3","3","3","4","3","4","4","3","2","3","3","3","4","4","4","4","3","2","4","4","3","2","2","1","0","1","1","0","0","1","1","0","1","1","0","1","0","1","3","2","2","2","4","1","2","2","3","2","1","745755632388542465","吴","171","","","","match","","","","","","","","","","","","","","key","j","16.666346153846323","735","456","j","true","match","img/ellipse.png","椭圆","椭圆","ALT1_1","prac_ALT1_1","","","","","","","","","","","",""
"null","<span style='color:GreenYellow; font-size: 70px;'>正确! </span>","null","html-keyboard-response","74","206375","0.0-7.0-0.0-1.0-0.0-1.32","3","3","3","3","3","3","3","3","3","4","3","4","4","3","2","3","3","3","4","4","4","4","3","2","4","4","3","2","2","1","0","1","1","0","0","1","1","0","1","1","0","1","0","1","3","2","2","2","4","1","2","2","3","2","1","745755632388542465","吴","171","","","","","","","","","","","","","","","","","","","","","","","","","","","","","","feedback_test","","","","","","","","","","","",""
"931","","j","psychophysics","75","208309","0.0-7.0-0.0-1.0-0.0-0.33","3","3","3","3","3","3","3","3","3","4","3","4","4","3","2","3","3","3","4","4","4","4","3","2","4","4","3","2","2","1","0","1","1","0","0","1","1","0","1","1","0","1","0","1","3","2","2","2","4","1","2","2","3","2","1","745755632388542465","吴","171","","","","match","","","","","","","","","","","","","","key","j","16.66608695652179","735","456","j","true","match","img/triangle.png","三角","三角","ALT1_1","prac_ALT1_1","","","","","","","","","","","",""
"null","<span style='color:GreenYellow; font-size: 70px;'>正确! </span>","null","html-keyboard-response","76","208810","0.0-7.0-0.0-1.0-0.0-1.33","3","3","3","3","3","3","3","3","3","4","3","4","4","3","2","3","3","3","4","4","4","4","3","2","4","4","3","2","2","1","0","1","1","0","0","1","1","0","1","1","0","1","0","1","3","2","2","2","4","1","2","2","3","2","1","745755632388542465","吴","171","","","","","","","","","","","","","","","","","","","","","","","","","","","","","","feedback_test","","","","","","","","","","","",""
"760","","j","psychophysics","77","210574","0.0-7.0-0.0-1.0-0.0-0.34","3","3","3","3","3","3","3","3","3","4","3","4","4","3","2","3","3","3","4","4","4","4","3","2","4","4","3","2","2","1","0","1","1","0","0","1","1","0","1","1","0","1","0","1","3","2","2","2","4","1","2","2","3","2","1","745755632388542465","吴","171","","","","match","","","","","","","","","","","","","","key","j","16.66571428571423","735","456","j","true","match","img/ellipse.png","椭圆","椭圆","ALT1_1","prac_ALT1_1","","","","","","","","","","","",""
"null","<span style='color:GreenYellow; font-size: 70px;'>正确! </span>","null","html-keyboard-response","78","211075","0.0-7.0-0.0-1.0-0.0-1.34","3","3","3","3","3","3","3","3","3","4","3","4","4","3","2","3","3","3","4","4","4","4","3","2","4","4","3","2","2","1","0","1","1","0","0","1","1","0","1","1","0","1","0","1","3","2","2","2","4","1","2","2","3","2","1","745755632388542465","吴","171","","","","","","","","","","","","","","","","","","","","","","","","","","","","","","feedback_test","","","","","","","","","","","",""
"877","","f","psychophysics","79","212954","0.0-7.0-0.0-1.0-0.0-0.35","3","3","3","3","3","3","3","3","3","4","3","4","4","3","2","3","3","3","4","4","4","4","3","2","4","4","3","2","2","1","0","1","1","0","0","1","1","0","1","1","0","1","0","1","3","2","2","2","4","1","2","2","3","2","1","745755632388542465","吴","171","","","","nonmatch","","","","","","","","","","","","","","key","f","16.665178571428573","735","456","f","true","nonmatch","img/ellipse.png","六边","椭圆","ALT1_1","prac_ALT1_1","","","","","","","","","","","",""
"null","<span style='color:GreenYellow; font-size: 70px;'>正确! </span>","null","html-keyboard-response","80","213456","0.0-7.0-0.0-1.0-0.0-1.35","3","3","3","3","3","3","3","3","3","4","3","4","4","3","2","3","3","3","4","4","4","4","3","2","4","4","3","2","2","1","0","1","1","0","0","1","1","0","1","1","0","1","0","1","3","2","2","2","4","1","2","2","3","2","1","745755632388542465","吴","171","","","","","","","","","","","","","","","","","","","","","","","","","","","","","","feedback_test","","","","","","","","","","","",""
"829","","f","psychophysics","81","215288","0.0-7.0-0.0-1.0-0.0-0.36","3","3","3","3","3","3","3","3","3","4","3","4","4","3","2","3","3","3","4","4","4","4","3","2","4","4","3","2","2","1","0","1","1","0","0","1","1","0","1","1","0","1","0","1","3","2","2","2","4","1","2","2","3","2","1","745755632388542465","吴","171","","","","nonmatch","","","","","","","","","","","","","","key","f","16.666055045871346","735","456","f","true","nonmatch","img/hexagon.png","椭圆","六边","ALT1_1","prac_ALT1_1","","","","","","","","","","","",""
"null","<span style='color:GreenYellow; font-size: 70px;'>正确! </span>","null","html-keyboard-response","82","215790","0.0-7.0-0.0-1.0-0.0-1.36","3","3","3","3","3","3","3","3","3","4","3","4","4","3","2","3","3","3","4","4","4","4","3","2","4","4","3","2","2","1","0","1","1","0","0","1","1","0","1","1","0","1","0","1","3","2","2","2","4","1","2","2","3","2","1","745755632388542465","吴","171","","","","","","","","","","","","","","","","","","","","","","","","","","","","","","feedback_test","","","","","","","","","","","",""
"1048","","j","psychophysics","83","217840","0.0-7.0-0.0-1.0-0.0-0.37","3","3","3","3","3","3","3","3","3","4","3","4","4","3","2","3","3","3","4","4","4","4","3","2","4","4","3","2","2","1","0","1","1","0","0","1","1","0","1","1","0","1","0","1","3","2","2","2","4","1","2","2","3","2","1","745755632388542465","吴","171","","","","match","","","","","","","","","","","","","","key","j","16.668852459016442","735","456","j","true","match","img/diamond.png","菱形","菱形","ALT1_1","prac_ALT1_1","","","","","","","","","","","",""
"null","<span style='color:GreenYellow; font-size: 70px;'>正确! </span>","null","html-keyboard-response","84","218341","0.0-7.0-0.0-1.0-0.0-1.37","3","3","3","3","3","3","3","3","3","4","3","4","4","3","2","3","3","3","4","4","4","4","3","2","4","4","3","2","2","1","0","1","1","0","0","1","1","0","1","1","0","1","0","1","3","2","2","2","4","1","2","2","3","2","1","745755632388542465","吴","171","","","","","","","","","","","","","","","","","","","","","","","","","","","","","","feedback_test","","","","","","","","","","","",""
"899","","f","psychophysics","85","220243","0.0-7.0-0.0-1.0-0.0-0.38","3","3","3","3","3","3","3","3","3","4","3","4","4","3","2","3","3","3","4","4","4","4","3","2","4","4","3","2","2","1","0","1","1","0","0","1","1","0","1","1","0","1","0","1","3","2","2","2","4","1","2","2","3","2","1","745755632388542465","吴","171","","","","nonmatch","","","","","","","","","","","","","","key","f","16.665486725663563","735","456","f","true","nonmatch","img/diamond.png","六边","菱形","ALT1_1","prac_ALT1_1","","","","","","","","","","","",""
"null","<span style='color:GreenYellow; font-size: 70px;'>正确! </span>","null","html-keyboard-response","86","220744","0.0-7.0-0.0-1.0-0.0-1.38","3","3","3","3","3","3","3","3","3","4","3","4","4","3","2","3","3","3","4","4","4","4","3","2","4","4","3","2","2","1","0","1","1","0","0","1","1","0","1","1","0","1","0","1","3","2","2","2","4","1","2","2","3","2","1","745755632388542465","吴","171","","","","","","","","","","","","","","","","","","","","","","","","","","","","","","feedback_test","","","","","","","","","","","",""
"642","","f","psychophysics","87","222389","0.0-7.0-0.0-1.0-0.0-0.39","3","3","3","3","3","3","3","3","3","4","3","4","4","3","2","3","3","3","4","4","4","4","3","2","4","4","3","2","2","1","0","1","1","0","0","1","1","0","1","1","0","1","0","1","3","2","2","2","4","1","2","2","3","2","1","745755632388542465","吴","171","","","","nonmatch","","","","","","","","","","","","","","key","f","16.6653061224488","735","456","f","true","nonmatch","img/hexagon.png","三角","六边","ALT1_1","prac_ALT1_1","","","","","","","","","","","",""
"null","<span style='color:GreenYellow; font-size: 70px;'>正确! </span>","null","html-keyboard-response","88","222891","0.0-7.0-0.0-1.0-0.0-1.39","3","3","3","3","3","3","3","3","3","4","3","4","4","3","2","3","3","3","4","4","4","4","3","2","4","4","3","2","2","1","0","1","1","0","0","1","1","0","1","1","0","1","0","1","3","2","2","2","4","1","2","2","3","2","1","745755632388542465","吴","171","","","","","","","","","","","","","","","","","","","","","","","","","","","","","","feedback_test","","","","","","","","","","","",""
"680","","f","psychophysics","89","224574","0.0-7.0-0.0-1.0-0.0-0.40","3","3","3","3","3","3","3","3","3","4","3","4","4","3","2","3","3","3","4","4","4","4","3","2","4","4","3","2","2","1","0","1","1","0","0","1","1","0","1","1","0","1","0","1","3","2","2","2","4","1","2","2","3","2","1","745755632388542465","吴","171","","","","nonmatch","","","","","","","","","","","","","","key","f","16.666000000000057","735","456","j","false","match","img/diamond.png","菱形","菱形","ALT1_1","prac_ALT1_1","","","","","","","","","","","",""
"null","<span style='color:red; font-size: 70px;'>错误! </span>","null","html-keyboard-response","90","225075","0.0-7.0-0.0-1.0-0.0-1.40","3","3","3","3","3","3","3","3","3","4","3","4","4","3","2","3","3","3","4","4","4","4","3","2","4","4","3","2","2","1","0","1","1","0","0","1","1","0","1","1","0","1","0","1","3","2","2","2","4","1","2","2","3","2","1","745755632388542465","吴","171","","","","","","","","","","","","","","","","","","","","","","","","","","","","","","feedback_test","","","","","","","","","","","",""
"1031","","j","psychophysics","91","227109","0.0-7.0-0.0-1.0-0.0-0.41","3","3","3","3","3","3","3","3","3","4","3","4","4","3","2","3","3","3","4","4","4","4","3","2","4","4","3","2","2","1","0","1","1","0","0","1","1","0","1","1","0","1","0","1","3","2","2","2","4","1","2","2","3","2","1","745755632388542465","吴","171","","","","match","","","","","","","","","","","","","","key","j","16.669421487603305","735","456","j","true","match","img/triangle.png","三角","三角","ALT1_1","prac_ALT1_1","","","","","","","","","","","",""
"null","<span style='color:GreenYellow; font-size: 70px;'>正确! </span>","null","html-keyboard-response","92","227611","0.0-7.0-0.0-1.0-0.0-1.41","3","3","3","3","3","3","3","3","3","4","3","4","4","3","2","3","3","3","4","4","4","4","3","2","4","4","3","2","2","1","0","1","1","0","0","1","1","0","1","1","0","1","0","1","3","2","2","2","4","1","2","2","3","2","1","745755632388542465","吴","171","","","","","","","","","","","","","","","","","","","","","","","","","","","","","","feedback_test","","","","","","","","","","","",""
"777","","f","psychophysics","93","229390","0.0-7.0-0.0-1.0-0.0-0.42","3","3","3","3","3","3","3","3","3","4","3","4","4","3","2","3","3","3","4","4","4","4","3","2","4","4","3","2","2","1","0","1","1","0","0","1","1","0","1","1","0","1","0","1","3","2","2","2","4","1","2","2","3","2","1","745755632388542465","吴","171","","","","nonmatch","","","","","","","","","","","","","","key","f","16.666037735849113","735","456","f","true","nonmatch","img/triangle.png","椭圆","三角","ALT1_1","prac_ALT1_1","","","","","","","","","","","",""
"null","<span style='color:GreenYellow; font-size: 70px;'>正确! </span>","null","html-keyboard-response","94","229892","0.0-7.0-0.0-1.0-0.0-1.42","3","3","3","3","3","3","3","3","3","4","3","4","4","3","2","3","3","3","4","4","4","4","3","2","4","4","3","2","2","1","0","1","1","0","0","1","1","0","1","1","0","1","0","1","3","2","2","2","4","1","2","2","3","2","1","745755632388542465","吴","171","","","","","","","","","","","","","","","","","","","","","","","","","","","","","","feedback_test","","","","","","","","","","","",""
"872","","j","psychophysics","95","231767","0.0-7.0-0.0-1.0-0.0-0.43","3","3","3","3","3","3","3","3","3","4","3","4","4","3","2","3","3","3","4","4","4","4","3","2","4","4","3","2","2","1","0","1","1","0","0","1","1","0","1","1","0","1","0","1","3","2","2","2","4","1","2","2","3","2","1","745755632388542465","吴","171","","","","match","","","","","","","","","","","","","","key","j","16.665765765765713","735","456","j","true","match","img/ellipse.png","椭圆","椭圆","ALT1_1","prac_ALT1_1","","","","","","","","","","","",""
"null","<span style='color:GreenYellow; font-size: 70px;'>正确! </span>","null","html-keyboard-response","96","232268","0.0-7.0-0.0-1.0-0.0-1.43","3","3","3","3","3","3","3","3","3","4","3","4","4","3","2","3","3","3","4","4","4","4","3","2","4","4","3","2","2","1","0","1","1","0","0","1","1","0","1","1","0","1","0","1","3","2","2","2","4","1","2","2","3","2","1","745755632388542465","吴","171","","","","","","","","","","","","","","","","","","","","","","","","","","","","","","feedback_test","","","","","","","","","","","",""
"920","","j","psychophysics","97","234192","0.0-7.0-0.0-1.0-0.0-0.44","3","3","3","3","3","3","3","3","3","4","3","4","4","3","2","3","3","3","4","4","4","4","3","2","4","4","3","2","2","1","0","1","1","0","0","1","1","0","1","1","0","1","0","1","3","2","2","2","4","1","2","2","3","2","1","745755632388542465","吴","171","","","","match","","","","","","","","","","","","","","key","j","16.665789473684416","735","456","j","true","match","img/hexagon.png","六边","六边","ALT1_1","prac_ALT1_1","","","","","","","","","","","",""
"null","<span style='color:GreenYellow; font-size: 70px;'>正确! </span>","null","html-keyboard-response","98","234695","0.0-7.0-0.0-1.0-0.0-1.44","3","3","3","3","3","3","3","3","3","4","3","4","4","3","2","3","3","3","4","4","4","4","3","2","4","4","3","2","2","1","0","1","1","0","0","1","1","0","1","1","0","1","0","1","3","2","2","2","4","1","2","2","3","2","1","745755632388542465","吴","171","","","","","","","","","","","","","","","","","","","","","","","","","","","","","","feedback_test","","","","","","","","","","","",""
"825","","f","psychophysics","99","236522","0.0-7.0-0.0-1.0-0.0-0.45","3","3","3","3","3","3","3","3","3","4","3","4","4","3","2","3","3","3","4","4","4","4","3","2","4","4","3","2","2","1","0","1","1","0","0","1","1","0","1","1","0","1","0","1","3","2","2","2","4","1","2","2","3","2","1","745755632388542465","吴","171","","","","nonmatch","","","","","","","","","","","","","","key","f","16.6697247706422","735","456","f","true","nonmatch","img/triangle.png","六边","三角","ALT1_1","prac_ALT1_1","","","","","","","","","","","",""
"null","<span style='color:GreenYellow; font-size: 70px;'>正确! </span>","null","html-keyboard-response","100","237024","0.0-7.0-0.0-1.0-0.0-1.45","3","3","3","3","3","3","3","3","3","4","3","4","4","3","2","3","3","3","4","4","4","4","3","2","4","4","3","2","2","1","0","1","1","0","0","1","1","0","1","1","0","1","0","1","3","2","2","2","4","1","2","2","3","2","1","745755632388542465","吴","171","","","","","","","","","","","","","","","","","","","","","","","","","","","","","","feedback_test","","","","","","","","","","","",""
"866","","f","psychophysics","101","238893","0.0-7.0-0.0-1.0-0.0-0.46","3","3","3","3","3","3","3","3","3","4","3","4","4","3","2","3","3","3","4","4","4","4","3","2","4","4","3","2","2","1","0","1","1","0","0","1","1","0","1","1","0","1","0","1","3","2","2","2","4","1","2","2","3","2","1","745755632388542465","吴","171","","","","nonmatch","","","","","","","","","","","","","","key","f","16.665765765765713","735","456","f","true","nonmatch","img/diamond.png","三角","菱形","ALT1_1","prac_ALT1_1","","","","","","","","","","","",""
"null","<span style='color:GreenYellow; font-size: 70px;'>正确! </span>","null","html-keyboard-response","102","239395","0.0-7.0-0.0-1.0-0.0-1.46","3","3","3","3","3","3","3","3","3","4","3","4","4","3","2","3","3","3","4","4","4","4","3","2","4","4","3","2","2","1","0","1","1","0","0","1","1","0","1","1","0","1","0","1","3","2","2","2","4","1","2","2","3","2","1","745755632388542465","吴","171","","","","","","","","","","","","","","","","","","","","","","","","","","","","","","feedback_test","","","","","","","","","","","",""
"926","","j","psychophysics","103","241324","0.0-7.0-0.0-1.0-0.0-0.47","3","3","3","3","3","3","3","3","3","4","3","4","4","3","2","3","3","3","4","4","4","4","3","2","4","4","3","2","2","1","0","1","1","0","0","1","1","0","1","1","0","1","0","1","3","2","2","2","4","1","2","2","3","2","1","745755632388542465","吴","171","","","","match","","","","","","","","","","","","","","key","j","16.66608695652179","735","456","j","true","match","img/triangle.png","三角","三角","ALT1_1","prac_ALT1_1","","","","","","","","","","","",""
"null","<span style='color:GreenYellow; font-size: 70px;'>正确! </span>","null","html-keyboard-response","104","241826","0.0-7.0-0.0-1.0-0.0-1.47","3","3","3","3","3","3","3","3","3","4","3","4","4","3","2","3","3","3","4","4","4","4","3","2","4","4","3","2","2","1","0","1","1","0","0","1","1","0","1","1","0","1","0","1","3","2","2","2","4","1","2","2","3","2","1","745755632388542465","吴","171","","","","","","","","","","","","","","","","","","","","","","","","","","","","","","feedback_test","","","","","","","","","","","",""
"5342","<style>.context{color:white; font-size: 35px; line-height:40px}</style>                            <div><p class='context'>您正确回答了83% 的试次。</p><p class='context'>您的平均反应时为862毫秒。</p><p class='context'>恭喜您完成练习。按空格键进入正式实验。</p><p class='footer' style='font-size: 35px; line-height:40px;'>请在进入正式实验之前将您的<span style='color: lightgreen;'>食指</span>放在电脑键盘的相应键位上进行按键。</p>","j","html-keyboard-response","105","247173","0.0-7.0-0.0-2.0","3","3","3","3","3","3","3","3","3","4","3","4","4","3","2","3","3","3","4","4","4","4","3","2","4","4","3","2","2","1","0","1","1","0","0","1","1","0","1","1","0","1","0","1","3","2","2","2","4","1","2","2","3","2","1","745755632388542465","吴","171","","","","","","","","","","","","","","","","","","","","","","","","","","","","","","","","","","","","","","","","","",""
"4227","
    <p style='color: white; font-size: 22px'>请您将手指放在按键上，准备进入正式的匹配任务。</p>
    <p> <div style = ""color: green""><按空格键进入下一阶段的匹配任务></div></p>
    "," ","html-keyboard-response","106","251405","0.0-7.0-0.0-3.0","3","3","3","3","3","3","3","3","3","4","3","4","4","3","2","3","3","3","4","4","4","4","3","2","4","4","3","2","2","1","0","1","1","0","0","1","1","0","1","1","0","1","0","1","3","2","2","2","4","1","2","2","3","2","1","745755632388542465","吴","171","","","","","","","","","","","","","","","","","","","","","","","","","","","","","","","","","","","","","","","","","",""
"781","","f","psychophysics","107","253188","0.0-7.0-0.0-4.0-0.0-0.0","3","3","3","3","3","3","3","3","3","4","3","4","4","3","2","3","3","3","4","4","4","4","3","2","4","4","3","2","2","1","0","1","1","0","0","1","1","0","1","1","0","1","0","1","3","2","2","2","4","1","2","2","3","2","1","745755632388542465","吴","171","","","","nonmatch","","","","","","","","","","","","","","key","f","16.666037735849113","735","456","f","true","nonmatch","img/triangle.png","六边","三角","ALT1","formal_ALT1_1","","","","","","","","","","","",""
"null","<span style='color:GreenYellow; font-size: 70px;'>正确! </span>","null","html-keyboard-response","108","253690","0.0-7.0-0.0-4.0-0.0-1.0","3","3","3","3","3","3","3","3","3","4","3","4","4","3","2","3","3","3","4","4","4","4","3","2","4","4","3","2","2","1","0","1","1","0","0","1","1","0","1","1","0","1","0","1","3","2","2","2","4","1","2","2","3","2","1","745755632388542465","吴","171","","","","","","","","","","","","","","","","","","","","","","","","","","","","","","feedback_test","","","","","","","","","","","",""
"780","","j","psychophysics","109","255474","0.0-7.0-0.0-4.0-0.0-0.1","3","3","3","3","3","3","3","3","3","4","3","4","4","3","2","3","3","3","4","4","4","4","3","2","4","4","3","2","2","1","0","1","1","0","0","1","1","0","1","1","0","1","0","1","3","2","2","2","4","1","2","2","3","2","1","745755632388542465","吴","171","","","","match","","","","","","","","","","","","","","key","j","16.666037735849113","735","456","j","true","match","img/ellipse.png","椭圆","椭圆","ALT1","formal_ALT1_1","","","","","","","","","","","",""
"null","<span style='color:GreenYellow; font-size: 70px;'>正确! </span>","null","html-keyboard-response","110","255975","0.0-7.0-0.0-4.0-0.0-1.1","3","3","3","3","3","3","3","3","3","4","3","4","4","3","2","3","3","3","4","4","4","4","3","2","4","4","3","2","2","1","0","1","1","0","0","1","1","0","1","1","0","1","0","1","3","2","2","2","4","1","2","2","3","2","1","745755632388542465","吴","171","","","","","","","","","","","","","","","","","","","","","","","","","","","","","","feedback_test","","","","","","","","","","","",""
"730","","f","psychophysics","111","257708","0.0-7.0-0.0-4.0-0.0-0.2","3","3","3","3","3","3","3","3","3","4","3","4","4","3","2","3","3","3","4","4","4","4","3","2","4","4","3","2","2","1","0","1","1","0","0","1","1","0","1","1","0","1","0","1","3","2","2","2","4","1","2","2","3","2","1","745755632388542465","吴","171","","","","nonmatch","","","","","","","","","","","","","","key","f","16.668932038834896","735","456","f","true","nonmatch","img/diamond.png","三角","菱形","ALT1","formal_ALT1_1","","","","","","","","","","","",""
"null","<span style='color:GreenYellow; font-size: 70px;'>正确! </span>","null","html-keyboard-response","112","258210","0.0-7.0-0.0-4.0-0.0-1.2","3","3","3","3","3","3","3","3","3","4","3","4","4","3","2","3","3","3","4","4","4","4","3","2","4","4","3","2","2","1","0","1","1","0","0","1","1","0","1","1","0","1","0","1","3","2","2","2","4","1","2","2","3","2","1","745755632388542465","吴","171","","","","","","","","","","","","","","","","","","","","","","","","","","","","","","feedback_test","","","","","","","","","","","",""
"710","","j","psychophysics","113","259923","0.0-7.0-0.0-4.0-0.0-0.3","3","3","3","3","3","3","3","3","3","4","3","4","4","3","2","3","3","3","4","4","4","4","3","2","4","4","3","2","2","1","0","1","1","0","0","1","1","0","1","1","0","1","0","1","3","2","2","2","4","1","2","2","3","2","1","745755632388542465","吴","171","","","","match","","","","","","","","","","","","","","key","j","16.666666666666668","735","456","j","true","match","img/triangle.png","三角","三角","ALT1","formal_ALT1_1","","","","","","","","","","","",""
"null","<span style='color:GreenYellow; font-size: 70px;'>正确! </span>","null","html-keyboard-response","114","260426","0.0-7.0-0.0-4.0-0.0-1.3","3","3","3","3","3","3","3","3","3","4","3","4","4","3","2","3","3","3","4","4","4","4","3","2","4","4","3","2","2","1","0","1","1","0","0","1","1","0","1","1","0","1","0","1","3","2","2","2","4","1","2","2","3","2","1","745755632388542465","吴","171","","","","","","","","","","","","","","","","","","","","","","","","","","","","","","feedback_test","","","","","","","","","","","",""
"750","","j","psychophysics","115","262178","0.0-7.0-0.0-4.0-0.0-0.4","3","3","3","3","3","3","3","3","3","4","3","4","4","3","2","3","3","3","4","4","4","4","3","2","4","4","3","2","2","1","0","1","1","0","0","1","1","0","1","1","0","1","0","1","3","2","2","2","4","1","2","2","3","2","1","745755632388542465","吴","171","","","","match","","","","","","","","","","","","","","key","j","16.665384615384728","735","456","j","true","match","img/hexagon.png","六边","六边","ALT1","formal_ALT1_1","","","","","","","","","","","",""
"null","<span style='color:GreenYellow; font-size: 70px;'>正确! </span>","null","html-keyboard-response","116","262679","0.0-7.0-0.0-4.0-0.0-1.4","3","3","3","3","3","3","3","3","3","4","3","4","4","3","2","3","3","3","4","4","4","4","3","2","4","4","3","2","2","1","0","1","1","0","0","1","1","0","1","1","0","1","0","1","3","2","2","2","4","1","2","2","3","2","1","745755632388542465","吴","171","","","","","","","","","","","","","","","","","","","","","","","","","","","","","","feedback_test","","","","","","","","","","","",""
"793","","f","psychophysics","117","264475","0.0-7.0-0.0-4.0-0.0-0.5","3","3","3","3","3","3","3","3","3","4","3","4","4","3","2","3","3","3","4","4","4","4","3","2","4","4","3","2","2","1","0","1","1","0","0","1","1","0","1","1","0","1","0","1","3","2","2","2","4","1","2","2","3","2","1","745755632388542465","吴","171","","","","nonmatch","","","","","","","","","","","","","","key","f","16.666355140187353","735","456","f","true","nonmatch","img/hexagon.png","椭圆","六边","ALT1","formal_ALT1_1","","","","","","","","","","","",""
"null","<span style='color:GreenYellow; font-size: 70px;'>正确! </span>","null","html-keyboard-response","118","264978","0.0-7.0-0.0-4.0-0.0-1.5","3","3","3","3","3","3","3","3","3","4","3","4","4","3","2","3","3","3","4","4","4","4","3","2","4","4","3","2","2","1","0","1","1","0","0","1","1","0","1","1","0","1","0","1","3","2","2","2","4","1","2","2","3","2","1","745755632388542465","吴","171","","","","","","","","","","","","","","","","","","","","","","","","","","","","","","feedback_test","","","","","","","","","","","",""
"727","","j","psychophysics","119","266707","0.0-7.0-0.0-4.0-0.0-0.6","3","3","3","3","3","3","3","3","3","4","3","4","4","3","2","3","3","3","4","4","4","4","3","2","4","4","3","2","2","1","0","1","1","0","0","1","1","0","1","1","0","1","0","1","3","2","2","2","4","1","2","2","3","2","1","745755632388542465","吴","171","","","","match","","","","","","","","","","","","","","key","j","16.66990291262136","735","456","j","true","match","img/ellipse.png","椭圆","椭圆","ALT1","formal_ALT1_1","","","","","","","","","","","",""
"null","<span style='color:GreenYellow; font-size: 70px;'>正确! </span>","null","html-keyboard-response","120","267209","0.0-7.0-0.0-4.0-0.0-1.6","3","3","3","3","3","3","3","3","3","4","3","4","4","3","2","3","3","3","4","4","4","4","3","2","4","4","3","2","2","1","0","1","1","0","0","1","1","0","1","1","0","1","0","1","3","2","2","2","4","1","2","2","3","2","1","745755632388542465","吴","171","","","","","","","","","","","","","","","","","","","","","","","","","","","","","","feedback_test","","","","","","","","","","","",""
"975","","j","psychophysics","121","269187","0.0-7.0-0.0-4.0-0.0-0.7","3","3","3","3","3","3","3","3","3","4","3","4","4","3","2","3","3","3","4","4","4","4","3","2","4","4","3","2","2","1","0","1","1","0","0","1","1","0","1","1","0","1","0","1","3","2","2","2","4","1","2","2","3","2","1","745755632388542465","吴","171","","","","match","","","","","","","","","","","","","","key","j","16.665254237288135","735","456","j","true","match","img/triangle.png","三角","三角","ALT1","formal_ALT1_1","","","","","","","","","","","",""
"null","<span style='color:GreenYellow; font-size: 70px;'>正确! </span>","null","html-keyboard-response","122","269689","0.0-7.0-0.0-4.0-0.0-1.7","3","3","3","3","3","3","3","3","3","4","3","4","4","3","2","3","3","3","4","4","4","4","3","2","4","4","3","2","2","1","0","1","1","0","0","1","1","0","1","1","0","1","0","1","3","2","2","2","4","1","2","2","3","2","1","745755632388542465","吴","171","","","","","","","","","","","","","","","","","","","","","","","","","","","","","","feedback_test","","","","","","","","","","","",""
"848","","f","psychophysics","123","271540","0.0-7.0-0.0-4.0-0.0-0.8","3","3","3","3","3","3","3","3","3","4","3","4","4","3","2","3","3","3","4","4","4","4","3","2","4","4","3","2","2","1","0","1","1","0","0","1","1","0","1","1","0","1","0","1","3","2","2","2","4","1","2","2","3","2","1","745755632388542465","吴","171","","","","nonmatch","","","","","","","","","","","","","","key","f","16.66545454545412","735","456","f","true","nonmatch","img/ellipse.png","菱形","椭圆","ALT1","formal_ALT1_1","","","","","","","","","","","",""
"null","<span style='color:GreenYellow; font-size: 70px;'>正确! </span>","null","html-keyboard-response","124","272042","0.0-7.0-0.0-4.0-0.0-1.8","3","3","3","3","3","3","3","3","3","4","3","4","4","3","2","3","3","3","4","4","4","4","3","2","4","4","3","2","2","1","0","1","1","0","0","1","1","0","1","1","0","1","0","1","3","2","2","2","4","1","2","2","3","2","1","745755632388542465","吴","171","","","","","","","","","","","","","","","","","","","","","","","","","","","","","","feedback_test","","","","","","","","","","","",""
"812","","f","psychophysics","125","273856","0.0-7.0-0.0-4.0-0.0-0.9","3","3","3","3","3","3","3","3","3","4","3","4","4","3","2","3","3","3","4","4","4","4","3","2","4","4","3","2","2","1","0","1","1","0","0","1","1","0","1","1","0","1","0","1","3","2","2","2","4","1","2","2","3","2","1","745755632388542465","吴","171","","","","nonmatch","","","","","","","","","","","","","","key","f","16.664814814814708","735","456","f","true","nonmatch","img/hexagon.png","三角","六边","ALT1","formal_ALT1_1","","","","","","","","","","","",""
"null","<span style='color:GreenYellow; font-size: 70px;'>正确! </span>","null","html-keyboard-response","126","274358","0.0-7.0-0.0-4.0-0.0-1.9","3","3","3","3","3","3","3","3","3","4","3","4","4","3","2","3","3","3","4","4","4","4","3","2","4","4","3","2","2","1","0","1","1","0","0","1","1","0","1","1","0","1","0","1","3","2","2","2","4","1","2","2","3","2","1","745755632388542465","吴","171","","","","","","","","","","","","","","","","","","","","","","","","","","","","","","feedback_test","","","","","","","","","","","",""
"788","","f","psychophysics","127","276148","0.0-7.0-0.0-4.0-0.0-0.10","3","3","3","3","3","3","3","3","3","4","3","4","4","3","2","3","3","3","4","4","4","4","3","2","4","4","3","2","2","1","0","1","1","0","0","1","1","0","1","1","0","1","0","1","3","2","2","2","4","1","2","2","3","2","1","745755632388542465","吴","171","","","","nonmatch","","","","","","","","","","","","","","key","f","16.66509433962264","735","456","f","true","nonmatch","img/diamond.png","椭圆","菱形","ALT1","formal_ALT1_1","","","","","","","","","","","",""
"null","<span style='color:GreenYellow; font-size: 70px;'>正确! </span>","null","html-keyboard-response","128","276651","0.0-7.0-0.0-4.0-0.0-1.10","3","3","3","3","3","3","3","3","3","4","3","4","4","3","2","3","3","3","4","4","4","4","3","2","4","4","3","2","2","1","0","1","1","0","0","1","1","0","1","1","0","1","0","1","3","2","2","2","4","1","2","2","3","2","1","745755632388542465","吴","171","","","","","","","","","","","","","","","","","","","","","","","","","","","","","","feedback_test","","","","","","","","","","","",""
"892","","f","psychophysics","129","278546","0.0-7.0-0.0-4.0-0.0-0.11","3","3","3","3","3","3","3","3","3","4","3","4","4","3","2","3","3","3","4","4","4","4","3","2","4","4","3","2","2","1","0","1","1","0","0","1","1","0","1","1","0","1","0","1","3","2","2","2","4","1","2","2","3","2","1","745755632388542465","吴","171","","","","nonmatch","","","","","","","","","","","","","","key","f","16.66607142857174","735","456","f","true","nonmatch","img/triangle.png","菱形","三角","ALT1","formal_ALT1_1","","","","","","","","","","","",""
"null","<span style='color:GreenYellow; font-size: 70px;'>正确! </span>","null","html-keyboard-response","130","279049","0.0-7.0-0.0-4.0-0.0-1.11","3","3","3","3","3","3","3","3","3","4","3","4","4","3","2","3","3","3","4","4","4","4","3","2","4","4","3","2","2","1","0","1","1","0","0","1","1","0","1","1","0","1","0","1","3","2","2","2","4","1","2","2","3","2","1","745755632388542465","吴","171","","","","","","","","","","","","","","","","","","","","","","","","","","","","","","feedback_test","","","","","","","","","","","",""
"879","","f","psychophysics","131","280930","0.0-7.0-0.0-4.0-0.0-0.12","3","3","3","3","3","3","3","3","3","4","3","4","4","3","2","3","3","3","4","4","4","4","3","2","4","4","3","2","2","1","0","1","1","0","0","1","1","0","1","1","0","1","0","1","3","2","2","2","4","1","2","2","3","2","1","745755632388542465","吴","171","","","","nonmatch","","","","","","","","","","","","","","key","f","16.666666666666668","735","456","f","true","nonmatch","img/hexagon.png","菱形","六边","ALT1","formal_ALT1_1","","","","","","","","","","","",""
"null","<span style='color:GreenYellow; font-size: 70px;'>正确! </span>","null","html-keyboard-response","132","281432","0.0-7.0-0.0-4.0-0.0-1.12","3","3","3","3","3","3","3","3","3","4","3","4","4","3","2","3","3","3","4","4","4","4","3","2","4","4","3","2","2","1","0","1","1","0","0","1","1","0","1","1","0","1","0","1","3","2","2","2","4","1","2","2","3","2","1","745755632388542465","吴","171","","","","","","","","","","","","","","","","","","","","","","","","","","","","","","feedback_test","","","","","","","","","","","",""
"872","","j","psychophysics","133","283307","0.0-7.0-0.0-4.0-0.0-0.13","3","3","3","3","3","3","3","3","3","4","3","4","4","3","2","3","3","3","4","4","4","4","3","2","4","4","3","2","2","1","0","1","1","0","0","1","1","0","1","1","0","1","0","1","3","2","2","2","4","1","2","2","3","2","1","745755632388542465","吴","171","","","","match","","","","","","","","","","","","","","key","j","16.666666666666668","735","456","j","true","match","img/triangle.png","三角","三角","ALT1","formal_ALT1_1","","","","","","","","","","","",""
"null","<span style='color:GreenYellow; font-size: 70px;'>正确! </span>","null","html-keyboard-response","134","283809","0.0-7.0-0.0-4.0-0.0-1.13","3","3","3","3","3","3","3","3","3","4","3","4","4","3","2","3","3","3","4","4","4","4","3","2","4","4","3","2","2","1","0","1","1","0","0","1","1","0","1","1","0","1","0","1","3","2","2","2","4","1","2","2","3","2","1","745755632388542465","吴","171","","","","","","","","","","","","","","","","","","","","","","","","","","","","","","feedback_test","","","","","","","","","","","",""
"903","","f","psychophysics","135","285715","0.0-7.0-0.0-4.0-0.0-0.14","3","3","3","3","3","3","3","3","3","4","3","4","4","3","2","3","3","3","4","4","4","4","3","2","4","4","3","2","2","1","0","1","1","0","0","1","1","0","1","1","0","1","0","1","3","2","2","2","4","1","2","2","3","2","1","745755632388542465","吴","171","","","","nonmatch","","","","","","","","","","","","","","key","f","16.666371681415825","735","456","f","true","nonmatch","img/ellipse.png","六边","椭圆","ALT1","formal_ALT1_1","","","","","","","","","","","",""
"null","<span style='color:GreenYellow; font-size: 70px;'>正确! </span>","null","html-keyboard-response","136","286216","0.0-7.0-0.0-4.0-0.0-1.14","3","3","3","3","3","3","3","3","3","4","3","4","4","3","2","3","3","3","4","4","4","4","3","2","4","4","3","2","2","1","0","1","1","0","0","1","1","0","1","1","0","1","0","1","3","2","2","2","4","1","2","2","3","2","1","745755632388542465","吴","171","","","","","","","","","","","","","","","","","","","","","","","","","","","","","","feedback_test","","","","","","","","","","","",""
"721","","f","psychophysics","137","287939","0.0-7.0-0.0-4.0-0.0-0.15","3","3","3","3","3","3","3","3","3","4","3","4","4","3","2","3","3","3","4","4","4","4","3","2","4","4","3","2","2","1","0","1","1","0","0","1","1","0","1","1","0","1","0","1","3","2","2","2","4","1","2","2","3","2","1","745755632388542465","吴","171","","","","nonmatch","","","","","","","","","","","","","","key","f","16.670588235294346","735","456","j","false","match","img/diamond.png","菱形","菱形","ALT1","formal_ALT1_1","","","","","","","","","","","",""
"null","<span style='color:red; font-size: 70px;'>错误! </span>","null","html-keyboard-response","138","288441","0.0-7.0-0.0-4.0-0.0-1.15","3","3","3","3","3","3","3","3","3","4","3","4","4","3","2","3","3","3","4","4","4","4","3","2","4","4","3","2","2","1","0","1","1","0","0","1","1","0","1","1","0","1","0","1","3","2","2","2","4","1","2","2","3","2","1","745755632388542465","吴","171","","","","","","","","","","","","","","","","","","","","","","","","","","","","","","feedback_test","","","","","","","","","","","",""
"882","","f","psychophysics","139","290325","0.0-7.0-0.0-4.0-0.0-0.16","3","3","3","3","3","3","3","3","3","4","3","4","4","3","2","3","3","3","4","4","4","4","3","2","4","4","3","2","2","1","0","1","1","0","0","1","1","0","1","1","0","1","0","1","3","2","2","2","4","1","2","2","3","2","1","745755632388542465","吴","171","","","","nonmatch","","","","","","","","","","","","","","key","f","16.66607142857174","735","456","f","true","nonmatch","img/ellipse.png","三角","椭圆","ALT1","formal_ALT1_1","","","","","","","","","","","",""
"null","<span style='color:GreenYellow; font-size: 70px;'>正确! </span>","null","html-keyboard-response","140","290827","0.0-7.0-0.0-4.0-0.0-1.16","3","3","3","3","3","3","3","3","3","4","3","4","4","3","2","3","3","3","4","4","4","4","3","2","4","4","3","2","2","1","0","1","1","0","0","1","1","0","1","1","0","1","0","1","3","2","2","2","4","1","2","2","3","2","1","745755632388542465","吴","171","","","","","","","","","","","","","","","","","","","","","","","","","","","","","","feedback_test","","","","","","","","","","","",""
"829","","f","psychophysics","141","292659","0.0-7.0-0.0-4.0-0.0-0.17","3","3","3","3","3","3","3","3","3","4","3","4","4","3","2","3","3","3","4","4","4","4","3","2","4","4","3","2","2","1","0","1","1","0","0","1","1","0","1","1","0","1","0","1","3","2","2","2","4","1","2","2","3","2","1","745755632388542465","吴","171","","","","nonmatch","","","","","","","","","","","","","","key","f","16.666972477064327","735","456","f","true","nonmatch","img/diamond.png","六边","菱形","ALT1","formal_ALT1_1","","","","","","","","","","","",""
"null","<span style='color:GreenYellow; font-size: 70px;'>正确! </span>","null","html-keyboard-response","142","293161","0.0-7.0-0.0-4.0-0.0-1.17","3","3","3","3","3","3","3","3","3","4","3","4","4","3","2","3","3","3","4","4","4","4","3","2","4","4","3","2","2","1","0","1","1","0","0","1","1","0","1","1","0","1","0","1","3","2","2","2","4","1","2","2","3","2","1","745755632388542465","吴","171","","","","","","","","","","","","","","","","","","","","","","","","","","","","","","feedback_test","","","","","","","","","","","",""
"1009","","f","psychophysics","143","295173","0.0-7.0-0.0-4.0-0.0-0.18","3","3","3","3","3","3","3","3","3","4","3","4","4","3","2","3","3","3","4","4","4","4","3","2","4","4","3","2","2","1","0","1","1","0","0","1","1","0","1","1","0","1","0","1","3","2","2","2","4","1","2","2","3","2","1","745755632388542465","吴","171","","","","nonmatch","","","","","","","","","","","","","","key","f","16.665833333333527","735","456","f","true","nonmatch","img/triangle.png","椭圆","三角","ALT1","formal_ALT1_1","","","","","","","","","","","",""
"null","<span style='color:GreenYellow; font-size: 70px;'>正确! </span>","null","html-keyboard-response","144","295675","0.0-7.0-0.0-4.0-0.0-1.18","3","3","3","3","3","3","3","3","3","4","3","4","4","3","2","3","3","3","4","4","4","4","3","2","4","4","3","2","2","1","0","1","1","0","0","1","1","0","1","1","0","1","0","1","3","2","2","2","4","1","2","2","3","2","1","745755632388542465","吴","171","","","","","","","","","","","","","","","","","","","","","","","","","","","","","","feedback_test","","","","","","","","","","","",""
"711","","f","psychophysics","145","297389","0.0-7.0-0.0-4.0-0.0-0.19","3","3","3","3","3","3","3","3","3","4","3","4","4","3","2","3","3","3","4","4","4","4","3","2","4","4","3","2","2","1","0","1","1","0","0","1","1","0","1","1","0","1","0","1","3","2","2","2","4","1","2","2","3","2","1","745755632388542465","吴","171","","","","nonmatch","","","","","","","","","","","","","","key","f","16.66960784313714","735","456","j","false","match","img/diamond.png","菱形","菱形","ALT1","formal_ALT1_1","","","","","","","","","","","",""
"null","<span style='color:red; font-size: 70px;'>错误! </span>","null","html-keyboard-response","146","297890","0.0-7.0-0.0-4.0-0.0-1.19","3","3","3","3","3","3","3","3","3","4","3","4","4","3","2","3","3","3","4","4","4","4","3","2","4","4","3","2","2","1","0","1","1","0","0","1","1","0","1","1","0","1","0","1","3","2","2","2","4","1","2","2","3","2","1","745755632388542465","吴","171","","","","","","","","","","","","","","","","","","","","","","","","","","","","","","feedback_test","","","","","","","","","","","",""
"845","","j","psychophysics","147","299739","0.0-7.0-0.0-4.0-0.0-0.20","3","3","3","3","3","3","3","3","3","4","3","4","4","3","2","3","3","3","4","4","4","4","3","2","4","4","3","2","2","1","0","1","1","0","0","1","1","0","1","1","0","1","0","1","3","2","2","2","4","1","2","2","3","2","1","745755632388542465","吴","171","","","","match","","","","","","","","","","","","","","key","j","16.66636363636353","735","456","j","true","match","img/diamond.png","菱形","菱形","ALT1","formal_ALT1_1","","","","","","","","","","","",""
"null","<span style='color:GreenYellow; font-size: 70px;'>正确! </span>","null","html-keyboard-response","148","300239","0.0-7.0-0.0-4.0-0.0-1.20","3","3","3","3","3","3","3","3","3","4","3","4","4","3","2","3","3","3","4","4","4","4","3","2","4","4","3","2","2","1","0","1","1","0","0","1","1","0","1","1","0","1","0","1","3","2","2","2","4","1","2","2","3","2","1","745755632388542465","吴","171","","","","","","","","","","","","","","","","","","","","","","","","","","","","","","feedback_test","","","","","","","","","","","",""
"797","","j","psychophysics","149","302039","0.0-7.0-0.0-4.0-0.0-0.21","3","3","3","3","3","3","3","3","3","4","3","4","4","3","2","3","3","3","4","4","4","4","3","2","4","4","3","2","2","1","0","1","1","0","0","1","1","0","1","1","0","1","0","1","3","2","2","2","4","1","2","2","3","2","1","745755632388542465","吴","171","","","","match","","","","","","","","","","","","","","key","j","16.665420560747773","735","456","j","true","match","img/hexagon.png","六边","六边","ALT1","formal_ALT1_1","","","","","","","","","","","",""
"null","<span style='color:GreenYellow; font-size: 70px;'>正确! </span>","null","html-keyboard-response","150","302541","0.0-7.0-0.0-4.0-0.0-1.21","3","3","3","3","3","3","3","3","3","4","3","4","4","3","2","3","3","3","4","4","4","4","3","2","4","4","3","2","2","1","0","1","1","0","0","1","1","0","1","1","0","1","0","1","3","2","2","2","4","1","2","2","3","2","1","745755632388542465","吴","171","","","","","","","","","","","","","","","","","","","","","","","","","","","","","","feedback_test","","","","","","","","","","","",""
"711","","j","psychophysics","151","304255","0.0-7.0-0.0-4.0-0.0-0.22","3","3","3","3","3","3","3","3","3","4","3","4","4","3","2","3","3","3","4","4","4","4","3","2","4","4","3","2","2","1","0","1","1","0","0","1","1","0","1","1","0","1","0","1","3","2","2","2","4","1","2","2","3","2","1","745755632388542465","吴","171","","","","match","","","","","","","","","","","","","","key","j","16.667647058823302","735","456","j","true","match","img/hexagon.png","六边","六边","ALT1","formal_ALT1_1","","","","","","","","","","","",""
"null","<span style='color:GreenYellow; font-size: 70px;'>正确! </span>","null","html-keyboard-response","152","304757","0.0-7.0-0.0-4.0-0.0-1.22","3","3","3","3","3","3","3","3","3","4","3","4","4","3","2","3","3","3","4","4","4","4","3","2","4","4","3","2","2","1","0","1","1","0","0","1","1","0","1","1","0","1","0","1","3","2","2","2","4","1","2","2","3","2","1","745755632388542465","吴","171","","","","","","","","","","","","","","","","","","","","","","","","","","","","","","feedback_test","","","","","","","","","","","",""
"980","","j","psychophysics","153","306740","0.0-7.0-0.0-4.0-0.0-0.23","3","3","3","3","3","3","3","3","3","4","3","4","4","3","2","3","3","3","4","4","4","4","3","2","4","4","3","2","2","1","0","1","1","0","0","1","1","0","1","1","0","1","0","1","3","2","2","2","4","1","2","2","3","2","1","745755632388542465","吴","171","","","","match","","","","","","","","","","","","","","key","j","16.66864406779681","735","456","j","true","match","img/ellipse.png","椭圆","椭圆","ALT1","formal_ALT1_1","","","","","","","","","","","",""
"null","<span style='color:GreenYellow; font-size: 70px;'>正确! </span>","null","html-keyboard-response","154","307241","0.0-7.0-0.0-4.0-0.0-1.23","3","3","3","3","3","3","3","3","3","4","3","4","4","3","2","3","3","3","4","4","4","4","3","2","4","4","3","2","2","1","0","1","1","0","0","1","1","0","1","1","0","1","0","1","3","2","2","2","4","1","2","2","3","2","1","745755632388542465","吴","171","","","","","","","","","","","","","","","","","","","","","","","","","","","","","","feedback_test","","","","","","","","","","","",""
"728","","f","psychophysics","155","308973","0.0-7.0-0.0-4.0-0.0-0.24","3","3","3","3","3","3","3","3","3","4","3","4","4","3","2","3","3","3","4","4","4","4","3","2","4","4","3","2","2","1","0","1","1","0","0","1","1","0","1","1","0","1","0","1","3","2","2","2","4","1","2","2","3","2","1","745755632388542465","吴","171","","","","nonmatch","","","","","","","","","","","","","","key","f","16.66601941747607","735","456","f","true","nonmatch","img/triangle.png","六边","三角","ALT1","formal_ALT1_1","","","","","","","","","","","",""
"null","<span style='color:GreenYellow; font-size: 70px;'>正确! </span>","null","html-keyboard-response","156","309475","0.0-7.0-0.0-4.0-0.0-1.24","3","3","3","3","3","3","3","3","3","4","3","4","4","3","2","3","3","3","4","4","4","4","3","2","4","4","3","2","2","1","0","1","1","0","0","1","1","0","1","1","0","1","0","1","3","2","2","2","4","1","2","2","3","2","1","745755632388542465","吴","171","","","","","","","","","","","","","","","","","","","","","","","","","","","","","","feedback_test","","","","","","","","","","","",""
"812","","j","psychophysics","157","311290","0.0-7.0-0.0-4.0-0.0-0.25","3","3","3","3","3","3","3","3","3","4","3","4","4","3","2","3","3","3","4","4","4","4","3","2","4","4","3","2","2","1","0","1","1","0","0","1","1","0","1","1","0","1","0","1","3","2","2","2","4","1","2","2","3","2","1","745755632388542465","吴","171","","","","match","","","","","","","","","","","","","","key","j","16.665740740740958","735","456","j","true","match","img/hexagon.png","六边","六边","ALT1","formal_ALT1_1","","","","","","","","","","","",""
"null","<span style='color:GreenYellow; font-size: 70px;'>正确! </span>","null","html-keyboard-response","158","311792","0.0-7.0-0.0-4.0-0.0-1.25","3","3","3","3","3","3","3","3","3","4","3","4","4","3","2","3","3","3","4","4","4","4","3","2","4","4","3","2","2","1","0","1","1","0","0","1","1","0","1","1","0","1","0","1","3","2","2","2","4","1","2","2","3","2","1","745755632388542465","吴","171","","","","","","","","","","","","","","","","","","","","","","","","","","","","","","feedback_test","","","","","","","","","","","",""
"731","","f","psychophysics","159","313525","0.0-7.0-0.0-4.0-0.0-0.26","3","3","3","3","3","3","3","3","3","4","3","4","4","3","2","3","3","3","4","4","4","4","3","2","4","4","3","2","2","1","0","1","1","0","0","1","1","0","1","1","0","1","0","1","3","2","2","2","4","1","2","2","3","2","1","745755632388542465","吴","171","","","","nonmatch","","","","","","","","","","","","","","key","f","16.66504854368932","735","456","f","true","nonmatch","img/ellipse.png","六边","椭圆","ALT1","formal_ALT1_1","","","","","","","","","","","",""
"null","<span style='color:GreenYellow; font-size: 70px;'>正确! </span>","null","html-keyboard-response","160","314027","0.0-7.0-0.0-4.0-0.0-1.26","3","3","3","3","3","3","3","3","3","4","3","4","4","3","2","3","3","3","4","4","4","4","3","2","4","4","3","2","2","1","0","1","1","0","0","1","1","0","1","1","0","1","0","1","3","2","2","2","4","1","2","2","3","2","1","745755632388542465","吴","171","","","","","","","","","","","","","","","","","","","","","","","","","","","","","","feedback_test","","","","","","","","","","","",""
"1016","","j","psychophysics","161","316047","0.0-7.0-0.0-4.0-0.0-0.27","3","3","3","3","3","3","3","3","3","4","3","4","4","3","2","3","3","3","4","4","4","4","3","2","4","4","3","2","2","1","0","1","1","0","0","1","1","0","1","1","0","1","0","1","3","2","2","2","4","1","2","2","3","2","1","745755632388542465","吴","171","","","","match","","","","","","","","","","","","","","key","j","16.665833333333527","735","456","j","true","match","img/triangle.png","三角","三角","ALT1","formal_ALT1_1","","","","","","","","","","","",""
"null","<span style='color:GreenYellow; font-size: 70px;'>正确! </span>","null","html-keyboard-response","162","316549","0.0-7.0-0.0-4.0-0.0-1.27","3","3","3","3","3","3","3","3","3","4","3","4","4","3","2","3","3","3","4","4","4","4","3","2","4","4","3","2","2","1","0","1","1","0","0","1","1","0","1","1","0","1","0","1","3","2","2","2","4","1","2","2","3","2","1","745755632388542465","吴","171","","","","","","","","","","","","","","","","","","","","","","","","","","","","","","feedback_test","","","","","","","","","","","",""
"673","","j","psychophysics","163","318225","0.0-7.0-0.0-4.0-0.0-0.28","3","3","3","3","3","3","3","3","3","4","3","4","4","3","2","3","3","3","4","4","4","4","3","2","4","4","3","2","2","1","0","1","1","0","0","1","1","0","1","1","0","1","0","1","3","2","2","2","4","1","2","2","3","2","1","745755632388542465","吴","171","","","","match","","","","","","","","","","","","","","key","j","16.66969696969685","735","456","j","true","match","img/ellipse.png","椭圆","椭圆","ALT1","formal_ALT1_1","","","","","","","","","","","",""
"null","<span style='color:GreenYellow; font-size: 70px;'>正确! </span>","null","html-keyboard-response","164","318726","0.0-7.0-0.0-4.0-0.0-1.28","3","3","3","3","3","3","3","3","3","4","3","4","4","3","2","3","3","3","4","4","4","4","3","2","4","4","3","2","2","1","0","1","1","0","0","1","1","0","1","1","0","1","0","1","3","2","2","2","4","1","2","2","3","2","1","745755632388542465","吴","171","","","","","","","","","","","","","","","","","","","","","","","","","","","","","","feedback_test","","","","","","","","","","","",""
"793","","f","psychophysics","165","320522","0.0-7.0-0.0-4.0-0.0-0.29","3","3","3","3","3","3","3","3","3","4","3","4","4","3","2","3","3","3","4","4","4","4","3","2","4","4","3","2","2","1","0","1","1","0","0","1","1","0","1","1","0","1","0","1","3","2","2","2","4","1","2","2","3","2","1","745755632388542465","吴","171","","","","nonmatch","","","","","","","","","","","","","","key","f","16.665420560747773","735","456","f","true","nonmatch","img/diamond.png","六边","菱形","ALT1","formal_ALT1_1","","","","","","","","","","","",""
"null","<span style='color:GreenYellow; font-size: 70px;'>正确! </span>","null","html-keyboard-response","166","321024","0.0-7.0-0.0-4.0-0.0-1.29","3","3","3","3","3","3","3","3","3","4","3","4","4","3","2","3","3","3","4","4","4","4","3","2","4","4","3","2","2","1","0","1","1","0","0","1","1","0","1","1","0","1","0","1","3","2","2","2","4","1","2","2","3","2","1","745755632388542465","吴","171","","","","","","","","","","","","","","","","","","","","","","","","","","","","","","feedback_test","","","","","","","","","","","",""
"871","","j","psychophysics","167","322897","0.0-7.0-0.0-4.0-0.0-0.30","3","3","3","3","3","3","3","3","3","4","3","4","4","3","2","3","3","3","4","4","4","4","3","2","4","4","3","2","2","1","0","1","1","0","0","1","1","0","1","1","0","1","0","1","3","2","2","2","4","1","2","2","3","2","1","745755632388542465","吴","171","","","","match","","","","","","","","","","","","","","key","j","16.666666666666668","735","456","j","true","match","img/ellipse.png","椭圆","椭圆","ALT1","formal_ALT1_1","","","","","","","","","","","",""
"null","<span style='color:GreenYellow; font-size: 70px;'>正确! </span>","null","html-keyboard-response","168","323399","0.0-7.0-0.0-4.0-0.0-1.30","3","3","3","3","3","3","3","3","3","4","3","4","4","3","2","3","3","3","4","4","4","4","3","2","4","4","3","2","2","1","0","1","1","0","0","1","1","0","1","1","0","1","0","1","3","2","2","2","4","1","2","2","3","2","1","745755632388542465","吴","171","","","","","","","","","","","","","","","","","","","","","","","","","","","","","","feedback_test","","","","","","","","","","","",""
"802","","f","psychophysics","169","325203","0.0-7.0-0.0-4.0-0.0-0.31","3","3","3","3","3","3","3","3","3","4","3","4","4","3","2","3","3","3","4","4","4","4","3","2","4","4","3","2","2","1","0","1","1","0","0","1","1","0","1","1","0","1","0","1","3","2","2","2","4","1","2","2","3","2","1","745755632388542465","吴","171","","","","nonmatch","","","","","","","","","","","","","","key","f","16.666355140187353","735","456","f","true","nonmatch","img/ellipse.png","菱形","椭圆","ALT1","formal_ALT1_1","","","","","","","","","","","",""
"null","<span style='color:GreenYellow; font-size: 70px;'>正确! </span>","null","html-keyboard-response","170","325705","0.0-7.0-0.0-4.0-0.0-1.31","3","3","3","3","3","3","3","3","3","4","3","4","4","3","2","3","3","3","4","4","4","4","3","2","4","4","3","2","2","1","0","1","1","0","0","1","1","0","1","1","0","1","0","1","3","2","2","2","4","1","2","2","3","2","1","745755632388542465","吴","171","","","","","","","","","","","","","","","","","","","","","","","","","","","","","","feedback_test","","","","","","","","","","","",""
"747","","f","psychophysics","171","327455","0.0-7.0-0.0-4.0-0.0-0.32","3","3","3","3","3","3","3","3","3","4","3","4","4","3","2","3","3","3","4","4","4","4","3","2","4","4","3","2","2","1","0","1","1","0","0","1","1","0","1","1","0","1","0","1","3","2","2","2","4","1","2","2","3","2","1","745755632388542465","吴","171","","","","nonmatch","","","","","","","","","","","","","","key","f","16.669230769230545","735","456","f","true","nonmatch","img/triangle.png","椭圆","三角","ALT1","formal_ALT1_1","","","","","","","","","","","",""
"null","<span style='color:GreenYellow; font-size: 70px;'>正确! </span>","null","html-keyboard-response","172","327956","0.0-7.0-0.0-4.0-0.0-1.32","3","3","3","3","3","3","3","3","3","4","3","4","4","3","2","3","3","3","4","4","4","4","3","2","4","4","3","2","2","1","0","1","1","0","0","1","1","0","1","1","0","1","0","1","3","2","2","2","4","1","2","2","3","2","1","745755632388542465","吴","171","","","","","","","","","","","","","","","","","","","","","","","","","","","","","","feedback_test","","","","","","","","","","","",""
"902","","f","psychophysics","173","329860","0.0-7.0-0.0-4.0-0.0-0.33","3","3","3","3","3","3","3","3","3","4","3","4","4","3","2","3","3","3","4","4","4","4","3","2","4","4","3","2","2","1","0","1","1","0","0","1","1","0","1","1","0","1","0","1","3","2","2","2","4","1","2","2","3","2","1","745755632388542465","吴","171","","","","nonmatch","","","","","","","","","","","","","","key","f","16.666371681415825","735","456","f","true","nonmatch","img/hexagon.png","椭圆","六边","ALT1","formal_ALT1_1","","","","","","","","","","","",""
"null","<span style='color:GreenYellow; font-size: 70px;'>正确! </span>","null","html-keyboard-response","174","330362","0.0-7.0-0.0-4.0-0.0-1.33","3","3","3","3","3","3","3","3","3","4","3","4","4","3","2","3","3","3","4","4","4","4","3","2","4","4","3","2","2","1","0","1","1","0","0","1","1","0","1","1","0","1","0","1","3","2","2","2","4","1","2","2","3","2","1","745755632388542465","吴","171","","","","","","","","","","","","","","","","","","","","","","","","","","","","","","feedback_test","","","","","","","","","","","",""
"714","","f","psychophysics","175","332079","0.0-7.0-0.0-4.0-0.0-0.34","3","3","3","3","3","3","3","3","3","4","3","4","4","3","2","3","3","3","4","4","4","4","3","2","4","4","3","2","2","1","0","1","1","0","0","1","1","0","1","1","0","1","0","1","3","2","2","2","4","1","2","2","3","2","1","745755632388542465","吴","171","","","","nonmatch","","","","","","","","","","","","","","key","f","16.66568627450946","735","456","j","false","match","img/diamond.png","菱形","菱形","ALT1","formal_ALT1_1","","","","","","","","","","","",""
"null","<span style='color:red; font-size: 70px;'>错误! </span>","null","html-keyboard-response","176","332581","0.0-7.0-0.0-4.0-0.0-1.34","3","3","3","3","3","3","3","3","3","4","3","4","4","3","2","3","3","3","4","4","4","4","3","2","4","4","3","2","2","1","0","1","1","0","0","1","1","0","1","1","0","1","0","1","3","2","2","2","4","1","2","2","3","2","1","745755632388542465","吴","171","","","","","","","","","","","","","","","","","","","","","","","","","","","","","","feedback_test","","","","","","","","","","","",""
"788","","f","psychophysics","177","334371","0.0-7.0-0.0-4.0-0.0-0.35","3","3","3","3","3","3","3","3","3","4","3","4","4","3","2","3","3","3","4","4","4","4","3","2","4","4","3","2","2","1","0","1","1","0","0","1","1","0","1","1","0","1","0","1","3","2","2","2","4","1","2","2","3","2","1","745755632388542465","吴","171","","","","nonmatch","","","","","","","","","","","","","","key","f","16.666037735848835","735","456","j","false","match","img/diamond.png","菱形","菱形","ALT1","formal_ALT1_1","","","","","","","","","","","",""
"null","<span style='color:red; font-size: 70px;'>错误! </span>","null","html-keyboard-response","178","334873","0.0-7.0-0.0-4.0-0.0-1.35","3","3","3","3","3","3","3","3","3","4","3","4","4","3","2","3","3","3","4","4","4","4","3","2","4","4","3","2","2","1","0","1","1","0","0","1","1","0","1","1","0","1","0","1","3","2","2","2","4","1","2","2","3","2","1","745755632388542465","吴","171","","","","","","","","","","","","","","","","","","","","","","","","","","","","","","feedback_test","","","","","","","","","","","",""
"930","","f","psychophysics","179","336806","0.0-7.0-0.0-4.0-0.0-0.36","3","3","3","3","3","3","3","3","3","4","3","4","4","3","2","3","3","3","4","4","4","4","3","2","4","4","3","2","2","1","0","1","1","0","0","1","1","0","1","1","0","1","0","1","3","2","2","2","4","1","2","2","3","2","1","745755632388542465","吴","171","","","","nonmatch","","","","","","","","","","","","","","key","f","16.669565217391305","735","456","j","false","match","img/hexagon.png","六边","六边","ALT1","formal_ALT1_1","","","","","","","","","","","",""
"null","<span style='color:red; font-size: 70px;'>错误! </span>","null","html-keyboard-response","180","337308","0.0-7.0-0.0-4.0-0.0-1.36","3","3","3","3","3","3","3","3","3","4","3","4","4","3","2","3","3","3","4","4","4","4","3","2","4","4","3","2","2","1","0","1","1","0","0","1","1","0","1","1","0","1","0","1","3","2","2","2","4","1","2","2","3","2","1","745755632388542465","吴","171","","","","","","","","","","","","","","","","","","","","","","","","","","","","","","feedback_test","","","","","","","","","","","",""
"947","","f","psychophysics","181","339257","0.0-7.0-0.0-4.0-0.0-0.37","3","3","3","3","3","3","3","3","3","4","3","4","4","3","2","3","3","3","4","4","4","4","3","2","4","4","3","2","2","1","0","1","1","0","0","1","1","0","1","1","0","1","0","1","3","2","2","2","4","1","2","2","3","2","1","745755632388542465","吴","171","","","","nonmatch","","","","","","","","","","","","","","key","f","16.666379310344727","735","456","f","true","nonmatch","img/diamond.png","三角","菱形","ALT1","formal_ALT1_1","","","","","","","","","","","",""
