"rt","stimulus","response","trial_type","trial_index","time_elapsed","internal_node_id","ses_1","ses_2","ses_3","ses_4","ses_5","ses_6","ses_7","ses_8","ses_9","ses_10","coreself_1","coreself_2","coreself_3","coreself_4","coreself_5","coreself_6","coreself_7","coreself_8","coreself_9","coreself_10","SGPS_1","SGPS_2","SGPS_3","SGPS_4","SGPS_5","SGPS_6","SGPS_7","SGPS_8","SGPS_9","NPI1","NPI2","NPI3","NPI4","NPI5","NPI6","NPI7","NPI8","NPI9","NPI10","NPI11","NPI12","NPI13","NPI14","NPI15","hsns_1","hsns_2","hsns_3","hsns_4","hsns_5","trap1","hsns_6","hsns_7","hsns_8","hsns_9","hsns_10","subj_idx","friend_name","ParticipantID","value","success","user_agent","responses","item_order","radio_event_ids","radio_event_times","key_event_times","mouse_event_times","straightlining","zigzagging","honeypot","timeout","failed_images","failed_audio","failed_video","version_attrib","version_target","correct","IAT","screen_id","task_id","RT","condition","word","varname","summary","version_attrib2","version_target2","time_stamp","view_history","response_type","key_press","avg_frame_time","center_x","center_y","correct_response","identity","Image","question_order","correct_answer","trap1_item"
"29431","
   <p><div style = ""color: white;font-size:25px;"">您好，欢迎参加本次实验。</div> </p>
   <p><div style = ""color: white;font-size:25px;"">为充分保障您的权利，请确保您已经知晓并同意《参与实验同意书》以及《数据公开知情同意书》。</div></p>
   <p><div style = ""color: white;font-size:25px;"">如果您未见过上述内容，请咨询实验员。</div></p>
   <p><div style = ""color: white;font-size:25px;"">如果您选择继续实验，则表示您已经清楚两份知情同意书的内容并同意。</div></p>
   <p><div style = ""color: pink;font-size:30px;"">请确保您记得day0的实验编号，您将在本次实验输入该编号，若您忘记，请咨询实验员后作答。</div></p>
   <p><div style = ""color: lightblue;font-size:25px;"">请您尽可能认真地作答，我们将依据您在各问卷和按键任务中的作答质量发放报酬。</div></p>
   <p> <div style = ""color: green;font-size:25px;""><按空格键至下页></div> </p>
   "," ","html-keyboard-response","0","29433","0.0-0.0","4","3","4","3","4","3","3","4","4","4","4","4","2","4","4","4","5","5","4","5","2","2","2","2","2","2","1","2","2","1","0","0","1","0","1","0","1","0","1","1","0","1","0","1","4","5","4","4","2","2","4","2","4","1","2","730803699089412097","吴","356","","","","","","","","","","","","","","","","","","","","","","","","","","","","","","","","","","","","","","","","","",""
"","","","call-function","1","29436","0.0-1.0-0.0","4","3","4","3","4","3","3","4","4","4","4","4","2","4","4","4","5","5","4","5","2","2","2","2","2","2","1","2","2","1","0","0","1","0","1","0","1","0","1","1","0","1","0","1","4","5","4","4","2","2","4","2","4","1","2","730803699089412097","吴","356","","","","","","","","","","","","","","","","","","","","","","","","","","","","","","","","","","","","","","","","","",""
"11496","","{""friend_name"":""吴"",""ParticipantID"":""356""}","survey-html-form","2","40933","0.0-1.0-1.0","4","3","4","3","4","3","3","4","4","4","4","4","2","4","4","4","5","5","4","5","2","2","2","2","2","2","1","2","2","1","0","0","1","0","1","0","1","0","1","1","0","1","0","1","4","5","4","4","2","2","4","2","4","1","2","730803699089412097","吴","356","","","","","","","","","","","","","","","","","","","","","","","","","","","","","","","","","","","","","","","","","",""
"","","","fullscreen","3","44139","0.0-2.0","4","3","4","3","4","3","3","4","4","4","4","4","2","4","4","4","5","5","4","5","2","2","2","2","2","2","1","2","2","1","0","0","1","0","1","0","1","0","1","1","0","1","0","1","4","5","4","4","2","2","4","2","4","1","2","730803699089412097","吴","356","","true","{}","","","","","","","","","","","","","","","","","","","","","","","","","","","","","","","","","","","","","","",""
"20303","","{""Q01"":""4"",""Q02"":""3"",""Q03"":""4"",""Q04"":""3"",""Q05"":""4"",""Q06"":""3"",""Q07"":""3"",""Q08"":""4"",""Q09"":""4"",""Q10"":""4""}","survey-template","4","64444","0.0-3.0","4","3","4","3","4","3","3","4","4","4","4","4","2","4","4","4","5","5","4","5","2","2","2","2","2","2","1","2","2","1","0","0","1","0","1","0","1","0","1","1","0","1","0","1","4","5","4","4","2","2","4","2","4","1","2","730803699089412097","吴","356","","","","{""Q01"":""4"",""Q02"":""3"",""Q03"":""4"",""Q04"":""3"",""Q05"":""4"",""Q06"":""3"",""Q07"":""3"",""Q08"":""4"",""Q09"":""4"",""Q10"":""4""}","[0,1,2,3,4,5,6,7,8,9]","[""Q01"",""Q02"",""Q03"",""Q04"",""Q05"",""Q06"",""Q07"",""Q08"",""Q09"",""Q10""]","[4545.700000000186,6085.700000000186,7979.5,9075.5,10451.700000000186,11655.5,14125.700000000186,16085.700000000186,17377.40000000014,18513.600000000093]","[]","[4545.700000000186,6085.700000000186,7979.5,9075.5,10451.700000000186,11655.5,13453.40000000014,14125.700000000186,16085.700000000186,17377.40000000014,18513.600000000093,20301.600000000093]","0.5","0.1111111111111111","0","","","","","","","","","","","","","","","","","","","","","","","","","","","","","",""
"24427.40000000014","","{""Q01"":""4"",""Q02"":""4"",""Q03"":""2"",""Q04"":""4"",""Q05"":""4"",""Q06"":""4"",""Q07"":""5"",""Q08"":""5"",""Q09"":""4"",""Q10"":""5""}","survey-template","5","88876","0.0-4.0","4","3","4","3","4","3","3","4","4","4","4","4","2","4","4","4","5","5","4","5","2","2","2","2","2","2","1","2","2","1","0","0","1","0","1","0","1","0","1","1","0","1","0","1","4","5","4","4","2","2","4","2","4","1","2","730803699089412097","吴","356","","","","{""Q01"":""4"",""Q02"":""4"",""Q03"":""2"",""Q04"":""4"",""Q05"":""4"",""Q06"":""4"",""Q07"":""5"",""Q08"":""5"",""Q09"":""4"",""Q10"":""5""}","[0,1,2,3,4,5,6,7,8,9]","[""Q01"",""Q02"",""Q03"",""Q04"",""Q05"",""Q06"",""Q07"",""Q08"",""Q09"",""Q10""]","[6039.100000000093,8505.5,9551.600000000093,10729.100000000093,13045.199999999953,14269.199999999953,17235.100000000093,19375.600000000093,20827.199999999953,22533.199999999953]","[]","[6039.100000000093,7315.199999999953,8505.5,9551.600000000093,10729.100000000093,13045.199999999953,14269.199999999953,17235.100000000093,19375.600000000093,20827.199999999953,22533.199999999953,24426.100000000093]","0.5","0","0","","","","","","","","","","","","","","","","","","","","","","","","","","","","","",""
"","","","preload","6","89341","0.0-5.0","4","3","4","3","4","3","3","4","4","4","4","4","2","4","4","4","5","5","4","5","2","2","2","2","2","2","1","2","2","1","0","0","1","0","1","0","1","0","1","1","0","1","0","1","4","5","4","4","2","2","4","2","4","1","2","730803699089412097","吴","356","","true","","","","","","","","","","","false","[]","[]","[]","","","","","","","","","","","","","","","","","","","","","","","","","",""
"16367","
    <h3>词语分类任务</h3>
    <p>在接下来的任务中，你需要对一系列词语进行分类。</p>
    <p>请先熟悉这些词语，这有利于你完成接下来的任务。</p>
    <table align=""center"" border=1 cellpadding=3 cellspacing=0>
    <tr> <th>类别</th> <th>词语</th> </tr>
    <tr> <td>&emsp;积极&emsp;</td> <td>&emsp;能干、全能、全才、高效、精干、天才&emsp;</td> </tr>
    <tr> <td>&emsp;消极&emsp;</td> <td>&emsp;无能、低能、废物、拙笨、愚钝、蠢笨&emsp;</td> </tr>
    <tr> <td>&emsp;自我&emsp;</td> <td>&emsp;我、我的、自己、自己的、本人、本人的&emsp;</td> </tr>
    <tr> <td>&emsp;他人&emsp;</td> <td>&emsp;他、他的、别人、别人的、他人、他人的&emsp;</td> </tr>
    </table><br/>","0","html-button-response","7","105708","0.0-6.0-0.0-0.0","4","3","4","3","4","3","3","4","4","4","4","4","2","4","4","4","5","5","4","5","2","2","2","2","2","2","1","2","2","1","0","0","1","0","1","0","1","0","1","1","0","1","0","1","4","5","4","4","2","2","4","2","4","1","2","730803699089412097","吴","356","","","","","","","","","","","","","","","","","1","2","","","","","","","","","","","","","","","","","","","","","","","",""
"14243","
    <div class=""tag-bottom"">
    <p> —— 任务1：对“他人”词和“自我”词分类 ——<p/>
    不同词语会出现在屏幕中央，类别标签将始终显示在屏幕上方<p/>   
    <span style=""color:#FFD866""><b>请根据上方标签的提示，尽可能正确并且快速地做出按键反应</b></span><p/>
    当按键错误时屏幕中会出现<span style=""color:red""> X </span>，需要按另一个键纠正才能继续<br/><p/>
    请把双手食指分别放在键盘的“E”键和“I”键上<p/>
    按<空格键>开始
    </p></div>"," ","html-keyboard-response","8","119953","0.0-6.0-0.0-1.0","4","3","4","3","4","3","3","4","4","4","4","4","2","4","4","4","5","5","4","5","2","2","2","2","2","2","1","2","2","1","0","0","1","0","1","0","1","0","1","1","0","1","0","1","4","5","4","4","2","2","4","2","4","1","2","730803699089412097","吴","356","","","","","","","","","","","","","","","","","","","","","","","","","","","","","","","","","","","","","","","","","",""
"null","","null","html-keyboard-response","9","120206","0.0-6.0-0.0-2.0-0.0","4","3","4","3","4","3","3","4","4","4","4","4","2","4","4","4","5","5","4","5","2","2","2","2","2","2","1","2","2","1","0","0","1","0","1","0","1","0","1","1","0","1","0","1","4","5","4","4","2","2","4","2","4","1","2","730803699089412097","吴","356","","","","","","","","","","","","","","","","","","","","","","","","","","","","","","","","","","","","","","","","","",""
"875","<p style=""color:rgb(150, 250, 100); font-size: 35px;"">他</p>","e","categorize-html","10","121085","0.0-6.0-0.0-2.0-1.0","4","3","4","3","4","3","3","4","4","4","4","4","2","4","4","4","5","5","4","5","2","2","2","2","2","2","1","2","2","1","0","0","1","0","1","0","1","0","1","1","0","1","0","1","4","5","4","4","2","2","4","2","4","1","2","730803699089412097","吴","356","","","","","","","","","","","","","","","","","","","true","1","1","ability","875","other","他","","","","","","","","","","","","","","","","",""
"null","","null","html-keyboard-response","11","121337","0.0-6.0-0.0-2.0-0.1","4","3","4","3","4","3","3","4","4","4","4","4","2","4","4","4","5","5","4","5","2","2","2","2","2","2","1","2","2","1","0","0","1","0","1","0","1","0","1","1","0","1","0","1","4","5","4","4","2","2","4","2","4","1","2","730803699089412097","吴","356","","","","","","","","","","","","","","","","","","","","","","","","","","","","","","","","","","","","","","","","","",""
"948","<p style=""color:rgb(150, 250, 100); font-size: 35px;"">别人</p>","e","categorize-html","12","122286","0.0-6.0-0.0-2.0-1.1","4","3","4","3","4","3","3","4","4","4","4","4","2","4","4","4","5","5","4","5","2","2","2","2","2","2","1","2","2","1","0","0","1","0","1","0","1","0","1","1","0","1","0","1","4","5","4","4","2","2","4","2","4","1","2","730803699089412097","吴","356","","","","","","","","","","","","","","","","","","","true","1","1","ability","948","other","别人","","","","","","","","","","","","","","","","",""
"null","","null","html-keyboard-response","13","122538","0.0-6.0-0.0-2.0-0.2","4","3","4","3","4","3","3","4","4","4","4","4","2","4","4","4","5","5","4","5","2","2","2","2","2","2","1","2","2","1","0","0","1","0","1","0","1","0","1","1","0","1","0","1","4","5","4","4","2","2","4","2","4","1","2","730803699089412097","吴","356","","","","","","","","","","","","","","","","","","","","","","","","","","","","","","","","","","","","","","","","","",""
"545","<p style=""color:rgb(150, 250, 100); font-size: 35px;"">他人</p>","e","categorize-html","14","123083","0.0-6.0-0.0-2.0-1.2","4","3","4","3","4","3","3","4","4","4","4","4","2","4","4","4","5","5","4","5","2","2","2","2","2","2","1","2","2","1","0","0","1","0","1","0","1","0","1","1","0","1","0","1","4","5","4","4","2","2","4","2","4","1","2","730803699089412097","吴","356","","","","","","","","","","","","","","","","","","","true","1","1","ability","545","other","他人","","","","","","","","","","","","","","","","",""
"null","","null","html-keyboard-response","15","123335","0.0-6.0-0.0-2.0-0.3","4","3","4","3","4","3","3","4","4","4","4","4","2","4","4","4","5","5","4","5","2","2","2","2","2","2","1","2","2","1","0","0","1","0","1","0","1","0","1","1","0","1","0","1","4","5","4","4","2","2","4","2","4","1","2","730803699089412097","吴","356","","","","","","","","","","","","","","","","","","","","","","","","","","","","","","","","","","","","","","","","","",""
"527","<p style=""color:rgb(150, 250, 100); font-size: 35px;"">自己的</p>","i","categorize-html","16","123863","0.0-6.0-0.0-2.0-1.3","4","3","4","3","4","3","3","4","4","4","4","4","2","4","4","4","5","5","4","5","2","2","2","2","2","2","1","2","2","1","0","0","1","0","1","0","1","0","1","1","0","1","0","1","4","5","4","4","2","2","4","2","4","1","2","730803699089412097","吴","356","","","","","","","","","","","","","","","","","","","true","1","1","ability","527","self","自己的","","","","","","","","","","","","","","","","",""
"null","","null","html-keyboard-response","17","124115","0.0-6.0-0.0-2.0-0.4","4","3","4","3","4","3","3","4","4","4","4","4","2","4","4","4","5","5","4","5","2","2","2","2","2","2","1","2","2","1","0","0","1","0","1","0","1","0","1","1","0","1","0","1","4","5","4","4","2","2","4","2","4","1","2","730803699089412097","吴","356","","","","","","","","","","","","","","","","","","","","","","","","","","","","","","","","","","","","","","","","","",""
"464","<p style=""color:rgb(150, 250, 100); font-size: 35px;"">他人的</p>","e","categorize-html","18","124580","0.0-6.0-0.0-2.0-1.4","4","3","4","3","4","3","3","4","4","4","4","4","2","4","4","4","5","5","4","5","2","2","2","2","2","2","1","2","2","1","0","0","1","0","1","0","1","0","1","1","0","1","0","1","4","5","4","4","2","2","4","2","4","1","2","730803699089412097","吴","356","","","","","","","","","","","","","","","","","","","true","1","1","ability","464","other","他人的","","","","","","","","","","","","","","","","",""
"null","","null","html-keyboard-response","19","124831","0.0-6.0-0.0-2.0-0.5","4","3","4","3","4","3","3","4","4","4","4","4","2","4","4","4","5","5","4","5","2","2","2","2","2","2","1","2","2","1","0","0","1","0","1","0","1","0","1","1","0","1","0","1","4","5","4","4","2","2","4","2","4","1","2","730803699089412097","吴","356","","","","","","","","","","","","","","","","","","","","","","","","","","","","","","","","","","","","","","","","","",""
"493","<p style=""color:rgb(150, 250, 100); font-size: 35px;"">本人</p>","i","categorize-html","20","125325","0.0-6.0-0.0-2.0-1.5","4","3","4","3","4","3","3","4","4","4","4","4","2","4","4","4","5","5","4","5","2","2","2","2","2","2","1","2","2","1","0","0","1","0","1","0","1","0","1","1","0","1","0","1","4","5","4","4","2","2","4","2","4","1","2","730803699089412097","吴","356","","","","","","","","","","","","","","","","","","","true","1","1","ability","493","self","本人","","","","","","","","","","","","","","","","",""
"null","","null","html-keyboard-response","21","125577","0.0-6.0-0.0-2.0-0.6","4","3","4","3","4","3","3","4","4","4","4","4","2","4","4","4","5","5","4","5","2","2","2","2","2","2","1","2","2","1","0","0","1","0","1","0","1","0","1","1","0","1","0","1","4","5","4","4","2","2","4","2","4","1","2","730803699089412097","吴","356","","","","","","","","","","","","","","","","","","","","","","","","","","","","","","","","","","","","","","","","","",""
"470","<p style=""color:rgb(150, 250, 100); font-size: 35px;"">别人的</p>","e","categorize-html","22","126048","0.0-6.0-0.0-2.0-1.6","4","3","4","3","4","3","3","4","4","4","4","4","2","4","4","4","5","5","4","5","2","2","2","2","2","2","1","2","2","1","0","0","1","0","1","0","1","0","1","1","0","1","0","1","4","5","4","4","2","2","4","2","4","1","2","730803699089412097","吴","356","","","","","","","","","","","","","","","","","","","true","1","1","ability","470","other","别人的","","","","","","","","","","","","","","","","",""
"null","","null","html-keyboard-response","23","126298","0.0-6.0-0.0-2.0-0.7","4","3","4","3","4","3","3","4","4","4","4","4","2","4","4","4","5","5","4","5","2","2","2","2","2","2","1","2","2","1","0","0","1","0","1","0","1","0","1","1","0","1","0","1","4","5","4","4","2","2","4","2","4","1","2","730803699089412097","吴","356","","","","","","","","","","","","","","","","","","","","","","","","","","","","","","","","","","","","","","","","","",""
"435","<p style=""color:rgb(150, 250, 100); font-size: 35px;"">我</p>","i","categorize-html","24","126734","0.0-6.0-0.0-2.0-1.7","4","3","4","3","4","3","3","4","4","4","4","4","2","4","4","4","5","5","4","5","2","2","2","2","2","2","1","2","2","1","0","0","1","0","1","0","1","0","1","1","0","1","0","1","4","5","4","4","2","2","4","2","4","1","2","730803699089412097","吴","356","","","","","","","","","","","","","","","","","","","true","1","1","ability","435","self","我","","","","","","","","","","","","","","","","",""
"null","","null","html-keyboard-response","25","126986","0.0-6.0-0.0-2.0-0.8","4","3","4","3","4","3","3","4","4","4","4","4","2","4","4","4","5","5","4","5","2","2","2","2","2","2","1","2","2","1","0","0","1","0","1","0","1","0","1","1","0","1","0","1","4","5","4","4","2","2","4","2","4","1","2","730803699089412097","吴","356","","","","","","","","","","","","","","","","","","","","","","","","","","","","","","","","","","","","","","","","","",""
"433","<p style=""color:rgb(150, 250, 100); font-size: 35px;"">本人的</p>","e","categorize-html","26","128139","0.0-6.0-0.0-2.0-1.8","4","3","4","3","4","3","3","4","4","4","4","4","2","4","4","4","5","5","4","5","2","2","2","2","2","2","1","2","2","1","0","0","1","0","1","0","1","0","1","1","0","1","0","1","4","5","4","4","2","2","4","2","4","1","2","730803699089412097","吴","356","","","","","","","","","","","","","","","","","","","false","1","1","ability","433","self","本人的","","","","","","","","","","","","","","","","",""
"null","","null","html-keyboard-response","27","128390","0.0-6.0-0.0-2.0-0.9","4","3","4","3","4","3","3","4","4","4","4","4","2","4","4","4","5","5","4","5","2","2","2","2","2","2","1","2","2","1","0","0","1","0","1","0","1","0","1","1","0","1","0","1","4","5","4","4","2","2","4","2","4","1","2","730803699089412097","吴","356","","","","","","","","","","","","","","","","","","","","","","","","","","","","","","","","","","","","","","","","","",""
"576","<p style=""color:rgb(150, 250, 100); font-size: 35px;"">自己</p>","i","categorize-html","28","128967","0.0-6.0-0.0-2.0-1.9","4","3","4","3","4","3","3","4","4","4","4","4","2","4","4","4","5","5","4","5","2","2","2","2","2","2","1","2","2","1","0","0","1","0","1","0","1","0","1","1","0","1","0","1","4","5","4","4","2","2","4","2","4","1","2","730803699089412097","吴","356","","","","","","","","","","","","","","","","","","","true","1","1","ability","576","self","自己","","","","","","","","","","","","","","","","",""
"null","","null","html-keyboard-response","29","129218","0.0-6.0-0.0-2.0-0.10","4","3","4","3","4","3","3","4","4","4","4","4","2","4","4","4","5","5","4","5","2","2","2","2","2","2","1","2","2","1","0","0","1","0","1","0","1","0","1","1","0","1","0","1","4","5","4","4","2","2","4","2","4","1","2","730803699089412097","吴","356","","","","","","","","","","","","","","","","","","","","","","","","","","","","","","","","","","","","","","","","","",""
"458","<p style=""color:rgb(150, 250, 100); font-size: 35px;"">我的</p>","i","categorize-html","30","129679","0.0-6.0-0.0-2.0-1.10","4","3","4","3","4","3","3","4","4","4","4","4","2","4","4","4","5","5","4","5","2","2","2","2","2","2","1","2","2","1","0","0","1","0","1","0","1","0","1","1","0","1","0","1","4","5","4","4","2","2","4","2","4","1","2","730803699089412097","吴","356","","","","","","","","","","","","","","","","","","","true","1","1","ability","458","self","我的","","","","","","","","","","","","","","","","",""
"null","","null","html-keyboard-response","31","129931","0.0-6.0-0.0-2.0-0.11","4","3","4","3","4","3","3","4","4","4","4","4","2","4","4","4","5","5","4","5","2","2","2","2","2","2","1","2","2","1","0","0","1","0","1","0","1","0","1","1","0","1","0","1","4","5","4","4","2","2","4","2","4","1","2","730803699089412097","吴","356","","","","","","","","","","","","","","","","","","","","","","","","","","","","","","","","","","","","","","","","","",""
"517","<p style=""color:rgb(150, 250, 100); font-size: 35px;"">他的</p>","e","categorize-html","32","130449","0.0-6.0-0.0-2.0-1.11","4","3","4","3","4","3","3","4","4","4","4","4","2","4","4","4","5","5","4","5","2","2","2","2","2","2","1","2","2","1","0","0","1","0","1","0","1","0","1","1","0","1","0","1","4","5","4","4","2","2","4","2","4","1","2","730803699089412097","吴","356","","","","","","","","","","","","","","","","","","","true","1","1","ability","517","other","他的","","","","","","","","","","","","","","","","",""
"4051","
    <div class=""tag-bottom""><p>
    —— 任务2：对“积极”词和“消极”词分类 ——<p/>   
    <span style=""color:#78DCE8""><b>注意上方，类别标签和需要分类的词语都已经改变</b></span><p/>
    <span style=""color:#FFD866""><b>请根据上方标签的提示，尽可能正确并且快速地做出按键反应</b></span><p/>
    当按键错误时屏幕中会出现<span style=""color:red""> X </span>，需要按另一个键纠正才能继续<br/><p/>
    请把双手食指分别放在键盘的“E”键和“I”键上<p/>
    按<空格键>开始
    </p></div>"," ","html-keyboard-response","33","134501","0.0-6.0-0.0-3.0","4","3","4","3","4","3","3","4","4","4","4","4","2","4","4","4","5","5","4","5","2","2","2","2","2","2","1","2","2","1","0","0","1","0","1","0","1","0","1","1","0","1","0","1","4","5","4","4","2","2","4","2","4","1","2","730803699089412097","吴","356","","","","","","","","","","","","","","","","","","","","","","","","","","","","","","","","","","","","","","","","","",""
"null","","null","html-keyboard-response","34","134752","0.0-6.0-0.0-4.0-0.0","4","3","4","3","4","3","3","4","4","4","4","4","2","4","4","4","5","5","4","5","2","2","2","2","2","2","1","2","2","1","0","0","1","0","1","0","1","0","1","1","0","1","0","1","4","5","4","4","2","2","4","2","4","1","2","730803699089412097","吴","356","","","","","","","","","","","","","","","","","","","","","","","","","","","","","","","","","","","","","","","","","",""
"669","<p style=""color:white; font-size: 35px;"">全才</p>","e","categorize-html","35","135422","0.0-6.0-0.0-4.0-1.0","4","3","4","3","4","3","3","4","4","4","4","4","2","4","4","4","5","5","4","5","2","2","2","2","2","2","1","2","2","1","0","0","1","0","1","0","1","0","1","1","0","1","0","1","4","5","4","4","2","2","4","2","4","1","2","730803699089412097","吴","356","","","","","","","","","","","","","","","","","","","true","2","2","ability","669","positive","全才","","","","","","","","","","","","","","","","",""
"null","","null","html-keyboard-response","36","135673","0.0-6.0-0.0-4.0-0.1","4","3","4","3","4","3","3","4","4","4","4","4","2","4","4","4","5","5","4","5","2","2","2","2","2","2","1","2","2","1","0","0","1","0","1","0","1","0","1","1","0","1","0","1","4","5","4","4","2","2","4","2","4","1","2","730803699089412097","吴","356","","","","","","","","","","","","","","","","","","","","","","","","","","","","","","","","","","","","","","","","","",""
"501","<p style=""color:white; font-size: 35px;"">蠢笨</p>","i","categorize-html","37","136174","0.0-6.0-0.0-4.0-1.1","4","3","4","3","4","3","3","4","4","4","4","4","2","4","4","4","5","5","4","5","2","2","2","2","2","2","1","2","2","1","0","0","1","0","1","0","1","0","1","1","0","1","0","1","4","5","4","4","2","2","4","2","4","1","2","730803699089412097","吴","356","","","","","","","","","","","","","","","","","","","true","2","2","ability","501","negative","蠢笨","","","","","","","","","","","","","","","","",""
"null","","null","html-keyboard-response","38","136436","0.0-6.0-0.0-4.0-0.2","4","3","4","3","4","3","3","4","4","4","4","4","2","4","4","4","5","5","4","5","2","2","2","2","2","2","1","2","2","1","0","0","1","0","1","0","1","0","1","1","0","1","0","1","4","5","4","4","2","2","4","2","4","1","2","730803699089412097","吴","356","","","","","","","","","","","","","","","","","","","","","","","","","","","","","","","","","","","","","","","","","",""
"612","<p style=""color:white; font-size: 35px;"">高效</p>","e","categorize-html","39","137048","0.0-6.0-0.0-4.0-1.2","4","3","4","3","4","3","3","4","4","4","4","4","2","4","4","4","5","5","4","5","2","2","2","2","2","2","1","2","2","1","0","0","1","0","1","0","1","0","1","1","0","1","0","1","4","5","4","4","2","2","4","2","4","1","2","730803699089412097","吴","356","","","","","","","","","","","","","","","","","","","true","2","2","ability","612","positive","高效","","","","","","","","","","","","","","","","",""
"null","","null","html-keyboard-response","40","137300","0.0-6.0-0.0-4.0-0.3","4","3","4","3","4","3","3","4","4","4","4","4","2","4","4","4","5","5","4","5","2","2","2","2","2","2","1","2","2","1","0","0","1","0","1","0","1","0","1","1","0","1","0","1","4","5","4","4","2","2","4","2","4","1","2","730803699089412097","吴","356","","","","","","","","","","","","","","","","","","","","","","","","","","","","","","","","","","","","","","","","","",""
"642","<p style=""color:white; font-size: 35px;"">低能</p>","i","categorize-html","41","137943","0.0-6.0-0.0-4.0-1.3","4","3","4","3","4","3","3","4","4","4","4","4","2","4","4","4","5","5","4","5","2","2","2","2","2","2","1","2","2","1","0","0","1","0","1","0","1","0","1","1","0","1","0","1","4","5","4","4","2","2","4","2","4","1","2","730803699089412097","吴","356","","","","","","","","","","","","","","","","","","","true","2","2","ability","642","negative","低能","","","","","","","","","","","","","","","","",""
"null","","null","html-keyboard-response","42","138195","0.0-6.0-0.0-4.0-0.4","4","3","4","3","4","3","3","4","4","4","4","4","2","4","4","4","5","5","4","5","2","2","2","2","2","2","1","2","2","1","0","0","1","0","1","0","1","0","1","1","0","1","0","1","4","5","4","4","2","2","4","2","4","1","2","730803699089412097","吴","356","","","","","","","","","","","","","","","","","","","","","","","","","","","","","","","","","","","","","","","","","",""
"483","<p style=""color:white; font-size: 35px;"">全能</p>","e","categorize-html","43","138679","0.0-6.0-0.0-4.0-1.4","4","3","4","3","4","3","3","4","4","4","4","4","2","4","4","4","5","5","4","5","2","2","2","2","2","2","1","2","2","1","0","0","1","0","1","0","1","0","1","1","0","1","0","1","4","5","4","4","2","2","4","2","4","1","2","730803699089412097","吴","356","","","","","","","","","","","","","","","","","","","true","2","2","ability","483","positive","全能","","","","","","","","","","","","","","","","",""
"null","","null","html-keyboard-response","44","138932","0.0-6.0-0.0-4.0-0.5","4","3","4","3","4","3","3","4","4","4","4","4","2","4","4","4","5","5","4","5","2","2","2","2","2","2","1","2","2","1","0","0","1","0","1","0","1","0","1","1","0","1","0","1","4","5","4","4","2","2","4","2","4","1","2","730803699089412097","吴","356","","","","","","","","","","","","","","","","","","","","","","","","","","","","","","","","","","","","","","","","","",""
"507","<p style=""color:white; font-size: 35px;"">愚钝</p>","i","categorize-html","45","139440","0.0-6.0-0.0-4.0-1.5","4","3","4","3","4","3","3","4","4","4","4","4","2","4","4","4","5","5","4","5","2","2","2","2","2","2","1","2","2","1","0","0","1","0","1","0","1","0","1","1","0","1","0","1","4","5","4","4","2","2","4","2","4","1","2","730803699089412097","吴","356","","","","","","","","","","","","","","","","","","","true","2","2","ability","507","negative","愚钝","","","","","","","","","","","","","","","","",""
"null","","null","html-keyboard-response","46","139702","0.0-6.0-0.0-4.0-0.6","4","3","4","3","4","3","3","4","4","4","4","4","2","4","4","4","5","5","4","5","2","2","2","2","2","2","1","2","2","1","0","0","1","0","1","0","1","0","1","1","0","1","0","1","4","5","4","4","2","2","4","2","4","1","2","730803699089412097","吴","356","","","","","","","","","","","","","","","","","","","","","","","","","","","","","","","","","","","","","","","","","",""
"488","<p style=""color:white; font-size: 35px;"">能干</p>","e","categorize-html","47","140191","0.0-6.0-0.0-4.0-1.6","4","3","4","3","4","3","3","4","4","4","4","4","2","4","4","4","5","5","4","5","2","2","2","2","2","2","1","2","2","1","0","0","1","0","1","0","1","0","1","1","0","1","0","1","4","5","4","4","2","2","4","2","4","1","2","730803699089412097","吴","356","","","","","","","","","","","","","","","","","","","true","2","2","ability","488","positive","能干","","","","","","","","","","","","","","","","",""
"null","","null","html-keyboard-response","48","140442","0.0-6.0-0.0-4.0-0.7","4","3","4","3","4","3","3","4","4","4","4","4","2","4","4","4","5","5","4","5","2","2","2","2","2","2","1","2","2","1","0","0","1","0","1","0","1","0","1","1","0","1","0","1","4","5","4","4","2","2","4","2","4","1","2","730803699089412097","吴","356","","","","","","","","","","","","","","","","","","","","","","","","","","","","","","","","","","","","","","","","","",""
"513","<p style=""color:white; font-size: 35px;"">无能</p>","i","categorize-html","49","140956","0.0-6.0-0.0-4.0-1.7","4","3","4","3","4","3","3","4","4","4","4","4","2","4","4","4","5","5","4","5","2","2","2","2","2","2","1","2","2","1","0","0","1","0","1","0","1","0","1","1","0","1","0","1","4","5","4","4","2","2","4","2","4","1","2","730803699089412097","吴","356","","","","","","","","","","","","","","","","","","","true","2","2","ability","513","negative","无能","","","","","","","","","","","","","","","","",""
"null","","null","html-keyboard-response","50","141207","0.0-6.0-0.0-4.0-0.8","4","3","4","3","4","3","3","4","4","4","4","4","2","4","4","4","5","5","4","5","2","2","2","2","2","2","1","2","2","1","0","0","1","0","1","0","1","0","1","1","0","1","0","1","4","5","4","4","2","2","4","2","4","1","2","730803699089412097","吴","356","","","","","","","","","","","","","","","","","","","","","","","","","","","","","","","","","","","","","","","","","",""
"507","<p style=""color:white; font-size: 35px;"">天才</p>","e","categorize-html","51","141715","0.0-6.0-0.0-4.0-1.8","4","3","4","3","4","3","3","4","4","4","4","4","2","4","4","4","5","5","4","5","2","2","2","2","2","2","1","2","2","1","0","0","1","0","1","0","1","0","1","1","0","1","0","1","4","5","4","4","2","2","4","2","4","1","2","730803699089412097","吴","356","","","","","","","","","","","","","","","","","","","true","2","2","ability","507","positive","天才","","","","","","","","","","","","","","","","",""
"null","","null","html-keyboard-response","52","141967","0.0-6.0-0.0-4.0-0.9","4","3","4","3","4","3","3","4","4","4","4","4","2","4","4","4","5","5","4","5","2","2","2","2","2","2","1","2","2","1","0","0","1","0","1","0","1","0","1","1","0","1","0","1","4","5","4","4","2","2","4","2","4","1","2","730803699089412097","吴","356","","","","","","","","","","","","","","","","","","","","","","","","","","","","","","","","","","","","","","","","","",""
"452","<p style=""color:white; font-size: 35px;"">精干</p>","e","categorize-html","53","142420","0.0-6.0-0.0-4.0-1.9","4","3","4","3","4","3","3","4","4","4","4","4","2","4","4","4","5","5","4","5","2","2","2","2","2","2","1","2","2","1","0","0","1","0","1","0","1","0","1","1","0","1","0","1","4","5","4","4","2","2","4","2","4","1","2","730803699089412097","吴","356","","","","","","","","","","","","","","","","","","","true","2","2","ability","452","positive","精干","","","","","","","","","","","","","","","","",""
"null","","null","html-keyboard-response","54","142672","0.0-6.0-0.0-4.0-0.10","4","3","4","3","4","3","3","4","4","4","4","4","2","4","4","4","5","5","4","5","2","2","2","2","2","2","1","2","2","1","0","0","1","0","1","0","1","0","1","1","0","1","0","1","4","5","4","4","2","2","4","2","4","1","2","730803699089412097","吴","356","","","","","","","","","","","","","","","","","","","","","","","","","","","","","","","","","","","","","","","","","",""
"723","<p style=""color:white; font-size: 35px;"">拙笨</p>","i","categorize-html","55","143395","0.0-6.0-0.0-4.0-1.10","4","3","4","3","4","3","3","4","4","4","4","4","2","4","4","4","5","5","4","5","2","2","2","2","2","2","1","2","2","1","0","0","1","0","1","0","1","0","1","1","0","1","0","1","4","5","4","4","2","2","4","2","4","1","2","730803699089412097","吴","356","","","","","","","","","","","","","","","","","","","true","2","2","ability","723","negative","拙笨","","","","","","","","","","","","","","","","",""
"null","","null","html-keyboard-response","56","143650","0.0-6.0-0.0-4.0-0.11","4","3","4","3","4","3","3","4","4","4","4","4","2","4","4","4","5","5","4","5","2","2","2","2","2","2","1","2","2","1","0","0","1","0","1","0","1","0","1","1","0","1","0","1","4","5","4","4","2","2","4","2","4","1","2","730803699089412097","吴","356","","","","","","","","","","","","","","","","","","","","","","","","","","","","","","","","","","","","","","","","","",""
"603","<p style=""color:white; font-size: 35px;"">废物</p>","i","categorize-html","57","144254","0.0-6.0-0.0-4.0-1.11","4","3","4","3","4","3","3","4","4","4","4","4","2","4","4","4","5","5","4","5","2","2","2","2","2","2","1","2","2","1","0","0","1","0","1","0","1","0","1","1","0","1","0","1","4","5","4","4","2","2","4","2","4","1","2","730803699089412097","吴","356","","","","","","","","","","","","","","","","","","","true","2","2","ability","603","negative","废物","","","","","","","","","","","","","","","","",""
"6164","
    <div class=""tag-bottom""><p>
    —— 任务3：对“他人/积极”词和“自我/消极”词分类 ——<p/>
    <span style=""color:#78DCE8""><b>注意上方，之前的四类词语将混合在一起交替呈现</b></span><p/>
    <span style=""color:#FFD866""><b>请根据上方标签的提示，尽可能正确并且快速地做出按键反应</b></span><p/>
    当按键错误时屏幕中会出现<span style=""color:red""> X </span>，需要按另一个键纠正才能继续<br/><p/>
    请把双手食指分别放在键盘的“E”键和“I”键上<p/>
    按<空格键>开始
    </p></div>"," ","html-keyboard-response","58","150419","0.0-6.0-0.0-5.0","4","3","4","3","4","3","3","4","4","4","4","4","2","4","4","4","5","5","4","5","2","2","2","2","2","2","1","2","2","1","0","0","1","0","1","0","1","0","1","1","0","1","0","1","4","5","4","4","2","2","4","2","4","1","2","730803699089412097","吴","356","","","","","","","","","","","","","","","","","","","","","","","","","","","","","","","","","","","","","","","","","",""
"null","","null","html-keyboard-response","59","150670","0.0-6.0-0.0-6.0-0.0","4","3","4","3","4","3","3","4","4","4","4","4","2","4","4","4","5","5","4","5","2","2","2","2","2","2","1","2","2","1","0","0","1","0","1","0","1","0","1","1","0","1","0","1","4","5","4","4","2","2","4","2","4","1","2","730803699089412097","吴","356","","","","","","","","","","","","","","","","","","","","","","","","","","","","","","","","","","","","","","","","","",""
"772","<p style=""color:rgb(150, 250, 100); font-size: 35px;"">他</p>","e","categorize-html","60","151443","0.0-6.0-0.0-6.0-1.0","4","3","4","3","4","3","3","4","4","4","4","4","2","4","4","4","5","5","4","5","2","2","2","2","2","2","1","2","2","1","0","0","1","0","1","0","1","0","1","1","0","1","0","1","4","5","4","4","2","2","4","2","4","1","2","730803699089412097","吴","356","","","","","","","","","","","","","","","","","","","true","3","3","ability","772","other","他","","","","","","","","","","","","","","","","",""
"null","","null","html-keyboard-response","61","151695","0.0-6.0-0.0-6.0-0.1","4","3","4","3","4","3","3","4","4","4","4","4","2","4","4","4","5","5","4","5","2","2","2","2","2","2","1","2","2","1","0","0","1","0","1","0","1","0","1","1","0","1","0","1","4","5","4","4","2","2","4","2","4","1","2","730803699089412097","吴","356","","","","","","","","","","","","","","","","","","","","","","","","","","","","","","","","","","","","","","","","","",""
"558","<p style=""color:white; font-size: 35px;"">低能</p>","i","categorize-html","62","152255","0.0-6.0-0.0-6.0-1.1","4","3","4","3","4","3","3","4","4","4","4","4","2","4","4","4","5","5","4","5","2","2","2","2","2","2","1","2","2","1","0","0","1","0","1","0","1","0","1","1","0","1","0","1","4","5","4","4","2","2","4","2","4","1","2","730803699089412097","吴","356","","","","","","","","","","","","","","","","","","","true","3","3","ability","558","negative","低能","","","","","","","","","","","","","","","","",""
"null","","null","html-keyboard-response","63","152506","0.0-6.0-0.0-6.0-0.2","4","3","4","3","4","3","3","4","4","4","4","4","2","4","4","4","5","5","4","5","2","2","2","2","2","2","1","2","2","1","0","0","1","0","1","0","1","0","1","1","0","1","0","1","4","5","4","4","2","2","4","2","4","1","2","730803699089412097","吴","356","","","","","","","","","","","","","","","","","","","","","","","","","","","","","","","","","","","","","","","","","",""
"957","<p style=""color:rgb(150, 250, 100); font-size: 35px;"">自己</p>","i","categorize-html","64","153464","0.0-6.0-0.0-6.0-1.2","4","3","4","3","4","3","3","4","4","4","4","4","2","4","4","4","5","5","4","5","2","2","2","2","2","2","1","2","2","1","0","0","1","0","1","0","1","0","1","1","0","1","0","1","4","5","4","4","2","2","4","2","4","1","2","730803699089412097","吴","356","","","","","","","","","","","","","","","","","","","true","3","3","ability","957","self","自己","","","","","","","","","","","","","","","","",""
"null","","null","html-keyboard-response","65","153715","0.0-6.0-0.0-6.0-0.3","4","3","4","3","4","3","3","4","4","4","4","4","2","4","4","4","5","5","4","5","2","2","2","2","2","2","1","2","2","1","0","0","1","0","1","0","1","0","1","1","0","1","0","1","4","5","4","4","2","2","4","2","4","1","2","730803699089412097","吴","356","","","","","","","","","","","","","","","","","","","","","","","","","","","","","","","","","","","","","","","","","",""
"580","<p style=""color:white; font-size: 35px;"">全才</p>","e","categorize-html","66","154297","0.0-6.0-0.0-6.0-1.3","4","3","4","3","4","3","3","4","4","4","4","4","2","4","4","4","5","5","4","5","2","2","2","2","2","2","1","2","2","1","0","0","1","0","1","0","1","0","1","1","0","1","0","1","4","5","4","4","2","2","4","2","4","1","2","730803699089412097","吴","356","","","","","","","","","","","","","","","","","","","true","3","3","ability","580","positive","全才","","","","","","","","","","","","","","","","",""
"null","","null","html-keyboard-response","67","154549","0.0-6.0-0.0-6.0-0.4","4","3","4","3","4","3","3","4","4","4","4","4","2","4","4","4","5","5","4","5","2","2","2","2","2","2","1","2","2","1","0","0","1","0","1","0","1","0","1","1","0","1","0","1","4","5","4","4","2","2","4","2","4","1","2","730803699089412097","吴","356","","","","","","","","","","","","","","","","","","","","","","","","","","","","","","","","","","","","","","","","","",""
"610","<p style=""color:rgb(150, 250, 100); font-size: 35px;"">他的</p>","e","categorize-html","68","155160","0.0-6.0-0.0-6.0-1.4","4","3","4","3","4","3","3","4","4","4","4","4","2","4","4","4","5","5","4","5","2","2","2","2","2","2","1","2","2","1","0","0","1","0","1","0","1","0","1","1","0","1","0","1","4","5","4","4","2","2","4","2","4","1","2","730803699089412097","吴","356","","","","","","","","","","","","","","","","","","","true","3","3","ability","610","other","他的","","","","","","","","","","","","","","","","",""
"null","","null","html-keyboard-response","69","155411","0.0-6.0-0.0-6.0-0.5","4","3","4","3","4","3","3","4","4","4","4","4","2","4","4","4","5","5","4","5","2","2","2","2","2","2","1","2","2","1","0","0","1","0","1","0","1","0","1","1","0","1","0","1","4","5","4","4","2","2","4","2","4","1","2","730803699089412097","吴","356","","","","","","","","","","","","","","","","","","","","","","","","","","","","","","","","","","","","","","","","","",""
"739","<p style=""color:white; font-size: 35px;"">废物</p>","i","categorize-html","70","156151","0.0-6.0-0.0-6.0-1.5","4","3","4","3","4","3","3","4","4","4","4","4","2","4","4","4","5","5","4","5","2","2","2","2","2","2","1","2","2","1","0","0","1","0","1","0","1","0","1","1","0","1","0","1","4","5","4","4","2","2","4","2","4","1","2","730803699089412097","吴","356","","","","","","","","","","","","","","","","","","","true","3","3","ability","739","negative","废物","","","","","","","","","","","","","","","","",""
"null","","null","html-keyboard-response","71","156403","0.0-6.0-0.0-6.0-0.6","4","3","4","3","4","3","3","4","4","4","4","4","2","4","4","4","5","5","4","5","2","2","2","2","2","2","1","2","2","1","0","0","1","0","1","0","1","0","1","1","0","1","0","1","4","5","4","4","2","2","4","2","4","1","2","730803699089412097","吴","356","","","","","","","","","","","","","","","","","","","","","","","","","","","","","","","","","","","","","","","","","",""
"831","<p style=""color:rgb(150, 250, 100); font-size: 35px;"">本人</p>","i","categorize-html","72","157235","0.0-6.0-0.0-6.0-1.6","4","3","4","3","4","3","3","4","4","4","4","4","2","4","4","4","5","5","4","5","2","2","2","2","2","2","1","2","2","1","0","0","1","0","1","0","1","0","1","1","0","1","0","1","4","5","4","4","2","2","4","2","4","1","2","730803699089412097","吴","356","","","","","","","","","","","","","","","","","","","true","3","3","ability","831","self","本人","","","","","","","","","","","","","","","","",""
"null","","null","html-keyboard-response","73","157489","0.0-6.0-0.0-6.0-0.7","4","3","4","3","4","3","3","4","4","4","4","4","2","4","4","4","5","5","4","5","2","2","2","2","2","2","1","2","2","1","0","0","1","0","1","0","1","0","1","1","0","1","0","1","4","5","4","4","2","2","4","2","4","1","2","730803699089412097","吴","356","","","","","","","","","","","","","","","","","","","","","","","","","","","","","","","","","","","","","","","","","",""
"893","<p style=""color:white; font-size: 35px;"">精干</p>","e","categorize-html","74","158383","0.0-6.0-0.0-6.0-1.7","4","3","4","3","4","3","3","4","4","4","4","4","2","4","4","4","5","5","4","5","2","2","2","2","2","2","1","2","2","1","0","0","1","0","1","0","1","0","1","1","0","1","0","1","4","5","4","4","2","2","4","2","4","1","2","730803699089412097","吴","356","","","","","","","","","","","","","","","","","","","true","3","3","ability","893","positive","精干","","","","","","","","","","","","","","","","",""
"null","","null","html-keyboard-response","75","158635","0.0-6.0-0.0-6.0-0.8","4","3","4","3","4","3","3","4","4","4","4","4","2","4","4","4","5","5","4","5","2","2","2","2","2","2","1","2","2","1","0","0","1","0","1","0","1","0","1","1","0","1","0","1","4","5","4","4","2","2","4","2","4","1","2","730803699089412097","吴","356","","","","","","","","","","","","","","","","","","","","","","","","","","","","","","","","","","","","","","","","","",""
"662","<p style=""color:rgb(150, 250, 100); font-size: 35px;"">本人的</p>","i","categorize-html","76","159298","0.0-6.0-0.0-6.0-1.8","4","3","4","3","4","3","3","4","4","4","4","4","2","4","4","4","5","5","4","5","2","2","2","2","2","2","1","2","2","1","0","0","1","0","1","0","1","0","1","1","0","1","0","1","4","5","4","4","2","2","4","2","4","1","2","730803699089412097","吴","356","","","","","","","","","","","","","","","","","","","true","3","3","ability","662","self","本人的","","","","","","","","","","","","","","","","",""
"null","","null","html-keyboard-response","77","159550","0.0-6.0-0.0-6.0-0.9","4","3","4","3","4","3","3","4","4","4","4","4","2","4","4","4","5","5","4","5","2","2","2","2","2","2","1","2","2","1","0","0","1","0","1","0","1","0","1","1","0","1","0","1","4","5","4","4","2","2","4","2","4","1","2","730803699089412097","吴","356","","","","","","","","","","","","","","","","","","","","","","","","","","","","","","","","","","","","","","","","","",""
"680","<p style=""color:white; font-size: 35px;"">蠢笨</p>","i","categorize-html","78","160231","0.0-6.0-0.0-6.0-1.9","4","3","4","3","4","3","3","4","4","4","4","4","2","4","4","4","5","5","4","5","2","2","2","2","2","2","1","2","2","1","0","0","1","0","1","0","1","0","1","1","0","1","0","1","4","5","4","4","2","2","4","2","4","1","2","730803699089412097","吴","356","","","","","","","","","","","","","","","","","","","true","3","3","ability","680","negative","蠢笨","","","","","","","","","","","","","","","","",""
"null","","null","html-keyboard-response","79","160482","0.0-6.0-0.0-6.0-0.10","4","3","4","3","4","3","3","4","4","4","4","4","2","4","4","4","5","5","4","5","2","2","2","2","2","2","1","2","2","1","0","0","1","0","1","0","1","0","1","1","0","1","0","1","4","5","4","4","2","2","4","2","4","1","2","730803699089412097","吴","356","","","","","","","","","","","","","","","","","","","","","","","","","","","","","","","","","","","","","","","","","",""
"980","<p style=""color:rgb(150, 250, 100); font-size: 35px;"">别人</p>","e","categorize-html","80","161463","0.0-6.0-0.0-6.0-1.10","4","3","4","3","4","3","3","4","4","4","4","4","2","4","4","4","5","5","4","5","2","2","2","2","2","2","1","2","2","1","0","0","1","0","1","0","1","0","1","1","0","1","0","1","4","5","4","4","2","2","4","2","4","1","2","730803699089412097","吴","356","","","","","","","","","","","","","","","","","","","true","3","3","ability","980","other","别人","","","","","","","","","","","","","","","","",""
"null","","null","html-keyboard-response","81","161714","0.0-6.0-0.0-6.0-0.11","4","3","4","3","4","3","3","4","4","4","4","4","2","4","4","4","5","5","4","5","2","2","2","2","2","2","1","2","2","1","0","0","1","0","1","0","1","0","1","1","0","1","0","1","4","5","4","4","2","2","4","2","4","1","2","730803699089412097","吴","356","","","","","","","","","","","","","","","","","","","","","","","","","","","","","","","","","","","","","","","","","",""
"663","<p style=""color:white; font-size: 35px;"">高效</p>","e","categorize-html","82","162378","0.0-6.0-0.0-6.0-1.11","4","3","4","3","4","3","3","4","4","4","4","4","2","4","4","4","5","5","4","5","2","2","2","2","2","2","1","2","2","1","0","0","1","0","1","0","1","0","1","1","0","1","0","1","4","5","4","4","2","2","4","2","4","1","2","730803699089412097","吴","356","","","","","","","","","","","","","","","","","","","true","3","3","ability","663","positive","高效","","","","","","","","","","","","","","","","",""
"null","","null","html-keyboard-response","83","162630","0.0-6.0-0.0-6.0-0.12","4","3","4","3","4","3","3","4","4","4","4","4","2","4","4","4","5","5","4","5","2","2","2","2","2","2","1","2","2","1","0","0","1","0","1","0","1","0","1","1","0","1","0","1","4","5","4","4","2","2","4","2","4","1","2","730803699089412097","吴","356","","","","","","","","","","","","","","","","","","","","","","","","","","","","","","","","","","","","","","","","","",""
"603","<p style=""color:rgb(150, 250, 100); font-size: 35px;"">他人的</p>","e","categorize-html","84","163234","0.0-6.0-0.0-6.0-1.12","4","3","4","3","4","3","3","4","4","4","4","4","2","4","4","4","5","5","4","5","2","2","2","2","2","2","1","2","2","1","0","0","1","0","1","0","1","0","1","1","0","1","0","1","4","5","4","4","2","2","4","2","4","1","2","730803699089412097","吴","356","","","","","","","","","","","","","","","","","","","true","3","3","ability","603","other","他人的","","","","","","","","","","","","","","","","",""
"null","","null","html-keyboard-response","85","163486","0.0-6.0-0.0-6.0-0.13","4","3","4","3","4","3","3","4","4","4","4","4","2","4","4","4","5","5","4","5","2","2","2","2","2","2","1","2","2","1","0","0","1","0","1","0","1","0","1","1","0","1","0","1","4","5","4","4","2","2","4","2","4","1","2","730803699089412097","吴","356","","","","","","","","","","","","","","","","","","","","","","","","","","","","","","","","","","","","","","","","","",""
"594","<p style=""color:white; font-size: 35px;"">愚钝</p>","i","categorize-html","86","164081","0.0-6.0-0.0-6.0-1.13","4","3","4","3","4","3","3","4","4","4","4","4","2","4","4","4","5","5","4","5","2","2","2","2","2","2","1","2","2","1","0","0","1","0","1","0","1","0","1","1","0","1","0","1","4","5","4","4","2","2","4","2","4","1","2","730803699089412097","吴","356","","","","","","","","","","","","","","","","","","","true","3","3","ability","594","negative","愚钝","","","","","","","","","","","","","","","","",""
"null","","null","html-keyboard-response","87","164332","0.0-6.0-0.0-6.0-0.14","4","3","4","3","4","3","3","4","4","4","4","4","2","4","4","4","5","5","4","5","2","2","2","2","2","2","1","2","2","1","0","0","1","0","1","0","1","0","1","1","0","1","0","1","4","5","4","4","2","2","4","2","4","1","2","730803699089412097","吴","356","","","","","","","","","","","","","","","","","","","","","","","","","","","","","","","","","","","","","","","","","",""
"495","<p style=""color:rgb(150, 250, 100); font-size: 35px;"">我的</p>","i","categorize-html","88","164828","0.0-6.0-0.0-6.0-1.14","4","3","4","3","4","3","3","4","4","4","4","4","2","4","4","4","5","5","4","5","2","2","2","2","2","2","1","2","2","1","0","0","1","0","1","0","1","0","1","1","0","1","0","1","4","5","4","4","2","2","4","2","4","1","2","730803699089412097","吴","356","","","","","","","","","","","","","","","","","","","true","3","3","ability","495","self","我的","","","","","","","","","","","","","","","","",""
"null","","null","html-keyboard-response","89","165079","0.0-6.0-0.0-6.0-0.15","4","3","4","3","4","3","3","4","4","4","4","4","2","4","4","4","5","5","4","5","2","2","2","2","2","2","1","2","2","1","0","0","1","0","1","0","1","0","1","1","0","1","0","1","4","5","4","4","2","2","4","2","4","1","2","730803699089412097","吴","356","","","","","","","","","","","","","","","","","","","","","","","","","","","","","","","","","","","","","","","","","",""
"615","<p style=""color:white; font-size: 35px;"">全能</p>","e","categorize-html","90","165695","0.0-6.0-0.0-6.0-1.15","4","3","4","3","4","3","3","4","4","4","4","4","2","4","4","4","5","5","4","5","2","2","2","2","2","2","1","2","2","1","0","0","1","0","1","0","1","0","1","1","0","1","0","1","4","5","4","4","2","2","4","2","4","1","2","730803699089412097","吴","356","","","","","","","","","","","","","","","","","","","true","3","3","ability","615","positive","全能","","","","","","","","","","","","","","","","",""
"null","","null","html-keyboard-response","91","165946","0.0-6.0-0.0-6.0-0.16","4","3","4","3","4","3","3","4","4","4","4","4","2","4","4","4","5","5","4","5","2","2","2","2","2","2","1","2","2","1","0","0","1","0","1","0","1","0","1","1","0","1","0","1","4","5","4","4","2","2","4","2","4","1","2","730803699089412097","吴","356","","","","","","","","","","","","","","","","","","","","","","","","","","","","","","","","","","","","","","","","","",""
"504","<p style=""color:rgb(150, 250, 100); font-size: 35px;"">别人的</p>","e","categorize-html","92","166451","0.0-6.0-0.0-6.0-1.16","4","3","4","3","4","3","3","4","4","4","4","4","2","4","4","4","5","5","4","5","2","2","2","2","2","2","1","2","2","1","0","0","1","0","1","0","1","0","1","1","0","1","0","1","4","5","4","4","2","2","4","2","4","1","2","730803699089412097","吴","356","","","","","","","","","","","","","","","","","","","true","3","3","ability","504","other","别人的","","","","","","","","","","","","","","","","",""
"null","","null","html-keyboard-response","93","166703","0.0-6.0-0.0-6.0-0.17","4","3","4","3","4","3","3","4","4","4","4","4","2","4","4","4","5","5","4","5","2","2","2","2","2","2","1","2","2","1","0","0","1","0","1","0","1","0","1","1","0","1","0","1","4","5","4","4","2","2","4","2","4","1","2","730803699089412097","吴","356","","","","","","","","","","","","","","","","","","","","","","","","","","","","","","","","","","","","","","","","","",""
"552","<p style=""color:white; font-size: 35px;"">天才</p>","e","categorize-html","94","167256","0.0-6.0-0.0-6.0-1.17","4","3","4","3","4","3","3","4","4","4","4","4","2","4","4","4","5","5","4","5","2","2","2","2","2","2","1","2","2","1","0","0","1","0","1","0","1","0","1","1","0","1","0","1","4","5","4","4","2","2","4","2","4","1","2","730803699089412097","吴","356","","","","","","","","","","","","","","","","","","","true","3","3","ability","552","positive","天才","","","","","","","","","","","","","","","","",""
"null","","null","html-keyboard-response","95","167507","0.0-6.0-0.0-6.0-0.18","4","3","4","3","4","3","3","4","4","4","4","4","2","4","4","4","5","5","4","5","2","2","2","2","2","2","1","2","2","1","0","0","1","0","1","0","1","0","1","1","0","1","0","1","4","5","4","4","2","2","4","2","4","1","2","730803699089412097","吴","356","","","","","","","","","","","","","","","","","","","","","","","","","","","","","","","","","","","","","","","","","",""
"540","<p style=""color:rgb(150, 250, 100); font-size: 35px;"">自己的</p>","i","categorize-html","96","168050","0.0-6.0-0.0-6.0-1.18","4","3","4","3","4","3","3","4","4","4","4","4","2","4","4","4","5","5","4","5","2","2","2","2","2","2","1","2","2","1","0","0","1","0","1","0","1","0","1","1","0","1","0","1","4","5","4","4","2","2","4","2","4","1","2","730803699089412097","吴","356","","","","","","","","","","","","","","","","","","","true","3","3","ability","540","self","自己的","","","","","","","","","","","","","","","","",""
"null","","null","html-keyboard-response","97","168302","0.0-6.0-0.0-6.0-0.19","4","3","4","3","4","3","3","4","4","4","4","4","2","4","4","4","5","5","4","5","2","2","2","2","2","2","1","2","2","1","0","0","1","0","1","0","1","0","1","1","0","1","0","1","4","5","4","4","2","2","4","2","4","1","2","730803699089412097","吴","356","","","","","","","","","","","","","","","","","","","","","","","","","","","","","","","","","","","","","","","","","",""
"688","<p style=""color:white; font-size: 35px;"">拙笨</p>","i","categorize-html","98","168991","0.0-6.0-0.0-6.0-1.19","4","3","4","3","4","3","3","4","4","4","4","4","2","4","4","4","5","5","4","5","2","2","2","2","2","2","1","2","2","1","0","0","1","0","1","0","1","0","1","1","0","1","0","1","4","5","4","4","2","2","4","2","4","1","2","730803699089412097","吴","356","","","","","","","","","","","","","","","","","","","true","3","3","ability","688","negative","拙笨","","","","","","","","","","","","","","","","",""
"null","","null","html-keyboard-response","99","169241","0.0-6.0-0.0-6.0-0.20","4","3","4","3","4","3","3","4","4","4","4","4","2","4","4","4","5","5","4","5","2","2","2","2","2","2","1","2","2","1","0","0","1","0","1","0","1","0","1","1","0","1","0","1","4","5","4","4","2","2","4","2","4","1","2","730803699089412097","吴","356","","","","","","","","","","","","","","","","","","","","","","","","","","","","","","","","","","","","","","","","","",""
"564","<p style=""color:rgb(150, 250, 100); font-size: 35px;"">他人</p>","e","categorize-html","100","169806","0.0-6.0-0.0-6.0-1.20","4","3","4","3","4","3","3","4","4","4","4","4","2","4","4","4","5","5","4","5","2","2","2","2","2","2","1","2","2","1","0","0","1","0","1","0","1","0","1","1","0","1","0","1","4","5","4","4","2","2","4","2","4","1","2","730803699089412097","吴","356","","","","","","","","","","","","","","","","","","","true","3","3","ability","564","other","他人","","","","","","","","","","","","","","","","",""
"null","","null","html-keyboard-response","101","170058","0.0-6.0-0.0-6.0-0.21","4","3","4","3","4","3","3","4","4","4","4","4","2","4","4","4","5","5","4","5","2","2","2","2","2","2","1","2","2","1","0","0","1","0","1","0","1","0","1","1","0","1","0","1","4","5","4","4","2","2","4","2","4","1","2","730803699089412097","吴","356","","","","","","","","","","","","","","","","","","","","","","","","","","","","","","","","","","","","","","","","","",""
"637","<p style=""color:white; font-size: 35px;"">无能</p>","i","categorize-html","102","170695","0.0-6.0-0.0-6.0-1.21","4","3","4","3","4","3","3","4","4","4","4","4","2","4","4","4","5","5","4","5","2","2","2","2","2","2","1","2","2","1","0","0","1","0","1","0","1","0","1","1","0","1","0","1","4","5","4","4","2","2","4","2","4","1","2","730803699089412097","吴","356","","","","","","","","","","","","","","","","","","","true","3","3","ability","637","negative","无能","","","","","","","","","","","","","","","","",""
"null","","null","html-keyboard-response","103","170947","0.0-6.0-0.0-6.0-0.22","4","3","4","3","4","3","3","4","4","4","4","4","2","4","4","4","5","5","4","5","2","2","2","2","2","2","1","2","2","1","0","0","1","0","1","0","1","0","1","1","0","1","0","1","4","5","4","4","2","2","4","2","4","1","2","730803699089412097","吴","356","","","","","","","","","","","","","","","","","","","","","","","","","","","","","","","","","","","","","","","","","",""
"504","<p style=""color:rgb(150, 250, 100); font-size: 35px;"">我</p>","i","categorize-html","104","171452","0.0-6.0-0.0-6.0-1.22","4","3","4","3","4","3","3","4","4","4","4","4","2","4","4","4","5","5","4","5","2","2","2","2","2","2","1","2","2","1","0","0","1","0","1","0","1","0","1","1","0","1","0","1","4","5","4","4","2","2","4","2","4","1","2","730803699089412097","吴","356","","","","","","","","","","","","","","","","","","","true","3","3","ability","504","self","我","","","","","","","","","","","","","","","","",""
"null","","null","html-keyboard-response","105","171702","0.0-6.0-0.0-6.0-0.23","4","3","4","3","4","3","3","4","4","4","4","4","2","4","4","4","5","5","4","5","2","2","2","2","2","2","1","2","2","1","0","0","1","0","1","0","1","0","1","1","0","1","0","1","4","5","4","4","2","2","4","2","4","1","2","730803699089412097","吴","356","","","","","","","","","","","","","","","","","","","","","","","","","","","","","","","","","","","","","","","","","",""
"497","<p style=""color:white; font-size: 35px;"">能干</p>","e","categorize-html","106","172201","0.0-6.0-0.0-6.0-1.23","4","3","4","3","4","3","3","4","4","4","4","4","2","4","4","4","5","5","4","5","2","2","2","2","2","2","1","2","2","1","0","0","1","0","1","0","1","0","1","1","0","1","0","1","4","5","4","4","2","2","4","2","4","1","2","730803699089412097","吴","356","","","","","","","","","","","","","","","","","","","true","3","3","ability","497","positive","能干","","","","","","","","","","","","","","","","",""
"4975","
    <div class=""tag-bottom""><p>
    —— 任务4：对“他人/积极”词和“自我/消极”词分类 ——<p/>
    <span style=""color:#78DCE8""><b>与刚才的任务完全相同，请再次对这四类词语分类</b></span><p/>
    <span style=""color:#FFD866""><b>请根据上方标签的提示，尽可能正确并且快速地做出按键反应</b></span><p/>
    当按键错误时屏幕中会出现<span style=""color:red""> X </span>，需要按另一个键纠正才能继续<br/><p/>
    请把双手食指分别放在键盘的“E”键和“I”键上<p/>
    按<空格键>开始
    </p></div>"," ","html-keyboard-response","107","177176","0.0-6.0-0.0-7.0","4","3","4","3","4","3","3","4","4","4","4","4","2","4","4","4","5","5","4","5","2","2","2","2","2","2","1","2","2","1","0","0","1","0","1","0","1","0","1","1","0","1","0","1","4","5","4","4","2","2","4","2","4","1","2","730803699089412097","吴","356","","","","","","","","","","","","","","","","","","","","","","","","","","","","","","","","","","","","","","","","","",""
"null","","null","html-keyboard-response","108","177427","0.0-6.0-0.0-8.0-0.0","4","3","4","3","4","3","3","4","4","4","4","4","2","4","4","4","5","5","4","5","2","2","2","2","2","2","1","2","2","1","0","0","1","0","1","0","1","0","1","1","0","1","0","1","4","5","4","4","2","2","4","2","4","1","2","730803699089412097","吴","356","","","","","","","","","","","","","","","","","","","","","","","","","","","","","","","","","","","","","","","","","",""
"1030","<p style=""color:rgb(150, 250, 100); font-size: 35px;"">本人的</p>","i","categorize-html","109","178459","0.0-6.0-0.0-8.0-1.0","4","3","4","3","4","3","3","4","4","4","4","4","2","4","4","4","5","5","4","5","2","2","2","2","2","2","1","2","2","1","0","0","1","0","1","0","1","0","1","1","0","1","0","1","4","5","4","4","2","2","4","2","4","1","2","730803699089412097","吴","356","","","","","","","","","","","","","","","","","","","true","4","4","ability","1030","self","本人的","","","","","","","","","","","","","","","","",""
"null","","null","html-keyboard-response","110","178710","0.0-6.0-0.0-8.0-0.1","4","3","4","3","4","3","3","4","4","4","4","4","2","4","4","4","5","5","4","5","2","2","2","2","2","2","1","2","2","1","0","0","1","0","1","0","1","0","1","1","0","1","0","1","4","5","4","4","2","2","4","2","4","1","2","730803699089412097","吴","356","","","","","","","","","","","","","","","","","","","","","","","","","","","","","","","","","","","","","","","","","",""
"687","<p style=""color:white; font-size: 35px;"">拙笨</p>","i","categorize-html","111","179398","0.0-6.0-0.0-8.0-1.1","4","3","4","3","4","3","3","4","4","4","4","4","2","4","4","4","5","5","4","5","2","2","2","2","2","2","1","2","2","1","0","0","1","0","1","0","1","0","1","1","0","1","0","1","4","5","4","4","2","2","4","2","4","1","2","730803699089412097","吴","356","","","","","","","","","","","","","","","","","","","true","4","4","ability","687","negative","拙笨","","","","","","","","","","","","","","","","",""
"null","","null","html-keyboard-response","112","179649","0.0-6.0-0.0-8.0-0.2","4","3","4","3","4","3","3","4","4","4","4","4","2","4","4","4","5","5","4","5","2","2","2","2","2","2","1","2","2","1","0","0","1","0","1","0","1","0","1","1","0","1","0","1","4","5","4","4","2","2","4","2","4","1","2","730803699089412097","吴","356","","","","","","","","","","","","","","","","","","","","","","","","","","","","","","","","","","","","","","","","","",""
"616","<p style=""color:rgb(150, 250, 100); font-size: 35px;"">别人</p>","e","categorize-html","113","180267","0.0-6.0-0.0-8.0-1.2","4","3","4","3","4","3","3","4","4","4","4","4","2","4","4","4","5","5","4","5","2","2","2","2","2","2","1","2","2","1","0","0","1","0","1","0","1","0","1","1","0","1","0","1","4","5","4","4","2","2","4","2","4","1","2","730803699089412097","吴","356","","","","","","","","","","","","","","","","","","","true","4","4","ability","616","other","别人","","","","","","","","","","","","","","","","",""
"null","","null","html-keyboard-response","114","180525","0.0-6.0-0.0-8.0-0.3","4","3","4","3","4","3","3","4","4","4","4","4","2","4","4","4","5","5","4","5","2","2","2","2","2","2","1","2","2","1","0","0","1","0","1","0","1","0","1","1","0","1","0","1","4","5","4","4","2","2","4","2","4","1","2","730803699089412097","吴","356","","","","","","","","","","","","","","","","","","","","","","","","","","","","","","","","","","","","","","","","","",""
"517","<p style=""color:white; font-size: 35px;"">能干</p>","e","categorize-html","115","181044","0.0-6.0-0.0-8.0-1.3","4","3","4","3","4","3","3","4","4","4","4","4","2","4","4","4","5","5","4","5","2","2","2","2","2","2","1","2","2","1","0","0","1","0","1","0","1","0","1","1","0","1","0","1","4","5","4","4","2","2","4","2","4","1","2","730803699089412097","吴","356","","","","","","","","","","","","","","","","","","","true","4","4","ability","517","positive","能干","","","","","","","","","","","","","","","","",""
"null","","null","html-keyboard-response","116","181295","0.0-6.0-0.0-8.0-0.4","4","3","4","3","4","3","3","4","4","4","4","4","2","4","4","4","5","5","4","5","2","2","2","2","2","2","1","2","2","1","0","0","1","0","1","0","1","0","1","1","0","1","0","1","4","5","4","4","2","2","4","2","4","1","2","730803699089412097","吴","356","","","","","","","","","","","","","","","","","","","","","","","","","","","","","","","","","","","","","","","","","",""
"535","<p style=""color:rgb(150, 250, 100); font-size: 35px;"">我</p>","i","categorize-html","117","181831","0.0-6.0-0.0-8.0-1.4","4","3","4","3","4","3","3","4","4","4","4","4","2","4","4","4","5","5","4","5","2","2","2","2","2","2","1","2","2","1","0","0","1","0","1","0","1","0","1","1","0","1","0","1","4","5","4","4","2","2","4","2","4","1","2","730803699089412097","吴","356","","","","","","","","","","","","","","","","","","","true","4","4","ability","535","self","我","","","","","","","","","","","","","","","","",""
"null","","null","html-keyboard-response","118","182083","0.0-6.0-0.0-8.0-0.5","4","3","4","3","4","3","3","4","4","4","4","4","2","4","4","4","5","5","4","5","2","2","2","2","2","2","1","2","2","1","0","0","1","0","1","0","1","0","1","1","0","1","0","1","4","5","4","4","2","2","4","2","4","1","2","730803699089412097","吴","356","","","","","","","","","","","","","","","","","","","","","","","","","","","","","","","","","","","","","","","","","",""
"621","<p style=""color:white; font-size: 35px;"">无能</p>","i","categorize-html","119","182705","0.0-6.0-0.0-8.0-1.5","4","3","4","3","4","3","3","4","4","4","4","4","2","4","4","4","5","5","4","5","2","2","2","2","2","2","1","2","2","1","0","0","1","0","1","0","1","0","1","1","0","1","0","1","4","5","4","4","2","2","4","2","4","1","2","730803699089412097","吴","356","","","","","","","","","","","","","","","","","","","true","4","4","ability","621","negative","无能","","","","","","","","","","","","","","","","",""
"null","","null","html-keyboard-response","120","182957","0.0-6.0-0.0-8.0-0.6","4","3","4","3","4","3","3","4","4","4","4","4","2","4","4","4","5","5","4","5","2","2","2","2","2","2","1","2","2","1","0","0","1","0","1","0","1","0","1","1","0","1","0","1","4","5","4","4","2","2","4","2","4","1","2","730803699089412097","吴","356","","","","","","","","","","","","","","","","","","","","","","","","","","","","","","","","","","","","","","","","","",""
"1039","<p style=""color:rgb(150, 250, 100); font-size: 35px;"">别人的</p>","e","categorize-html","121","183997","0.0-6.0-0.0-8.0-1.6","4","3","4","3","4","3","3","4","4","4","4","4","2","4","4","4","5","5","4","5","2","2","2","2","2","2","1","2","2","1","0","0","1","0","1","0","1","0","1","1","0","1","0","1","4","5","4","4","2","2","4","2","4","1","2","730803699089412097","吴","356","","","","","","","","","","","","","","","","","","","true","4","4","ability","1039","other","别人的","","","","","","","","","","","","","","","","",""
"null","","null","html-keyboard-response","122","184249","0.0-6.0-0.0-8.0-0.7","4","3","4","3","4","3","3","4","4","4","4","4","2","4","4","4","5","5","4","5","2","2","2","2","2","2","1","2","2","1","0","0","1","0","1","0","1","0","1","1","0","1","0","1","4","5","4","4","2","2","4","2","4","1","2","730803699089412097","吴","356","","","","","","","","","","","","","","","","","","","","","","","","","","","","","","","","","","","","","","","","","",""
"469","<p style=""color:white; font-size: 35px;"">高效</p>","e","categorize-html","123","184719","0.0-6.0-0.0-8.0-1.7","4","3","4","3","4","3","3","4","4","4","4","4","2","4","4","4","5","5","4","5","2","2","2","2","2","2","1","2","2","1","0","0","1","0","1","0","1","0","1","1","0","1","0","1","4","5","4","4","2","2","4","2","4","1","2","730803699089412097","吴","356","","","","","","","","","","","","","","","","","","","true","4","4","ability","469","positive","高效","","","","","","","","","","","","","","","","",""
"null","","null","html-keyboard-response","124","184971","0.0-6.0-0.0-8.0-0.8","4","3","4","3","4","3","3","4","4","4","4","4","2","4","4","4","5","5","4","5","2","2","2","2","2","2","1","2","2","1","0","0","1","0","1","0","1","0","1","1","0","1","0","1","4","5","4","4","2","2","4","2","4","1","2","730803699089412097","吴","356","","","","","","","","","","","","","","","","","","","","","","","","","","","","","","","","","","","","","","","","","",""
"575","<p style=""color:rgb(150, 250, 100); font-size: 35px;"">他人</p>","e","categorize-html","125","185548","0.0-6.0-0.0-8.0-1.8","4","3","4","3","4","3","3","4","4","4","4","4","2","4","4","4","5","5","4","5","2","2","2","2","2","2","1","2","2","1","0","0","1","0","1","0","1","0","1","1","0","1","0","1","4","5","4","4","2","2","4","2","4","1","2","730803699089412097","吴","356","","","","","","","","","","","","","","","","","","","true","4","4","ability","575","other","他人","","","","","","","","","","","","","","","","",""
"null","","null","html-keyboard-response","126","185800","0.0-6.0-0.0-8.0-0.9","4","3","4","3","4","3","3","4","4","4","4","4","2","4","4","4","5","5","4","5","2","2","2","2","2","2","1","2","2","1","0","0","1","0","1","0","1","0","1","1","0","1","0","1","4","5","4","4","2","2","4","2","4","1","2","730803699089412097","吴","356","","","","","","","","","","","","","","","","","","","","","","","","","","","","","","","","","","","","","","","","","",""
"534","<p style=""color:white; font-size: 35px;"">废物</p>","i","categorize-html","127","186334","0.0-6.0-0.0-8.0-1.9","4","3","4","3","4","3","3","4","4","4","4","4","2","4","4","4","5","5","4","5","2","2","2","2","2","2","1","2","2","1","0","0","1","0","1","0","1","0","1","1","0","1","0","1","4","5","4","4","2","2","4","2","4","1","2","730803699089412097","吴","356","","","","","","","","","","","","","","","","","","","true","4","4","ability","534","negative","废物","","","","","","","","","","","","","","","","",""
"null","","null","html-keyboard-response","128","186586","0.0-6.0-0.0-8.0-0.10","4","3","4","3","4","3","3","4","4","4","4","4","2","4","4","4","5","5","4","5","2","2","2","2","2","2","1","2","2","1","0","0","1","0","1","0","1","0","1","1","0","1","0","1","4","5","4","4","2","2","4","2","4","1","2","730803699089412097","吴","356","","","","","","","","","","","","","","","","","","","","","","","","","","","","","","","","","","","","","","","","","",""
"557","<p style=""color:rgb(150, 250, 100); font-size: 35px;"">本人的</p>","i","categorize-html","129","187144","0.0-6.0-0.0-8.0-1.10","4","3","4","3","4","3","3","4","4","4","4","4","2","4","4","4","5","5","4","5","2","2","2","2","2","2","1","2","2","1","0","0","1","0","1","0","1","0","1","1","0","1","0","1","4","5","4","4","2","2","4","2","4","1","2","730803699089412097","吴","356","","","","","","","","","","","","","","","","","","","true","4","4","ability","557","self","本人的","","","","","","","","","","","","","","","","",""
"null","","null","html-keyboard-response","130","187396","0.0-6.0-0.0-8.0-0.11","4","3","4","3","4","3","3","4","4","4","4","4","2","4","4","4","5","5","4","5","2","2","2","2","2","2","1","2","2","1","0","0","1","0","1","0","1","0","1","1","0","1","0","1","4","5","4","4","2","2","4","2","4","1","2","730803699089412097","吴","356","","","","","","","","","","","","","","","","","","","","","","","","","","","","","","","","","","","","","","","","","",""
"492","<p style=""color:white; font-size: 35px;"">天才</p>","e","categorize-html","131","187889","0.0-6.0-0.0-8.0-1.11","4","3","4","3","4","3","3","4","4","4","4","4","2","4","4","4","5","5","4","5","2","2","2","2","2","2","1","2","2","1","0","0","1","0","1","0","1","0","1","1","0","1","0","1","4","5","4","4","2","2","4","2","4","1","2","730803699089412097","吴","356","","","","","","","","","","","","","","","","","","","true","4","4","ability","492","positive","天才","","","","","","","","","","","","","","","","",""
"null","","null","html-keyboard-response","132","188141","0.0-6.0-0.0-8.0-0.12","4","3","4","3","4","3","3","4","4","4","4","4","2","4","4","4","5","5","4","5","2","2","2","2","2","2","1","2","2","1","0","0","1","0","1","0","1","0","1","1","0","1","0","1","4","5","4","4","2","2","4","2","4","1","2","730803699089412097","吴","356","","","","","","","","","","","","","","","","","","","","","","","","","","","","","","","","","","","","","","","","","",""
"598","<p style=""color:rgb(150, 250, 100); font-size: 35px;"">自己</p>","i","categorize-html","133","188740","0.0-6.0-0.0-8.0-1.12","4","3","4","3","4","3","3","4","4","4","4","4","2","4","4","4","5","5","4","5","2","2","2","2","2","2","1","2","2","1","0","0","1","0","1","0","1","0","1","1","0","1","0","1","4","5","4","4","2","2","4","2","4","1","2","730803699089412097","吴","356","","","","","","","","","","","","","","","","","","","true","4","4","ability","598","self","自己","","","","","","","","","","","","","","","","",""
"null","","null","html-keyboard-response","134","188991","0.0-6.0-0.0-8.0-0.13","4","3","4","3","4","3","3","4","4","4","4","4","2","4","4","4","5","5","4","5","2","2","2","2","2","2","1","2","2","1","0","0","1","0","1","0","1","0","1","1","0","1","0","1","4","5","4","4","2","2","4","2","4","1","2","730803699089412097","吴","356","","","","","","","","","","","","","","","","","","","","","","","","","","","","","","","","","","","","","","","","","",""
"497","<p style=""color:white; font-size: 35px;"">全能</p>","e","categorize-html","135","189490","0.0-6.0-0.0-8.0-1.13","4","3","4","3","4","3","3","4","4","4","4","4","2","4","4","4","5","5","4","5","2","2","2","2","2","2","1","2","2","1","0","0","1","0","1","0","1","0","1","1","0","1","0","1","4","5","4","4","2","2","4","2","4","1","2","730803699089412097","吴","356","","","","","","","","","","","","","","","","","","","true","4","4","ability","497","positive","全能","","","","","","","","","","","","","","","","",""
"null","","null","html-keyboard-response","136","189741","0.0-6.0-0.0-8.0-0.14","4","3","4","3","4","3","3","4","4","4","4","4","2","4","4","4","5","5","4","5","2","2","2","2","2","2","1","2","2","1","0","0","1","0","1","0","1","0","1","1","0","1","0","1","4","5","4","4","2","2","4","2","4","1","2","730803699089412097","吴","356","","","","","","","","","","","","","","","","","","","","","","","","","","","","","","","","","","","","","","","","","",""
"516","<p style=""color:rgb(150, 250, 100); font-size: 35px;"">他的</p>","e","categorize-html","137","190258","0.0-6.0-0.0-8.0-1.14","4","3","4","3","4","3","3","4","4","4","4","4","2","4","4","4","5","5","4","5","2","2","2","2","2","2","1","2","2","1","0","0","1","0","1","0","1","0","1","1","0","1","0","1","4","5","4","4","2","2","4","2","4","1","2","730803699089412097","吴","356","","","","","","","","","","","","","","","","","","","true","4","4","ability","516","other","他的","","","","","","","","","","","","","","","","",""
"null","","null","html-keyboard-response","138","190522","0.0-6.0-0.0-8.0-0.15","4","3","4","3","4","3","3","4","4","4","4","4","2","4","4","4","5","5","4","5","2","2","2","2","2","2","1","2","2","1","0","0","1","0","1","0","1","0","1","1","0","1","0","1","4","5","4","4","2","2","4","2","4","1","2","730803699089412097","吴","356","","","","","","","","","","","","","","","","","","","","","","","","","","","","","","","","","","","","","","","","","",""
"540","<p style=""color:white; font-size: 35px;"">愚钝</p>","i","categorize-html","139","191063","0.0-6.0-0.0-8.0-1.15","4","3","4","3","4","3","3","4","4","4","4","4","2","4","4","4","5","5","4","5","2","2","2","2","2","2","1","2","2","1","0","0","1","0","1","0","1","0","1","1","0","1","0","1","4","5","4","4","2","2","4","2","4","1","2","730803699089412097","吴","356","","","","","","","","","","","","","","","","","","","true","4","4","ability","540","negative","愚钝","","","","","","","","","","","","","","","","",""
"null","","null","html-keyboard-response","140","191322","0.0-6.0-0.0-8.0-0.16","4","3","4","3","4","3","3","4","4","4","4","4","2","4","4","4","5","5","4","5","2","2","2","2","2","2","1","2","2","1","0","0","1","0","1","0","1","0","1","1","0","1","0","1","4","5","4","4","2","2","4","2","4","1","2","730803699089412097","吴","356","","","","","","","","","","","","","","","","","","","","","","","","","","","","","","","","","","","","","","","","","",""
"496","<p style=""color:rgb(150, 250, 100); font-size: 35px;"">本人</p>","i","categorize-html","141","191820","0.0-6.0-0.0-8.0-1.16","4","3","4","3","4","3","3","4","4","4","4","4","2","4","4","4","5","5","4","5","2","2","2","2","2","2","1","2","2","1","0","0","1","0","1","0","1","0","1","1","0","1","0","1","4","5","4","4","2","2","4","2","4","1","2","730803699089412097","吴","356","","","","","","","","","","","","","","","","","","","true","4","4","ability","496","self","本人","","","","","","","","","","","","","","","","",""
"null","","null","html-keyboard-response","142","192071","0.0-6.0-0.0-8.0-0.17","4","3","4","3","4","3","3","4","4","4","4","4","2","4","4","4","5","5","4","5","2","2","2","2","2","2","1","2","2","1","0","0","1","0","1","0","1","0","1","1","0","1","0","1","4","5","4","4","2","2","4","2","4","1","2","730803699089412097","吴","356","","","","","","","","","","","","","","","","","","","","","","","","","","","","","","","","","","","","","","","","","",""
"557","<p style=""color:white; font-size: 35px;"">拙笨</p>","i","categorize-html","143","192630","0.0-6.0-0.0-8.0-1.17","4","3","4","3","4","3","3","4","4","4","4","4","2","4","4","4","5","5","4","5","2","2","2","2","2","2","1","2","2","1","0","0","1","0","1","0","1","0","1","1","0","1","0","1","4","5","4","4","2","2","4","2","4","1","2","730803699089412097","吴","356","","","","","","","","","","","","","","","","","","","true","4","4","ability","557","negative","拙笨","","","","","","","","","","","","","","","","",""
"null","","null","html-keyboard-response","144","192881","0.0-6.0-0.0-8.0-0.18","4","3","4","3","4","3","3","4","4","4","4","4","2","4","4","4","5","5","4","5","2","2","2","2","2","2","1","2","2","1","0","0","1","0","1","0","1","0","1","1","0","1","0","1","4","5","4","4","2","2","4","2","4","1","2","730803699089412097","吴","356","","","","","","","","","","","","","","","","","","","","","","","","","","","","","","","","","","","","","","","","","",""
"505","<p style=""color:rgb(150, 250, 100); font-size: 35px;"">他人的</p>","i","categorize-html","145","193842","0.0-6.0-0.0-8.0-1.18","4","3","4","3","4","3","3","4","4","4","4","4","2","4","4","4","5","5","4","5","2","2","2","2","2","2","1","2","2","1","0","0","1","0","1","0","1","0","1","1","0","1","0","1","4","5","4","4","2","2","4","2","4","1","2","730803699089412097","吴","356","","","","","","","","","","","","","","","","","","","false","4","4","ability","1204.404255319149","other","他人的","","","","","","","","","","","","","","","","",""
"null","","null","html-keyboard-response","146","194093","0.0-6.0-0.0-8.0-0.19","4","3","4","3","4","3","3","4","4","4","4","4","2","4","4","4","5","5","4","5","2","2","2","2","2","2","1","2","2","1","0","0","1","0","1","0","1","0","1","1","0","1","0","1","4","5","4","4","2","2","4","2","4","1","2","730803699089412097","吴","356","","","","","","","","","","","","","","","","","","","","","","","","","","","","","","","","","","","","","","","","","",""
"582","<p style=""color:white; font-size: 35px;"">天才</p>","e","categorize-html","147","194676","0.0-6.0-0.0-8.0-1.19","4","3","4","3","4","3","3","4","4","4","4","4","2","4","4","4","5","5","4","5","2","2","2","2","2","2","1","2","2","1","0","0","1","0","1","0","1","0","1","1","0","1","0","1","4","5","4","4","2","2","4","2","4","1","2","730803699089412097","吴","356","","","","","","","","","","","","","","","","","","","true","4","4","ability","582","positive","天才","","","","","","","","","","","","","","","","",""
"null","","null","html-keyboard-response","148","194939","0.0-6.0-0.0-8.0-0.20","4","3","4","3","4","3","3","4","4","4","4","4","2","4","4","4","5","5","4","5","2","2","2","2","2","2","1","2","2","1","0","0","1","0","1","0","1","0","1","1","0","1","0","1","4","5","4","4","2","2","4","2","4","1","2","730803699089412097","吴","356","","","","","","","","","","","","","","","","","","","","","","","","","","","","","","","","","","","","","","","","","",""
"543","<p style=""color:rgb(150, 250, 100); font-size: 35px;"">别人的</p>","e","categorize-html","149","195483","0.0-6.0-0.0-8.0-1.20","4","3","4","3","4","3","3","4","4","4","4","4","2","4","4","4","5","5","4","5","2","2","2","2","2","2","1","2","2","1","0","0","1","0","1","0","1","0","1","1","0","1","0","1","4","5","4","4","2","2","4","2","4","1","2","730803699089412097","吴","356","","","","","","","","","","","","","","","","","","","true","4","4","ability","543","other","别人的","","","","","","","","","","","","","","","","",""
"null","","null","html-keyboard-response","150","195734","0.0-6.0-0.0-8.0-0.21","4","3","4","3","4","3","3","4","4","4","4","4","2","4","4","4","5","5","4","5","2","2","2","2","2","2","1","2","2","1","0","0","1","0","1","0","1","0","1","1","0","1","0","1","4","5","4","4","2","2","4","2","4","1","2","730803699089412097","吴","356","","","","","","","","","","","","","","","","","","","","","","","","","","","","","","","","","","","","","","","","","",""
"544","<p style=""color:white; font-size: 35px;"">低能</p>","i","categorize-html","151","196279","0.0-6.0-0.0-8.0-1.21","4","3","4","3","4","3","3","4","4","4","4","4","2","4","4","4","5","5","4","5","2","2","2","2","2","2","1","2","2","1","0","0","1","0","1","0","1","0","1","1","0","1","0","1","4","5","4","4","2","2","4","2","4","1","2","730803699089412097","吴","356","","","","","","","","","","","","","","","","","","","true","4","4","ability","544","negative","低能","","","","","","","","","","","","","","","","",""
"null","","null","html-keyboard-response","152","196533","0.0-6.0-0.0-8.0-0.22","4","3","4","3","4","3","3","4","4","4","4","4","2","4","4","4","5","5","4","5","2","2","2","2","2","2","1","2","2","1","0","0","1","0","1","0","1","0","1","1","0","1","0","1","4","5","4","4","2","2","4","2","4","1","2","730803699089412097","吴","356","","","","","","","","","","","","","","","","","","","","","","","","","","","","","","","","","","","","","","","","","",""
"493","<p style=""color:rgb(150, 250, 100); font-size: 35px;"">我的</p>","i","categorize-html","153","197028","0.0-6.0-0.0-8.0-1.22","4","3","4","3","4","3","3","4","4","4","4","4","2","4","4","4","5","5","4","5","2","2","2","2","2","2","1","2","2","1","0","0","1","0","1","0","1","0","1","1","0","1","0","1","4","5","4","4","2","2","4","2","4","1","2","730803699089412097","吴","356","","","","","","","","","","","","","","","","","","","true","4","4","ability","493","self","我的","","","","","","","","","","","","","","","","",""
"null","","null","html-keyboard-response","154","197279","0.0-6.0-0.0-8.0-0.23","4","3","4","3","4","3","3","4","4","4","4","4","2","4","4","4","5","5","4","5","2","2","2","2","2","2","1","2","2","1","0","0","1","0","1","0","1","0","1","1","0","1","0","1","4","5","4","4","2","2","4","2","4","1","2","730803699089412097","吴","356","","","","","","","","","","","","","","","","","","","","","","","","","","","","","","","","","","","","","","","","","",""
"502","<p style=""color:white; font-size: 35px;"">精干</p>","e","categorize-html","155","197782","0.0-6.0-0.0-8.0-1.23","4","3","4","3","4","3","3","4","4","4","4","4","2","4","4","4","5","5","4","5","2","2","2","2","2","2","1","2","2","1","0","0","1","0","1","0","1","0","1","1","0","1","0","1","4","5","4","4","2","2","4","2","4","1","2","730803699089412097","吴","356","","","","","","","","","","","","","","","","","","","true","4","4","ability","502","positive","精干","","","","","","","","","","","","","","","","",""
"null","","null","html-keyboard-response","156","198033","0.0-6.0-0.0-8.0-0.24","4","3","4","3","4","3","3","4","4","4","4","4","2","4","4","4","5","5","4","5","2","2","2","2","2","2","1","2","2","1","0","0","1","0","1","0","1","0","1","1","0","1","0","1","4","5","4","4","2","2","4","2","4","1","2","730803699089412097","吴","356","","","","","","","","","","","","","","","","","","","","","","","","","","","","","","","","","","","","","","","","","",""
"486","<p style=""color:rgb(150, 250, 100); font-size: 35px;"">他人</p>","e","categorize-html","157","198520","0.0-6.0-0.0-8.0-1.24","4","3","4","3","4","3","3","4","4","4","4","4","2","4","4","4","5","5","4","5","2","2","2","2","2","2","1","2","2","1","0","0","1","0","1","0","1","0","1","1","0","1","0","1","4","5","4","4","2","2","4","2","4","1","2","730803699089412097","吴","356","","","","","","","","","","","","","","","","","","","true","4","4","ability","486","other","他人","","","","","","","","","","","","","","","","",""
"null","","null","html-keyboard-response","158","198771","0.0-6.0-0.0-8.0-0.25","4","3","4","3","4","3","3","4","4","4","4","4","2","4","4","4","5","5","4","5","2","2","2","2","2","2","1","2","2","1","0","0","1","0","1","0","1","0","1","1","0","1","0","1","4","5","4","4","2","2","4","2","4","1","2","730803699089412097","吴","356","","","","","","","","","","","","","","","","","","","","","","","","","","","","","","","","","","","","","","","","","",""
"555","<p style=""color:white; font-size: 35px;"">精干</p>","e","categorize-html","159","199328","0.0-6.0-0.0-8.0-1.25","4","3","4","3","4","3","3","4","4","4","4","4","2","4","4","4","5","5","4","5","2","2","2","2","2","2","1","2","2","1","0","0","1","0","1","0","1","0","1","1","0","1","0","1","4","5","4","4","2","2","4","2","4","1","2","730803699089412097","吴","356","","","","","","","","","","","","","","","","","","","true","4","4","ability","555","positive","精干","","","","","","","","","","","","","","","","",""
"null","","null","html-keyboard-response","160","199579","0.0-6.0-0.0-8.0-0.26","4","3","4","3","4","3","3","4","4","4","4","4","2","4","4","4","5","5","4","5","2","2","2","2","2","2","1","2","2","1","0","0","1","0","1","0","1","0","1","1","0","1","0","1","4","5","4","4","2","2","4","2","4","1","2","730803699089412097","吴","356","","","","","","","","","","","","","","","","","","","","","","","","","","","","","","","","","","","","","","","","","",""
"560","<p style=""color:rgb(150, 250, 100); font-size: 35px;"">我的</p>","i","categorize-html","161","200139","0.0-6.0-0.0-8.0-1.26","4","3","4","3","4","3","3","4","4","4","4","4","2","4","4","4","5","5","4","5","2","2","2","2","2","2","1","2","2","1","0","0","1","0","1","0","1","0","1","1","0","1","0","1","4","5","4","4","2","2","4","2","4","1","2","730803699089412097","吴","356","","","","","","","","","","","","","","","","","","","true","4","4","ability","560","self","我的","","","","","","","","","","","","","","","","",""
"null","","null","html-keyboard-response","162","200391","0.0-6.0-0.0-8.0-0.27","4","3","4","3","4","3","3","4","4","4","4","4","2","4","4","4","5","5","4","5","2","2","2","2","2","2","1","2","2","1","0","0","1","0","1","0","1","0","1","1","0","1","0","1","4","5","4","4","2","2","4","2","4","1","2","730803699089412097","吴","356","","","","","","","","","","","","","","","","","","","","","","","","","","","","","","","","","","","","","","","","","",""
"596","<p style=""color:white; font-size: 35px;"">低能</p>","i","categorize-html","163","200988","0.0-6.0-0.0-8.0-1.27","4","3","4","3","4","3","3","4","4","4","4","4","2","4","4","4","5","5","4","5","2","2","2","2","2","2","1","2","2","1","0","0","1","0","1","0","1","0","1","1","0","1","0","1","4","5","4","4","2","2","4","2","4","1","2","730803699089412097","吴","356","","","","","","","","","","","","","","","","","","","true","4","4","ability","596","negative","低能","","","","","","","","","","","","","","","","",""
"null","","null","html-keyboard-response","164","201240","0.0-6.0-0.0-8.0-0.28","4","3","4","3","4","3","3","4","4","4","4","4","2","4","4","4","5","5","4","5","2","2","2","2","2","2","1","2","2","1","0","0","1","0","1","0","1","0","1","1","0","1","0","1","4","5","4","4","2","2","4","2","4","1","2","730803699089412097","吴","356","","","","","","","","","","","","","","","","","","","","","","","","","","","","","","","","","","","","","","","","","",""
"557","<p style=""color:rgb(150, 250, 100); font-size: 35px;"">他</p>","e","categorize-html","165","201797","0.0-6.0-0.0-8.0-1.28","4","3","4","3","4","3","3","4","4","4","4","4","2","4","4","4","5","5","4","5","2","2","2","2","2","2","1","2","2","1","0","0","1","0","1","0","1","0","1","1","0","1","0","1","4","5","4","4","2","2","4","2","4","1","2","730803699089412097","吴","356","","","","","","","","","","","","","","","","","","","true","4","4","ability","557","other","他","","","","","","","","","","","","","","","","",""
"null","","null","html-keyboard-response","166","202049","0.0-6.0-0.0-8.0-0.29","4","3","4","3","4","3","3","4","4","4","4","4","2","4","4","4","5","5","4","5","2","2","2","2","2","2","1","2","2","1","0","0","1","0","1","0","1","0","1","1","0","1","0","1","4","5","4","4","2","2","4","2","4","1","2","730803699089412097","吴","356","","","","","","","","","","","","","","","","","","","","","","","","","","","","","","","","","","","","","","","","","",""
"531","<p style=""color:white; font-size: 35px;"">能干</p>","e","categorize-html","167","202581","0.0-6.0-0.0-8.0-1.29","4","3","4","3","4","3","3","4","4","4","4","4","2","4","4","4","5","5","4","5","2","2","2","2","2","2","1","2","2","1","0","0","1","0","1","0","1","0","1","1","0","1","0","1","4","5","4","4","2","2","4","2","4","1","2","730803699089412097","吴","356","","","","","","","","","","","","","","","","","","","true","4","4","ability","531","positive","能干","","","","","","","","","","","","","","","","",""
"null","","null","html-keyboard-response","168","202833","0.0-6.0-0.0-8.0-0.30","4","3","4","3","4","3","3","4","4","4","4","4","2","4","4","4","5","5","4","5","2","2","2","2","2","2","1","2","2","1","0","0","1","0","1","0","1","0","1","1","0","1","0","1","4","5","4","4","2","2","4","2","4","1","2","730803699089412097","吴","356","","","","","","","","","","","","","","","","","","","","","","","","","","","","","","","","","","","","","","","","","",""
"559","<p style=""color:rgb(150, 250, 100); font-size: 35px;"">本人</p>","i","categorize-html","169","203393","0.0-6.0-0.0-8.0-1.30","4","3","4","3","4","3","3","4","4","4","4","4","2","4","4","4","5","5","4","5","2","2","2","2","2","2","1","2","2","1","0","0","1","0","1","0","1","0","1","1","0","1","0","1","4","5","4","4","2","2","4","2","4","1","2","730803699089412097","吴","356","","","","","","","","","","","","","","","","","","","true","4","4","ability","559","self","本人","","","","","","","","","","","","","","","","",""
"null","","null","html-keyboard-response","170","203644","0.0-6.0-0.0-8.0-0.31","4","3","4","3","4","3","3","4","4","4","4","4","2","4","4","4","5","5","4","5","2","2","2","2","2","2","1","2","2","1","0","0","1","0","1","0","1","0","1","1","0","1","0","1","4","5","4","4","2","2","4","2","4","1","2","730803699089412097","吴","356","","","","","","","","","","","","","","","","","","","","","","","","","","","","","","","","","","","","","","","","","",""
"687","<p style=""color:white; font-size: 35px;"">无能</p>","i","categorize-html","171","204333","0.0-6.0-0.0-8.0-1.31","4","3","4","3","4","3","3","4","4","4","4","4","2","4","4","4","5","5","4","5","2","2","2","2","2","2","1","2","2","1","0","0","1","0","1","0","1","0","1","1","0","1","0","1","4","5","4","4","2","2","4","2","4","1","2","730803699089412097","吴","356","","","","","","","","","","","","","","","","","","","true","4","4","ability","687","negative","无能","","","","","","","","","","","","","","","","",""
"null","","null","html-keyboard-response","172","204589","0.0-6.0-0.0-8.0-0.32","4","3","4","3","4","3","3","4","4","4","4","4","2","4","4","4","5","5","4","5","2","2","2","2","2","2","1","2","2","1","0","0","1","0","1","0","1","0","1","1","0","1","0","1","4","5","4","4","2","2","4","2","4","1","2","730803699089412097","吴","356","","","","","","","","","","","","","","","","","","","","","","","","","","","","","","","","","","","","","","","","","",""
"1039","<p style=""color:rgb(150, 250, 100); font-size: 35px;"">自己的</p>","i","categorize-html","173","205629","0.0-6.0-0.0-8.0-1.32","4","3","4","3","4","3","3","4","4","4","4","4","2","4","4","4","5","5","4","5","2","2","2","2","2","2","1","2","2","1","0","0","1","0","1","0","1","0","1","1","0","1","0","1","4","5","4","4","2","2","4","2","4","1","2","730803699089412097","吴","356","","","","","","","","","","","","","","","","","","","true","4","4","ability","1039","self","自己的","","","","","","","","","","","","","","","","",""
"null","","null","html-keyboard-response","174","205880","0.0-6.0-0.0-8.0-0.33","4","3","4","3","4","3","3","4","4","4","4","4","2","4","4","4","5","5","4","5","2","2","2","2","2","2","1","2","2","1","0","0","1","0","1","0","1","0","1","1","0","1","0","1","4","5","4","4","2","2","4","2","4","1","2","730803699089412097","吴","356","","","","","","","","","","","","","","","","","","","","","","","","","","","","","","","","","","","","","","","","","",""
"1322","<p style=""color:white; font-size: 35px;"">蠢笨</p>","i","categorize-html","175","207203","0.0-6.0-0.0-8.0-1.33","4","3","4","3","4","3","3","4","4","4","4","4","2","4","4","4","5","5","4","5","2","2","2","2","2","2","1","2","2","1","0","0","1","0","1","0","1","0","1","1","0","1","0","1","4","5","4","4","2","2","4","2","4","1","2","730803699089412097","吴","356","","","","","","","","","","","","","","","","","","","true","4","4","ability","1322","negative","蠢笨","","","","","","","","","","","","","","","","",""
"null","","null","html-keyboard-response","176","207454","0.0-6.0-0.0-8.0-0.34","4","3","4","3","4","3","3","4","4","4","4","4","2","4","4","4","5","5","4","5","2","2","2","2","2","2","1","2","2","1","0","0","1","0","1","0","1","0","1","1","0","1","0","1","4","5","4","4","2","2","4","2","4","1","2","730803699089412097","吴","356","","","","","","","","","","","","","","","","","","","","","","","","","","","","","","","","","","","","","","","","","",""
"583","<p style=""color:rgb(150, 250, 100); font-size: 35px;"">他的</p>","e","categorize-html","177","208039","0.0-6.0-0.0-8.0-1.34","4","3","4","3","4","3","3","4","4","4","4","4","2","4","4","4","5","5","4","5","2","2","2","2","2","2","1","2","2","1","0","0","1","0","1","0","1","0","1","1","0","1","0","1","4","5","4","4","2","2","4","2","4","1","2","730803699089412097","吴","356","","","","","","","","","","","","","","","","","","","true","4","4","ability","583","other","他的","","","","","","","","","","","","","","","","",""
"null","","null","html-keyboard-response","178","208290","0.0-6.0-0.0-8.0-0.35","4","3","4","3","4","3","3","4","4","4","4","4","2","4","4","4","5","5","4","5","2","2","2","2","2","2","1","2","2","1","0","0","1","0","1","0","1","0","1","1","0","1","0","1","4","5","4","4","2","2","4","2","4","1","2","730803699089412097","吴","356","","","","","","","","","","","","","","","","","","","","","","","","","","","","","","","","","","","","","","","","","",""
"543","<p style=""color:white; font-size: 35px;"">高效</p>","e","categorize-html","179","208835","0.0-6.0-0.0-8.0-1.35","4","3","4","3","4","3","3","4","4","4","4","4","2","4","4","4","5","5","4","5","2","2","2","2","2","2","1","2","2","1","0","0","1","0","1","0","1","0","1","1","0","1","0","1","4","5","4","4","2","2","4","2","4","1","2","730803699089412097","吴","356","","","","","","","","","","","","","","","","","","","true","4","4","ability","543","positive","高效","","","","","","","","","","","","","","","","",""
"null","","null","html-keyboard-response","180","209086","0.0-6.0-0.0-8.0-0.36","4","3","4","3","4","3","3","4","4","4","4","4","2","4","4","4","5","5","4","5","2","2","2","2","2","2","1","2","2","1","0","0","1","0","1","0","1","0","1","1","0","1","0","1","4","5","4","4","2","2","4","2","4","1","2","730803699089412097","吴","356","","","","","","","","","","","","","","","","","","","","","","","","","","","","","","","","","","","","","","","","","",""
"577","<p style=""color:rgb(150, 250, 100); font-size: 35px;"">他</p>","e","categorize-html","181","209664","0.0-6.0-0.0-8.0-1.36","4","3","4","3","4","3","3","4","4","4","4","4","2","4","4","4","5","5","4","5","2","2","2","2","2","2","1","2","2","1","0","0","1","0","1","0","1","0","1","1","0","1","0","1","4","5","4","4","2","2","4","2","4","1","2","730803699089412097","吴","356","","","","","","","","","","","","","","","","","","","true","4","4","ability","577","other","他","","","","","","","","","","","","","","","","",""
"null","","null","html-keyboard-response","182","209916","0.0-6.0-0.0-8.0-0.37","4","3","4","3","4","3","3","4","4","4","4","4","2","4","4","4","5","5","4","5","2","2","2","2","2","2","1","2","2","1","0","0","1","0","1","0","1","0","1","1","0","1","0","1","4","5","4","4","2","2","4","2","4","1","2","730803699089412097","吴","356","","","","","","","","","","","","","","","","","","","","","","","","","","","","","","","","","","","","","","","","","",""
"600","<p style=""color:white; font-size: 35px;"">全才</p>","e","categorize-html","183","210517","0.0-6.0-0.0-8.0-1.37","4","3","4","3","4","3","3","4","4","4","4","4","2","4","4","4","5","5","4","5","2","2","2","2","2","2","1","2","2","1","0","0","1","0","1","0","1","0","1","1","0","1","0","1","4","5","4","4","2","2","4","2","4","1","2","730803699089412097","吴","356","","","","","","","","","","","","","","","","","","","true","4","4","ability","600","positive","全才","","","","","","","","","","","","","","","","",""
"null","","null","html-keyboard-response","184","210768","0.0-6.0-0.0-8.0-0.38","4","3","4","3","4","3","3","4","4","4","4","4","2","4","4","4","5","5","4","5","2","2","2","2","2","2","1","2","2","1","0","0","1","0","1","0","1","0","1","1","0","1","0","1","4","5","4","4","2","2","4","2","4","1","2","730803699089412097","吴","356","","","","","","","","","","","","","","","","","","","","","","","","","","","","","","","","","","","","","","","","","",""
"501","<p style=""color:rgb(150, 250, 100); font-size: 35px;"">我</p>","i","categorize-html","185","211270","0.0-6.0-0.0-8.0-1.38","4","3","4","3","4","3","3","4","4","4","4","4","2","4","4","4","5","5","4","5","2","2","2","2","2","2","1","2","2","1","0","0","1","0","1","0","1","0","1","1","0","1","0","1","4","5","4","4","2","2","4","2","4","1","2","730803699089412097","吴","356","","","","","","","","","","","","","","","","","","","true","4","4","ability","501","self","我","","","","","","","","","","","","","","","","",""
"null","","null","html-keyboard-response","186","211522","0.0-6.0-0.0-8.0-0.39","4","3","4","3","4","3","3","4","4","4","4","4","2","4","4","4","5","5","4","5","2","2","2","2","2","2","1","2","2","1","0","0","1","0","1","0","1","0","1","1","0","1","0","1","4","5","4","4","2","2","4","2","4","1","2","730803699089412097","吴","356","","","","","","","","","","","","","","","","","","","","","","","","","","","","","","","","","","","","","","","","","",""
"587","<p style=""color:white; font-size: 35px;"">蠢笨</p>","i","categorize-html","187","212110","0.0-6.0-0.0-8.0-1.39","4","3","4","3","4","3","3","4","4","4","4","4","2","4","4","4","5","5","4","5","2","2","2","2","2","2","1","2","2","1","0","0","1","0","1","0","1","0","1","1","0","1","0","1","4","5","4","4","2","2","4","2","4","1","2","730803699089412097","吴","356","","","","","","","","","","","","","","","","","","","true","4","4","ability","587","negative","蠢笨","","","","","","","","","","","","","","","","",""
"null","","null","html-keyboard-response","188","212361","0.0-6.0-0.0-8.0-0.40","4","3","4","3","4","3","3","4","4","4","4","4","2","4","4","4","5","5","4","5","2","2","2","2","2","2","1","2","2","1","0","0","1","0","1","0","1","0","1","1","0","1","0","1","4","5","4","4","2","2","4","2","4","1","2","730803699089412097","吴","356","","","","","","","","","","","","","","","","","","","","","","","","","","","","","","","","","","","","","","","","","",""
"487","<p style=""color:rgb(150, 250, 100); font-size: 35px;"">他人的</p>","e","categorize-html","189","212849","0.0-6.0-0.0-8.0-1.40","4","3","4","3","4","3","3","4","4","4","4","4","2","4","4","4","5","5","4","5","2","2","2","2","2","2","1","2","2","1","0","0","1","0","1","0","1","0","1","1","0","1","0","1","4","5","4","4","2","2","4","2","4","1","2","730803699089412097","吴","356","","","","","","","","","","","","","","","","","","","true","4","4","ability","487","other","他人的","","","","","","","","","","","","","","","","",""
"null","","null","html-keyboard-response","190","213100","0.0-6.0-0.0-8.0-0.41","4","3","4","3","4","3","3","4","4","4","4","4","2","4","4","4","5","5","4","5","2","2","2","2","2","2","1","2","2","1","0","0","1","0","1","0","1","0","1","1","0","1","0","1","4","5","4","4","2","2","4","2","4","1","2","730803699089412097","吴","356","","","","","","","","","","","","","","","","","","","","","","","","","","","","","","","","","","","","","","","","","",""
"521","<p style=""color:white; font-size: 35px;"">全才</p>","e","categorize-html","191","213623","0.0-6.0-0.0-8.0-1.41","4","3","4","3","4","3","3","4","4","4","4","4","2","4","4","4","5","5","4","5","2","2","2","2","2","2","1","2","2","1","0","0","1","0","1","0","1","0","1","1","0","1","0","1","4","5","4","4","2","2","4","2","4","1","2","730803699089412097","吴","356","","","","","","","","","","","","","","","","","","","true","4","4","ability","521","positive","全才","","","","","","","","","","","","","","","","",""
"null","","null","html-keyboard-response","192","213875","0.0-6.0-0.0-8.0-0.42","4","3","4","3","4","3","3","4","4","4","4","4","2","4","4","4","5","5","4","5","2","2","2","2","2","2","1","2","2","1","0","0","1","0","1","0","1","0","1","1","0","1","0","1","4","5","4","4","2","2","4","2","4","1","2","730803699089412097","吴","356","","","","","","","","","","","","","","","","","","","","","","","","","","","","","","","","","","","","","","","","","",""
"598","<p style=""color:rgb(150, 250, 100); font-size: 35px;"">自己的</p>","i","categorize-html","193","214474","0.0-6.0-0.0-8.0-1.42","4","3","4","3","4","3","3","4","4","4","4","4","2","4","4","4","5","5","4","5","2","2","2","2","2","2","1","2","2","1","0","0","1","0","1","0","1","0","1","1","0","1","0","1","4","5","4","4","2","2","4","2","4","1","2","730803699089412097","吴","356","","","","","","","","","","","","","","","","","","","true","4","4","ability","598","self","自己的","","","","","","","","","","","","","","","","",""
