"rt","stimulus","response","trial_type","trial_index","time_elapsed","internal_node_id","ses_1","ses_2","ses_3","ses_4","ses_5","ses_6","ses_7","ses_8","ses_9","ses_10","coreself_1","coreself_2","coreself_3","coreself_4","coreself_5","coreself_6","coreself_7","coreself_8","coreself_9","coreself_10","SGPS_1","SGPS_2","SGPS_3","SGPS_4","SGPS_5","SGPS_6","SGPS_7","SGPS_8","SGPS_9","NPI1","NPI2","NPI3","NPI4","NPI5","NPI6","NPI7","NPI8","NPI9","NPI10","NPI11","NPI12","NPI13","NPI14","NPI15","hsns_1","hsns_2","hsns_3","hsns_4","hsns_5","trap1","hsns_6","hsns_7","hsns_8","hsns_9","hsns_10","subj_idx","friend_name","ParticipantID","value","success","user_agent","responses","item_order","radio_event_ids","radio_event_times","key_event_times","mouse_event_times","straightlining","zigzagging","honeypot","timeout","failed_images","failed_audio","failed_video","version_attrib2","version_target2","correct","IAT","screen_id","task_id","RT","condition","word","varname","summary","version_attrib","version_target","time_stamp","view_history","response_type","key_press","avg_frame_time","center_x","center_y","correct_response","identity","Image","question_order","correct_answer","trap1_item"
"55107","
   <p><div style = ""color: white;font-size:25px;"">您好，欢迎参加本次实验。</div> </p>
   <p><div style = ""color: white;font-size:25px;"">为充分保障您的权利，请确保您已经知晓并同意《参与实验同意书》以及《数据公开知情同意书》。</div></p>
   <p><div style = ""color: white;font-size:25px;"">如果您未见过上述内容，请咨询实验员。</div></p>
   <p><div style = ""color: white;font-size:25px;"">如果您选择继续实验，则表示您已经清楚两份知情同意书的内容并同意。</div></p>
   <p><div style = ""color: pink;font-size:30px;"">请确保您记得day0的实验编号，您将在本次实验输入该编号，若您忘记，请咨询实验员后作答。</div></p>
   <p><div style = ""color: lightblue;font-size:25px;"">请您尽可能认真地作答，我们将依据您在各问卷和按键任务中的作答质量发放报酬。</div></p>
   <p> <div style = ""color: green;font-size:25px;""><按空格键至下页></div> </p>
   "," ","html-keyboard-response","0","55112","0.0-0.0","4","4","4","4","4","4","3","3","4","4","5","5","5","5","5","4","5","4","5","5","1","1","1","1","1","1","1","2","1","0","1","0","0","1","1","0","0","1","0","0","1","0","1","0","5","1","2","1","1","3","2","1","1","5","2","656853379439394816","张","452","","","","","","","","","","","","","","","","","","","","","","","","","","","","","","","","","","","","","","","","","",""
"","","","call-function","1","55116","0.0-1.0-0.0","4","4","4","4","4","4","3","3","4","4","5","5","5","5","5","4","5","4","5","5","1","1","1","1","1","1","1","2","1","0","1","0","0","1","1","0","0","1","0","0","1","0","1","0","5","1","2","1","1","3","2","1","1","5","2","656853379439394816","张","452","","","","","","","","","","","","","","","","","","","","","","","","","","","","","","","","","","","","","","","","","",""
"35715","","{""friend_name"":""张"",""ParticipantID"":""452""}","survey-html-form","2","90834","0.0-1.0-1.0","4","4","4","4","4","4","3","3","4","4","5","5","5","5","5","4","5","4","5","5","1","1","1","1","1","1","1","2","1","0","1","0","0","1","1","0","0","1","0","0","1","0","1","0","5","1","2","1","1","3","2","1","1","5","2","656853379439394816","张","452","","","","","","","","","","","","","","","","","","","","","","","","","","","","","","","","","","","","","","","","","",""
"","","","fullscreen","3","101280","0.0-2.0","4","4","4","4","4","4","3","3","4","4","5","5","5","5","5","4","5","4","5","5","1","1","1","1","1","1","1","2","1","0","1","0","0","1","1","0","0","1","0","0","1","0","1","0","5","1","2","1","1","3","2","1","1","5","2","656853379439394816","张","452","","true","{}","","","","","","","","","","","","","","","","","","","","","","","","","","","","","","","","","","","","","","",""
"21932.900000095367","","{""Q01"":""4"",""Q02"":""4"",""Q03"":""4"",""Q04"":""4"",""Q05"":""4"",""Q06"":""4"",""Q07"":""3"",""Q08"":""3"",""Q09"":""4"",""Q10"":""4""}","survey-template","4","123217","0.0-3.0","4","4","4","4","4","4","3","3","4","4","5","5","5","5","5","4","5","4","5","5","1","1","1","1","1","1","1","2","1","0","1","0","0","1","1","0","0","1","0","0","1","0","1","0","5","1","2","1","1","3","2","1","1","5","2","656853379439394816","张","452","","","","{""Q01"":""4"",""Q02"":""4"",""Q03"":""4"",""Q04"":""4"",""Q05"":""4"",""Q06"":""4"",""Q07"":""3"",""Q08"":""3"",""Q09"":""4"",""Q10"":""4""}","[0,1,2,3,4,5,6,7,8,9]","[""Q01"",""Q02"",""Q03"",""Q04"",""Q05"",""Q07"",""Q10"",""Q09"",""Q08"",""Q06""]","[2087.9000000953674,3899.100000023842,4830.600000023842,5898.700000047684,7104.900000095367,9398,13580.400000095367,14256.300000071526,16467.200000047684,20267.400000095367]","[]","[2087.9000000953674,3899.100000023842,4830.600000023842,5898.700000047684,7104.900000095367,9398,13580.400000095367,14256.300000071526,16467.200000047684,20267.400000095367,21930.700000047684]","0.4","0.7777777777777778","0","","","","","","","","","","","","","","","","","","","","","","","","","","","","","",""
"19301.400000095367","","{""Q01"":""5"",""Q02"":""5"",""Q03"":""5"",""Q04"":""5"",""Q05"":""5"",""Q06"":""4"",""Q07"":""5"",""Q08"":""4"",""Q09"":""5"",""Q10"":""5""}","survey-template","5","142530","0.0-4.0","4","4","4","4","4","4","3","3","4","4","5","5","5","5","5","4","5","4","5","5","1","1","1","1","1","1","1","2","1","0","1","0","0","1","1","0","0","1","0","0","1","0","1","0","5","1","2","1","1","3","2","1","1","5","2","656853379439394816","张","452","","","","{""Q01"":""5"",""Q02"":""5"",""Q03"":""5"",""Q04"":""5"",""Q05"":""5"",""Q06"":""4"",""Q07"":""5"",""Q08"":""4"",""Q09"":""5"",""Q10"":""5""}","[0,1,2,3,4,5,6,7,8,9]","[""Q01"",""Q02"",""Q03"",""Q04"",""Q06"",""Q05"",""Q07"",""Q09"",""Q10"",""Q08""]","[2684.600000023842,3462.3000000715256,4829.100000023842,6608,8471.200000047684,9444.200000047684,10363.900000095367,13566.5,14470.800000071526,15377.700000047684]","[]","[2684.600000023842,3462.3000000715256,4829.100000023842,6608,7419.5,8471.200000047684,9444.200000047684,10363.900000095367,13566.5,14470.800000071526,15377.700000047684,19299.200000047684]","0.5","0.5555555555555556","0","","","","","","","","","","","","","","","","","","","","","","","","","","","","","",""
"","","","preload","6","142884","0.0-5.0","4","4","4","4","4","4","3","3","4","4","5","5","5","5","5","4","5","4","5","5","1","1","1","1","1","1","1","2","1","0","1","0","0","1","1","0","0","1","0","0","1","0","1","0","5","1","2","1","1","3","2","1","1","5","2","656853379439394816","张","452","","true","","","","","","","","","","","false","[]","[]","[]","","","","","","","","","","","","","","","","","","","","","","","","","",""
"61463","
    <h3>词语分类任务</h3>
    <p>在接下来的任务中，你需要对一系列词语进行分类。<p/>
    请先熟悉这些词语，这有利于你完成接下来的任务。</p>
    <table align=""center"" border=1 cellpadding=3 cellspacing=0>
    <tr> <th>类别</th> <th>词语</th> </tr>
    <tr> <td>&emsp;积极&emsp;</td> <td>&emsp;高尚、诚信、善良、君子、廉正、正直&emsp;</td> </tr>
    <tr> <td>&emsp;消极&emsp;</td> <td>&emsp;缺德、卑鄙、不孝、不仁、小人、黑心&emsp;</td> </tr>
    <tr> <td>&emsp;自我&emsp;</td> <td>&emsp;我、我的、自己、自己的、本人、本人的&emsp;</td> </tr>
    <tr> <td>&emsp;他人&emsp;</td> <td>&emsp;他、他的、别人、别人的、他人、他人的&emsp;</td> </tr>
    </table><br/>","0","html-button-response","7","204349","0.0-6.0-1.0-0.0","4","4","4","4","4","4","3","3","4","4","5","5","5","5","5","4","5","4","5","5","1","1","1","1","1","1","1","2","1","0","1","0","0","1","1","0","0","1","0","0","1","0","1","0","5","1","2","1","1","3","2","1","1","5","2","656853379439394816","张","452","","","","","","","","","","","","","","","","","1","1","","","","","","","","","","","","","","","","","","","","","","","",""
"17057","
    <div class=""tag-bottom""><p>
    —— 任务1：对“自我”词和“他人”词分类 ——<p/>
    不同词语会出现在屏幕中央，类别标签将始终显示在屏幕上方<p/>   
    <span style=""color:#FFD866""><b>请根据上方标签的提示，尽可能正确并且快速地做出按键反应</b></span><p/>
    当按键错误时屏幕中会出现<span style=""color:red""> X </span>，需要按另一个键纠正才能继续<br/><p/>
    请把双手食指分别放在键盘的“E”键和“I”键上<p/>
    按<空格键>开始
    </p></div>"," ","html-keyboard-response","8","221411","0.0-6.0-1.0-1.0","4","4","4","4","4","4","3","3","4","4","5","5","5","5","5","4","5","4","5","5","1","1","1","1","1","1","1","2","1","0","1","0","0","1","1","0","0","1","0","0","1","0","1","0","5","1","2","1","1","3","2","1","1","5","2","656853379439394816","张","452","","","","","","","","","","","","","","","","","","","","","","","","","","","","","","","","","","","","","","","","","",""
"null","","null","html-keyboard-response","9","221663","0.0-6.0-1.0-2.0-0.0","4","4","4","4","4","4","3","3","4","4","5","5","5","5","5","4","5","4","5","5","1","1","1","1","1","1","1","2","1","0","1","0","0","1","1","0","0","1","0","0","1","0","1","0","5","1","2","1","1","3","2","1","1","5","2","656853379439394816","张","452","","","","","","","","","","","","","","","","","","","","","","","","","","","","","","","","","","","","","","","","","",""
"751","<p style=""color:rgb(150, 250, 100); font-size: 35px;"">他的</p>","i","categorize-html","10","222417","0.0-6.0-1.0-2.0-1.0","4","4","4","4","4","4","3","3","4","4","5","5","5","5","5","4","5","4","5","5","1","1","1","1","1","1","1","2","1","0","1","0","0","1","1","0","0","1","0","0","1","0","1","0","5","1","2","1","1","3","2","1","1","5","2","656853379439394816","张","452","","","","","","","","","","","","","","","","","","","true","11","1","moral","751","other","他的","","","","","","","","","","","","","","","","",""
"null","","null","html-keyboard-response","11","222668","0.0-6.0-1.0-2.0-0.1","4","4","4","4","4","4","3","3","4","4","5","5","5","5","5","4","5","4","5","5","1","1","1","1","1","1","1","2","1","0","1","0","0","1","1","0","0","1","0","0","1","0","1","0","5","1","2","1","1","3","2","1","1","5","2","656853379439394816","张","452","","","","","","","","","","","","","","","","","","","","","","","","","","","","","","","","","","","","","","","","","",""
"750","<p style=""color:rgb(150, 250, 100); font-size: 35px;"">他人的</p>","i","categorize-html","12","223420","0.0-6.0-1.0-2.0-1.1","4","4","4","4","4","4","3","3","4","4","5","5","5","5","5","4","5","4","5","5","1","1","1","1","1","1","1","2","1","0","1","0","0","1","1","0","0","1","0","0","1","0","1","0","5","1","2","1","1","3","2","1","1","5","2","656853379439394816","张","452","","","","","","","","","","","","","","","","","","","true","11","1","moral","750","other","他人的","","","","","","","","","","","","","","","","",""
"null","","null","html-keyboard-response","13","223671","0.0-6.0-1.0-2.0-0.2","4","4","4","4","4","4","3","3","4","4","5","5","5","5","5","4","5","4","5","5","1","1","1","1","1","1","1","2","1","0","1","0","0","1","1","0","0","1","0","0","1","0","1","0","5","1","2","1","1","3","2","1","1","5","2","656853379439394816","张","452","","","","","","","","","","","","","","","","","","","","","","","","","","","","","","","","","","","","","","","","","",""
"626","<p style=""color:rgb(150, 250, 100); font-size: 35px;"">本人的</p>","e","categorize-html","14","224303","0.0-6.0-1.0-2.0-1.2","4","4","4","4","4","4","3","3","4","4","5","5","5","5","5","4","5","4","5","5","1","1","1","1","1","1","1","2","1","0","1","0","0","1","1","0","0","1","0","0","1","0","1","0","5","1","2","1","1","3","2","1","1","5","2","656853379439394816","张","452","","","","","","","","","","","","","","","","","","","true","11","1","moral","626","self","本人的","","","","","","","","","","","","","","","","",""
"null","","null","html-keyboard-response","15","224556","0.0-6.0-1.0-2.0-0.3","4","4","4","4","4","4","3","3","4","4","5","5","5","5","5","4","5","4","5","5","1","1","1","1","1","1","1","2","1","0","1","0","0","1","1","0","0","1","0","0","1","0","1","0","5","1","2","1","1","3","2","1","1","5","2","656853379439394816","张","452","","","","","","","","","","","","","","","","","","","","","","","","","","","","","","","","","","","","","","","","","",""
"648","<p style=""color:rgb(150, 250, 100); font-size: 35px;"">他</p>","i","categorize-html","16","225210","0.0-6.0-1.0-2.0-1.3","4","4","4","4","4","4","3","3","4","4","5","5","5","5","5","4","5","4","5","5","1","1","1","1","1","1","1","2","1","0","1","0","0","1","1","0","0","1","0","0","1","0","1","0","5","1","2","1","1","3","2","1","1","5","2","656853379439394816","张","452","","","","","","","","","","","","","","","","","","","true","11","1","moral","648","other","他","","","","","","","","","","","","","","","","",""
"null","","null","html-keyboard-response","17","225464","0.0-6.0-1.0-2.0-0.4","4","4","4","4","4","4","3","3","4","4","5","5","5","5","5","4","5","4","5","5","1","1","1","1","1","1","1","2","1","0","1","0","0","1","1","0","0","1","0","0","1","0","1","0","5","1","2","1","1","3","2","1","1","5","2","656853379439394816","张","452","","","","","","","","","","","","","","","","","","","","","","","","","","","","","","","","","","","","","","","","","",""
"942","<p style=""color:rgb(150, 250, 100); font-size: 35px;"">别人的</p>","i","categorize-html","18","226406","0.0-6.0-1.0-2.0-1.4","4","4","4","4","4","4","3","3","4","4","5","5","5","5","5","4","5","4","5","5","1","1","1","1","1","1","1","2","1","0","1","0","0","1","1","0","0","1","0","0","1","0","1","0","5","1","2","1","1","3","2","1","1","5","2","656853379439394816","张","452","","","","","","","","","","","","","","","","","","","true","11","1","moral","942","other","别人的","","","","","","","","","","","","","","","","",""
"null","","null","html-keyboard-response","19","226659","0.0-6.0-1.0-2.0-0.5","4","4","4","4","4","4","3","3","4","4","5","5","5","5","5","4","5","4","5","5","1","1","1","1","1","1","1","2","1","0","1","0","0","1","1","0","0","1","0","0","1","0","1","0","5","1","2","1","1","3","2","1","1","5","2","656853379439394816","张","452","","","","","","","","","","","","","","","","","","","","","","","","","","","","","","","","","","","","","","","","","",""
"444","<p style=""color:rgb(150, 250, 100); font-size: 35px;"">自己的</p>","e","categorize-html","20","227108","0.0-6.0-1.0-2.0-1.5","4","4","4","4","4","4","3","3","4","4","5","5","5","5","5","4","5","4","5","5","1","1","1","1","1","1","1","2","1","0","1","0","0","1","1","0","0","1","0","0","1","0","1","0","5","1","2","1","1","3","2","1","1","5","2","656853379439394816","张","452","","","","","","","","","","","","","","","","","","","true","11","1","moral","444","self","自己的","","","","","","","","","","","","","","","","",""
"null","","null","html-keyboard-response","21","227360","0.0-6.0-1.0-2.0-0.6","4","4","4","4","4","4","3","3","4","4","5","5","5","5","5","4","5","4","5","5","1","1","1","1","1","1","1","2","1","0","1","0","0","1","1","0","0","1","0","0","1","0","1","0","5","1","2","1","1","3","2","1","1","5","2","656853379439394816","张","452","","","","","","","","","","","","","","","","","","","","","","","","","","","","","","","","","","","","","","","","","",""
"525","<p style=""color:rgb(150, 250, 100); font-size: 35px;"">本人</p>","e","categorize-html","22","227887","0.0-6.0-1.0-2.0-1.6","4","4","4","4","4","4","3","3","4","4","5","5","5","5","5","4","5","4","5","5","1","1","1","1","1","1","1","2","1","0","1","0","0","1","1","0","0","1","0","0","1","0","1","0","5","1","2","1","1","3","2","1","1","5","2","656853379439394816","张","452","","","","","","","","","","","","","","","","","","","true","11","1","moral","525","self","本人","","","","","","","","","","","","","","","","",""
"null","","null","html-keyboard-response","23","228139","0.0-6.0-1.0-2.0-0.7","4","4","4","4","4","4","3","3","4","4","5","5","5","5","5","4","5","4","5","5","1","1","1","1","1","1","1","2","1","0","1","0","0","1","1","0","0","1","0","0","1","0","1","0","5","1","2","1","1","3","2","1","1","5","2","656853379439394816","张","452","","","","","","","","","","","","","","","","","","","","","","","","","","","","","","","","","","","","","","","","","",""
"411","<p style=""color:rgb(150, 250, 100); font-size: 35px;"">我</p>","e","categorize-html","24","228555","0.0-6.0-1.0-2.0-1.7","4","4","4","4","4","4","3","3","4","4","5","5","5","5","5","4","5","4","5","5","1","1","1","1","1","1","1","2","1","0","1","0","0","1","1","0","0","1","0","0","1","0","1","0","5","1","2","1","1","3","2","1","1","5","2","656853379439394816","张","452","","","","","","","","","","","","","","","","","","","true","11","1","moral","411","self","我","","","","","","","","","","","","","","","","",""
"null","","null","html-keyboard-response","25","228807","0.0-6.0-1.0-2.0-0.8","4","4","4","4","4","4","3","3","4","4","5","5","5","5","5","4","5","4","5","5","1","1","1","1","1","1","1","2","1","0","1","0","0","1","1","0","0","1","0","0","1","0","1","0","5","1","2","1","1","3","2","1","1","5","2","656853379439394816","张","452","","","","","","","","","","","","","","","","","","","","","","","","","","","","","","","","","","","","","","","","","",""
"377","<p style=""color:rgb(150, 250, 100); font-size: 35px;"">我的</p>","e","categorize-html","26","229190","0.0-6.0-1.0-2.0-1.8","4","4","4","4","4","4","3","3","4","4","5","5","5","5","5","4","5","4","5","5","1","1","1","1","1","1","1","2","1","0","1","0","0","1","1","0","0","1","0","0","1","0","1","0","5","1","2","1","1","3","2","1","1","5","2","656853379439394816","张","452","","","","","","","","","","","","","","","","","","","true","11","1","moral","377","self","我的","","","","","","","","","","","","","","","","",""
"null","","null","html-keyboard-response","27","229443","0.0-6.0-1.0-2.0-0.9","4","4","4","4","4","4","3","3","4","4","5","5","5","5","5","4","5","4","5","5","1","1","1","1","1","1","1","2","1","0","1","0","0","1","1","0","0","1","0","0","1","0","1","0","5","1","2","1","1","3","2","1","1","5","2","656853379439394816","张","452","","","","","","","","","","","","","","","","","","","","","","","","","","","","","","","","","","","","","","","","","",""
"476","<p style=""color:rgb(150, 250, 100); font-size: 35px;"">他人</p>","i","categorize-html","28","229922","0.0-6.0-1.0-2.0-1.9","4","4","4","4","4","4","3","3","4","4","5","5","5","5","5","4","5","4","5","5","1","1","1","1","1","1","1","2","1","0","1","0","0","1","1","0","0","1","0","0","1","0","1","0","5","1","2","1","1","3","2","1","1","5","2","656853379439394816","张","452","","","","","","","","","","","","","","","","","","","true","11","1","moral","476","other","他人","","","","","","","","","","","","","","","","",""
"null","","null","html-keyboard-response","29","230174","0.0-6.0-1.0-2.0-0.10","4","4","4","4","4","4","3","3","4","4","5","5","5","5","5","4","5","4","5","5","1","1","1","1","1","1","1","2","1","0","1","0","0","1","1","0","0","1","0","0","1","0","1","0","5","1","2","1","1","3","2","1","1","5","2","656853379439394816","张","452","","","","","","","","","","","","","","","","","","","","","","","","","","","","","","","","","","","","","","","","","",""
"493","<p style=""color:rgb(150, 250, 100); font-size: 35px;"">自己</p>","e","categorize-html","30","230672","0.0-6.0-1.0-2.0-1.10","4","4","4","4","4","4","3","3","4","4","5","5","5","5","5","4","5","4","5","5","1","1","1","1","1","1","1","2","1","0","1","0","0","1","1","0","0","1","0","0","1","0","1","0","5","1","2","1","1","3","2","1","1","5","2","656853379439394816","张","452","","","","","","","","","","","","","","","","","","","true","11","1","moral","493","self","自己","","","","","","","","","","","","","","","","",""
"null","","null","html-keyboard-response","31","230923","0.0-6.0-1.0-2.0-0.11","4","4","4","4","4","4","3","3","4","4","5","5","5","5","5","4","5","4","5","5","1","1","1","1","1","1","1","2","1","0","1","0","0","1","1","0","0","1","0","0","1","0","1","0","5","1","2","1","1","3","2","1","1","5","2","656853379439394816","张","452","","","","","","","","","","","","","","","","","","","","","","","","","","","","","","","","","","","","","","","","","",""
"715","<p style=""color:rgb(150, 250, 100); font-size: 35px;"">别人</p>","i","categorize-html","32","231639","0.0-6.0-1.0-2.0-1.11","4","4","4","4","4","4","3","3","4","4","5","5","5","5","5","4","5","4","5","5","1","1","1","1","1","1","1","2","1","0","1","0","0","1","1","0","0","1","0","0","1","0","1","0","5","1","2","1","1","3","2","1","1","5","2","656853379439394816","张","452","","","","","","","","","","","","","","","","","","","true","11","1","moral","715","other","别人","","","","","","","","","","","","","","","","",""
"5590","
    <div class=""tag-bottom""><p>
    —— 任务2：对“积极”词和“消极”词分类 ——<p/>   
    <span style=""color:#78DCE8""><b>注意上方，类别标签和需要分类的词语都已经改变</b></span><p/>
    <span style=""color:#FFD866""><b>请根据上方标签的提示，尽可能正确并且快速地做出按键反应</b></span><p/>
    当按键错误时屏幕中会出现<span style=""color:red""> X </span>，需要按另一个键纠正才能继续<br/><p/>
    请把双手食指分别放在键盘的“E”键和“I”键上<p/>
    按<空格键>开始
    </p></div>"," ","html-keyboard-response","33","237230","0.0-6.0-1.0-3.0","4","4","4","4","4","4","3","3","4","4","5","5","5","5","5","4","5","4","5","5","1","1","1","1","1","1","1","2","1","0","1","0","0","1","1","0","0","1","0","0","1","0","1","0","5","1","2","1","1","3","2","1","1","5","2","656853379439394816","张","452","","","","","","","","","","","","","","","","","","","","","","","","","","","","","","","","","","","","","","","","","",""
"null","","null","html-keyboard-response","34","237481","0.0-6.0-1.0-4.0-0.0","4","4","4","4","4","4","3","3","4","4","5","5","5","5","5","4","5","4","5","5","1","1","1","1","1","1","1","2","1","0","1","0","0","1","1","0","0","1","0","0","1","0","1","0","5","1","2","1","1","3","2","1","1","5","2","656853379439394816","张","452","","","","","","","","","","","","","","","","","","","","","","","","","","","","","","","","","","","","","","","","","",""
"426","<p style=""color:white; font-size: 35px;"">正直</p>","e","categorize-html","35","237914","0.0-6.0-1.0-4.0-1.0","4","4","4","4","4","4","3","3","4","4","5","5","5","5","5","4","5","4","5","5","1","1","1","1","1","1","1","2","1","0","1","0","0","1","1","0","0","1","0","0","1","0","1","0","5","1","2","1","1","3","2","1","1","5","2","656853379439394816","张","452","","","","","","","","","","","","","","","","","","","true","12","2","moral","426","positive","正直","","","","","","","","","","","","","","","","",""
"null","","null","html-keyboard-response","36","238165","0.0-6.0-1.0-4.0-0.1","4","4","4","4","4","4","3","3","4","4","5","5","5","5","5","4","5","4","5","5","1","1","1","1","1","1","1","2","1","0","1","0","0","1","1","0","0","1","0","0","1","0","1","0","5","1","2","1","1","3","2","1","1","5","2","656853379439394816","张","452","","","","","","","","","","","","","","","","","","","","","","","","","","","","","","","","","","","","","","","","","",""
"403","<p style=""color:white; font-size: 35px;"">善良</p>","e","categorize-html","37","238572","0.0-6.0-1.0-4.0-1.1","4","4","4","4","4","4","3","3","4","4","5","5","5","5","5","4","5","4","5","5","1","1","1","1","1","1","1","2","1","0","1","0","0","1","1","0","0","1","0","0","1","0","1","0","5","1","2","1","1","3","2","1","1","5","2","656853379439394816","张","452","","","","","","","","","","","","","","","","","","","true","12","2","moral","403","positive","善良","","","","","","","","","","","","","","","","",""
"null","","null","html-keyboard-response","38","238826","0.0-6.0-1.0-4.0-0.2","4","4","4","4","4","4","3","3","4","4","5","5","5","5","5","4","5","4","5","5","1","1","1","1","1","1","1","2","1","0","1","0","0","1","1","0","0","1","0","0","1","0","1","0","5","1","2","1","1","3","2","1","1","5","2","656853379439394816","张","452","","","","","","","","","","","","","","","","","","","","","","","","","","","","","","","","","","","","","","","","","",""
"415","<p style=""color:white; font-size: 35px;"">卑鄙</p>","i","categorize-html","39","239248","0.0-6.0-1.0-4.0-1.2","4","4","4","4","4","4","3","3","4","4","5","5","5","5","5","4","5","4","5","5","1","1","1","1","1","1","1","2","1","0","1","0","0","1","1","0","0","1","0","0","1","0","1","0","5","1","2","1","1","3","2","1","1","5","2","656853379439394816","张","452","","","","","","","","","","","","","","","","","","","true","12","2","moral","415","negative","卑鄙","","","","","","","","","","","","","","","","",""
"null","","null","html-keyboard-response","40","239499","0.0-6.0-1.0-4.0-0.3","4","4","4","4","4","4","3","3","4","4","5","5","5","5","5","4","5","4","5","5","1","1","1","1","1","1","1","2","1","0","1","0","0","1","1","0","0","1","0","0","1","0","1","0","5","1","2","1","1","3","2","1","1","5","2","656853379439394816","张","452","","","","","","","","","","","","","","","","","","","","","","","","","","","","","","","","","","","","","","","","","",""
"602","<p style=""color:white; font-size: 35px;"">君子</p>","e","categorize-html","41","240103","0.0-6.0-1.0-4.0-1.3","4","4","4","4","4","4","3","3","4","4","5","5","5","5","5","4","5","4","5","5","1","1","1","1","1","1","1","2","1","0","1","0","0","1","1","0","0","1","0","0","1","0","1","0","5","1","2","1","1","3","2","1","1","5","2","656853379439394816","张","452","","","","","","","","","","","","","","","","","","","true","12","2","moral","602","positive","君子","","","","","","","","","","","","","","","","",""
"null","","null","html-keyboard-response","42","240355","0.0-6.0-1.0-4.0-0.4","4","4","4","4","4","4","3","3","4","4","5","5","5","5","5","4","5","4","5","5","1","1","1","1","1","1","1","2","1","0","1","0","0","1","1","0","0","1","0","0","1","0","1","0","5","1","2","1","1","3","2","1","1","5","2","656853379439394816","张","452","","","","","","","","","","","","","","","","","","","","","","","","","","","","","","","","","","","","","","","","","",""
"517","<p style=""color:white; font-size: 35px;"">黑心</p>","i","categorize-html","43","240874","0.0-6.0-1.0-4.0-1.4","4","4","4","4","4","4","3","3","4","4","5","5","5","5","5","4","5","4","5","5","1","1","1","1","1","1","1","2","1","0","1","0","0","1","1","0","0","1","0","0","1","0","1","0","5","1","2","1","1","3","2","1","1","5","2","656853379439394816","张","452","","","","","","","","","","","","","","","","","","","true","12","2","moral","517","negative","黑心","","","","","","","","","","","","","","","","",""
"null","","null","html-keyboard-response","44","241126","0.0-6.0-1.0-4.0-0.5","4","4","4","4","4","4","3","3","4","4","5","5","5","5","5","4","5","4","5","5","1","1","1","1","1","1","1","2","1","0","1","0","0","1","1","0","0","1","0","0","1","0","1","0","5","1","2","1","1","3","2","1","1","5","2","656853379439394816","张","452","","","","","","","","","","","","","","","","","","","","","","","","","","","","","","","","","","","","","","","","","",""
"435","<p style=""color:white; font-size: 35px;"">小人</p>","i","categorize-html","45","241567","0.0-6.0-1.0-4.0-1.5","4","4","4","4","4","4","3","3","4","4","5","5","5","5","5","4","5","4","5","5","1","1","1","1","1","1","1","2","1","0","1","0","0","1","1","0","0","1","0","0","1","0","1","0","5","1","2","1","1","3","2","1","1","5","2","656853379439394816","张","452","","","","","","","","","","","","","","","","","","","true","12","2","moral","435","negative","小人","","","","","","","","","","","","","","","","",""
"null","","null","html-keyboard-response","46","241818","0.0-6.0-1.0-4.0-0.6","4","4","4","4","4","4","3","3","4","4","5","5","5","5","5","4","5","4","5","5","1","1","1","1","1","1","1","2","1","0","1","0","0","1","1","0","0","1","0","0","1","0","1","0","5","1","2","1","1","3","2","1","1","5","2","656853379439394816","张","452","","","","","","","","","","","","","","","","","","","","","","","","","","","","","","","","","","","","","","","","","",""
"391","<p style=""color:white; font-size: 35px;"">缺德</p>","i","categorize-html","47","242215","0.0-6.0-1.0-4.0-1.6","4","4","4","4","4","4","3","3","4","4","5","5","5","5","5","4","5","4","5","5","1","1","1","1","1","1","1","2","1","0","1","0","0","1","1","0","0","1","0","0","1","0","1","0","5","1","2","1","1","3","2","1","1","5","2","656853379439394816","张","452","","","","","","","","","","","","","","","","","","","true","12","2","moral","391","negative","缺德","","","","","","","","","","","","","","","","",""
"null","","null","html-keyboard-response","48","242466","0.0-6.0-1.0-4.0-0.7","4","4","4","4","4","4","3","3","4","4","5","5","5","5","5","4","5","4","5","5","1","1","1","1","1","1","1","2","1","0","1","0","0","1","1","0","0","1","0","0","1","0","1","0","5","1","2","1","1","3","2","1","1","5","2","656853379439394816","张","452","","","","","","","","","","","","","","","","","","","","","","","","","","","","","","","","","","","","","","","","","",""
"412","<p style=""color:white; font-size: 35px;"">高尚</p>","e","categorize-html","49","242879","0.0-6.0-1.0-4.0-1.7","4","4","4","4","4","4","3","3","4","4","5","5","5","5","5","4","5","4","5","5","1","1","1","1","1","1","1","2","1","0","1","0","0","1","1","0","0","1","0","0","1","0","1","0","5","1","2","1","1","3","2","1","1","5","2","656853379439394816","张","452","","","","","","","","","","","","","","","","","","","true","12","2","moral","412","positive","高尚","","","","","","","","","","","","","","","","",""
"null","","null","html-keyboard-response","50","243131","0.0-6.0-1.0-4.0-0.8","4","4","4","4","4","4","3","3","4","4","5","5","5","5","5","4","5","4","5","5","1","1","1","1","1","1","1","2","1","0","1","0","0","1","1","0","0","1","0","0","1","0","1","0","5","1","2","1","1","3","2","1","1","5","2","656853379439394816","张","452","","","","","","","","","","","","","","","","","","","","","","","","","","","","","","","","","","","","","","","","","",""
"379","<p style=""color:white; font-size: 35px;"">诚信</p>","e","categorize-html","51","243512","0.0-6.0-1.0-4.0-1.8","4","4","4","4","4","4","3","3","4","4","5","5","5","5","5","4","5","4","5","5","1","1","1","1","1","1","1","2","1","0","1","0","0","1","1","0","0","1","0","0","1","0","1","0","5","1","2","1","1","3","2","1","1","5","2","656853379439394816","张","452","","","","","","","","","","","","","","","","","","","true","12","2","moral","379","positive","诚信","","","","","","","","","","","","","","","","",""
"null","","null","html-keyboard-response","52","243764","0.0-6.0-1.0-4.0-0.9","4","4","4","4","4","4","3","3","4","4","5","5","5","5","5","4","5","4","5","5","1","1","1","1","1","1","1","2","1","0","1","0","0","1","1","0","0","1","0","0","1","0","1","0","5","1","2","1","1","3","2","1","1","5","2","656853379439394816","张","452","","","","","","","","","","","","","","","","","","","","","","","","","","","","","","","","","","","","","","","","","",""
"486","<p style=""color:white; font-size: 35px;"">不仁</p>","i","categorize-html","53","244254","0.0-6.0-1.0-4.0-1.9","4","4","4","4","4","4","3","3","4","4","5","5","5","5","5","4","5","4","5","5","1","1","1","1","1","1","1","2","1","0","1","0","0","1","1","0","0","1","0","0","1","0","1","0","5","1","2","1","1","3","2","1","1","5","2","656853379439394816","张","452","","","","","","","","","","","","","","","","","","","true","12","2","moral","486","negative","不仁","","","","","","","","","","","","","","","","",""
"null","","null","html-keyboard-response","54","244506","0.0-6.0-1.0-4.0-0.10","4","4","4","4","4","4","3","3","4","4","5","5","5","5","5","4","5","4","5","5","1","1","1","1","1","1","1","2","1","0","1","0","0","1","1","0","0","1","0","0","1","0","1","0","5","1","2","1","1","3","2","1","1","5","2","656853379439394816","张","452","","","","","","","","","","","","","","","","","","","","","","","","","","","","","","","","","","","","","","","","","",""
"500","<p style=""color:white; font-size: 35px;"">廉正</p>","e","categorize-html","55","245013","0.0-6.0-1.0-4.0-1.10","4","4","4","4","4","4","3","3","4","4","5","5","5","5","5","4","5","4","5","5","1","1","1","1","1","1","1","2","1","0","1","0","0","1","1","0","0","1","0","0","1","0","1","0","5","1","2","1","1","3","2","1","1","5","2","656853379439394816","张","452","","","","","","","","","","","","","","","","","","","true","12","2","moral","500","positive","廉正","","","","","","","","","","","","","","","","",""
"null","","null","html-keyboard-response","56","245265","0.0-6.0-1.0-4.0-0.11","4","4","4","4","4","4","3","3","4","4","5","5","5","5","5","4","5","4","5","5","1","1","1","1","1","1","1","2","1","0","1","0","0","1","1","0","0","1","0","0","1","0","1","0","5","1","2","1","1","3","2","1","1","5","2","656853379439394816","张","452","","","","","","","","","","","","","","","","","","","","","","","","","","","","","","","","","","","","","","","","","",""
"475","<p style=""color:white; font-size: 35px;"">不孝</p>","i","categorize-html","57","245745","0.0-6.0-1.0-4.0-1.11","4","4","4","4","4","4","3","3","4","4","5","5","5","5","5","4","5","4","5","5","1","1","1","1","1","1","1","2","1","0","1","0","0","1","1","0","0","1","0","0","1","0","1","0","5","1","2","1","1","3","2","1","1","5","2","656853379439394816","张","452","","","","","","","","","","","","","","","","","","","true","12","2","moral","475","negative","不孝","","","","","","","","","","","","","","","","",""
"1926","
    <div class=""tag-bottom""><p>
    —— 任务3：对“自我/积极”词和“他人/消极”词分类 ——<p/>
    <span style=""color:#78DCE8""><b>注意上方，之前的四类词语将混合在一起交替呈现</b></span><p/>
    <span style=""color:#FFD866""><b>请根据上方标签的提示，尽可能正确并且快速地做出按键反应</b></span><p/>
    当按键错误时屏幕中会出现<span style=""color:red""> X </span>，需要按另一个键纠正才能继续<br/><p/>
    请把双手食指分别放在键盘的“E”键和“I”键上<p/>
    按<空格键>开始
    </p></div>"," ","html-keyboard-response","58","247672","0.0-6.0-1.0-5.0","4","4","4","4","4","4","3","3","4","4","5","5","5","5","5","4","5","4","5","5","1","1","1","1","1","1","1","2","1","0","1","0","0","1","1","0","0","1","0","0","1","0","1","0","5","1","2","1","1","3","2","1","1","5","2","656853379439394816","张","452","","","","","","","","","","","","","","","","","","","","","","","","","","","","","","","","","","","","","","","","","",""
"null","","null","html-keyboard-response","59","247923","0.0-6.0-1.0-6.0-0.0","4","4","4","4","4","4","3","3","4","4","5","5","5","5","5","4","5","4","5","5","1","1","1","1","1","1","1","2","1","0","1","0","0","1","1","0","0","1","0","0","1","0","1","0","5","1","2","1","1","3","2","1","1","5","2","656853379439394816","张","452","","","","","","","","","","","","","","","","","","","","","","","","","","","","","","","","","","","","","","","","","",""
"645","<p style=""color:rgb(150, 250, 100); font-size: 35px;"">别人的</p>","i","categorize-html","60","248575","0.0-6.0-1.0-6.0-1.0","4","4","4","4","4","4","3","3","4","4","5","5","5","5","5","4","5","4","5","5","1","1","1","1","1","1","1","2","1","0","1","0","0","1","1","0","0","1","0","0","1","0","1","0","5","1","2","1","1","3","2","1","1","5","2","656853379439394816","张","452","","","","","","","","","","","","","","","","","","","true","13","3","moral","645","other","别人的","","","","","","","","","","","","","","","","",""
"null","","null","html-keyboard-response","61","248826","0.0-6.0-1.0-6.0-0.1","4","4","4","4","4","4","3","3","4","4","5","5","5","5","5","4","5","4","5","5","1","1","1","1","1","1","1","2","1","0","1","0","0","1","1","0","0","1","0","0","1","0","1","0","5","1","2","1","1","3","2","1","1","5","2","656853379439394816","张","452","","","","","","","","","","","","","","","","","","","","","","","","","","","","","","","","","","","","","","","","","",""
"839","<p style=""color:white; font-size: 35px;"">诚信</p>","e","categorize-html","62","249669","0.0-6.0-1.0-6.0-1.1","4","4","4","4","4","4","3","3","4","4","5","5","5","5","5","4","5","4","5","5","1","1","1","1","1","1","1","2","1","0","1","0","0","1","1","0","0","1","0","0","1","0","1","0","5","1","2","1","1","3","2","1","1","5","2","656853379439394816","张","452","","","","","","","","","","","","","","","","","","","true","13","3","moral","839","positive","诚信","","","","","","","","","","","","","","","","",""
"null","","null","html-keyboard-response","63","249921","0.0-6.0-1.0-6.0-0.2","4","4","4","4","4","4","3","3","4","4","5","5","5","5","5","4","5","4","5","5","1","1","1","1","1","1","1","2","1","0","1","0","0","1","1","0","0","1","0","0","1","0","1","0","5","1","2","1","1","3","2","1","1","5","2","656853379439394816","张","452","","","","","","","","","","","","","","","","","","","","","","","","","","","","","","","","","","","","","","","","","",""
"554","<p style=""color:rgb(150, 250, 100); font-size: 35px;"">我的</p>","e","categorize-html","64","250483","0.0-6.0-1.0-6.0-1.2","4","4","4","4","4","4","3","3","4","4","5","5","5","5","5","4","5","4","5","5","1","1","1","1","1","1","1","2","1","0","1","0","0","1","1","0","0","1","0","0","1","0","1","0","5","1","2","1","1","3","2","1","1","5","2","656853379439394816","张","452","","","","","","","","","","","","","","","","","","","true","13","3","moral","554","self","我的","","","","","","","","","","","","","","","","",""
"null","","null","html-keyboard-response","65","250736","0.0-6.0-1.0-6.0-0.3","4","4","4","4","4","4","3","3","4","4","5","5","5","5","5","4","5","4","5","5","1","1","1","1","1","1","1","2","1","0","1","0","0","1","1","0","0","1","0","0","1","0","1","0","5","1","2","1","1","3","2","1","1","5","2","656853379439394816","张","452","","","","","","","","","","","","","","","","","","","","","","","","","","","","","","","","","","","","","","","","","",""
"853","<p style=""color:white; font-size: 35px;"">黑心</p>","i","categorize-html","66","251595","0.0-6.0-1.0-6.0-1.3","4","4","4","4","4","4","3","3","4","4","5","5","5","5","5","4","5","4","5","5","1","1","1","1","1","1","1","2","1","0","1","0","0","1","1","0","0","1","0","0","1","0","1","0","5","1","2","1","1","3","2","1","1","5","2","656853379439394816","张","452","","","","","","","","","","","","","","","","","","","true","13","3","moral","853","negative","黑心","","","","","","","","","","","","","","","","",""
"null","","null","html-keyboard-response","67","251847","0.0-6.0-1.0-6.0-0.4","4","4","4","4","4","4","3","3","4","4","5","5","5","5","5","4","5","4","5","5","1","1","1","1","1","1","1","2","1","0","1","0","0","1","1","0","0","1","0","0","1","0","1","0","5","1","2","1","1","3","2","1","1","5","2","656853379439394816","张","452","","","","","","","","","","","","","","","","","","","","","","","","","","","","","","","","","","","","","","","","","",""
"791","<p style=""color:rgb(150, 250, 100); font-size: 35px;"">我</p>","e","categorize-html","68","252644","0.0-6.0-1.0-6.0-1.4","4","4","4","4","4","4","3","3","4","4","5","5","5","5","5","4","5","4","5","5","1","1","1","1","1","1","1","2","1","0","1","0","0","1","1","0","0","1","0","0","1","0","1","0","5","1","2","1","1","3","2","1","1","5","2","656853379439394816","张","452","","","","","","","","","","","","","","","","","","","true","13","3","moral","791","self","我","","","","","","","","","","","","","","","","",""
"null","","null","html-keyboard-response","69","252895","0.0-6.0-1.0-6.0-0.5","4","4","4","4","4","4","3","3","4","4","5","5","5","5","5","4","5","4","5","5","1","1","1","1","1","1","1","2","1","0","1","0","0","1","1","0","0","1","0","0","1","0","1","0","5","1","2","1","1","3","2","1","1","5","2","656853379439394816","张","452","","","","","","","","","","","","","","","","","","","","","","","","","","","","","","","","","","","","","","","","","",""
"723","<p style=""color:white; font-size: 35px;"">不仁</p>","i","categorize-html","70","253624","0.0-6.0-1.0-6.0-1.5","4","4","4","4","4","4","3","3","4","4","5","5","5","5","5","4","5","4","5","5","1","1","1","1","1","1","1","2","1","0","1","0","0","1","1","0","0","1","0","0","1","0","1","0","5","1","2","1","1","3","2","1","1","5","2","656853379439394816","张","452","","","","","","","","","","","","","","","","","","","true","13","3","moral","723","negative","不仁","","","","","","","","","","","","","","","","",""
"null","","null","html-keyboard-response","71","253875","0.0-6.0-1.0-6.0-0.6","4","4","4","4","4","4","3","3","4","4","5","5","5","5","5","4","5","4","5","5","1","1","1","1","1","1","1","2","1","0","1","0","0","1","1","0","0","1","0","0","1","0","1","0","5","1","2","1","1","3","2","1","1","5","2","656853379439394816","张","452","","","","","","","","","","","","","","","","","","","","","","","","","","","","","","","","","","","","","","","","","",""
"743","<p style=""color:rgb(150, 250, 100); font-size: 35px;"">他的</p>","i","categorize-html","72","254625","0.0-6.0-1.0-6.0-1.6","4","4","4","4","4","4","3","3","4","4","5","5","5","5","5","4","5","4","5","5","1","1","1","1","1","1","1","2","1","0","1","0","0","1","1","0","0","1","0","0","1","0","1","0","5","1","2","1","1","3","2","1","1","5","2","656853379439394816","张","452","","","","","","","","","","","","","","","","","","","true","13","3","moral","743","other","他的","","","","","","","","","","","","","","","","",""
"null","","null","html-keyboard-response","73","254878","0.0-6.0-1.0-6.0-0.7","4","4","4","4","4","4","3","3","4","4","5","5","5","5","5","4","5","4","5","5","1","1","1","1","1","1","1","2","1","0","1","0","0","1","1","0","0","1","0","0","1","0","1","0","5","1","2","1","1","3","2","1","1","5","2","656853379439394816","张","452","","","","","","","","","","","","","","","","","","","","","","","","","","","","","","","","","","","","","","","","","",""
"696","<p style=""color:white; font-size: 35px;"">善良</p>","e","categorize-html","74","255581","0.0-6.0-1.0-6.0-1.7","4","4","4","4","4","4","3","3","4","4","5","5","5","5","5","4","5","4","5","5","1","1","1","1","1","1","1","2","1","0","1","0","0","1","1","0","0","1","0","0","1","0","1","0","5","1","2","1","1","3","2","1","1","5","2","656853379439394816","张","452","","","","","","","","","","","","","","","","","","","true","13","3","moral","696","positive","善良","","","","","","","","","","","","","","","","",""
"null","","null","html-keyboard-response","75","255833","0.0-6.0-1.0-6.0-0.8","4","4","4","4","4","4","3","3","4","4","5","5","5","5","5","4","5","4","5","5","1","1","1","1","1","1","1","2","1","0","1","0","0","1","1","0","0","1","0","0","1","0","1","0","5","1","2","1","1","3","2","1","1","5","2","656853379439394816","张","452","","","","","","","","","","","","","","","","","","","","","","","","","","","","","","","","","","","","","","","","","",""
"784","<p style=""color:rgb(150, 250, 100); font-size: 35px;"">自己</p>","e","categorize-html","76","256624","0.0-6.0-1.0-6.0-1.8","4","4","4","4","4","4","3","3","4","4","5","5","5","5","5","4","5","4","5","5","1","1","1","1","1","1","1","2","1","0","1","0","0","1","1","0","0","1","0","0","1","0","1","0","5","1","2","1","1","3","2","1","1","5","2","656853379439394816","张","452","","","","","","","","","","","","","","","","","","","true","13","3","moral","784","self","自己","","","","","","","","","","","","","","","","",""
"null","","null","html-keyboard-response","77","256875","0.0-6.0-1.0-6.0-0.9","4","4","4","4","4","4","3","3","4","4","5","5","5","5","5","4","5","4","5","5","1","1","1","1","1","1","1","2","1","0","1","0","0","1","1","0","0","1","0","0","1","0","1","0","5","1","2","1","1","3","2","1","1","5","2","656853379439394816","张","452","","","","","","","","","","","","","","","","","","","","","","","","","","","","","","","","","","","","","","","","","",""
"500","<p style=""color:white; font-size: 35px;"">正直</p>","e","categorize-html","78","257381","0.0-6.0-1.0-6.0-1.9","4","4","4","4","4","4","3","3","4","4","5","5","5","5","5","4","5","4","5","5","1","1","1","1","1","1","1","2","1","0","1","0","0","1","1","0","0","1","0","0","1","0","1","0","5","1","2","1","1","3","2","1","1","5","2","656853379439394816","张","452","","","","","","","","","","","","","","","","","","","true","13","3","moral","500","positive","正直","","","","","","","","","","","","","","","","",""
"null","","null","html-keyboard-response","79","257633","0.0-6.0-1.0-6.0-0.10","4","4","4","4","4","4","3","3","4","4","5","5","5","5","5","4","5","4","5","5","1","1","1","1","1","1","1","2","1","0","1","0","0","1","1","0","0","1","0","0","1","0","1","0","5","1","2","1","1","3","2","1","1","5","2","656853379439394816","张","452","","","","","","","","","","","","","","","","","","","","","","","","","","","","","","","","","","","","","","","","","",""
"573","<p style=""color:rgb(150, 250, 100); font-size: 35px;"">他</p>","i","categorize-html","80","258212","0.0-6.0-1.0-6.0-1.10","4","4","4","4","4","4","3","3","4","4","5","5","5","5","5","4","5","4","5","5","1","1","1","1","1","1","1","2","1","0","1","0","0","1","1","0","0","1","0","0","1","0","1","0","5","1","2","1","1","3","2","1","1","5","2","656853379439394816","张","452","","","","","","","","","","","","","","","","","","","true","13","3","moral","573","other","他","","","","","","","","","","","","","","","","",""
"null","","null","html-keyboard-response","81","258464","0.0-6.0-1.0-6.0-0.11","4","4","4","4","4","4","3","3","4","4","5","5","5","5","5","4","5","4","5","5","1","1","1","1","1","1","1","2","1","0","1","0","0","1","1","0","0","1","0","0","1","0","1","0","5","1","2","1","1","3","2","1","1","5","2","656853379439394816","张","452","","","","","","","","","","","","","","","","","","","","","","","","","","","","","","","","","","","","","","","","","",""
"632","<p style=""color:white; font-size: 35px;"">卑鄙</p>","i","categorize-html","82","259100","0.0-6.0-1.0-6.0-1.11","4","4","4","4","4","4","3","3","4","4","5","5","5","5","5","4","5","4","5","5","1","1","1","1","1","1","1","2","1","0","1","0","0","1","1","0","0","1","0","0","1","0","1","0","5","1","2","1","1","3","2","1","1","5","2","656853379439394816","张","452","","","","","","","","","","","","","","","","","","","true","13","3","moral","632","negative","卑鄙","","","","","","","","","","","","","","","","",""
"null","","null","html-keyboard-response","83","259351","0.0-6.0-1.0-6.0-0.12","4","4","4","4","4","4","3","3","4","4","5","5","5","5","5","4","5","4","5","5","1","1","1","1","1","1","1","2","1","0","1","0","0","1","1","0","0","1","0","0","1","0","1","0","5","1","2","1","1","3","2","1","1","5","2","656853379439394816","张","452","","","","","","","","","","","","","","","","","","","","","","","","","","","","","","","","","","","","","","","","","",""
"924","<p style=""color:rgb(150, 250, 100); font-size: 35px;"">本人的</p>","e","categorize-html","84","260281","0.0-6.0-1.0-6.0-1.12","4","4","4","4","4","4","3","3","4","4","5","5","5","5","5","4","5","4","5","5","1","1","1","1","1","1","1","2","1","0","1","0","0","1","1","0","0","1","0","0","1","0","1","0","5","1","2","1","1","3","2","1","1","5","2","656853379439394816","张","452","","","","","","","","","","","","","","","","","","","true","13","3","moral","924","self","本人的","","","","","","","","","","","","","","","","",""
"null","","null","html-keyboard-response","85","260534","0.0-6.0-1.0-6.0-0.13","4","4","4","4","4","4","3","3","4","4","5","5","5","5","5","4","5","4","5","5","1","1","1","1","1","1","1","2","1","0","1","0","0","1","1","0","0","1","0","0","1","0","1","0","5","1","2","1","1","3","2","1","1","5","2","656853379439394816","张","452","","","","","","","","","","","","","","","","","","","","","","","","","","","","","","","","","","","","","","","","","",""
"1305","<p style=""color:white; font-size: 35px;"">缺德</p>","i","categorize-html","86","261841","0.0-6.0-1.0-6.0-1.13","4","4","4","4","4","4","3","3","4","4","5","5","5","5","5","4","5","4","5","5","1","1","1","1","1","1","1","2","1","0","1","0","0","1","1","0","0","1","0","0","1","0","1","0","5","1","2","1","1","3","2","1","1","5","2","656853379439394816","张","452","","","","","","","","","","","","","","","","","","","true","13","3","moral","1305","negative","缺德","","","","","","","","","","","","","","","","",""
"null","","null","html-keyboard-response","87","262092","0.0-6.0-1.0-6.0-0.14","4","4","4","4","4","4","3","3","4","4","5","5","5","5","5","4","5","4","5","5","1","1","1","1","1","1","1","2","1","0","1","0","0","1","1","0","0","1","0","0","1","0","1","0","5","1","2","1","1","3","2","1","1","5","2","656853379439394816","张","452","","","","","","","","","","","","","","","","","","","","","","","","","","","","","","","","","","","","","","","","","",""
"603","<p style=""color:rgb(150, 250, 100); font-size: 35px;"">他人</p>","i","categorize-html","88","262700","0.0-6.0-1.0-6.0-1.14","4","4","4","4","4","4","3","3","4","4","5","5","5","5","5","4","5","4","5","5","1","1","1","1","1","1","1","2","1","0","1","0","0","1","1","0","0","1","0","0","1","0","1","0","5","1","2","1","1","3","2","1","1","5","2","656853379439394816","张","452","","","","","","","","","","","","","","","","","","","true","13","3","moral","603","other","他人","","","","","","","","","","","","","","","","",""
"null","","null","html-keyboard-response","89","262951","0.0-6.0-1.0-6.0-0.15","4","4","4","4","4","4","3","3","4","4","5","5","5","5","5","4","5","4","5","5","1","1","1","1","1","1","1","2","1","0","1","0","0","1","1","0","0","1","0","0","1","0","1","0","5","1","2","1","1","3","2","1","1","5","2","656853379439394816","张","452","","","","","","","","","","","","","","","","","","","","","","","","","","","","","","","","","","","","","","","","","",""
"585","<p style=""color:white; font-size: 35px;"">君子</p>","e","categorize-html","90","263540","0.0-6.0-1.0-6.0-1.15","4","4","4","4","4","4","3","3","4","4","5","5","5","5","5","4","5","4","5","5","1","1","1","1","1","1","1","2","1","0","1","0","0","1","1","0","0","1","0","0","1","0","1","0","5","1","2","1","1","3","2","1","1","5","2","656853379439394816","张","452","","","","","","","","","","","","","","","","","","","true","13","3","moral","585","positive","君子","","","","","","","","","","","","","","","","",""
"null","","null","html-keyboard-response","91","263791","0.0-6.0-1.0-6.0-0.16","4","4","4","4","4","4","3","3","4","4","5","5","5","5","5","4","5","4","5","5","1","1","1","1","1","1","1","2","1","0","1","0","0","1","1","0","0","1","0","0","1","0","1","0","5","1","2","1","1","3","2","1","1","5","2","656853379439394816","张","452","","","","","","","","","","","","","","","","","","","","","","","","","","","","","","","","","","","","","","","","","",""
"801","<p style=""color:rgb(150, 250, 100); font-size: 35px;"">别人</p>","i","categorize-html","92","264598","0.0-6.0-1.0-6.0-1.16","4","4","4","4","4","4","3","3","4","4","5","5","5","5","5","4","5","4","5","5","1","1","1","1","1","1","1","2","1","0","1","0","0","1","1","0","0","1","0","0","1","0","1","0","5","1","2","1","1","3","2","1","1","5","2","656853379439394816","张","452","","","","","","","","","","","","","","","","","","","true","13","3","moral","801","other","别人","","","","","","","","","","","","","","","","",""
"null","","null","html-keyboard-response","93","264851","0.0-6.0-1.0-6.0-0.17","4","4","4","4","4","4","3","3","4","4","5","5","5","5","5","4","5","4","5","5","1","1","1","1","1","1","1","2","1","0","1","0","0","1","1","0","0","1","0","0","1","0","1","0","5","1","2","1","1","3","2","1","1","5","2","656853379439394816","张","452","","","","","","","","","","","","","","","","","","","","","","","","","","","","","","","","","","","","","","","","","",""
"548","<p style=""color:white; font-size: 35px;"">小人</p>","i","categorize-html","94","265404","0.0-6.0-1.0-6.0-1.17","4","4","4","4","4","4","3","3","4","4","5","5","5","5","5","4","5","4","5","5","1","1","1","1","1","1","1","2","1","0","1","0","0","1","1","0","0","1","0","0","1","0","1","0","5","1","2","1","1","3","2","1","1","5","2","656853379439394816","张","452","","","","","","","","","","","","","","","","","","","true","13","3","moral","548","negative","小人","","","","","","","","","","","","","","","","",""
"null","","null","html-keyboard-response","95","265657","0.0-6.0-1.0-6.0-0.18","4","4","4","4","4","4","3","3","4","4","5","5","5","5","5","4","5","4","5","5","1","1","1","1","1","1","1","2","1","0","1","0","0","1","1","0","0","1","0","0","1","0","1","0","5","1","2","1","1","3","2","1","1","5","2","656853379439394816","张","452","","","","","","","","","","","","","","","","","","","","","","","","","","","","","","","","","","","","","","","","","",""
"661","<p style=""color:rgb(150, 250, 100); font-size: 35px;"">本人</p>","e","categorize-html","96","266325","0.0-6.0-1.0-6.0-1.18","4","4","4","4","4","4","3","3","4","4","5","5","5","5","5","4","5","4","5","5","1","1","1","1","1","1","1","2","1","0","1","0","0","1","1","0","0","1","0","0","1","0","1","0","5","1","2","1","1","3","2","1","1","5","2","656853379439394816","张","452","","","","","","","","","","","","","","","","","","","true","13","3","moral","661","self","本人","","","","","","","","","","","","","","","","",""
"null","","null","html-keyboard-response","97","266578","0.0-6.0-1.0-6.0-0.19","4","4","4","4","4","4","3","3","4","4","5","5","5","5","5","4","5","4","5","5","1","1","1","1","1","1","1","2","1","0","1","0","0","1","1","0","0","1","0","0","1","0","1","0","5","1","2","1","1","3","2","1","1","5","2","656853379439394816","张","452","","","","","","","","","","","","","","","","","","","","","","","","","","","","","","","","","","","","","","","","","",""
"479","<p style=""color:white; font-size: 35px;"">高尚</p>","e","categorize-html","98","267063","0.0-6.0-1.0-6.0-1.19","4","4","4","4","4","4","3","3","4","4","5","5","5","5","5","4","5","4","5","5","1","1","1","1","1","1","1","2","1","0","1","0","0","1","1","0","0","1","0","0","1","0","1","0","5","1","2","1","1","3","2","1","1","5","2","656853379439394816","张","452","","","","","","","","","","","","","","","","","","","true","13","3","moral","479","positive","高尚","","","","","","","","","","","","","","","","",""
"null","","null","html-keyboard-response","99","267315","0.0-6.0-1.0-6.0-0.20","4","4","4","4","4","4","3","3","4","4","5","5","5","5","5","4","5","4","5","5","1","1","1","1","1","1","1","2","1","0","1","0","0","1","1","0","0","1","0","0","1","0","1","0","5","1","2","1","1","3","2","1","1","5","2","656853379439394816","张","452","","","","","","","","","","","","","","","","","","","","","","","","","","","","","","","","","","","","","","","","","",""
"616","<p style=""color:rgb(150, 250, 100); font-size: 35px;"">他人的</p>","i","categorize-html","100","267933","0.0-6.0-1.0-6.0-1.20","4","4","4","4","4","4","3","3","4","4","5","5","5","5","5","4","5","4","5","5","1","1","1","1","1","1","1","2","1","0","1","0","0","1","1","0","0","1","0","0","1","0","1","0","5","1","2","1","1","3","2","1","1","5","2","656853379439394816","张","452","","","","","","","","","","","","","","","","","","","true","13","3","moral","616","other","他人的","","","","","","","","","","","","","","","","",""
"null","","null","html-keyboard-response","101","268190","0.0-6.0-1.0-6.0-0.21","4","4","4","4","4","4","3","3","4","4","5","5","5","5","5","4","5","4","5","5","1","1","1","1","1","1","1","2","1","0","1","0","0","1","1","0","0","1","0","0","1","0","1","0","5","1","2","1","1","3","2","1","1","5","2","656853379439394816","张","452","","","","","","","","","","","","","","","","","","","","","","","","","","","","","","","","","","","","","","","","","",""
"745","<p style=""color:white; font-size: 35px;"">廉正</p>","e","categorize-html","102","268937","0.0-6.0-1.0-6.0-1.21","4","4","4","4","4","4","3","3","4","4","5","5","5","5","5","4","5","4","5","5","1","1","1","1","1","1","1","2","1","0","1","0","0","1","1","0","0","1","0","0","1","0","1","0","5","1","2","1","1","3","2","1","1","5","2","656853379439394816","张","452","","","","","","","","","","","","","","","","","","","true","13","3","moral","745","positive","廉正","","","","","","","","","","","","","","","","",""
"null","","null","html-keyboard-response","103","269189","0.0-6.0-1.0-6.0-0.22","4","4","4","4","4","4","3","3","4","4","5","5","5","5","5","4","5","4","5","5","1","1","1","1","1","1","1","2","1","0","1","0","0","1","1","0","0","1","0","0","1","0","1","0","5","1","2","1","1","3","2","1","1","5","2","656853379439394816","张","452","","","","","","","","","","","","","","","","","","","","","","","","","","","","","","","","","","","","","","","","","",""
"989","<p style=""color:rgb(150, 250, 100); font-size: 35px;"">自己的</p>","e","categorize-html","104","270181","0.0-6.0-1.0-6.0-1.22","4","4","4","4","4","4","3","3","4","4","5","5","5","5","5","4","5","4","5","5","1","1","1","1","1","1","1","2","1","0","1","0","0","1","1","0","0","1","0","0","1","0","1","0","5","1","2","1","1","3","2","1","1","5","2","656853379439394816","张","452","","","","","","","","","","","","","","","","","","","true","13","3","moral","989","self","自己的","","","","","","","","","","","","","","","","",""
"null","","null","html-keyboard-response","105","270432","0.0-6.0-1.0-6.0-0.23","4","4","4","4","4","4","3","3","4","4","5","5","5","5","5","4","5","4","5","5","1","1","1","1","1","1","1","2","1","0","1","0","0","1","1","0","0","1","0","0","1","0","1","0","5","1","2","1","1","3","2","1","1","5","2","656853379439394816","张","452","","","","","","","","","","","","","","","","","","","","","","","","","","","","","","","","","","","","","","","","","",""
"890","<p style=""color:white; font-size: 35px;"">不孝</p>","i","categorize-html","106","271331","0.0-6.0-1.0-6.0-1.23","4","4","4","4","4","4","3","3","4","4","5","5","5","5","5","4","5","4","5","5","1","1","1","1","1","1","1","2","1","0","1","0","0","1","1","0","0","1","0","0","1","0","1","0","5","1","2","1","1","3","2","1","1","5","2","656853379439394816","张","452","","","","","","","","","","","","","","","","","","","true","13","3","moral","890","negative","不孝","","","","","","","","","","","","","","","","",""
"6639","
    <div class=""tag-bottom""><p>
    —— 任务4：对“自我/积极”词和“他人/消极”词分类 ——<p/>
    <span style=""color:#78DCE8""><b>与刚才的任务完全相同，请再次对这四类词语分类</b></span><p/>
    <span style=""color:#FFD866""><b>请根据上方标签的提示，尽可能正确并且快速地做出按键反应</b></span><p/>
    当按键错误时屏幕中会出现<span style=""color:red""> X </span>，需要按另一个键纠正才能继续<br/><p/>
    请把双手食指分别放在键盘的“E”键和“I”键上<p/>
    按<空格键>开始
    </p></div>"," ","html-keyboard-response","107","277972","0.0-6.0-1.0-7.0","4","4","4","4","4","4","3","3","4","4","5","5","5","5","5","4","5","4","5","5","1","1","1","1","1","1","1","2","1","0","1","0","0","1","1","0","0","1","0","0","1","0","1","0","5","1","2","1","1","3","2","1","1","5","2","656853379439394816","张","452","","","","","","","","","","","","","","","","","","","","","","","","","","","","","","","","","","","","","","","","","",""
"null","","null","html-keyboard-response","108","278227","0.0-6.0-1.0-8.0-0.0","4","4","4","4","4","4","3","3","4","4","5","5","5","5","5","4","5","4","5","5","1","1","1","1","1","1","1","2","1","0","1","0","0","1","1","0","0","1","0","0","1","0","1","0","5","1","2","1","1","3","2","1","1","5","2","656853379439394816","张","452","","","","","","","","","","","","","","","","","","","","","","","","","","","","","","","","","","","","","","","","","",""
"528","<p style=""color:rgb(150, 250, 100); font-size: 35px;"">自己</p>","e","categorize-html","109","278757","0.0-6.0-1.0-8.0-1.0","4","4","4","4","4","4","3","3","4","4","5","5","5","5","5","4","5","4","5","5","1","1","1","1","1","1","1","2","1","0","1","0","0","1","1","0","0","1","0","0","1","0","1","0","5","1","2","1","1","3","2","1","1","5","2","656853379439394816","张","452","","","","","","","","","","","","","","","","","","","true","14","4","moral","528","self","自己","","","","","","","","","","","","","","","","",""
"null","","null","html-keyboard-response","110","279010","0.0-6.0-1.0-8.0-0.1","4","4","4","4","4","4","3","3","4","4","5","5","5","5","5","4","5","4","5","5","1","1","1","1","1","1","1","2","1","0","1","0","0","1","1","0","0","1","0","0","1","0","1","0","5","1","2","1","1","3","2","1","1","5","2","656853379439394816","张","452","","","","","","","","","","","","","","","","","","","","","","","","","","","","","","","","","","","","","","","","","",""
"515","<p style=""color:white; font-size: 35px;"">黑心</p>","i","categorize-html","111","279526","0.0-6.0-1.0-8.0-1.1","4","4","4","4","4","4","3","3","4","4","5","5","5","5","5","4","5","4","5","5","1","1","1","1","1","1","1","2","1","0","1","0","0","1","1","0","0","1","0","0","1","0","1","0","5","1","2","1","1","3","2","1","1","5","2","656853379439394816","张","452","","","","","","","","","","","","","","","","","","","true","14","4","moral","515","negative","黑心","","","","","","","","","","","","","","","","",""
"null","","null","html-keyboard-response","112","279778","0.0-6.0-1.0-8.0-0.2","4","4","4","4","4","4","3","3","4","4","5","5","5","5","5","4","5","4","5","5","1","1","1","1","1","1","1","2","1","0","1","0","0","1","1","0","0","1","0","0","1","0","1","0","5","1","2","1","1","3","2","1","1","5","2","656853379439394816","张","452","","","","","","","","","","","","","","","","","","","","","","","","","","","","","","","","","","","","","","","","","",""
"488","<p style=""color:rgb(150, 250, 100); font-size: 35px;"">他的</p>","i","categorize-html","113","280274","0.0-6.0-1.0-8.0-1.2","4","4","4","4","4","4","3","3","4","4","5","5","5","5","5","4","5","4","5","5","1","1","1","1","1","1","1","2","1","0","1","0","0","1","1","0","0","1","0","0","1","0","1","0","5","1","2","1","1","3","2","1","1","5","2","656853379439394816","张","452","","","","","","","","","","","","","","","","","","","true","14","4","moral","488","other","他的","","","","","","","","","","","","","","","","",""
"null","","null","html-keyboard-response","114","280525","0.0-6.0-1.0-8.0-0.3","4","4","4","4","4","4","3","3","4","4","5","5","5","5","5","4","5","4","5","5","1","1","1","1","1","1","1","2","1","0","1","0","0","1","1","0","0","1","0","0","1","0","1","0","5","1","2","1","1","3","2","1","1","5","2","656853379439394816","张","452","","","","","","","","","","","","","","","","","","","","","","","","","","","","","","","","","","","","","","","","","",""
"451","<p style=""color:white; font-size: 35px;"">正直</p>","e","categorize-html","115","280983","0.0-6.0-1.0-8.0-1.3","4","4","4","4","4","4","3","3","4","4","5","5","5","5","5","4","5","4","5","5","1","1","1","1","1","1","1","2","1","0","1","0","0","1","1","0","0","1","0","0","1","0","1","0","5","1","2","1","1","3","2","1","1","5","2","656853379439394816","张","452","","","","","","","","","","","","","","","","","","","true","14","4","moral","451","positive","正直","","","","","","","","","","","","","","","","",""
"null","","null","html-keyboard-response","116","281235","0.0-6.0-1.0-8.0-0.4","4","4","4","4","4","4","3","3","4","4","5","5","5","5","5","4","5","4","5","5","1","1","1","1","1","1","1","2","1","0","1","0","0","1","1","0","0","1","0","0","1","0","1","0","5","1","2","1","1","3","2","1","1","5","2","656853379439394816","张","452","","","","","","","","","","","","","","","","","","","","","","","","","","","","","","","","","","","","","","","","","",""
"439","<p style=""color:rgb(150, 250, 100); font-size: 35px;"">本人</p>","e","categorize-html","117","281680","0.0-6.0-1.0-8.0-1.4","4","4","4","4","4","4","3","3","4","4","5","5","5","5","5","4","5","4","5","5","1","1","1","1","1","1","1","2","1","0","1","0","0","1","1","0","0","1","0","0","1","0","1","0","5","1","2","1","1","3","2","1","1","5","2","656853379439394816","张","452","","","","","","","","","","","","","","","","","","","true","14","4","moral","439","self","本人","","","","","","","","","","","","","","","","",""
"null","","null","html-keyboard-response","118","281931","0.0-6.0-1.0-8.0-0.5","4","4","4","4","4","4","3","3","4","4","5","5","5","5","5","4","5","4","5","5","1","1","1","1","1","1","1","2","1","0","1","0","0","1","1","0","0","1","0","0","1","0","1","0","5","1","2","1","1","3","2","1","1","5","2","656853379439394816","张","452","","","","","","","","","","","","","","","","","","","","","","","","","","","","","","","","","","","","","","","","","",""
"434","<p style=""color:white; font-size: 35px;"">高尚</p>","e","categorize-html","119","282373","0.0-6.0-1.0-8.0-1.5","4","4","4","4","4","4","3","3","4","4","5","5","5","5","5","4","5","4","5","5","1","1","1","1","1","1","1","2","1","0","1","0","0","1","1","0","0","1","0","0","1","0","1","0","5","1","2","1","1","3","2","1","1","5","2","656853379439394816","张","452","","","","","","","","","","","","","","","","","","","true","14","4","moral","434","positive","高尚","","","","","","","","","","","","","","","","",""
"null","","null","html-keyboard-response","120","282625","0.0-6.0-1.0-8.0-0.6","4","4","4","4","4","4","3","3","4","4","5","5","5","5","5","4","5","4","5","5","1","1","1","1","1","1","1","2","1","0","1","0","0","1","1","0","0","1","0","0","1","0","1","0","5","1","2","1","1","3","2","1","1","5","2","656853379439394816","张","452","","","","","","","","","","","","","","","","","","","","","","","","","","","","","","","","","","","","","","","","","",""
"494","<p style=""color:rgb(150, 250, 100); font-size: 35px;"">别人的</p>","i","categorize-html","121","283125","0.0-6.0-1.0-8.0-1.6","4","4","4","4","4","4","3","3","4","4","5","5","5","5","5","4","5","4","5","5","1","1","1","1","1","1","1","2","1","0","1","0","0","1","1","0","0","1","0","0","1","0","1","0","5","1","2","1","1","3","2","1","1","5","2","656853379439394816","张","452","","","","","","","","","","","","","","","","","","","true","14","4","moral","494","other","别人的","","","","","","","","","","","","","","","","",""
"null","","null","html-keyboard-response","122","283376","0.0-6.0-1.0-8.0-0.7","4","4","4","4","4","4","3","3","4","4","5","5","5","5","5","4","5","4","5","5","1","1","1","1","1","1","1","2","1","0","1","0","0","1","1","0","0","1","0","0","1","0","1","0","5","1","2","1","1","3","2","1","1","5","2","656853379439394816","张","452","","","","","","","","","","","","","","","","","","","","","","","","","","","","","","","","","","","","","","","","","",""
"489","<p style=""color:white; font-size: 35px;"">不仁</p>","i","categorize-html","123","283868","0.0-6.0-1.0-8.0-1.7","4","4","4","4","4","4","3","3","4","4","5","5","5","5","5","4","5","4","5","5","1","1","1","1","1","1","1","2","1","0","1","0","0","1","1","0","0","1","0","0","1","0","1","0","5","1","2","1","1","3","2","1","1","5","2","656853379439394816","张","452","","","","","","","","","","","","","","","","","","","true","14","4","moral","489","negative","不仁","","","","","","","","","","","","","","","","",""
"null","","null","html-keyboard-response","124","284127","0.0-6.0-1.0-8.0-0.8","4","4","4","4","4","4","3","3","4","4","5","5","5","5","5","4","5","4","5","5","1","1","1","1","1","1","1","2","1","0","1","0","0","1","1","0","0","1","0","0","1","0","1","0","5","1","2","1","1","3","2","1","1","5","2","656853379439394816","张","452","","","","","","","","","","","","","","","","","","","","","","","","","","","","","","","","","","","","","","","","","",""
"761","<p style=""color:rgb(150, 250, 100); font-size: 35px;"">本人的</p>","e","categorize-html","125","284895","0.0-6.0-1.0-8.0-1.8","4","4","4","4","4","4","3","3","4","4","5","5","5","5","5","4","5","4","5","5","1","1","1","1","1","1","1","2","1","0","1","0","0","1","1","0","0","1","0","0","1","0","1","0","5","1","2","1","1","3","2","1","1","5","2","656853379439394816","张","452","","","","","","","","","","","","","","","","","","","true","14","4","moral","761","self","本人的","","","","","","","","","","","","","","","","",""
"null","","null","html-keyboard-response","126","285148","0.0-6.0-1.0-8.0-0.9","4","4","4","4","4","4","3","3","4","4","5","5","5","5","5","4","5","4","5","5","1","1","1","1","1","1","1","2","1","0","1","0","0","1","1","0","0","1","0","0","1","0","1","0","5","1","2","1","1","3","2","1","1","5","2","656853379439394816","张","452","","","","","","","","","","","","","","","","","","","","","","","","","","","","","","","","","","","","","","","","","",""
"553","<p style=""color:white; font-size: 35px;"">卑鄙</p>","i","categorize-html","127","285704","0.0-6.0-1.0-8.0-1.9","4","4","4","4","4","4","3","3","4","4","5","5","5","5","5","4","5","4","5","5","1","1","1","1","1","1","1","2","1","0","1","0","0","1","1","0","0","1","0","0","1","0","1","0","5","1","2","1","1","3","2","1","1","5","2","656853379439394816","张","452","","","","","","","","","","","","","","","","","","","true","14","4","moral","553","negative","卑鄙","","","","","","","","","","","","","","","","",""
"null","","null","html-keyboard-response","128","285957","0.0-6.0-1.0-8.0-0.10","4","4","4","4","4","4","3","3","4","4","5","5","5","5","5","4","5","4","5","5","1","1","1","1","1","1","1","2","1","0","1","0","0","1","1","0","0","1","0","0","1","0","1","0","5","1","2","1","1","3","2","1","1","5","2","656853379439394816","张","452","","","","","","","","","","","","","","","","","","","","","","","","","","","","","","","","","","","","","","","","","",""
"1103","<p style=""color:rgb(150, 250, 100); font-size: 35px;"">他</p>","i","categorize-html","129","287065","0.0-6.0-1.0-8.0-1.10","4","4","4","4","4","4","3","3","4","4","5","5","5","5","5","4","5","4","5","5","1","1","1","1","1","1","1","2","1","0","1","0","0","1","1","0","0","1","0","0","1","0","1","0","5","1","2","1","1","3","2","1","1","5","2","656853379439394816","张","452","","","","","","","","","","","","","","","","","","","true","14","4","moral","1103","other","他","","","","","","","","","","","","","","","","",""
"null","","null","html-keyboard-response","130","287317","0.0-6.0-1.0-8.0-0.11","4","4","4","4","4","4","3","3","4","4","5","5","5","5","5","4","5","4","5","5","1","1","1","1","1","1","1","2","1","0","1","0","0","1","1","0","0","1","0","0","1","0","1","0","5","1","2","1","1","3","2","1","1","5","2","656853379439394816","张","452","","","","","","","","","","","","","","","","","","","","","","","","","","","","","","","","","","","","","","","","","",""
"602","<p style=""color:white; font-size: 35px;"">诚信</p>","e","categorize-html","131","287926","0.0-6.0-1.0-8.0-1.11","4","4","4","4","4","4","3","3","4","4","5","5","5","5","5","4","5","4","5","5","1","1","1","1","1","1","1","2","1","0","1","0","0","1","1","0","0","1","0","0","1","0","1","0","5","1","2","1","1","3","2","1","1","5","2","656853379439394816","张","452","","","","","","","","","","","","","","","","","","","true","14","4","moral","602","positive","诚信","","","","","","","","","","","","","","","","",""
"null","","null","html-keyboard-response","132","288178","0.0-6.0-1.0-8.0-0.12","4","4","4","4","4","4","3","3","4","4","5","5","5","5","5","4","5","4","5","5","1","1","1","1","1","1","1","2","1","0","1","0","0","1","1","0","0","1","0","0","1","0","1","0","5","1","2","1","1","3","2","1","1","5","2","656853379439394816","张","452","","","","","","","","","","","","","","","","","","","","","","","","","","","","","","","","","","","","","","","","","",""
"1184","<p style=""color:rgb(150, 250, 100); font-size: 35px;"">我的</p>","e","categorize-html","133","289365","0.0-6.0-1.0-8.0-1.12","4","4","4","4","4","4","3","3","4","4","5","5","5","5","5","4","5","4","5","5","1","1","1","1","1","1","1","2","1","0","1","0","0","1","1","0","0","1","0","0","1","0","1","0","5","1","2","1","1","3","2","1","1","5","2","656853379439394816","张","452","","","","","","","","","","","","","","","","","","","true","14","4","moral","1184","self","我的","","","","","","","","","","","","","","","","",""
"null","","null","html-keyboard-response","134","289617","0.0-6.0-1.0-8.0-0.13","4","4","4","4","4","4","3","3","4","4","5","5","5","5","5","4","5","4","5","5","1","1","1","1","1","1","1","2","1","0","1","0","0","1","1","0","0","1","0","0","1","0","1","0","5","1","2","1","1","3","2","1","1","5","2","656853379439394816","张","452","","","","","","","","","","","","","","","","","","","","","","","","","","","","","","","","","","","","","","","","","",""
"796","<p style=""color:white; font-size: 35px;"">缺德</p>","i","categorize-html","135","290414","0.0-6.0-1.0-8.0-1.13","4","4","4","4","4","4","3","3","4","4","5","5","5","5","5","4","5","4","5","5","1","1","1","1","1","1","1","2","1","0","1","0","0","1","1","0","0","1","0","0","1","0","1","0","5","1","2","1","1","3","2","1","1","5","2","656853379439394816","张","452","","","","","","","","","","","","","","","","","","","true","14","4","moral","796","negative","缺德","","","","","","","","","","","","","","","","",""
"null","","null","html-keyboard-response","136","290666","0.0-6.0-1.0-8.0-0.14","4","4","4","4","4","4","3","3","4","4","5","5","5","5","5","4","5","4","5","5","1","1","1","1","1","1","1","2","1","0","1","0","0","1","1","0","0","1","0","0","1","0","1","0","5","1","2","1","1","3","2","1","1","5","2","656853379439394816","张","452","","","","","","","","","","","","","","","","","","","","","","","","","","","","","","","","","","","","","","","","","",""
"678","<p style=""color:rgb(150, 250, 100); font-size: 35px;"">别人</p>","i","categorize-html","137","291351","0.0-6.0-1.0-8.0-1.14","4","4","4","4","4","4","3","3","4","4","5","5","5","5","5","4","5","4","5","5","1","1","1","1","1","1","1","2","1","0","1","0","0","1","1","0","0","1","0","0","1","0","1","0","5","1","2","1","1","3","2","1","1","5","2","656853379439394816","张","452","","","","","","","","","","","","","","","","","","","true","14","4","moral","678","other","别人","","","","","","","","","","","","","","","","",""
"null","","null","html-keyboard-response","138","291603","0.0-6.0-1.0-8.0-0.15","4","4","4","4","4","4","3","3","4","4","5","5","5","5","5","4","5","4","5","5","1","1","1","1","1","1","1","2","1","0","1","0","0","1","1","0","0","1","0","0","1","0","1","0","5","1","2","1","1","3","2","1","1","5","2","656853379439394816","张","452","","","","","","","","","","","","","","","","","","","","","","","","","","","","","","","","","","","","","","","","","",""
"768","<p style=""color:white; font-size: 35px;"">善良</p>","e","categorize-html","139","292377","0.0-6.0-1.0-8.0-1.15","4","4","4","4","4","4","3","3","4","4","5","5","5","5","5","4","5","4","5","5","1","1","1","1","1","1","1","2","1","0","1","0","0","1","1","0","0","1","0","0","1","0","1","0","5","1","2","1","1","3","2","1","1","5","2","656853379439394816","张","452","","","","","","","","","","","","","","","","","","","true","14","4","moral","768","positive","善良","","","","","","","","","","","","","","","","",""
"null","","null","html-keyboard-response","140","292629","0.0-6.0-1.0-8.0-0.16","4","4","4","4","4","4","3","3","4","4","5","5","5","5","5","4","5","4","5","5","1","1","1","1","1","1","1","2","1","0","1","0","0","1","1","0","0","1","0","0","1","0","1","0","5","1","2","1","1","3","2","1","1","5","2","656853379439394816","张","452","","","","","","","","","","","","","","","","","","","","","","","","","","","","","","","","","","","","","","","","","",""
"535","<p style=""color:rgb(150, 250, 100); font-size: 35px;"">自己的</p>","e","categorize-html","141","293165","0.0-6.0-1.0-8.0-1.16","4","4","4","4","4","4","3","3","4","4","5","5","5","5","5","4","5","4","5","5","1","1","1","1","1","1","1","2","1","0","1","0","0","1","1","0","0","1","0","0","1","0","1","0","5","1","2","1","1","3","2","1","1","5","2","656853379439394816","张","452","","","","","","","","","","","","","","","","","","","true","14","4","moral","535","self","自己的","","","","","","","","","","","","","","","","",""
"null","","null","html-keyboard-response","142","293418","0.0-6.0-1.0-8.0-0.17","4","4","4","4","4","4","3","3","4","4","5","5","5","5","5","4","5","4","5","5","1","1","1","1","1","1","1","2","1","0","1","0","0","1","1","0","0","1","0","0","1","0","1","0","5","1","2","1","1","3","2","1","1","5","2","656853379439394816","张","452","","","","","","","","","","","","","","","","","","","","","","","","","","","","","","","","","","","","","","","","","",""
"815","<p style=""color:white; font-size: 35px;"">正直</p>","e","categorize-html","143","294241","0.0-6.0-1.0-8.0-1.17","4","4","4","4","4","4","3","3","4","4","5","5","5","5","5","4","5","4","5","5","1","1","1","1","1","1","1","2","1","0","1","0","0","1","1","0","0","1","0","0","1","0","1","0","5","1","2","1","1","3","2","1","1","5","2","656853379439394816","张","452","","","","","","","","","","","","","","","","","","","true","14","4","moral","815","positive","正直","","","","","","","","","","","","","","","","",""
"null","","null","html-keyboard-response","144","294493","0.0-6.0-1.0-8.0-0.18","4","4","4","4","4","4","3","3","4","4","5","5","5","5","5","4","5","4","5","5","1","1","1","1","1","1","1","2","1","0","1","0","0","1","1","0","0","1","0","0","1","0","1","0","5","1","2","1","1","3","2","1","1","5","2","656853379439394816","张","452","","","","","","","","","","","","","","","","","","","","","","","","","","","","","","","","","","","","","","","","","",""
"717","<p style=""color:rgb(150, 250, 100); font-size: 35px;"">他的</p>","i","categorize-html","145","295217","0.0-6.0-1.0-8.0-1.18","4","4","4","4","4","4","3","3","4","4","5","5","5","5","5","4","5","4","5","5","1","1","1","1","1","1","1","2","1","0","1","0","0","1","1","0","0","1","0","0","1","0","1","0","5","1","2","1","1","3","2","1","1","5","2","656853379439394816","张","452","","","","","","","","","","","","","","","","","","","true","14","4","moral","717","other","他的","","","","","","","","","","","","","","","","",""
"null","","null","html-keyboard-response","146","295469","0.0-6.0-1.0-8.0-0.19","4","4","4","4","4","4","3","3","4","4","5","5","5","5","5","4","5","4","5","5","1","1","1","1","1","1","1","2","1","0","1","0","0","1","1","0","0","1","0","0","1","0","1","0","5","1","2","1","1","3","2","1","1","5","2","656853379439394816","张","452","","","","","","","","","","","","","","","","","","","","","","","","","","","","","","","","","","","","","","","","","",""
"586","<p style=""color:white; font-size: 35px;"">小人</p>","i","categorize-html","147","296061","0.0-6.0-1.0-8.0-1.19","4","4","4","4","4","4","3","3","4","4","5","5","5","5","5","4","5","4","5","5","1","1","1","1","1","1","1","2","1","0","1","0","0","1","1","0","0","1","0","0","1","0","1","0","5","1","2","1","1","3","2","1","1","5","2","656853379439394816","张","452","","","","","","","","","","","","","","","","","","","true","14","4","moral","586","negative","小人","","","","","","","","","","","","","","","","",""
"null","","null","html-keyboard-response","148","296313","0.0-6.0-1.0-8.0-0.20","4","4","4","4","4","4","3","3","4","4","5","5","5","5","5","4","5","4","5","5","1","1","1","1","1","1","1","2","1","0","1","0","0","1","1","0","0","1","0","0","1","0","1","0","5","1","2","1","1","3","2","1","1","5","2","656853379439394816","张","452","","","","","","","","","","","","","","","","","","","","","","","","","","","","","","","","","","","","","","","","","",""
"485","<p style=""color:rgb(150, 250, 100); font-size: 35px;"">自己的</p>","e","categorize-html","149","296804","0.0-6.0-1.0-8.0-1.20","4","4","4","4","4","4","3","3","4","4","5","5","5","5","5","4","5","4","5","5","1","1","1","1","1","1","1","2","1","0","1","0","0","1","1","0","0","1","0","0","1","0","1","0","5","1","2","1","1","3","2","1","1","5","2","656853379439394816","张","452","","","","","","","","","","","","","","","","","","","true","14","4","moral","485","self","自己的","","","","","","","","","","","","","","","","",""
"null","","null","html-keyboard-response","150","297056","0.0-6.0-1.0-8.0-0.21","4","4","4","4","4","4","3","3","4","4","5","5","5","5","5","4","5","4","5","5","1","1","1","1","1","1","1","2","1","0","1","0","0","1","1","0","0","1","0","0","1","0","1","0","5","1","2","1","1","3","2","1","1","5","2","656853379439394816","张","452","","","","","","","","","","","","","","","","","","","","","","","","","","","","","","","","","","","","","","","","","",""
"547","<p style=""color:white; font-size: 35px;"">不孝</p>","i","categorize-html","151","297604","0.0-6.0-1.0-8.0-1.21","4","4","4","4","4","4","3","3","4","4","5","5","5","5","5","4","5","4","5","5","1","1","1","1","1","1","1","2","1","0","1","0","0","1","1","0","0","1","0","0","1","0","1","0","5","1","2","1","1","3","2","1","1","5","2","656853379439394816","张","452","","","","","","","","","","","","","","","","","","","true","14","4","moral","547","negative","不孝","","","","","","","","","","","","","","","","",""
"null","","null","html-keyboard-response","152","297857","0.0-6.0-1.0-8.0-0.22","4","4","4","4","4","4","3","3","4","4","5","5","5","5","5","4","5","4","5","5","1","1","1","1","1","1","1","2","1","0","1","0","0","1","1","0","0","1","0","0","1","0","1","0","5","1","2","1","1","3","2","1","1","5","2","656853379439394816","张","452","","","","","","","","","","","","","","","","","","","","","","","","","","","","","","","","","","","","","","","","","",""
"550","<p style=""color:rgb(150, 250, 100); font-size: 35px;"">他</p>","i","categorize-html","153","298414","0.0-6.0-1.0-8.0-1.22","4","4","4","4","4","4","3","3","4","4","5","5","5","5","5","4","5","4","5","5","1","1","1","1","1","1","1","2","1","0","1","0","0","1","1","0","0","1","0","0","1","0","1","0","5","1","2","1","1","3","2","1","1","5","2","656853379439394816","张","452","","","","","","","","","","","","","","","","","","","true","14","4","moral","550","other","他","","","","","","","","","","","","","","","","",""
"null","","null","html-keyboard-response","154","298665","0.0-6.0-1.0-8.0-0.23","4","4","4","4","4","4","3","3","4","4","5","5","5","5","5","4","5","4","5","5","1","1","1","1","1","1","1","2","1","0","1","0","0","1","1","0","0","1","0","0","1","0","1","0","5","1","2","1","1","3","2","1","1","5","2","656853379439394816","张","452","","","","","","","","","","","","","","","","","","","","","","","","","","","","","","","","","","","","","","","","","",""
"502","<p style=""color:white; font-size: 35px;"">廉正</p>","e","categorize-html","155","299170","0.0-6.0-1.0-8.0-1.23","4","4","4","4","4","4","3","3","4","4","5","5","5","5","5","4","5","4","5","5","1","1","1","1","1","1","1","2","1","0","1","0","0","1","1","0","0","1","0","0","1","0","1","0","5","1","2","1","1","3","2","1","1","5","2","656853379439394816","张","452","","","","","","","","","","","","","","","","","","","true","14","4","moral","502","positive","廉正","","","","","","","","","","","","","","","","",""
"null","","null","html-keyboard-response","156","299422","0.0-6.0-1.0-8.0-0.24","4","4","4","4","4","4","3","3","4","4","5","5","5","5","5","4","5","4","5","5","1","1","1","1","1","1","1","2","1","0","1","0","0","1","1","0","0","1","0","0","1","0","1","0","5","1","2","1","1","3","2","1","1","5","2","656853379439394816","张","452","","","","","","","","","","","","","","","","","","","","","","","","","","","","","","","","","","","","","","","","","",""
"1065","<p style=""color:rgb(150, 250, 100); font-size: 35px;"">别人的</p>","i","categorize-html","157","300489","0.0-6.0-1.0-8.0-1.24","4","4","4","4","4","4","3","3","4","4","5","5","5","5","5","4","5","4","5","5","1","1","1","1","1","1","1","2","1","0","1","0","0","1","1","0","0","1","0","0","1","0","1","0","5","1","2","1","1","3","2","1","1","5","2","656853379439394816","张","452","","","","","","","","","","","","","","","","","","","true","14","4","moral","1065","other","别人的","","","","","","","","","","","","","","","","",""
"null","","null","html-keyboard-response","158","300741","0.0-6.0-1.0-8.0-0.25","4","4","4","4","4","4","3","3","4","4","5","5","5","5","5","4","5","4","5","5","1","1","1","1","1","1","1","2","1","0","1","0","0","1","1","0","0","1","0","0","1","0","1","0","5","1","2","1","1","3","2","1","1","5","2","656853379439394816","张","452","","","","","","","","","","","","","","","","","","","","","","","","","","","","","","","","","","","","","","","","","",""
"439","<p style=""color:white; font-size: 35px;"">卑鄙</p>","i","categorize-html","159","301186","0.0-6.0-1.0-8.0-1.25","4","4","4","4","4","4","3","3","4","4","5","5","5","5","5","4","5","4","5","5","1","1","1","1","1","1","1","2","1","0","1","0","0","1","1","0","0","1","0","0","1","0","1","0","5","1","2","1","1","3","2","1","1","5","2","656853379439394816","张","452","","","","","","","","","","","","","","","","","","","true","14","4","moral","439","negative","卑鄙","","","","","","","","","","","","","","","","",""
"null","","null","html-keyboard-response","160","301438","0.0-6.0-1.0-8.0-0.26","4","4","4","4","4","4","3","3","4","4","5","5","5","5","5","4","5","4","5","5","1","1","1","1","1","1","1","2","1","0","1","0","0","1","1","0","0","1","0","0","1","0","1","0","5","1","2","1","1","3","2","1","1","5","2","656853379439394816","张","452","","","","","","","","","","","","","","","","","","","","","","","","","","","","","","","","","","","","","","","","","",""
"519","<p style=""color:rgb(150, 250, 100); font-size: 35px;"">我</p>","e","categorize-html","161","301960","0.0-6.0-1.0-8.0-1.26","4","4","4","4","4","4","3","3","4","4","5","5","5","5","5","4","5","4","5","5","1","1","1","1","1","1","1","2","1","0","1","0","0","1","1","0","0","1","0","0","1","0","1","0","5","1","2","1","1","3","2","1","1","5","2","656853379439394816","张","452","","","","","","","","","","","","","","","","","","","true","14","4","moral","519","self","我","","","","","","","","","","","","","","","","",""
"null","","null","html-keyboard-response","162","302215","0.0-6.0-1.0-8.0-0.27","4","4","4","4","4","4","3","3","4","4","5","5","5","5","5","4","5","4","5","5","1","1","1","1","1","1","1","2","1","0","1","0","0","1","1","0","0","1","0","0","1","0","1","0","5","1","2","1","1","3","2","1","1","5","2","656853379439394816","张","452","","","","","","","","","","","","","","","","","","","","","","","","","","","","","","","","","","","","","","","","","",""
"501","<p style=""color:white; font-size: 35px;"">高尚</p>","e","categorize-html","163","302719","0.0-6.0-1.0-8.0-1.27","4","4","4","4","4","4","3","3","4","4","5","5","5","5","5","4","5","4","5","5","1","1","1","1","1","1","1","2","1","0","1","0","0","1","1","0","0","1","0","0","1","0","1","0","5","1","2","1","1","3","2","1","1","5","2","656853379439394816","张","452","","","","","","","","","","","","","","","","","","","true","14","4","moral","501","positive","高尚","","","","","","","","","","","","","","","","",""
"null","","null","html-keyboard-response","164","302970","0.0-6.0-1.0-8.0-0.28","4","4","4","4","4","4","3","3","4","4","5","5","5","5","5","4","5","4","5","5","1","1","1","1","1","1","1","2","1","0","1","0","0","1","1","0","0","1","0","0","1","0","1","0","5","1","2","1","1","3","2","1","1","5","2","656853379439394816","张","452","","","","","","","","","","","","","","","","","","","","","","","","","","","","","","","","","","","","","","","","","",""
"468","<p style=""color:rgb(150, 250, 100); font-size: 35px;"">他人</p>","i","categorize-html","165","303446","0.0-6.0-1.0-8.0-1.28","4","4","4","4","4","4","3","3","4","4","5","5","5","5","5","4","5","4","5","5","1","1","1","1","1","1","1","2","1","0","1","0","0","1","1","0","0","1","0","0","1","0","1","0","5","1","2","1","1","3","2","1","1","5","2","656853379439394816","张","452","","","","","","","","","","","","","","","","","","","true","14","4","moral","468","other","他人","","","","","","","","","","","","","","","","",""
"null","","null","html-keyboard-response","166","303698","0.0-6.0-1.0-8.0-0.29","4","4","4","4","4","4","3","3","4","4","5","5","5","5","5","4","5","4","5","5","1","1","1","1","1","1","1","2","1","0","1","0","0","1","1","0","0","1","0","0","1","0","1","0","5","1","2","1","1","3","2","1","1","5","2","656853379439394816","张","452","","","","","","","","","","","","","","","","","","","","","","","","","","","","","","","","","","","","","","","","","",""
"499","<p style=""color:white; font-size: 35px;"">诚信</p>","e","categorize-html","167","304204","0.0-6.0-1.0-8.0-1.29","4","4","4","4","4","4","3","3","4","4","5","5","5","5","5","4","5","4","5","5","1","1","1","1","1","1","1","2","1","0","1","0","0","1","1","0","0","1","0","0","1","0","1","0","5","1","2","1","1","3","2","1","1","5","2","656853379439394816","张","452","","","","","","","","","","","","","","","","","","","true","14","4","moral","499","positive","诚信","","","","","","","","","","","","","","","","",""
"null","","null","html-keyboard-response","168","304457","0.0-6.0-1.0-8.0-0.30","4","4","4","4","4","4","3","3","4","4","5","5","5","5","5","4","5","4","5","5","1","1","1","1","1","1","1","2","1","0","1","0","0","1","1","0","0","1","0","0","1","0","1","0","5","1","2","1","1","3","2","1","1","5","2","656853379439394816","张","452","","","","","","","","","","","","","","","","","","","","","","","","","","","","","","","","","","","","","","","","","",""
"461","<p style=""color:rgb(150, 250, 100); font-size: 35px;"">我的</p>","e","categorize-html","169","304924","0.0-6.0-1.0-8.0-1.30","4","4","4","4","4","4","3","3","4","4","5","5","5","5","5","4","5","4","5","5","1","1","1","1","1","1","1","2","1","0","1","0","0","1","1","0","0","1","0","0","1","0","1","0","5","1","2","1","1","3","2","1","1","5","2","656853379439394816","张","452","","","","","","","","","","","","","","","","","","","true","14","4","moral","461","self","我的","","","","","","","","","","","","","","","","",""
"null","","null","html-keyboard-response","170","305176","0.0-6.0-1.0-8.0-0.31","4","4","4","4","4","4","3","3","4","4","5","5","5","5","5","4","5","4","5","5","1","1","1","1","1","1","1","2","1","0","1","0","0","1","1","0","0","1","0","0","1","0","1","0","5","1","2","1","1","3","2","1","1","5","2","656853379439394816","张","452","","","","","","","","","","","","","","","","","","","","","","","","","","","","","","","","","","","","","","","","","",""
"510","<p style=""color:white; font-size: 35px;"">小人</p>","i","categorize-html","171","305691","0.0-6.0-1.0-8.0-1.31","4","4","4","4","4","4","3","3","4","4","5","5","5","5","5","4","5","4","5","5","1","1","1","1","1","1","1","2","1","0","1","0","0","1","1","0","0","1","0","0","1","0","1","0","5","1","2","1","1","3","2","1","1","5","2","656853379439394816","张","452","","","","","","","","","","","","","","","","","","","true","14","4","moral","510","negative","小人","","","","","","","","","","","","","","","","",""
"null","","null","html-keyboard-response","172","305943","0.0-6.0-1.0-8.0-0.32","4","4","4","4","4","4","3","3","4","4","5","5","5","5","5","4","5","4","5","5","1","1","1","1","1","1","1","2","1","0","1","0","0","1","1","0","0","1","0","0","1","0","1","0","5","1","2","1","1","3","2","1","1","5","2","656853379439394816","张","452","","","","","","","","","","","","","","","","","","","","","","","","","","","","","","","","","","","","","","","","","",""
"554","<p style=""color:rgb(150, 250, 100); font-size: 35px;"">他人的</p>","i","categorize-html","173","306502","0.0-6.0-1.0-8.0-1.32","4","4","4","4","4","4","3","3","4","4","5","5","5","5","5","4","5","4","5","5","1","1","1","1","1","1","1","2","1","0","1","0","0","1","1","0","0","1","0","0","1","0","1","0","5","1","2","1","1","3","2","1","1","5","2","656853379439394816","张","452","","","","","","","","","","","","","","","","","","","true","14","4","moral","554","other","他人的","","","","","","","","","","","","","","","","",""
"null","","null","html-keyboard-response","174","306754","0.0-6.0-1.0-8.0-0.33","4","4","4","4","4","4","3","3","4","4","5","5","5","5","5","4","5","4","5","5","1","1","1","1","1","1","1","2","1","0","1","0","0","1","1","0","0","1","0","0","1","0","1","0","5","1","2","1","1","3","2","1","1","5","2","656853379439394816","张","452","","","","","","","","","","","","","","","","","","","","","","","","","","","","","","","","","","","","","","","","","",""
"557","<p style=""color:white; font-size: 35px;"">廉正</p>","e","categorize-html","175","307317","0.0-6.0-1.0-8.0-1.33","4","4","4","4","4","4","3","3","4","4","5","5","5","5","5","4","5","4","5","5","1","1","1","1","1","1","1","2","1","0","1","0","0","1","1","0","0","1","0","0","1","0","1","0","5","1","2","1","1","3","2","1","1","5","2","656853379439394816","张","452","","","","","","","","","","","","","","","","","","","true","14","4","moral","557","positive","廉正","","","","","","","","","","","","","","","","",""
"null","","null","html-keyboard-response","176","307568","0.0-6.0-1.0-8.0-0.34","4","4","4","4","4","4","3","3","4","4","5","5","5","5","5","4","5","4","5","5","1","1","1","1","1","1","1","2","1","0","1","0","0","1","1","0","0","1","0","0","1","0","1","0","5","1","2","1","1","3","2","1","1","5","2","656853379439394816","张","452","","","","","","","","","","","","","","","","","","","","","","","","","","","","","","","","","","","","","","","","","",""
"742","<p style=""color:rgb(150, 250, 100); font-size: 35px;"">本人</p>","e","categorize-html","177","308316","0.0-6.0-1.0-8.0-1.34","4","4","4","4","4","4","3","3","4","4","5","5","5","5","5","4","5","4","5","5","1","1","1","1","1","1","1","2","1","0","1","0","0","1","1","0","0","1","0","0","1","0","1","0","5","1","2","1","1","3","2","1","1","5","2","656853379439394816","张","452","","","","","","","","","","","","","","","","","","","true","14","4","moral","742","self","本人","","","","","","","","","","","","","","","","",""
"null","","null","html-keyboard-response","178","308569","0.0-6.0-1.0-8.0-0.35","4","4","4","4","4","4","3","3","4","4","5","5","5","5","5","4","5","4","5","5","1","1","1","1","1","1","1","2","1","0","1","0","0","1","1","0","0","1","0","0","1","0","1","0","5","1","2","1","1","3","2","1","1","5","2","656853379439394816","张","452","","","","","","","","","","","","","","","","","","","","","","","","","","","","","","","","","","","","","","","","","",""
"431","<p style=""color:white; font-size: 35px;"">不孝</p>","i","categorize-html","179","309005","0.0-6.0-1.0-8.0-1.35","4","4","4","4","4","4","3","3","4","4","5","5","5","5","5","4","5","4","5","5","1","1","1","1","1","1","1","2","1","0","1","0","0","1","1","0","0","1","0","0","1","0","1","0","5","1","2","1","1","3","2","1","1","5","2","656853379439394816","张","452","","","","","","","","","","","","","","","","","","","true","14","4","moral","431","negative","不孝","","","","","","","","","","","","","","","","",""
"null","","null","html-keyboard-response","180","309257","0.0-6.0-1.0-8.0-0.36","4","4","4","4","4","4","3","3","4","4","5","5","5","5","5","4","5","4","5","5","1","1","1","1","1","1","1","2","1","0","1","0","0","1","1","0","0","1","0","0","1","0","1","0","5","1","2","1","1","3","2","1","1","5","2","656853379439394816","张","452","","","","","","","","","","","","","","","","","","","","","","","","","","","","","","","","","","","","","","","","","",""
"533","<p style=""color:rgb(150, 250, 100); font-size: 35px;"">他人</p>","i","categorize-html","181","309794","0.0-6.0-1.0-8.0-1.36","4","4","4","4","4","4","3","3","4","4","5","5","5","5","5","4","5","4","5","5","1","1","1","1","1","1","1","2","1","0","1","0","0","1","1","0","0","1","0","0","1","0","1","0","5","1","2","1","1","3","2","1","1","5","2","656853379439394816","张","452","","","","","","","","","","","","","","","","","","","true","14","4","moral","533","other","他人","","","","","","","","","","","","","","","","",""
"null","","null","html-keyboard-response","182","310045","0.0-6.0-1.0-8.0-0.37","4","4","4","4","4","4","3","3","4","4","5","5","5","5","5","4","5","4","5","5","1","1","1","1","1","1","1","2","1","0","1","0","0","1","1","0","0","1","0","0","1","0","1","0","5","1","2","1","1","3","2","1","1","5","2","656853379439394816","张","452","","","","","","","","","","","","","","","","","","","","","","","","","","","","","","","","","","","","","","","","","",""
"925","<p style=""color:white; font-size: 35px;"">缺德</p>","i","categorize-html","183","310977","0.0-6.0-1.0-8.0-1.37","4","4","4","4","4","4","3","3","4","4","5","5","5","5","5","4","5","4","5","5","1","1","1","1","1","1","1","2","1","0","1","0","0","1","1","0","0","1","0","0","1","0","1","0","5","1","2","1","1","3","2","1","1","5","2","656853379439394816","张","452","","","","","","","","","","","","","","","","","","","true","14","4","moral","925","negative","缺德","","","","","","","","","","","","","","","","",""
"null","","null","html-keyboard-response","184","311229","0.0-6.0-1.0-8.0-0.38","4","4","4","4","4","4","3","3","4","4","5","5","5","5","5","4","5","4","5","5","1","1","1","1","1","1","1","2","1","0","1","0","0","1","1","0","0","1","0","0","1","0","1","0","5","1","2","1","1","3","2","1","1","5","2","656853379439394816","张","452","","","","","","","","","","","","","","","","","","","","","","","","","","","","","","","","","","","","","","","","","",""
"783","<p style=""color:rgb(150, 250, 100); font-size: 35px;"">本人的</p>","e","categorize-html","185","312020","0.0-6.0-1.0-8.0-1.38","4","4","4","4","4","4","3","3","4","4","5","5","5","5","5","4","5","4","5","5","1","1","1","1","1","1","1","2","1","0","1","0","0","1","1","0","0","1","0","0","1","0","1","0","5","1","2","1","1","3","2","1","1","5","2","656853379439394816","张","452","","","","","","","","","","","","","","","","","","","true","14","4","moral","783","self","本人的","","","","","","","","","","","","","","","","",""
"null","","null","html-keyboard-response","186","312272","0.0-6.0-1.0-8.0-0.39","4","4","4","4","4","4","3","3","4","4","5","5","5","5","5","4","5","4","5","5","1","1","1","1","1","1","1","2","1","0","1","0","0","1","1","0","0","1","0","0","1","0","1","0","5","1","2","1","1","3","2","1","1","5","2","656853379439394816","张","452","","","","","","","","","","","","","","","","","","","","","","","","","","","","","","","","","","","","","","","","","",""
"430","<p style=""color:white; font-size: 35px;"">善良</p>","e","categorize-html","187","312707","0.0-6.0-1.0-8.0-1.39","4","4","4","4","4","4","3","3","4","4","5","5","5","5","5","4","5","4","5","5","1","1","1","1","1","1","1","2","1","0","1","0","0","1","1","0","0","1","0","0","1","0","1","0","5","1","2","1","1","3","2","1","1","5","2","656853379439394816","张","452","","","","","","","","","","","","","","","","","","","true","14","4","moral","430","positive","善良","","","","","","","","","","","","","","","","",""
"null","","null","html-keyboard-response","188","312959","0.0-6.0-1.0-8.0-0.40","4","4","4","4","4","4","3","3","4","4","5","5","5","5","5","4","5","4","5","5","1","1","1","1","1","1","1","2","1","0","1","0","0","1","1","0","0","1","0","0","1","0","1","0","5","1","2","1","1","3","2","1","1","5","2","656853379439394816","张","452","","","","","","","","","","","","","","","","","","","","","","","","","","","","","","","","","","","","","","","","","",""
"426","<p style=""color:rgb(150, 250, 100); font-size: 35px;"">自己</p>","e","categorize-html","189","313388","0.0-6.0-1.0-8.0-1.40","4","4","4","4","4","4","3","3","4","4","5","5","5","5","5","4","5","4","5","5","1","1","1","1","1","1","1","2","1","0","1","0","0","1","1","0","0","1","0","0","1","0","1","0","5","1","2","1","1","3","2","1","1","5","2","656853379439394816","张","452","","","","","","","","","","","","","","","","","","","true","14","4","moral","426","self","自己","","","","","","","","","","","","","","","","",""
"null","","null","html-keyboard-response","190","313639","0.0-6.0-1.0-8.0-0.41","4","4","4","4","4","4","3","3","4","4","5","5","5","5","5","4","5","4","5","5","1","1","1","1","1","1","1","2","1","0","1","0","0","1","1","0","0","1","0","0","1","0","1","0","5","1","2","1","1","3","2","1","1","5","2","656853379439394816","张","452","","","","","","","","","","","","","","","","","","","","","","","","","","","","","","","","","","","","","","","","","",""
"453","<p style=""color:white; font-size: 35px;"">黑心</p>","i","categorize-html","191","314099","0.0-6.0-1.0-8.0-1.41","4","4","4","4","4","4","3","3","4","4","5","5","5","5","5","4","5","4","5","5","1","1","1","1","1","1","1","2","1","0","1","0","0","1","1","0","0","1","0","0","1","0","1","0","5","1","2","1","1","3","2","1","1","5","2","656853379439394816","张","452","","","","","","","","","","","","","","","","","","","true","14","4","moral","453","negative","黑心","","","","","","","","","","","","","","","","",""
"null","","null","html-keyboard-response","192","314351","0.0-6.0-1.0-8.0-0.42","4","4","4","4","4","4","3","3","4","4","5","5","5","5","5","4","5","4","5","5","1","1","1","1","1","1","1","2","1","0","1","0","0","1","1","0","0","1","0","0","1","0","1","0","5","1","2","1","1","3","2","1","1","5","2","656853379439394816","张","452","","","","","","","","","","","","","","","","","","","","","","","","","","","","","","","","","","","","","","","","","",""
"481","<p style=""color:rgb(150, 250, 100); font-size: 35px;"">他人的</p>","i","categorize-html","193","314836","0.0-6.0-1.0-8.0-1.42","4","4","4","4","4","4","3","3","4","4","5","5","5","5","5","4","5","4","5","5","1","1","1","1","1","1","1","2","1","0","1","0","0","1","1","0","0","1","0","0","1","0","1","0","5","1","2","1","1","3","2","1","1","5","2","656853379439394816","张","452","","","","","","","","","","","","","","","","","","","true","14","4","moral","481","other","他人的","","","","","","","","","","","","","","","","",""
