"rt","stimulus","response","trial_type","trial_index","time_elapsed","internal_node_id","ses_1","ses_2","ses_3","ses_4","ses_5","ses_6","ses_7","ses_8","ses_9","ses_10","coreself_1","coreself_2","coreself_3","coreself_4","coreself_5","coreself_6","coreself_7","coreself_8","coreself_9","coreself_10","SGPS_1","SGPS_2","SGPS_3","SGPS_4","SGPS_5","SGPS_6","SGPS_7","SGPS_8","SGPS_9","NPI1","NPI2","NPI3","NPI4","NPI5","NPI6","NPI7","NPI8","NPI9","NPI10","NPI11","NPI12","NPI13","NPI14","NPI15","hsns_1","hsns_2","hsns_3","hsns_4","hsns_5","trap1","hsns_6","hsns_7","hsns_8","hsns_9","hsns_10","subj_idx","friend_name","ParticipantID","value","success","user_agent","responses","item_order","radio_event_ids","radio_event_times","key_event_times","mouse_event_times","straightlining","zigzagging","honeypot","timeout","failed_images","failed_audio","failed_video","view_history","response_type","key_press","avg_frame_time","center_x","center_y","correct_response","correct","identity","Image","word","condition","task_id","screen_id","time_stamp","version_attrib","version_target","IAT","RT","varname","summary","version_attrib2","version_target2","question_order","correct_answer","trap1_item"
"22256","
   <p><div style = ""color: white;font-size:25px;"">您好，欢迎参加本次实验。</div> </p>
   <p><div style = ""color: white;font-size:25px;"">为充分保障您的权利，请确保您已经知晓并同意《参与实验同意书》以及《数据公开知情同意书》。</div></p>
   <p><div style = ""color: white;font-size:25px;"">如果您未见过上述内容，请咨询实验员。</div></p>
   <p><div style = ""color: white;font-size:25px;"">如果您选择继续实验，则表示您已经清楚两份知情同意书的内容并同意。</div></p>
   <p><div style = ""color: pink;font-size:30px;"">请确保您记得day0的实验编号，您将在本次实验输入该编号，若您忘记，请咨询实验员后作答。</div></p>
   <p><div style = ""color: lightblue;font-size:25px;"">请您尽可能认真地作答，我们将依据您在各问卷和按键任务中的作答质量发放报酬。</div></p>
   <p> <div style = ""color: green;font-size:25px;""><按空格键至下页></div> </p>
   "," ","html-keyboard-response","0","22258","0.0-0.0","4","3","4","4","4","4","3","1","4","4","5","4","5","4","4","5","5","4","5","5","1","2","5","2","2","1","2","4","1","1","0","0","0","1","0","1","0","0","1","0","0","1","0","0","4","2","1","1","2","2","1","2","1","2","1","781502952228786178","汪","67","","","","","","","","","","","","","","","","","","","","","","","","","","","","","","","","","","","","","","","","","",""
"","","","call-function","1","22260","0.0-1.0-0.0","4","3","4","4","4","4","3","1","4","4","5","4","5","4","4","5","5","4","5","5","1","2","5","2","2","1","2","4","1","1","0","0","0","1","0","1","0","0","1","0","0","1","0","0","4","2","1","1","2","2","1","2","1","2","1","781502952228786178","汪","67","","","","","","","","","","","","","","","","","","","","","","","","","","","","","","","","","","","","","","","","","",""
"21459","","{""friend_name"":""汪"",""ParticipantID"":""67""}","survey-html-form","2","43720","0.0-1.0-1.0","4","3","4","4","4","4","3","1","4","4","5","4","5","4","4","5","5","4","5","5","1","2","5","2","2","1","2","4","1","1","0","0","0","1","0","1","0","0","1","0","0","1","0","0","4","2","1","1","2","2","1","2","1","2","1","781502952228786178","汪","67","","","","","","","","","","","","","","","","","","","","","","","","","","","","","","","","","","","","","","","","","",""
"","","","fullscreen","3","47205","0.0-2.0","4","3","4","4","4","4","3","1","4","4","5","4","5","4","4","5","5","4","5","5","1","2","5","2","2","1","2","4","1","1","0","0","0","1","0","1","0","0","1","0","0","1","0","0","4","2","1","1","2","2","1","2","1","2","1","781502952228786178","汪","67","","true","{}","","","","","","","","","","","","","","","","","","","","","","","","","","","","","","","","","","","","","","",""
"51389.59999999404","","{""Q01"":""4"",""Q02"":""3"",""Q03"":""4"",""Q04"":""4"",""Q05"":""4"",""Q06"":""4"",""Q07"":""3"",""Q08"":""1"",""Q09"":""4"",""Q10"":""4""}","survey-template","4","98610","0.0-3.0","4","3","4","4","4","4","3","1","4","4","5","4","5","4","4","5","5","4","5","5","1","2","5","2","2","1","2","4","1","1","0","0","0","1","0","1","0","0","1","0","0","1","0","0","4","2","1","1","2","2","1","2","1","2","1","781502952228786178","汪","67","","","","{""Q01"":""4"",""Q02"":""3"",""Q03"":""4"",""Q04"":""4"",""Q05"":""4"",""Q06"":""4"",""Q07"":""3"",""Q08"":""1"",""Q09"":""4"",""Q10"":""4""}","[0,1,2,3,4,5,6,7,8,9]","[""Q01"",""Q02"",""Q03"",""Q04"",""Q05"",""Q06"",""Q07"",""Q08"",""Q09"",""Q10""]","[3781.7999999970198,5320.20000000298,8811.70000000298,10190,43533.90000000596,45093.70000000298,46288.90000000596,47427.59999999404,49509.5,50470.40000000596]","[]","[3781.7999999970198,5320.20000000298,7005.4000000059605,8811.70000000298,10190,43533.90000000596,45093.70000000298,46288.90000000596,47427.59999999404,49509.5,50470.40000000596,51386.59999999404]","0.4","0.7777777777777778","0","","","","","","","","","","","","","","","","","","","","","","","","","","","","","",""
"23523","","{""Q01"":""5"",""Q02"":""4"",""Q03"":""5"",""Q04"":""4"",""Q05"":""4"",""Q06"":""5"",""Q07"":""5"",""Q08"":""4"",""Q09"":""5"",""Q10"":""5""}","survey-template","5","122145","0.0-4.0","4","3","4","4","4","4","3","1","4","4","5","4","5","4","4","5","5","4","5","5","1","2","5","2","2","1","2","4","1","1","0","0","0","1","0","1","0","0","1","0","0","1","0","0","4","2","1","1","2","2","1","2","1","2","1","781502952228786178","汪","67","","","","{""Q01"":""5"",""Q02"":""4"",""Q03"":""5"",""Q04"":""4"",""Q05"":""4"",""Q06"":""5"",""Q07"":""5"",""Q08"":""4"",""Q09"":""5"",""Q10"":""5""}","[0,1,2,3,4,5,6,7,8,9]","[""Q01"",""Q02"",""Q03"",""Q04"",""Q05"",""Q06"",""Q07"",""Q08"",""Q09"",""Q10""]","[3395,4748.899999991059,5792.20000000298,7179.5,8455.79999999702,9796.29999999702,13943,15045.20000000298,20405.5,22688.89999999106]","[]","[3395,4748.899999991059,5792.20000000298,7179.5,8455.79999999702,9796.29999999702,11111.89999999106,13070.70000000298,13943,15045.20000000298,20405.5,22058.79999999702,22688.89999999106,23520]","0.3","0.4444444444444444","0","","","","","","","","","","","","","","","","","","","","","","","","","","","","","",""
"","","","preload","6","122513","0.0-5.0","4","3","4","4","4","4","3","1","4","4","5","4","5","4","4","5","5","4","5","5","1","2","5","2","2","1","2","4","1","1","0","0","0","1","0","1","0","0","1","0","0","1","0","0","4","2","1","1","2","2","1","2","1","2","1","781502952228786178","汪","67","","true","","","","","","","","","","","false","[]","[]","[]","","","","","","","","","","","","","","","","","","","","","","","","","",""
"17888","","","instructions","7","140403","0.0-6.0","4","3","4","4","4","4","3","1","4","4","5","4","5","4","4","5","5","4","5","5","1","2","5","2","2","1","2","4","1","1","0","0","0","1","0","1","0","0","1","0","0","1","0","0","4","2","1","1","2","2","1","2","1","2","1","781502952228786178","汪","67","","","","","","","","","","","","","","","","","[{""page_index"":0,""viewing_time"":17888}]","","","","","","","","","","","","","","","","","","","","","","","","",""
"54884","","","instructions","8","195288","0.0-7.0-0.0-0.0","4","3","4","4","4","4","3","1","4","4","5","4","5","4","4","5","5","4","5","5","1","2","5","2","2","1","2","4","1","1","0","0","0","1","0","1","0","0","1","0","0","1","0","0","4","2","1","1","2","2","1","2","1","2","1","781502952228786178","汪","67","","","","","","","","","","","","","","","","","[{""page_index"":0,""viewing_time"":51146},{""page_index"":1,""viewing_time"":2291},{""page_index"":2,""viewing_time"":1447}]","","","","","","","","","","","","","","","","","","","","","","","","",""
"null","","null","psychophysics","9","197513","0.0-7.0-0.0-1.0-0.0-0.0","4","3","4","4","4","4","3","1","4","4","5","4","5","4","4","5","5","4","5","5","1","2","5","2","2","1","2","4","1","1","0","0","0","1","0","1","0","0","1","0","0","1","0","0","4","2","1","1","2","2","1","2","1","2","1","781502952228786178","汪","67","","","","null","","","","","","","","","","","","","","key","null","16.78213740458009","720","446","j","false","match","img/trapezoid.png","梯形","梯形","ALT1_1","prac_ALT1_1","","","","","","","","","","","",""
"null","<span class='add_' style='color:yellow; font-size: 70px;'> 太慢! </span>","null","html-keyboard-response","10","198016","0.0-7.0-0.0-1.0-0.0-1.0","4","3","4","4","4","4","3","1","4","4","5","4","5","4","4","5","5","4","5","5","1","2","5","2","2","1","2","4","1","1","0","0","0","1","0","1","0","0","1","0","0","1","0","0","4","2","1","1","2","2","1","2","1","2","1","781502952228786178","汪","67","","","","","","","","","","","","","","","","","","","","","","","","","","","","","","feedback_test","","","","","","","","","","","",""
"null","","null","psychophysics","11","200237","0.0-7.0-0.0-1.0-0.0-0.1","4","3","4","4","4","4","3","1","4","4","5","4","5","4","4","5","5","4","5","5","1","2","5","2","2","1","2","4","1","1","0","0","0","1","0","1","0","0","1","0","0","1","0","0","4","2","1","1","2","2","1","2","1","2","1","781502952228786178","汪","67","","","","null","","","","","","","","","","","","","","key","null","16.654999999999937","720","446","f","false","nonmatch","img/pentagon.png","圆形","五边","ALT1_1","prac_ALT1_1","","","","","","","","","","","",""
"null","<span class='add_' style='color:yellow; font-size: 70px;'> 太慢! </span>","null","html-keyboard-response","12","200739","0.0-7.0-0.0-1.0-0.0-1.1","4","3","4","4","4","4","3","1","4","4","5","4","5","4","4","5","5","4","5","5","1","2","5","2","2","1","2","4","1","1","0","0","0","1","0","1","0","0","1","0","0","1","0","0","4","2","1","1","2","2","1","2","1","2","1","781502952228786178","汪","67","","","","","","","","","","","","","","","","","","","","","","","","","","","","","","feedback_test","","","","","","","","","","","",""
"null","","null","psychophysics","13","202962","0.0-7.0-0.0-1.0-0.0-0.2","4","3","4","4","4","4","3","1","4","4","5","4","5","4","4","5","5","4","5","5","1","2","5","2","2","1","2","4","1","1","0","0","0","1","0","1","0","0","1","0","0","1","0","0","4","2","1","1","2","2","1","2","1","2","1","781502952228786178","汪","67","","","","null","","","","","","","","","","","","","","key","null","16.657856060606058","720","446","f","false","nonmatch","img/triangle.png","梯形","三角","ALT1_1","prac_ALT1_1","","","","","","","","","","","",""
"null","<span class='add_' style='color:yellow; font-size: 70px;'> 太慢! </span>","null","html-keyboard-response","14","203464","0.0-7.0-0.0-1.0-0.0-1.2","4","3","4","4","4","4","3","1","4","4","5","4","5","4","4","5","5","4","5","5","1","2","5","2","2","1","2","4","1","1","0","0","0","1","0","1","0","0","1","0","0","1","0","0","4","2","1","1","2","2","1","2","1","2","1","781502952228786178","汪","67","","","","","","","","","","","","","","","","","","","","","","","","","","","","","","feedback_test","","","","","","","","","","","",""
"771","","f","psychophysics","15","205239","0.0-7.0-0.0-1.0-0.0-0.3","4","3","4","4","4","4","3","1","4","4","5","4","5","4","4","5","5","4","5","5","1","2","5","2","2","1","2","4","1","1","0","0","0","1","0","1","0","0","1","0","0","1","0","0","4","2","1","1","2","2","1","2","1","2","1","781502952228786178","汪","67","","","","nonmatch","","","","","","","","","","","","","","key","f","16.65500000000022","720","446","j","false","match","img/circle.png","圆形","圆形","ALT1_1","prac_ALT1_1","","","","","","","","","","","",""
"null","<span style='color:red; font-size: 70px;'>错误! </span>","null","html-keyboard-response","16","205740","0.0-7.0-0.0-1.0-0.0-1.3","4","3","4","4","4","4","3","1","4","4","5","4","5","4","4","5","5","4","5","5","1","2","5","2","2","1","2","4","1","1","0","0","0","1","0","1","0","0","1","0","0","1","0","0","4","2","1","1","2","2","1","2","1","2","1","781502952228786178","汪","67","","","","","","","","","","","","","","","","","","","","","","","","","","","","","","feedback_test","","","","","","","","","","","",""
"847","","j","psychophysics","17","207591","0.0-7.0-0.0-1.0-0.0-0.4","4","3","4","4","4","4","3","1","4","4","5","4","5","4","4","5","5","4","5","5","1","2","5","2","2","1","2","4","1","1","0","0","0","1","0","1","0","0","1","0","0","1","0","0","4","2","1","1","2","2","1","2","1","2","1","781502952228786178","汪","67","","","","match","","","","","","","","","","","","","","key","j","16.654999999999895","720","446","j","true","match","img/pentagon.png","五边","五边","ALT1_1","prac_ALT1_1","","","","","","","","","","","",""
"null","<span style='color:GreenYellow; font-size: 70px;'>正确! </span>","null","html-keyboard-response","18","208092","0.0-7.0-0.0-1.0-0.0-1.4","4","3","4","4","4","4","3","1","4","4","5","4","5","4","4","5","5","4","5","5","1","2","5","2","2","1","2","4","1","1","0","0","0","1","0","1","0","0","1","0","0","1","0","0","4","2","1","1","2","2","1","2","1","2","1","781502952228786178","汪","67","","","","","","","","","","","","","","","","","","","","","","","","","","","","","","feedback_test","","","","","","","","","","","",""
"496","","j","psychophysics","19","209592","0.0-7.0-0.0-1.0-0.0-0.5","4","3","4","4","4","4","3","1","4","4","5","4","5","4","4","5","5","4","5","5","1","2","5","2","2","1","2","4","1","1","0","0","0","1","0","1","0","0","1","0","0","1","0","0","4","2","1","1","2","2","1","2","1","2","1","781502952228786178","汪","67","","","","match","","","","","","","","","","","","","","key","j","16.655000000000143","720","446","j","true","match","img/circle.png","圆形","圆形","ALT1_1","prac_ALT1_1","","","","","","","","","","","",""
"null","<span style='color:GreenYellow; font-size: 70px;'>正确! </span>","null","html-keyboard-response","20","210094","0.0-7.0-0.0-1.0-0.0-1.5","4","3","4","4","4","4","3","1","4","4","5","4","5","4","4","5","5","4","5","5","1","2","5","2","2","1","2","4","1","1","0","0","0","1","0","1","0","0","1","0","0","1","0","0","4","2","1","1","2","2","1","2","1","2","1","781502952228786178","汪","67","","","","","","","","","","","","","","","","","","","","","","","","","","","","","","feedback_test","","","","","","","","","","","",""
"679","","f","psychophysics","21","211776","0.0-7.0-0.0-1.0-0.0-0.6","4","3","4","4","4","4","3","1","4","4","5","4","5","4","4","5","5","4","5","5","1","2","5","2","2","1","2","4","1","1","0","0","0","1","0","1","0","0","1","0","0","1","0","0","4","2","1","1","2","2","1","2","1","2","1","781502952228786178","汪","67","","","","nonmatch","","","","","","","","","","","","","","key","f","16.658760000000186","720","446","f","true","nonmatch","img/pentagon.png","三角","五边","ALT1_1","prac_ALT1_1","","","","","","","","","","","",""
"null","<span style='color:GreenYellow; font-size: 70px;'>正确! </span>","null","html-keyboard-response","22","212277","0.0-7.0-0.0-1.0-0.0-1.6","4","3","4","4","4","4","3","1","4","4","5","4","5","4","4","5","5","4","5","5","1","2","5","2","2","1","2","4","1","1","0","0","0","1","0","1","0","0","1","0","0","1","0","0","4","2","1","1","2","2","1","2","1","2","1","781502952228786178","汪","67","","","","","","","","","","","","","","","","","","","","","","","","","","","","","","feedback_test","","","","","","","","","","","",""
"678","","f","psychophysics","23","213959","0.0-7.0-0.0-1.0-0.0-0.7","4","3","4","4","4","4","3","1","4","4","5","4","5","4","4","5","5","4","5","5","1","2","5","2","2","1","2","4","1","1","0","0","0","1","0","1","0","0","1","0","0","1","0","0","4","2","1","1","2","2","1","2","1","2","1","781502952228786178","汪","67","","","","nonmatch","","","","","","","","","","","","","","key","f","16.82323232323232","720","446","j","false","match","img/circle.png","圆形","圆形","ALT1_1","prac_ALT1_1","","","","","","","","","","","",""
"null","<span style='color:red; font-size: 70px;'>错误! </span>","null","html-keyboard-response","24","214461","0.0-7.0-0.0-1.0-0.0-1.7","4","3","4","4","4","4","3","1","4","4","5","4","5","4","4","5","5","4","5","5","1","2","5","2","2","1","2","4","1","1","0","0","0","1","0","1","0","0","1","0","0","1","0","0","4","2","1","1","2","2","1","2","1","2","1","781502952228786178","汪","67","","","","","","","","","","","","","","","","","","","","","","","","","","","","","","feedback_test","","","","","","","","","","","",""
"662","","f","psychophysics","25","216126","0.0-7.0-0.0-1.0-0.0-0.8","4","3","4","4","4","4","3","1","4","4","5","4","5","4","4","5","5","4","5","5","1","2","5","2","2","1","2","4","1","1","0","0","0","1","0","1","0","0","1","0","0","1","0","0","4","2","1","1","2","2","1","2","1","2","1","781502952228786178","汪","67","","","","nonmatch","","","","","","","","","","","","","","key","f","16.655000000000012","720","446","f","true","nonmatch","img/circle.png","五边","圆形","ALT1_1","prac_ALT1_1","","","","","","","","","","","",""
"null","<span style='color:GreenYellow; font-size: 70px;'>正确! </span>","null","html-keyboard-response","26","216627","0.0-7.0-0.0-1.0-0.0-1.8","4","3","4","4","4","4","3","1","4","4","5","4","5","4","4","5","5","4","5","5","1","2","5","2","2","1","2","4","1","1","0","0","0","1","0","1","0","0","1","0","0","1","0","0","4","2","1","1","2","2","1","2","1","2","1","781502952228786178","汪","67","","","","","","","","","","","","","","","","","","","","","","","","","","","","","","feedback_test","","","","","","","","","","","",""
"628","","j","psychophysics","27","218259","0.0-7.0-0.0-1.0-0.0-0.9","4","3","4","4","4","4","3","1","4","4","5","4","5","4","4","5","5","4","5","5","1","2","5","2","2","1","2","4","1","1","0","0","0","1","0","1","0","0","1","0","0","1","0","0","4","2","1","1","2","2","1","2","1","2","1","781502952228786178","汪","67","","","","match","","","","","","","","","","","","","","key","j","16.82848958333337","720","446","j","true","match","img/pentagon.png","五边","五边","ALT1_1","prac_ALT1_1","","","","","","","","","","","",""
"null","<span style='color:GreenYellow; font-size: 70px;'>正确! </span>","null","html-keyboard-response","28","218760","0.0-7.0-0.0-1.0-0.0-1.9","4","3","4","4","4","4","3","1","4","4","5","4","5","4","4","5","5","4","5","5","1","2","5","2","2","1","2","4","1","1","0","0","0","1","0","1","0","0","1","0","0","1","0","0","4","2","1","1","2","2","1","2","1","2","1","781502952228786178","汪","67","","","","","","","","","","","","","","","","","","","","","","","","","","","","","","feedback_test","","","","","","","","","","","",""
"626","","f","psychophysics","29","220388","0.0-7.0-0.0-1.0-0.0-0.10","4","3","4","4","4","4","3","1","4","4","5","4","5","4","4","5","5","4","5","5","1","2","5","2","2","1","2","4","1","1","0","0","0","1","0","1","0","0","1","0","0","1","0","0","4","2","1","1","2","2","1","2","1","2","1","781502952228786178","汪","67","","","","nonmatch","","","","","","","","","","","","","","key","f","16.655000000000047","720","446","f","true","nonmatch","img/circle.png","梯形","圆形","ALT1_1","prac_ALT1_1","","","","","","","","","","","",""
"null","<span style='color:GreenYellow; font-size: 70px;'>正确! </span>","null","html-keyboard-response","30","220890","0.0-7.0-0.0-1.0-0.0-1.10","4","3","4","4","4","4","3","1","4","4","5","4","5","4","4","5","5","4","5","5","1","2","5","2","2","1","2","4","1","1","0","0","0","1","0","1","0","0","1","0","0","1","0","0","4","2","1","1","2","2","1","2","1","2","1","781502952228786178","汪","67","","","","","","","","","","","","","","","","","","","","","","","","","","","","","","feedback_test","","","","","","","","","","","",""
"628","","f","psychophysics","31","222521","0.0-7.0-0.0-1.0-0.0-0.11","4","3","4","4","4","4","3","1","4","4","5","4","5","4","4","5","5","4","5","5","1","2","5","2","2","1","2","4","1","1","0","0","0","1","0","1","0","0","1","0","0","1","0","0","4","2","1","1","2","2","1","2","1","2","1","781502952228786178","汪","67","","","","nonmatch","","","","","","","","","","","","","","key","f","16.832406249999924","720","446","f","true","nonmatch","img/trapezoid.png","三角","梯形","ALT1_1","prac_ALT1_1","","","","","","","","","","","",""
"null","<span style='color:GreenYellow; font-size: 70px;'>正确! </span>","null","html-keyboard-response","32","223023","0.0-7.0-0.0-1.0-0.0-1.11","4","3","4","4","4","4","3","1","4","4","5","4","5","4","4","5","5","4","5","5","1","2","5","2","2","1","2","4","1","1","0","0","0","1","0","1","0","0","1","0","0","1","0","0","4","2","1","1","2","2","1","2","1","2","1","781502952228786178","汪","67","","","","","","","","","","","","","","","","","","","","","","","","","","","","","","feedback_test","","","","","","","","","","","",""
"537","","f","psychophysics","33","224563","0.0-7.0-0.0-1.0-0.0-0.12","4","3","4","4","4","4","3","1","4","4","5","4","5","4","4","5","5","4","5","5","1","2","5","2","2","1","2","4","1","1","0","0","0","1","0","1","0","0","1","0","0","1","0","0","4","2","1","1","2","2","1","2","1","2","1","781502952228786178","汪","67","","","","nonmatch","","","","","","","","","","","","","","key","f","16.655000000000115","720","446","f","true","nonmatch","img/circle.png","三角","圆形","ALT1_1","prac_ALT1_1","","","","","","","","","","","",""
"null","<span style='color:GreenYellow; font-size: 70px;'>正确! </span>","null","html-keyboard-response","34","225065","0.0-7.0-0.0-1.0-0.0-1.12","4","3","4","4","4","4","3","1","4","4","5","4","5","4","4","5","5","4","5","5","1","2","5","2","2","1","2","4","1","1","0","0","0","1","0","1","0","0","1","0","0","1","0","0","4","2","1","1","2","2","1","2","1","2","1","781502952228786178","汪","67","","","","","","","","","","","","","","","","","","","","","","","","","","","","","","feedback_test","","","","","","","","","","","",""
"464","","f","psychophysics","35","226532","0.0-7.0-0.0-1.0-0.0-0.13","4","3","4","4","4","4","3","1","4","4","5","4","5","4","4","5","5","4","5","5","1","2","5","2","2","1","2","4","1","1","0","0","0","1","0","1","0","0","1","0","0","1","0","0","4","2","1","1","2","2","1","2","1","2","1","781502952228786178","汪","67","","","","nonmatch","","","","","","","","","","","","","","key","f","16.654999999999838","720","446","j","false","match","img/triangle.png","三角","三角","ALT1_1","prac_ALT1_1","","","","","","","","","","","",""
"null","<span style='color:red; font-size: 70px;'>错误! </span>","null","html-keyboard-response","36","227034","0.0-7.0-0.0-1.0-0.0-1.13","4","3","4","4","4","4","3","1","4","4","5","4","5","4","4","5","5","4","5","5","1","2","5","2","2","1","2","4","1","1","0","0","0","1","0","1","0","0","1","0","0","1","0","0","4","2","1","1","2","2","1","2","1","2","1","781502952228786178","汪","67","","","","","","","","","","","","","","","","","","","","","","","","","","","","","","feedback_test","","","","","","","","","","","",""
"650","","j","psychophysics","37","228687","0.0-7.0-0.0-1.0-0.0-0.14","4","3","4","4","4","4","3","1","4","4","5","4","5","4","4","5","5","4","5","5","1","2","5","2","2","1","2","4","1","1","0","0","0","1","0","1","0","0","1","0","0","1","0","0","4","2","1","1","2","2","1","2","1","2","1","781502952228786178","汪","67","","","","match","","","","","","","","","","","","","","key","j","16.826701030927858","720","446","f","false","nonmatch","img/trapezoid.png","圆形","梯形","ALT1_1","prac_ALT1_1","","","","","","","","","","","",""
"null","<span style='color:red; font-size: 70px;'>错误! </span>","null","html-keyboard-response","38","229188","0.0-7.0-0.0-1.0-0.0-1.14","4","3","4","4","4","4","3","1","4","4","5","4","5","4","4","5","5","4","5","5","1","2","5","2","2","1","2","4","1","1","0","0","0","1","0","1","0","0","1","0","0","1","0","0","4","2","1","1","2","2","1","2","1","2","1","781502952228786178","汪","67","","","","","","","","","","","","","","","","","","","","","","","","","","","","","","feedback_test","","","","","","","","","","","",""
"627","","f","psychophysics","39","230818","0.0-7.0-0.0-1.0-0.0-0.15","4","3","4","4","4","4","3","1","4","4","5","4","5","4","4","5","5","4","5","5","1","2","5","2","2","1","2","4","1","1","0","0","0","1","0","1","0","0","1","0","0","1","0","0","4","2","1","1","2","2","1","2","1","2","1","781502952228786178","汪","67","","","","nonmatch","","","","","","","","","","","","","","key","f","16.655000000000047","720","446","j","false","match","img/triangle.png","三角","三角","ALT1_1","prac_ALT1_1","","","","","","","","","","","",""
"null","<span style='color:red; font-size: 70px;'>错误! </span>","null","html-keyboard-response","40","231319","0.0-7.0-0.0-1.0-0.0-1.15","4","3","4","4","4","4","3","1","4","4","5","4","5","4","4","5","5","4","5","5","1","2","5","2","2","1","2","4","1","1","0","0","0","1","0","1","0","0","1","0","0","1","0","0","4","2","1","1","2","2","1","2","1","2","1","781502952228786178","汪","67","","","","","","","","","","","","","","","","","","","","","","","","","","","","","","feedback_test","","","","","","","","","","","",""
"638","","f","psychophysics","41","232961","0.0-7.0-0.0-1.0-0.0-0.16","4","3","4","4","4","4","3","1","4","4","5","4","5","4","4","5","5","4","5","5","1","2","5","2","2","1","2","4","1","1","0","0","0","1","0","1","0","0","1","0","0","1","0","0","4","2","1","1","2","2","1","2","1","2","1","781502952228786178","汪","67","","","","nonmatch","","","","","","","","","","","","","","key","f","16.65887628865972","720","446","f","true","nonmatch","img/trapezoid.png","五边","梯形","ALT1_1","prac_ALT1_1","","","","","","","","","","","",""
"null","<span style='color:GreenYellow; font-size: 70px;'>正确! </span>","null","html-keyboard-response","42","233463","0.0-7.0-0.0-1.0-0.0-1.16","4","3","4","4","4","4","3","1","4","4","5","4","5","4","4","5","5","4","5","5","1","2","5","2","2","1","2","4","1","1","0","0","0","1","0","1","0","0","1","0","0","1","0","0","4","2","1","1","2","2","1","2","1","2","1","781502952228786178","汪","67","","","","","","","","","","","","","","","","","","","","","","","","","","","","","","feedback_test","","","","","","","","","","","",""
"756","","f","psychophysics","43","235221","0.0-7.0-0.0-1.0-0.0-0.17","4","3","4","4","4","4","3","1","4","4","5","4","5","4","4","5","5","4","5","5","1","2","5","2","2","1","2","4","1","1","0","0","0","1","0","1","0","0","1","0","0","1","0","0","4","2","1","1","2","2","1","2","1","2","1","781502952228786178","汪","67","","","","nonmatch","","","","","","","","","","","","","","key","f","16.815144230769455","720","446","f","true","nonmatch","img/pentagon.png","梯形","五边","ALT1_1","prac_ALT1_1","","","","","","","","","","","",""
"null","<span style='color:GreenYellow; font-size: 70px;'>正确! </span>","null","html-keyboard-response","44","235723","0.0-7.0-0.0-1.0-0.0-1.17","4","3","4","4","4","4","3","1","4","4","5","4","5","4","4","5","5","4","5","5","1","2","5","2","2","1","2","4","1","1","0","0","0","1","0","1","0","0","1","0","0","1","0","0","4","2","1","1","2","2","1","2","1","2","1","781502952228786178","汪","67","","","","","","","","","","","","","","","","","","","","","","","","","","","","","","feedback_test","","","","","","","","","","","",""
"511","","f","psychophysics","45","237238","0.0-7.0-0.0-1.0-0.0-0.18","4","3","4","4","4","4","3","1","4","4","5","4","5","4","4","5","5","4","5","5","1","2","5","2","2","1","2","4","1","1","0","0","0","1","0","1","0","0","1","0","0","1","0","0","4","2","1","1","2","2","1","2","1","2","1","781502952228786178","汪","67","","","","nonmatch","","","","","","","","","","","","","","key","f","16.65500000000013","720","446","j","false","match","img/trapezoid.png","梯形","梯形","ALT1_1","prac_ALT1_1","","","","","","","","","","","",""
"null","<span style='color:red; font-size: 70px;'>错误! </span>","null","html-keyboard-response","46","237740","0.0-7.0-0.0-1.0-0.0-1.18","4","3","4","4","4","4","3","1","4","4","5","4","5","4","4","5","5","4","5","5","1","2","5","2","2","1","2","4","1","1","0","0","0","1","0","1","0","0","1","0","0","1","0","0","4","2","1","1","2","2","1","2","1","2","1","781502952228786178","汪","67","","","","","","","","","","","","","","","","","","","","","","","","","","","","","","feedback_test","","","","","","","","","","","",""
"496","","f","psychophysics","47","239239","0.0-7.0-0.0-1.0-0.0-0.19","4","3","4","4","4","4","3","1","4","4","5","4","5","4","4","5","5","4","5","5","1","2","5","2","2","1","2","4","1","1","0","0","0","1","0","1","0","0","1","0","0","1","0","0","4","2","1","1","2","2","1","2","1","2","1","781502952228786178","汪","67","","","","nonmatch","","","","","","","","","","","","","","key","f","16.654999999999816","720","446","j","false","match","img/pentagon.png","五边","五边","ALT1_1","prac_ALT1_1","","","","","","","","","","","",""
"null","<span style='color:red; font-size: 70px;'>错误! </span>","null","html-keyboard-response","48","239740","0.0-7.0-0.0-1.0-0.0-1.19","4","3","4","4","4","4","3","1","4","4","5","4","5","4","4","5","5","4","5","5","1","2","5","2","2","1","2","4","1","1","0","0","0","1","0","1","0","0","1","0","0","1","0","0","4","2","1","1","2","2","1","2","1","2","1","781502952228786178","汪","67","","","","","","","","","","","","","","","","","","","","","","","","","","","","","","feedback_test","","","","","","","","","","","",""
"628","","f","psychophysics","49","241371","0.0-7.0-0.0-1.0-0.0-0.20","4","3","4","4","4","4","3","1","4","4","5","4","5","4","4","5","5","4","5","5","1","2","5","2","2","1","2","4","1","1","0","0","0","1","0","1","0","0","1","0","0","1","0","0","4","2","1","1","2","2","1","2","1","2","1","781502952228786178","汪","67","","","","nonmatch","","","","","","","","","","","","","","key","f","16.828489583333067","720","446","f","true","nonmatch","img/triangle.png","圆形","三角","ALT1_1","prac_ALT1_1","","","","","","","","","","","",""
"null","<span style='color:GreenYellow; font-size: 70px;'>正确! </span>","null","html-keyboard-response","50","241873","0.0-7.0-0.0-1.0-0.0-1.20","4","3","4","4","4","4","3","1","4","4","5","4","5","4","4","5","5","4","5","5","1","2","5","2","2","1","2","4","1","1","0","0","0","1","0","1","0","0","1","0","0","1","0","0","4","2","1","1","2","2","1","2","1","2","1","781502952228786178","汪","67","","","","","","","","","","","","","","","","","","","","","","","","","","","","","","feedback_test","","","","","","","","","","","",""
"600","","f","psychophysics","51","243476","0.0-7.0-0.0-1.0-0.0-0.21","4","3","4","4","4","4","3","1","4","4","5","4","5","4","4","5","5","4","5","5","1","2","5","2","2","1","2","4","1","1","0","0","0","1","0","1","0","0","1","0","0","1","0","0","4","2","1","1","2","2","1","2","1","2","1","781502952228786178","汪","67","","","","nonmatch","","","","","","","","","","","","","","key","f","16.836329787233943","720","446","f","true","nonmatch","img/triangle.png","五边","三角","ALT1_1","prac_ALT1_1","","","","","","","","","","","",""
"null","<span style='color:GreenYellow; font-size: 70px;'>正确! </span>","null","html-keyboard-response","52","243977","0.0-7.0-0.0-1.0-0.0-1.21","4","3","4","4","4","4","3","1","4","4","5","4","5","4","4","5","5","4","5","5","1","2","5","2","2","1","2","4","1","1","0","0","0","1","0","1","0","0","1","0","0","1","0","0","4","2","1","1","2","2","1","2","1","2","1","781502952228786178","汪","67","","","","","","","","","","","","","","","","","","","","","","","","","","","","","","feedback_test","","","","","","","","","","","",""
"749","","j","psychophysics","53","245728","0.0-7.0-0.0-1.0-0.0-0.22","4","3","4","4","4","4","3","1","4","4","5","4","5","4","4","5","5","4","5","5","1","2","5","2","2","1","2","4","1","1","0","0","0","1","0","1","0","0","1","0","0","1","0","0","4","2","1","1","2","2","1","2","1","2","1","781502952228786178","汪","67","","","","match","","","","","","","","","","","","","","key","j","16.654999999999955","720","446","j","true","match","img/trapezoid.png","梯形","梯形","ALT1_1","prac_ALT1_1","","","","","","","","","","","",""
"null","<span style='color:GreenYellow; font-size: 70px;'>正确! </span>","null","html-keyboard-response","54","246230","0.0-7.0-0.0-1.0-0.0-1.22","4","3","4","4","4","4","3","1","4","4","5","4","5","4","4","5","5","4","5","5","1","2","5","2","2","1","2","4","1","1","0","0","0","1","0","1","0","0","1","0","0","1","0","0","4","2","1","1","2","2","1","2","1","2","1","781502952228786178","汪","67","","","","","","","","","","","","","","","","","","","","","","","","","","","","","","feedback_test","","","","","","","","","","","",""
"762","","f","psychophysics","55","247995","0.0-7.0-0.0-1.0-0.0-0.23","4","3","4","4","4","4","3","1","4","4","5","4","5","4","4","5","5","4","5","5","1","2","5","2","2","1","2","4","1","1","0","0","0","1","0","1","0","0","1","0","0","1","0","0","4","2","1","1","2","2","1","2","1","2","1","781502952228786178","汪","67","","","","nonmatch","","","","","","","","","","","","","","key","f","16.654999999999944","720","446","j","false","match","img/triangle.png","三角","三角","ALT1_1","prac_ALT1_1","","","","","","","","","","","",""
"null","<span style='color:red; font-size: 70px;'>错误! </span>","null","html-keyboard-response","56","248497","0.0-7.0-0.0-1.0-0.0-1.23","4","3","4","4","4","4","3","1","4","4","5","4","5","4","4","5","5","4","5","5","1","2","5","2","2","1","2","4","1","1","0","0","0","1","0","1","0","0","1","0","0","1","0","0","4","2","1","1","2","2","1","2","1","2","1","781502952228786178","汪","67","","","","","","","","","","","","","","","","","","","","","","","","","","","","","","feedback_test","","","","","","","","","","","",""
"702","","f","psychophysics","57","250204","0.0-7.0-0.0-1.0-0.0-0.24","4","3","4","4","4","4","3","1","4","4","5","4","5","4","4","5","5","4","5","5","1","2","5","2","2","1","2","4","1","1","0","0","0","1","0","1","0","0","1","0","0","1","0","0","4","2","1","1","2","2","1","2","1","2","1","781502952228786178","汪","67","","","","nonmatch","","","","","","","","","","","","","","key","f","16.654999999999987","720","446","f","true","nonmatch","img/circle.png","五边","圆形","ALT1_1","prac_ALT1_1","","","","","","","","","","","",""
"null","<span style='color:GreenYellow; font-size: 70px;'>正确! </span>","null","html-keyboard-response","58","250706","0.0-7.0-0.0-1.0-0.0-1.24","4","3","4","4","4","4","3","1","4","4","5","4","5","4","4","5","5","4","5","5","1","2","5","2","2","1","2","4","1","1","0","0","0","1","0","1","0","0","1","0","0","1","0","0","4","2","1","1","2","2","1","2","1","2","1","781502952228786178","汪","67","","","","","","","","","","","","","","","","","","","","","","","","","","","","","","feedback_test","","","","","","","","","","","",""
"563","","f","psychophysics","59","252272","0.0-7.0-0.0-1.0-0.0-0.25","4","3","4","4","4","4","3","1","4","4","5","4","5","4","4","5","5","4","5","5","1","2","5","2","2","1","2","4","1","1","0","0","0","1","0","1","0","0","1","0","0","1","0","0","4","2","1","1","2","2","1","2","1","2","1","781502952228786178","汪","67","","","","nonmatch","","","","","","","","","","","","","","key","f","16.65909782608714","720","446","f","true","nonmatch","img/triangle.png","五边","三角","ALT1_1","prac_ALT1_1","","","","","","","","","","","",""
"null","<span style='color:GreenYellow; font-size: 70px;'>正确! </span>","null","html-keyboard-response","60","252773","0.0-7.0-0.0-1.0-0.0-1.25","4","3","4","4","4","4","3","1","4","4","5","4","5","4","4","5","5","4","5","5","1","2","5","2","2","1","2","4","1","1","0","0","0","1","0","1","0","0","1","0","0","1","0","0","4","2","1","1","2","2","1","2","1","2","1","781502952228786178","汪","67","","","","","","","","","","","","","","","","","","","","","","","","","","","","","","feedback_test","","","","","","","","","","","",""
"625","","j","psychophysics","61","254401","0.0-7.0-0.0-1.0-0.0-0.26","4","3","4","4","4","4","3","1","4","4","5","4","5","4","4","5","5","4","5","5","1","2","5","2","2","1","2","4","1","1","0","0","0","1","0","1","0","0","1","0","0","1","0","0","4","2","1","1","2","2","1","2","1","2","1","781502952228786178","汪","67","","","","match","","","","","","","","","","","","","","key","j","16.655000000000047","720","446","j","true","match","img/trapezoid.png","梯形","梯形","ALT1_1","prac_ALT1_1","","","","","","","","","","","",""
"null","<span style='color:GreenYellow; font-size: 70px;'>正确! </span>","null","html-keyboard-response","62","254902","0.0-7.0-0.0-1.0-0.0-1.26","4","3","4","4","4","4","3","1","4","4","5","4","5","4","4","5","5","4","5","5","1","2","5","2","2","1","2","4","1","1","0","0","0","1","0","1","0","0","1","0","0","1","0","0","4","2","1","1","2","2","1","2","1","2","1","781502952228786178","汪","67","","","","","","","","","","","","","","","","","","","","","","","","","","","","","","feedback_test","","","","","","","","","","","",""
"858","","j","psychophysics","63","256764","0.0-7.0-0.0-1.0-0.0-0.27","4","3","4","4","4","4","3","1","4","4","5","4","5","4","4","5","5","4","5","5","1","2","5","2","2","1","2","4","1","1","0","0","0","1","0","1","0","0","1","0","0","1","0","0","4","2","1","1","2","2","1","2","1","2","1","781502952228786178","汪","67","","","","match","","","","","","","","","","","","","","key","j","16.655000000000157","720","446","f","false","nonmatch","img/pentagon.png","圆形","五边","ALT1_1","prac_ALT1_1","","","","","","","","","","","",""
"null","<span style='color:red; font-size: 70px;'>错误! </span>","null","html-keyboard-response","64","257265","0.0-7.0-0.0-1.0-0.0-1.27","4","3","4","4","4","4","3","1","4","4","5","4","5","4","4","5","5","4","5","5","1","2","5","2","2","1","2","4","1","1","0","0","0","1","0","1","0","0","1","0","0","1","0","0","4","2","1","1","2","2","1","2","1","2","1","781502952228786178","汪","67","","","","","","","","","","","","","","","","","","","","","","","","","","","","","","feedback_test","","","","","","","","","","","",""
"995","","f","psychophysics","65","259265","0.0-7.0-0.0-1.0-0.0-0.28","4","3","4","4","4","4","3","1","4","4","5","4","5","4","4","5","5","4","5","5","1","2","5","2","2","1","2","4","1","1","0","0","0","1","0","1","0","0","1","0","0","1","0","0","4","2","1","1","2","2","1","2","1","2","1","781502952228786178","汪","67","","","","nonmatch","","","","","","","","","","","","","","key","f","16.796144067796668","720","446","j","false","match","img/trapezoid.png","梯形","梯形","ALT1_1","prac_ALT1_1","","","","","","","","","","","",""
"null","<span style='color:red; font-size: 70px;'>错误! </span>","null","html-keyboard-response","66","259766","0.0-7.0-0.0-1.0-0.0-1.28","4","3","4","4","4","4","3","1","4","4","5","4","5","4","4","5","5","4","5","5","1","2","5","2","2","1","2","4","1","1","0","0","0","1","0","1","0","0","1","0","0","1","0","0","4","2","1","1","2","2","1","2","1","2","1","781502952228786178","汪","67","","","","","","","","","","","","","","","","","","","","","","","","","","","","","","feedback_test","","","","","","","","","","","",""
"682","","f","psychophysics","67","261451","0.0-7.0-0.0-1.0-0.0-0.29","4","3","4","4","4","4","3","1","4","4","5","4","5","4","4","5","5","4","5","5","1","2","5","2","2","1","2","4","1","1","0","0","0","1","0","1","0","0","1","0","0","1","0","0","4","2","1","1","2","2","1","2","1","2","1","781502952228786178","汪","67","","","","nonmatch","","","","","","","","","","","","","","key","f","16.65499999999971","720","446","f","true","nonmatch","img/triangle.png","圆形","三角","ALT1_1","prac_ALT1_1","","","","","","","","","","","",""
"null","<span style='color:GreenYellow; font-size: 70px;'>正确! </span>","null","html-keyboard-response","68","261952","0.0-7.0-0.0-1.0-0.0-1.29","4","3","4","4","4","4","3","1","4","4","5","4","5","4","4","5","5","4","5","5","1","2","5","2","2","1","2","4","1","1","0","0","0","1","0","1","0","0","1","0","0","1","0","0","4","2","1","1","2","2","1","2","1","2","1","781502952228786178","汪","67","","","","","","","","","","","","","","","","","","","","","","","","","","","","","","feedback_test","","","","","","","","","","","",""
"630","","f","psychophysics","69","263586","0.0-7.0-0.0-1.0-0.0-0.30","4","3","4","4","4","4","3","1","4","4","5","4","5","4","4","5","5","4","5","5","1","2","5","2","2","1","2","4","1","1","0","0","0","1","0","1","0","0","1","0","0","1","0","0","4","2","1","1","2","2","1","2","1","2","1","781502952228786178","汪","67","","","","nonmatch","","","","","","","","","","","","","","key","f","16.65888659793766","720","446","f","true","nonmatch","img/circle.png","三角","圆形","ALT1_1","prac_ALT1_1","","","","","","","","","","","",""
"null","<span style='color:GreenYellow; font-size: 70px;'>正确! </span>","null","html-keyboard-response","70","264088","0.0-7.0-0.0-1.0-0.0-1.30","4","3","4","4","4","4","3","1","4","4","5","4","5","4","4","5","5","4","5","5","1","2","5","2","2","1","2","4","1","1","0","0","0","1","0","1","0","0","1","0","0","1","0","0","4","2","1","1","2","2","1","2","1","2","1","781502952228786178","汪","67","","","","","","","","","","","","","","","","","","","","","","","","","","","","","","feedback_test","","","","","","","","","","","",""
"849","","j","psychophysics","71","265940","0.0-7.0-0.0-1.0-0.0-0.31","4","3","4","4","4","4","3","1","4","4","5","4","5","4","4","5","5","4","5","5","1","2","5","2","2","1","2","4","1","1","0","0","0","1","0","1","0","0","1","0","0","1","0","0","4","2","1","1","2","2","1","2","1","2","1","781502952228786178","汪","67","","","","match","","","","","","","","","","","","","","key","j","16.654999999999895","720","446","f","false","nonmatch","img/triangle.png","梯形","三角","ALT1_1","prac_ALT1_1","","","","","","","","","","","",""
"null","<span style='color:red; font-size: 70px;'>错误! </span>","null","html-keyboard-response","72","266441","0.0-7.0-0.0-1.0-0.0-1.31","4","3","4","4","4","4","3","1","4","4","5","4","5","4","4","5","5","4","5","5","1","2","5","2","2","1","2","4","1","1","0","0","0","1","0","1","0","0","1","0","0","1","0","0","4","2","1","1","2","2","1","2","1","2","1","781502952228786178","汪","67","","","","","","","","","","","","","","","","","","","","","","","","","","","","","","feedback_test","","","","","","","","","","","",""
"771","","f","psychophysics","73","268217","0.0-7.0-0.0-1.0-0.0-0.32","4","3","4","4","4","4","3","1","4","4","5","4","5","4","4","5","5","4","5","5","1","2","5","2","2","1","2","4","1","1","0","0","0","1","0","1","0","0","1","0","0","1","0","0","4","2","1","1","2","2","1","2","1","2","1","781502952228786178","汪","67","","","","nonmatch","","","","","","","","","","","","","","key","f","16.81361904761898","720","446","f","true","nonmatch","img/trapezoid.png","三角","梯形","ALT1_1","prac_ALT1_1","","","","","","","","","","","",""
"null","<span style='color:GreenYellow; font-size: 70px;'>正确! </span>","null","html-keyboard-response","74","268718","0.0-7.0-0.0-1.0-0.0-1.32","4","3","4","4","4","4","3","1","4","4","5","4","5","4","4","5","5","4","5","5","1","2","5","2","2","1","2","4","1","1","0","0","0","1","0","1","0","0","1","0","0","1","0","0","4","2","1","1","2","2","1","2","1","2","1","781502952228786178","汪","67","","","","","","","","","","","","","","","","","","","","","","","","","","","","","","feedback_test","","","","","","","","","","","",""
"786","","f","psychophysics","75","270507","0.0-7.0-0.0-1.0-0.0-0.33","4","3","4","4","4","4","3","1","4","4","5","4","5","4","4","5","5","4","5","5","1","2","5","2","2","1","2","4","1","1","0","0","0","1","0","1","0","0","1","0","0","1","0","0","4","2","1","1","2","2","1","2","1","2","1","781502952228786178","汪","67","","","","nonmatch","","","","","","","","","","","","","","key","f","16.654999999999934","720","446","f","true","nonmatch","img/trapezoid.png","五边","梯形","ALT1_1","prac_ALT1_1","","","","","","","","","","","",""
"null","<span style='color:GreenYellow; font-size: 70px;'>正确! </span>","null","html-keyboard-response","76","271009","0.0-7.0-0.0-1.0-0.0-1.33","4","3","4","4","4","4","3","1","4","4","5","4","5","4","4","5","5","4","5","5","1","2","5","2","2","1","2","4","1","1","0","0","0","1","0","1","0","0","1","0","0","1","0","0","4","2","1","1","2","2","1","2","1","2","1","781502952228786178","汪","67","","","","","","","","","","","","","","","","","","","","","","","","","","","","","","feedback_test","","","","","","","","","","","",""
"837","","f","psychophysics","77","272848","0.0-7.0-0.0-1.0-0.0-0.34","4","3","4","4","4","4","3","1","4","4","5","4","5","4","4","5","5","4","5","5","1","2","5","2","2","1","2","4","1","1","0","0","0","1","0","1","0","0","1","0","0","1","0","0","4","2","1","1","2","2","1","2","1","2","1","781502952228786178","汪","67","","","","nonmatch","","","","","","","","","","","","","","key","f","16.658449541284476","720","446","f","true","nonmatch","img/pentagon.png","梯形","五边","ALT1_1","prac_ALT1_1","","","","","","","","","","","",""
"null","<span style='color:GreenYellow; font-size: 70px;'>正确! </span>","null","html-keyboard-response","78","273349","0.0-7.0-0.0-1.0-0.0-1.34","4","3","4","4","4","4","3","1","4","4","5","4","5","4","4","5","5","4","5","5","1","2","5","2","2","1","2","4","1","1","0","0","0","1","0","1","0","0","1","0","0","1","0","0","4","2","1","1","2","2","1","2","1","2","1","781502952228786178","汪","67","","","","","","","","","","","","","","","","","","","","","","","","","","","","","","feedback_test","","","","","","","","","","","",""
"591","","f","psychophysics","79","274943","0.0-7.0-0.0-1.0-0.0-0.35","4","3","4","4","4","4","3","1","4","4","5","4","5","4","4","5","5","4","5","5","1","2","5","2","2","1","2","4","1","1","0","0","0","1","0","1","0","0","1","0","0","1","0","0","4","2","1","1","2","2","1","2","1","2","1","781502952228786178","汪","67","","","","nonmatch","","","","","","","","","","","","","","key","f","16.654999999999756","720","446","j","false","match","img/circle.png","圆形","圆形","ALT1_1","prac_ALT1_1","","","","","","","","","","","",""
"null","<span style='color:red; font-size: 70px;'>错误! </span>","null","html-keyboard-response","80","275444","0.0-7.0-0.0-1.0-0.0-1.35","4","3","4","4","4","4","3","1","4","4","5","4","5","4","4","5","5","4","5","5","1","2","5","2","2","1","2","4","1","1","0","0","0","1","0","1","0","0","1","0","0","1","0","0","4","2","1","1","2","2","1","2","1","2","1","781502952228786178","汪","67","","","","","","","","","","","","","","","","","","","","","","","","","","","","","","feedback_test","","","","","","","","","","","",""
"943","","j","psychophysics","81","277391","0.0-7.0-0.0-1.0-0.0-0.36","4","3","4","4","4","4","3","1","4","4","5","4","5","4","4","5","5","4","5","5","1","2","5","2","2","1","2","4","1","1","0","0","0","1","0","1","0","0","1","0","0","1","0","0","4","2","1","1","2","2","1","2","1","2","1","781502952228786178","汪","67","","","","match","","","","","","","","","","","","","","key","j","16.655000000000342","720","446","j","true","match","img/triangle.png","三角","三角","ALT1_1","prac_ALT1_1","","","","","","","","","","","",""
"null","<span style='color:GreenYellow; font-size: 70px;'>正确! </span>","null","html-keyboard-response","82","277893","0.0-7.0-0.0-1.0-0.0-1.36","4","3","4","4","4","4","3","1","4","4","5","4","5","4","4","5","5","4","5","5","1","2","5","2","2","1","2","4","1","1","0","0","0","1","0","1","0","0","1","0","0","1","0","0","4","2","1","1","2","2","1","2","1","2","1","781502952228786178","汪","67","","","","","","","","","","","","","","","","","","","","","","","","","","","","","","feedback_test","","","","","","","","","","","",""
"834","","j","psychophysics","83","279730","0.0-7.0-0.0-1.0-0.0-0.37","4","3","4","4","4","4","3","1","4","4","5","4","5","4","4","5","5","4","5","5","1","2","5","2","2","1","2","4","1","1","0","0","0","1","0","1","0","0","1","0","0","1","0","0","4","2","1","1","2","2","1","2","1","2","1","781502952228786178","汪","67","","","","match","","","","","","","","","","","","","","key","j","16.654999999999635","720","446","j","true","match","img/trapezoid.png","梯形","梯形","ALT1_1","prac_ALT1_1","","","","","","","","","","","",""
"null","<span style='color:GreenYellow; font-size: 70px;'>正确! </span>","null","html-keyboard-response","84","280231","0.0-7.0-0.0-1.0-0.0-1.37","4","3","4","4","4","4","3","1","4","4","5","4","5","4","4","5","5","4","5","5","1","2","5","2","2","1","2","4","1","1","0","0","0","1","0","1","0","0","1","0","0","1","0","0","4","2","1","1","2","2","1","2","1","2","1","781502952228786178","汪","67","","","","","","","","","","","","","","","","","","","","","","","","","","","","","","feedback_test","","","","","","","","","","","",""
"748","","j","psychophysics","85","281982","0.0-7.0-0.0-1.0-0.0-0.38","4","3","4","4","4","4","3","1","4","4","5","4","5","4","4","5","5","4","5","5","1","2","5","2","2","1","2","4","1","1","0","0","0","1","0","1","0","0","1","0","0","1","0","0","4","2","1","1","2","2","1","2","1","2","1","781502952228786178","汪","67","","","","match","","","","","","","","","","","","","","key","j","16.81669902912617","720","446","j","true","match","img/circle.png","圆形","圆形","ALT1_1","prac_ALT1_1","","","","","","","","","","","",""
"null","<span style='color:GreenYellow; font-size: 70px;'>正确! </span>","null","html-keyboard-response","86","282484","0.0-7.0-0.0-1.0-0.0-1.38","4","3","4","4","4","4","3","1","4","4","5","4","5","4","4","5","5","4","5","5","1","2","5","2","2","1","2","4","1","1","0","0","0","1","0","1","0","0","1","0","0","1","0","0","4","2","1","1","2","2","1","2","1","2","1","781502952228786178","汪","67","","","","","","","","","","","","","","","","","","","","","","","","","","","","","","feedback_test","","","","","","","","","","","",""
"723","","j","psychophysics","87","284209","0.0-7.0-0.0-1.0-0.0-0.39","4","3","4","4","4","4","3","1","4","4","5","4","5","4","4","5","5","4","5","5","1","2","5","2","2","1","2","4","1","1","0","0","0","1","0","1","0","0","1","0","0","1","0","0","4","2","1","1","2","2","1","2","1","2","1","781502952228786178","汪","67","","","","match","","","","","","","","","","","","","","key","j","16.658862745098304","720","446","j","true","match","img/triangle.png","三角","三角","ALT1_1","prac_ALT1_1","","","","","","","","","","","",""
"null","<span style='color:GreenYellow; font-size: 70px;'>正确! </span>","null","html-keyboard-response","88","284711","0.0-7.0-0.0-1.0-0.0-1.39","4","3","4","4","4","4","3","1","4","4","5","4","5","4","4","5","5","4","5","5","1","2","5","2","2","1","2","4","1","1","0","0","0","1","0","1","0","0","1","0","0","1","0","0","4","2","1","1","2","2","1","2","1","2","1","781502952228786178","汪","67","","","","","","","","","","","","","","","","","","","","","","","","","","","","","","feedback_test","","","","","","","","","","","",""
"637","","j","psychophysics","89","286351","0.0-7.0-0.0-1.0-0.0-0.40","4","3","4","4","4","4","3","1","4","4","5","4","5","4","4","5","5","4","5","5","1","2","5","2","2","1","2","4","1","1","0","0","0","1","0","1","0","0","1","0","0","1","0","0","4","2","1","1","2","2","1","2","1","2","1","781502952228786178","汪","67","","","","match","","","","","","","","","","","","","","key","j","16.826701030927858","720","446","j","true","match","img/circle.png","圆形","圆形","ALT1_1","prac_ALT1_1","","","","","","","","","","","",""
"null","<span style='color:GreenYellow; font-size: 70px;'>正确! </span>","null","html-keyboard-response","90","286853","0.0-7.0-0.0-1.0-0.0-1.40","4","3","4","4","4","4","3","1","4","4","5","4","5","4","4","5","5","4","5","5","1","2","5","2","2","1","2","4","1","1","0","0","0","1","0","1","0","0","1","0","0","1","0","0","4","2","1","1","2","2","1","2","1","2","1","781502952228786178","汪","67","","","","","","","","","","","","","","","","","","","","","","","","","","","","","","feedback_test","","","","","","","","","","","",""
"827","","f","psychophysics","91","288682","0.0-7.0-0.0-1.0-0.0-0.41","4","3","4","4","4","4","3","1","4","4","5","4","5","4","4","5","5","4","5","5","1","2","5","2","2","1","2","4","1","1","0","0","0","1","0","1","0","0","1","0","0","1","0","0","4","2","1","1","2","2","1","2","1","2","1","781502952228786178","汪","67","","","","nonmatch","","","","","","","","","","","","","","key","f","16.65500000000017","720","446","f","true","nonmatch","img/trapezoid.png","圆形","梯形","ALT1_1","prac_ALT1_1","","","","","","","","","","","",""
"null","<span style='color:GreenYellow; font-size: 70px;'>正确! </span>","null","html-keyboard-response","92","289184","0.0-7.0-0.0-1.0-0.0-1.41","4","3","4","4","4","4","3","1","4","4","5","4","5","4","4","5","5","4","5","5","1","2","5","2","2","1","2","4","1","1","0","0","0","1","0","1","0","0","1","0","0","1","0","0","4","2","1","1","2","2","1","2","1","2","1","781502952228786178","汪","67","","","","","","","","","","","","","","","","","","","","","","","","","","","","","","feedback_test","","","","","","","","","","","",""
"778","","f","psychophysics","93","290965","0.0-7.0-0.0-1.0-0.0-0.42","4","3","4","4","4","4","3","1","4","4","5","4","5","4","4","5","5","4","5","5","1","2","5","2","2","1","2","4","1","1","0","0","0","1","0","1","0","0","1","0","0","1","0","0","4","2","1","1","2","2","1","2","1","2","1","781502952228786178","汪","67","","","","nonmatch","","","","","","","","","","","","","","key","f","16.654999999999934","720","446","f","true","nonmatch","img/circle.png","梯形","圆形","ALT1_1","prac_ALT1_1","","","","","","","","","","","",""
"null","<span style='color:GreenYellow; font-size: 70px;'>正确! </span>","null","html-keyboard-response","94","291467","0.0-7.0-0.0-1.0-0.0-1.42","4","3","4","4","4","4","3","1","4","4","5","4","5","4","4","5","5","4","5","5","1","2","5","2","2","1","2","4","1","1","0","0","0","1","0","1","0","0","1","0","0","1","0","0","4","2","1","1","2","2","1","2","1","2","1","781502952228786178","汪","67","","","","","","","","","","","","","","","","","","","","","","","","","","","","","","feedback_test","","","","","","","","","","","",""
"588","","f","psychophysics","95","293056","0.0-7.0-0.0-1.0-0.0-0.43","4","3","4","4","4","4","3","1","4","4","5","4","5","4","4","5","5","4","5","5","1","2","5","2","2","1","2","4","1","1","0","0","0","1","0","1","0","0","1","0","0","1","0","0","4","2","1","1","2","2","1","2","1","2","1","781502952228786178","汪","67","","","","nonmatch","","","","","","","","","","","","","","key","f","16.65899999999996","720","446","j","false","match","img/pentagon.png","五边","五边","ALT1_1","prac_ALT1_1","","","","","","","","","","","",""
"null","<span style='color:red; font-size: 70px;'>错误! </span>","null","html-keyboard-response","96","293558","0.0-7.0-0.0-1.0-0.0-1.43","4","3","4","4","4","4","3","1","4","4","5","4","5","4","4","5","5","4","5","5","1","2","5","2","2","1","2","4","1","1","0","0","0","1","0","1","0","0","1","0","0","1","0","0","4","2","1","1","2","2","1","2","1","2","1","781502952228786178","汪","67","","","","","","","","","","","","","","","","","","","","","","","","","","","","","","feedback_test","","","","","","","","","","","",""
"845","","j","psychophysics","97","295407","0.0-7.0-0.0-1.0-0.0-0.44","4","3","4","4","4","4","3","1","4","4","5","4","5","4","4","5","5","4","5","5","1","2","5","2","2","1","2","4","1","1","0","0","0","1","0","1","0","0","1","0","0","1","0","0","4","2","1","1","2","2","1","2","1","2","1","781502952228786178","汪","67","","","","match","","","","","","","","","","","","","","key","j","16.654999999999635","720","446","j","true","match","img/pentagon.png","五边","五边","ALT1_1","prac_ALT1_1","","","","","","","","","","","",""
"null","<span style='color:GreenYellow; font-size: 70px;'>正确! </span>","null","html-keyboard-response","98","295908","0.0-7.0-0.0-1.0-0.0-1.44","4","3","4","4","4","4","3","1","4","4","5","4","5","4","4","5","5","4","5","5","1","2","5","2","2","1","2","4","1","1","0","0","0","1","0","1","0","0","1","0","0","1","0","0","4","2","1","1","2","2","1","2","1","2","1","781502952228786178","汪","67","","","","","","","","","","","","","","","","","","","","","","","","","","","","","","feedback_test","","","","","","","","","","","",""
"827","","j","psychophysics","99","297738","0.0-7.0-0.0-1.0-0.0-0.45","4","3","4","4","4","4","3","1","4","4","5","4","5","4","4","5","5","4","5","5","1","2","5","2","2","1","2","4","1","1","0","0","0","1","0","1","0","0","1","0","0","1","0","0","4","2","1","1","2","2","1","2","1","2","1","781502952228786178","汪","67","","","","match","","","","","","","","","","","","","","key","j","16.654999999999912","720","446","j","true","match","img/pentagon.png","五边","五边","ALT1_1","prac_ALT1_1","","","","","","","","","","","",""
"null","<span style='color:GreenYellow; font-size: 70px;'>正确! </span>","null","html-keyboard-response","100","298239","0.0-7.0-0.0-1.0-0.0-1.45","4","3","4","4","4","4","3","1","4","4","5","4","5","4","4","5","5","4","5","5","1","2","5","2","2","1","2","4","1","1","0","0","0","1","0","1","0","0","1","0","0","1","0","0","4","2","1","1","2","2","1","2","1","2","1","781502952228786178","汪","67","","","","","","","","","","","","","","","","","","","","","","","","","","","","","","feedback_test","","","","","","","","","","","",""
"777","","f","psychophysics","101","300018","0.0-7.0-0.0-1.0-0.0-0.46","4","3","4","4","4","4","3","1","4","4","5","4","5","4","4","5","5","4","5","5","1","2","5","2","2","1","2","4","1","1","0","0","0","1","0","1","0","0","1","0","0","1","0","0","4","2","1","1","2","2","1","2","1","2","1","781502952228786178","汪","67","","","","nonmatch","","","","","","","","","","","","","","key","f","16.65500000000022","720","446","f","true","nonmatch","img/pentagon.png","三角","五边","ALT1_1","prac_ALT1_1","","","","","","","","","","","",""
"null","<span style='color:GreenYellow; font-size: 70px;'>正确! </span>","null","html-keyboard-response","102","300520","0.0-7.0-0.0-1.0-0.0-1.46","4","3","4","4","4","4","3","1","4","4","5","4","5","4","4","5","5","4","5","5","1","2","5","2","2","1","2","4","1","1","0","0","0","1","0","1","0","0","1","0","0","1","0","0","4","2","1","1","2","2","1","2","1","2","1","781502952228786178","汪","67","","","","","","","","","","","","","","","","","","","","","","","","","","","","","","feedback_test","","","","","","","","","","","",""
"950","","j","psychophysics","103","302473","0.0-7.0-0.0-1.0-0.0-0.47","4","3","4","4","4","4","3","1","4","4","5","4","5","4","4","5","5","4","5","5","1","2","5","2","2","1","2","4","1","1","0","0","0","1","0","1","0","0","1","0","0","1","0","0","4","2","1","1","2","2","1","2","1","2","1","781502952228786178","汪","67","","","","match","","","","","","","","","","","","","","key","j","16.654999999999838","720","446","j","true","match","img/triangle.png","三角","三角","ALT1_1","prac_ALT1_1","","","","","","","","","","","",""
"null","<span style='color:GreenYellow; font-size: 70px;'>正确! </span>","null","html-keyboard-response","104","302975","0.0-7.0-0.0-1.0-0.0-1.47","4","3","4","4","4","4","3","1","4","4","5","4","5","4","4","5","5","4","5","5","1","2","5","2","2","1","2","4","1","1","0","0","0","1","0","1","0","0","1","0","0","1","0","0","4","2","1","1","2","2","1","2","1","2","1","781502952228786178","汪","67","","","","","","","","","","","","","","","","","","","","","","","","","","","","","","feedback_test","","","","","","","","","","","",""
"50778","<style>.context{color:white; font-size: 35px; line-height:40px}</style>                            <div><p class='context'>您正确回答了67% 的试次。</p><p class='context'>您的平均反应时为717毫秒。</p><p class='context'>恭喜您完成练习。按空格键进入正式实验。</p><p class='footer' style='font-size: 35px; line-height:40px;'>请在进入正式实验之前将您的<span style='color: lightgreen;'>食指</span>放在电脑键盘的相应键位上进行按键。</p>"," ","html-keyboard-response","105","353756","0.0-7.0-0.0-2.0","4","3","4","4","4","4","3","1","4","4","5","4","5","4","4","5","5","4","5","5","1","2","5","2","2","1","2","4","1","1","0","0","0","1","0","1","0","0","1","0","0","1","0","0","4","2","1","1","2","2","1","2","1","2","1","781502952228786178","汪","67","","","","","","","","","","","","","","","","","","","","","","","","","","","","","","","","","","","","","","","","","",""
"3517","
    <p style='color: white; font-size: 22px'>请您将手指放在按键上，准备进入正式的匹配任务。</p>
    <p> <div style = ""color: green""><按空格键进入下一阶段的匹配任务></div></p>
    "," ","html-keyboard-response","106","357279","0.0-7.0-0.0-3.0","4","3","4","4","4","4","3","1","4","4","5","4","5","4","4","5","5","4","5","5","1","2","5","2","2","1","2","4","1","1","0","0","0","1","0","1","0","0","1","0","0","1","0","0","4","2","1","1","2","2","1","2","1","2","1","781502952228786178","汪","67","","","","","","","","","","","","","","","","","","","","","","","","","","","","","","","","","","","","","","","","","",""
"664","","f","psychophysics","107","358945","0.0-7.0-0.0-4.0-0.0-0.0","4","3","4","4","4","4","3","1","4","4","5","4","5","4","4","5","5","4","5","5","1","2","5","2","2","1","2","4","1","1","0","0","0","1","0","1","0","0","1","0","0","1","0","0","4","2","1","1","2","2","1","2","1","2","1","781502952228786178","汪","67","","","","nonmatch","","","","","","","","","","","","","","key","f","16.82494897959155","720","446","j","false","match","img/trapezoid.png","梯形","梯形","ALT1","formal_ALT1_1","","","","","","","","","","","",""
"null","<span style='color:red; font-size: 70px;'>错误! </span>","null","html-keyboard-response","108","359447","0.0-7.0-0.0-4.0-0.0-1.0","4","3","4","4","4","4","3","1","4","4","5","4","5","4","4","5","5","4","5","5","1","2","5","2","2","1","2","4","1","1","0","0","0","1","0","1","0","0","1","0","0","1","0","0","4","2","1","1","2","2","1","2","1","2","1","781502952228786178","汪","67","","","","","","","","","","","","","","","","","","","","","","","","","","","","","","feedback_test","","","","","","","","","","","",""
"669","","j","psychophysics","109","361120","0.0-7.0-0.0-4.0-0.0-0.1","4","3","4","4","4","4","3","1","4","4","5","4","5","4","4","5","5","4","5","5","1","2","5","2","2","1","2","4","1","1","0","0","0","1","0","1","0","0","1","0","0","1","0","0","4","2","1","1","2","2","1","2","1","2","1","781502952228786178","汪","67","","","","match","","","","","","","","","","","","","","key","j","16.654999999999717","720","446","j","true","match","img/pentagon.png","五边","五边","ALT1","formal_ALT1_1","","","","","","","","","","","",""
"null","<span style='color:GreenYellow; font-size: 70px;'>正确! </span>","null","html-keyboard-response","110","361621","0.0-7.0-0.0-4.0-0.0-1.1","4","3","4","4","4","4","3","1","4","4","5","4","5","4","4","5","5","4","5","5","1","2","5","2","2","1","2","4","1","1","0","0","0","1","0","1","0","0","1","0","0","1","0","0","4","2","1","1","2","2","1","2","1","2","1","781502952228786178","汪","67","","","","","","","","","","","","","","","","","","","","","","","","","","","","","","feedback_test","","","","","","","","","","","",""
"534","","j","psychophysics","111","363159","0.0-7.0-0.0-4.0-0.0-0.2","4","3","4","4","4","4","3","1","4","4","5","4","5","4","4","5","5","4","5","5","1","2","5","2","2","1","2","4","1","1","0","0","0","1","0","1","0","0","1","0","0","1","0","0","4","2","1","1","2","2","1","2","1","2","1","781502952228786178","汪","67","","","","match","","","","","","","","","","","","","","key","j","16.840055555555995","720","446","j","true","match","img/pentagon.png","五边","五边","ALT1","formal_ALT1_1","","","","","","","","","","","",""
"null","<span style='color:GreenYellow; font-size: 70px;'>正确! </span>","null","html-keyboard-response","112","363660","0.0-7.0-0.0-4.0-0.0-1.2","4","3","4","4","4","4","3","1","4","4","5","4","5","4","4","5","5","4","5","5","1","2","5","2","2","1","2","4","1","1","0","0","0","1","0","1","0","0","1","0","0","1","0","0","4","2","1","1","2","2","1","2","1","2","1","781502952228786178","汪","67","","","","","","","","","","","","","","","","","","","","","","","","","","","","","","feedback_test","","","","","","","","","","","",""
"690","","f","psychophysics","113","365353","0.0-7.0-0.0-4.0-0.0-0.3","4","3","4","4","4","4","3","1","4","4","5","4","5","4","4","5","5","4","5","5","1","2","5","2","2","1","2","4","1","1","0","0","0","1","0","1","0","0","1","0","0","1","0","0","4","2","1","1","2","2","1","2","1","2","1","781502952228786178","汪","67","","","","nonmatch","","","","","","","","","","","","","","key","f","16.658770000000366","720","446","f","true","nonmatch","img/pentagon.png","三角","五边","ALT1","formal_ALT1_1","","","","","","","","","","","",""
"null","<span style='color:GreenYellow; font-size: 70px;'>正确! </span>","null","html-keyboard-response","114","365854","0.0-7.0-0.0-4.0-0.0-1.3","4","3","4","4","4","4","3","1","4","4","5","4","5","4","4","5","5","4","5","5","1","2","5","2","2","1","2","4","1","1","0","0","0","1","0","1","0","0","1","0","0","1","0","0","4","2","1","1","2","2","1","2","1","2","1","781502952228786178","汪","67","","","","","","","","","","","","","","","","","","","","","","","","","","","","","","feedback_test","","","","","","","","","","","",""
"582","","f","psychophysics","115","367439","0.0-7.0-0.0-4.0-0.0-0.4","4","3","4","4","4","4","3","1","4","4","5","4","5","4","4","5","5","4","5","5","1","2","5","2","2","1","2","4","1","1","0","0","0","1","0","1","0","0","1","0","0","1","0","0","4","2","1","1","2","2","1","2","1","2","1","781502952228786178","汪","67","","","","nonmatch","","","","","","","","","","","","","","key","f","16.834086021505453","720","446","j","false","match","img/triangle.png","三角","三角","ALT1","formal_ALT1_1","","","","","","","","","","","",""
"null","<span style='color:red; font-size: 70px;'>错误! </span>","null","html-keyboard-response","116","367941","0.0-7.0-0.0-4.0-0.0-1.4","4","3","4","4","4","4","3","1","4","4","5","4","5","4","4","5","5","4","5","5","1","2","5","2","2","1","2","4","1","1","0","0","0","1","0","1","0","0","1","0","0","1","0","0","4","2","1","1","2","2","1","2","1","2","1","781502952228786178","汪","67","","","","","","","","","","","","","","","","","","","","","","","","","","","","","","feedback_test","","","","","","","","","","","",""
"692","","j","psychophysics","117","369635","0.0-7.0-0.0-4.0-0.0-0.5","4","3","4","4","4","4","3","1","4","4","5","4","5","4","4","5","5","4","5","5","1","2","5","2","2","1","2","4","1","1","0","0","0","1","0","1","0","0","1","0","0","1","0","0","4","2","1","1","2","2","1","2","1","2","1","781502952228786178","汪","67","","","","match","","","","","","","","","","","","","","key","j","16.655","720","446","j","true","match","img/circle.png","圆形","圆形","ALT1","formal_ALT1_1","","","","","","","","","","","",""
"null","<span style='color:GreenYellow; font-size: 70px;'>正确! </span>","null","html-keyboard-response","118","370136","0.0-7.0-0.0-4.0-0.0-1.5","4","3","4","4","4","4","3","1","4","4","5","4","5","4","4","5","5","4","5","5","1","2","5","2","2","1","2","4","1","1","0","0","0","1","0","1","0","0","1","0","0","1","0","0","4","2","1","1","2","2","1","2","1","2","1","781502952228786178","汪","67","","","","","","","","","","","","","","","","","","","","","","","","","","","","","","feedback_test","","","","","","","","","","","",""
"659","","j","psychophysics","119","371800","0.0-7.0-0.0-4.0-0.0-0.6","4","3","4","4","4","4","3","1","4","4","5","4","5","4","4","5","5","4","5","5","1","2","5","2","2","1","2","4","1","1","0","0","0","1","0","1","0","0","1","0","0","1","0","0","4","2","1","1","2","2","1","2","1","2","1","781502952228786178","汪","67","","","","match","","","","","","","","","","","","","","key","j","16.655000000000022","720","446","f","false","nonmatch","img/circle.png","梯形","圆形","ALT1","formal_ALT1_1","","","","","","","","","","","",""
"null","<span style='color:red; font-size: 70px;'>错误! </span>","null","html-keyboard-response","120","372302","0.0-7.0-0.0-4.0-0.0-1.6","4","3","4","4","4","4","3","1","4","4","5","4","5","4","4","5","5","4","5","5","1","2","5","2","2","1","2","4","1","1","0","0","0","1","0","1","0","0","1","0","0","1","0","0","4","2","1","1","2","2","1","2","1","2","1","781502952228786178","汪","67","","","","","","","","","","","","","","","","","","","","","","","","","","","","","","feedback_test","","","","","","","","","","","",""
"924","","j","psychophysics","121","374230","0.0-7.0-0.0-4.0-0.0-0.7","4","3","4","4","4","4","3","1","4","4","5","4","5","4","4","5","5","4","5","5","1","2","5","2","2","1","2","4","1","1","0","0","0","1","0","1","0","0","1","0","0","1","0","0","4","2","1","1","2","2","1","2","1","2","1","781502952228786178","汪","67","","","","match","","","","","","","","","","","","","","key","j","16.6582982456138","720","446","j","true","match","img/circle.png","圆形","圆形","ALT1","formal_ALT1_1","","","","","","","","","","","",""
"null","<span style='color:GreenYellow; font-size: 70px;'>正确! </span>","null","html-keyboard-response","122","374732","0.0-7.0-0.0-4.0-0.0-1.7","4","3","4","4","4","4","3","1","4","4","5","4","5","4","4","5","5","4","5","5","1","2","5","2","2","1","2","4","1","1","0","0","0","1","0","1","0","0","1","0","0","1","0","0","4","2","1","1","2","2","1","2","1","2","1","781502952228786178","汪","67","","","","","","","","","","","","","","","","","","","","","","","","","","","","","","feedback_test","","","","","","","","","","","",""
"966","","j","psychophysics","123","376702","0.0-7.0-0.0-4.0-0.0-0.8","4","3","4","4","4","4","3","1","4","4","5","4","5","4","4","5","5","4","5","5","1","2","5","2","2","1","2","4","1","1","0","0","0","1","0","1","0","0","1","0","0","1","0","0","4","2","1","1","2","2","1","2","1","2","1","781502952228786178","汪","67","","","","match","","","","","","","","","","","","","","key","j","16.654999999999582","720","446","f","false","nonmatch","img/trapezoid.png","五边","梯形","ALT1","formal_ALT1_1","","","","","","","","","","","",""
"null","<span style='color:red; font-size: 70px;'>错误! </span>","null","html-keyboard-response","124","377203","0.0-7.0-0.0-4.0-0.0-1.8","4","3","4","4","4","4","3","1","4","4","5","4","5","4","4","5","5","4","5","5","1","2","5","2","2","1","2","4","1","1","0","0","0","1","0","1","0","0","1","0","0","1","0","0","4","2","1","1","2","2","1","2","1","2","1","781502952228786178","汪","67","","","","","","","","","","","","","","","","","","","","","","","","","","","","","","feedback_test","","","","","","","","","","","",""
"816","","f","psychophysics","125","379022","0.0-7.0-0.0-4.0-0.0-0.9","4","3","4","4","4","4","3","1","4","4","5","4","5","4","4","5","5","4","5","5","1","2","5","2","2","1","2","4","1","1","0","0","0","1","0","1","0","0","1","0","0","1","0","0","4","2","1","1","2","2","1","2","1","2","1","781502952228786178","汪","67","","","","nonmatch","","","","","","","","","","","","","","key","f","16.654999999999912","720","446","f","true","nonmatch","img/trapezoid.png","圆形","梯形","ALT1","formal_ALT1_1","","","","","","","","","","","",""
"null","<span style='color:GreenYellow; font-size: 70px;'>正确! </span>","null","html-keyboard-response","126","379524","0.0-7.0-0.0-4.0-0.0-1.9","4","3","4","4","4","4","3","1","4","4","5","4","5","4","4","5","5","4","5","5","1","2","5","2","2","1","2","4","1","1","0","0","0","1","0","1","0","0","1","0","0","1","0","0","4","2","1","1","2","2","1","2","1","2","1","781502952228786178","汪","67","","","","","","","","","","","","","","","","","","","","","","","","","","","","","","feedback_test","","","","","","","","","","","",""
"869","","j","psychophysics","127","381396","0.0-7.0-0.0-4.0-0.0-0.10","4","3","4","4","4","4","3","1","4","4","5","4","5","4","4","5","5","4","5","5","1","2","5","2","2","1","2","4","1","1","0","0","0","1","0","1","0","0","1","0","0","1","0","0","4","2","1","1","2","2","1","2","1","2","1","781502952228786178","汪","67","","","","match","","","","","","","","","","","","","","key","j","16.655000000000147","720","446","j","true","match","img/triangle.png","三角","三角","ALT1","formal_ALT1_1","","","","","","","","","","","",""
"null","<span style='color:GreenYellow; font-size: 70px;'>正确! </span>","null","html-keyboard-response","128","381898","0.0-7.0-0.0-4.0-0.0-1.10","4","3","4","4","4","4","3","1","4","4","5","4","5","4","4","5","5","4","5","5","1","2","5","2","2","1","2","4","1","1","0","0","0","1","0","1","0","0","1","0","0","1","0","0","4","2","1","1","2","2","1","2","1","2","1","781502952228786178","汪","67","","","","","","","","","","","","","","","","","","","","","","","","","","","","","","feedback_test","","","","","","","","","","","",""
"null","","null","psychophysics","129","384120","0.0-7.0-0.0-4.0-0.0-0.11","4","3","4","4","4","4","3","1","4","4","5","4","5","4","4","5","5","4","5","5","1","2","5","2","2","1","2","4","1","1","0","0","0","1","0","1","0","0","1","0","0","1","0","0","4","2","1","1","2","2","1","2","1","2","1","781502952228786178","汪","67","","","","null","","","","","","","","","","","","","","key","null","16.65784848484856","720","446","f","false","nonmatch","img/triangle.png","梯形","三角","ALT1","formal_ALT1_1","","","","","","","","","","","",""
"null","<span class='add_' style='color:yellow; font-size: 70px;'> 太慢! </span>","null","html-keyboard-response","130","384623","0.0-7.0-0.0-4.0-0.0-1.11","4","3","4","4","4","4","3","1","4","4","5","4","5","4","4","5","5","4","5","5","1","2","5","2","2","1","2","4","1","1","0","0","0","1","0","1","0","0","1","0","0","1","0","0","4","2","1","1","2","2","1","2","1","2","1","781502952228786178","汪","67","","","","","","","","","","","","","","","","","","","","","","","","","","","","","","feedback_test","","","","","","","","","","","",""
"817","","j","psychophysics","131","386443","0.0-7.0-0.0-4.0-0.0-0.12","4","3","4","4","4","4","3","1","4","4","5","4","5","4","4","5","5","4","5","5","1","2","5","2","2","1","2","4","1","1","0","0","0","1","0","1","0","0","1","0","0","1","0","0","4","2","1","1","2","2","1","2","1","2","1","781502952228786178","汪","67","","","","match","","","","","","","","","","","","","","key","j","16.654999999999912","720","446","j","true","match","img/circle.png","圆形","圆形","ALT1","formal_ALT1_1","","","","","","","","","","","",""
"null","<span style='color:GreenYellow; font-size: 70px;'>正确! </span>","null","html-keyboard-response","132","386944","0.0-7.0-0.0-4.0-0.0-1.12","4","3","4","4","4","4","3","1","4","4","5","4","5","4","4","5","5","4","5","5","1","2","5","2","2","1","2","4","1","1","0","0","0","1","0","1","0","0","1","0","0","1","0","0","4","2","1","1","2","2","1","2","1","2","1","781502952228786178","汪","67","","","","","","","","","","","","","","","","","","","","","","","","","","","","","","feedback_test","","","","","","","","","","","",""
"888","","f","psychophysics","133","388835","0.0-7.0-0.0-4.0-0.0-0.13","4","3","4","4","4","4","3","1","4","4","5","4","5","4","4","5","5","4","5","5","1","2","5","2","2","1","2","4","1","1","0","0","0","1","0","1","0","0","1","0","0","1","0","0","4","2","1","1","2","2","1","2","1","2","1","781502952228786178","汪","67","","","","nonmatch","","","","","","","","","","","","","","key","f","16.654999999999877","720","446","f","true","nonmatch","img/circle.png","三角","圆形","ALT1","formal_ALT1_1","","","","","","","","","","","",""
"null","<span style='color:GreenYellow; font-size: 70px;'>正确! </span>","null","html-keyboard-response","134","389336","0.0-7.0-0.0-4.0-0.0-1.13","4","3","4","4","4","4","3","1","4","4","5","4","5","4","4","5","5","4","5","5","1","2","5","2","2","1","2","4","1","1","0","0","0","1","0","1","0","0","1","0","0","1","0","0","4","2","1","1","2","2","1","2","1","2","1","781502952228786178","汪","67","","","","","","","","","","","","","","","","","","","","","","","","","","","","","","feedback_test","","","","","","","","","","","",""
"1060","","j","psychophysics","135","391400","0.0-7.0-0.0-4.0-0.0-0.14","4","3","4","4","4","4","3","1","4","4","5","4","5","4","4","5","5","4","5","5","1","2","5","2","2","1","2","4","1","1","0","0","0","1","0","1","0","0","1","0","0","1","0","0","4","2","1","1","2","2","1","2","1","2","1","781502952228786178","汪","67","","","","match","","","","","","","","","","","","","","key","j","16.79151639344264","720","446","f","false","nonmatch","img/pentagon.png","梯形","五边","ALT1","formal_ALT1_1","","","","","","","","","","","",""
"null","<span style='color:red; font-size: 70px;'>错误! </span>","null","html-keyboard-response","136","391902","0.0-7.0-0.0-4.0-0.0-1.14","4","3","4","4","4","4","3","1","4","4","5","4","5","4","4","5","5","4","5","5","1","2","5","2","2","1","2","4","1","1","0","0","0","1","0","1","0","0","1","0","0","1","0","0","4","2","1","1","2","2","1","2","1","2","1","781502952228786178","汪","67","","","","","","","","","","","","","","","","","","","","","","","","","","","","","","feedback_test","","","","","","","","","","","",""
"1097","","j","psychophysics","137","394002","0.0-7.0-0.0-4.0-0.0-0.15","4","3","4","4","4","4","3","1","4","4","5","4","5","4","4","5","5","4","5","5","1","2","5","2","2","1","2","4","1","1","0","0","0","1","0","1","0","0","1","0","0","1","0","0","4","2","1","1","2","2","1","2","1","2","1","781502952228786178","汪","67","","","","match","","","","","","","","","","","","","","key","j","16.79234677419393","720","446","f","false","nonmatch","img/trapezoid.png","三角","梯形","ALT1","formal_ALT1_1","","","","","","","","","","","",""
"null","<span style='color:red; font-size: 70px;'>错误! </span>","null","html-keyboard-response","138","394503","0.0-7.0-0.0-4.0-0.0-1.15","4","3","4","4","4","4","3","1","4","4","5","4","5","4","4","5","5","4","5","5","1","2","5","2","2","1","2","4","1","1","0","0","0","1","0","1","0","0","1","0","0","1","0","0","4","2","1","1","2","2","1","2","1","2","1","781502952228786178","汪","67","","","","","","","","","","","","","","","","","","","","","","","","","","","","","","feedback_test","","","","","","","","","","","",""
"1095","","j","psychophysics","139","396602","0.0-7.0-0.0-4.0-0.0-0.16","4","3","4","4","4","4","3","1","4","4","5","4","5","4","4","5","5","4","5","5","1","2","5","2","2","1","2","4","1","1","0","0","0","1","0","1","0","0","1","0","0","1","0","0","4","2","1","1","2","2","1","2","1","2","1","781502952228786178","汪","67","","","","match","","","","","","","","","","","","","","key","j","16.655000000000243","720","446","j","true","match","img/triangle.png","三角","三角","ALT1","formal_ALT1_1","","","","","","","","","","","",""
"null","<span style='color:GreenYellow; font-size: 70px;'>正确! </span>","null","html-keyboard-response","140","397103","0.0-7.0-0.0-4.0-0.0-1.16","4","3","4","4","4","4","3","1","4","4","5","4","5","4","4","5","5","4","5","5","1","2","5","2","2","1","2","4","1","1","0","0","0","1","0","1","0","0","1","0","0","1","0","0","4","2","1","1","2","2","1","2","1","2","1","781502952228786178","汪","67","","","","","","","","","","","","","","","","","","","","","","","","","","","","","","feedback_test","","","","","","","","","","","",""
"909","","j","psychophysics","141","399014","0.0-7.0-0.0-4.0-0.0-0.17","4","3","4","4","4","4","3","1","4","4","5","4","5","4","4","5","5","4","5","5","1","2","5","2","2","1","2","4","1","1","0","0","0","1","0","1","0","0","1","0","0","1","0","0","4","2","1","1","2","2","1","2","1","2","1","781502952228786178","汪","67","","","","match","","","","","","","","","","","","","","key","j","16.655000000000122","720","446","f","false","nonmatch","img/pentagon.png","圆形","五边","ALT1","formal_ALT1_1","","","","","","","","","","","",""
"null","<span style='color:red; font-size: 70px;'>错误! </span>","null","html-keyboard-response","142","399516","0.0-7.0-0.0-4.0-0.0-1.17","4","3","4","4","4","4","3","1","4","4","5","4","5","4","4","5","5","4","5","5","1","2","5","2","2","1","2","4","1","1","0","0","0","1","0","1","0","0","1","0","0","1","0","0","4","2","1","1","2","2","1","2","1","2","1","781502952228786178","汪","67","","","","","","","","","","","","","","","","","","","","","","","","","","","","","","feedback_test","","","","","","","","","","","",""
"1099","","f","psychophysics","143","401618","0.0-7.0-0.0-4.0-0.0-0.18","4","3","4","4","4","4","3","1","4","4","5","4","5","4","4","5","5","4","5","5","1","2","5","2","2","1","2","4","1","1","0","0","0","1","0","1","0","0","1","0","0","1","0","0","4","2","1","1","2","2","1","2","1","2","1","781502952228786178","汪","67","","","","nonmatch","","","","","","","","","","","","","","key","f","16.655","720","446","j","false","match","img/pentagon.png","五边","五边","ALT1","formal_ALT1_1","","","","","","","","","","","",""
"null","<span style='color:red; font-size: 70px;'>错误! </span>","null","html-keyboard-response","144","402120","0.0-7.0-0.0-4.0-0.0-1.18","4","3","4","4","4","4","3","1","4","4","5","4","5","4","4","5","5","4","5","5","1","2","5","2","2","1","2","4","1","1","0","0","0","1","0","1","0","0","1","0","0","1","0","0","4","2","1","1","2","2","1","2","1","2","1","781502952228786178","汪","67","","","","","","","","","","","","","","","","","","","","","","","","","","","","","","feedback_test","","","","","","","","","","","",""
"875","","f","psychophysics","145","403997","0.0-7.0-0.0-4.0-0.0-0.19","4","3","4","4","4","4","3","1","4","4","5","4","5","4","4","5","5","4","5","5","1","2","5","2","2","1","2","4","1","1","0","0","0","1","0","1","0","0","1","0","0","1","0","0","4","2","1","1","2","2","1","2","1","2","1","781502952228786178","汪","67","","","","nonmatch","","","","","","","","","","","","","","key","f","16.658396396396352","720","446","f","true","nonmatch","img/triangle.png","五边","三角","ALT1","formal_ALT1_1","","","","","","","","","","","",""
"null","<span style='color:GreenYellow; font-size: 70px;'>正确! </span>","null","html-keyboard-response","146","404499","0.0-7.0-0.0-4.0-0.0-1.19","4","3","4","4","4","4","3","1","4","4","5","4","5","4","4","5","5","4","5","5","1","2","5","2","2","1","2","4","1","1","0","0","0","1","0","1","0","0","1","0","0","1","0","0","4","2","1","1","2","2","1","2","1","2","1","781502952228786178","汪","67","","","","","","","","","","","","","","","","","","","","","","","","","","","","","","feedback_test","","","","","","","","","","","",""
"1101","","j","psychophysics","147","406603","0.0-7.0-0.0-4.0-0.0-0.20","4","3","4","4","4","4","3","1","4","4","5","4","5","4","4","5","5","4","5","5","1","2","5","2","2","1","2","4","1","1","0","0","0","1","0","1","0","0","1","0","0","1","0","0","4","2","1","1","2","2","1","2","1","2","1","781502952228786178","汪","67","","","","match","","","","","","","","","","","","","","key","j","16.655","720","446","j","true","match","img/trapezoid.png","梯形","梯形","ALT1","formal_ALT1_1","","","","","","","","","","","",""
"null","<span style='color:GreenYellow; font-size: 70px;'>正确! </span>","null","html-keyboard-response","148","407104","0.0-7.0-0.0-4.0-0.0-1.20","4","3","4","4","4","4","3","1","4","4","5","4","5","4","4","5","5","4","5","5","1","2","5","2","2","1","2","4","1","1","0","0","0","1","0","1","0","0","1","0","0","1","0","0","4","2","1","1","2","2","1","2","1","2","1","781502952228786178","汪","67","","","","","","","","","","","","","","","","","","","","","","","","","","","","","","feedback_test","","","","","","","","","","","",""
"1057","","f","psychophysics","149","409163","0.0-7.0-0.0-4.0-0.0-0.21","4","3","4","4","4","4","3","1","4","4","5","4","5","4","4","5","5","4","5","5","1","2","5","2","2","1","2","4","1","1","0","0","0","1","0","1","0","0","1","0","0","1","0","0","4","2","1","1","2","2","1","2","1","2","1","781502952228786178","汪","67","","","","nonmatch","","","","","","","","","","","","","","key","f","16.65500000000002","720","446","f","true","nonmatch","img/triangle.png","圆形","三角","ALT1","formal_ALT1_1","","","","","","","","","","","",""
"null","<span style='color:GreenYellow; font-size: 70px;'>正确! </span>","null","html-keyboard-response","150","409665","0.0-7.0-0.0-4.0-0.0-1.21","4","3","4","4","4","4","3","1","4","4","5","4","5","4","4","5","5","4","5","5","1","2","5","2","2","1","2","4","1","1","0","0","0","1","0","1","0","0","1","0","0","1","0","0","4","2","1","1","2","2","1","2","1","2","1","781502952228786178","汪","67","","","","","","","","","","","","","","","","","","","","","","","","","","","","","","feedback_test","","","","","","","","","","","",""
"909","","f","psychophysics","151","411577","0.0-7.0-0.0-4.0-0.0-0.22","4","3","4","4","4","4","3","1","4","4","5","4","5","4","4","5","5","4","5","5","1","2","5","2","2","1","2","4","1","1","0","0","0","1","0","1","0","0","1","0","0","1","0","0","4","2","1","1","2","2","1","2","1","2","1","781502952228786178","汪","67","","","","nonmatch","","","","","","","","","","","","","","key","f","16.655000000000122","720","446","f","true","nonmatch","img/circle.png","五边","圆形","ALT1","formal_ALT1_1","","","","","","","","","","","",""
"null","<span style='color:GreenYellow; font-size: 70px;'>正确! </span>","null","html-keyboard-response","152","412079","0.0-7.0-0.0-4.0-0.0-1.22","4","3","4","4","4","4","3","1","4","4","5","4","5","4","4","5","5","4","5","5","1","2","5","2","2","1","2","4","1","1","0","0","0","1","0","1","0","0","1","0","0","1","0","0","4","2","1","1","2","2","1","2","1","2","1","781502952228786178","汪","67","","","","","","","","","","","","","","","","","","","","","","","","","","","","","","feedback_test","","","","","","","","","","","",""
"836","","j","psychophysics","153","413918","0.0-7.0-0.0-4.0-0.0-0.23","4","3","4","4","4","4","3","1","4","4","5","4","5","4","4","5","5","4","5","5","1","2","5","2","2","1","2","4","1","1","0","0","0","1","0","1","0","0","1","0","0","1","0","0","4","2","1","1","2","2","1","2","1","2","1","781502952228786178","汪","67","","","","match","","","","","","","","","","","","","","key","j","16.65500000000017","720","446","j","true","match","img/trapezoid.png","梯形","梯形","ALT1","formal_ALT1_1","","","","","","","","","","","",""
"null","<span style='color:GreenYellow; font-size: 70px;'>正确! </span>","null","html-keyboard-response","154","414419","0.0-7.0-0.0-4.0-0.0-1.23","4","3","4","4","4","4","3","1","4","4","5","4","5","4","4","5","5","4","5","5","1","2","5","2","2","1","2","4","1","1","0","0","0","1","0","1","0","0","1","0","0","1","0","0","4","2","1","1","2","2","1","2","1","2","1","781502952228786178","汪","67","","","","","","","","","","","","","","","","","","","","","","","","","","","","","","feedback_test","","","","","","","","","","","",""
"1128","","j","psychophysics","155","416552","0.0-7.0-0.0-4.0-0.0-0.24","4","3","4","4","4","4","3","1","4","4","5","4","5","4","4","5","5","4","5","5","1","2","5","2","2","1","2","4","1","1","0","0","0","1","0","1","0","0","1","0","0","1","0","0","4","2","1","1","2","2","1","2","1","2","1","781502952228786178","汪","67","","","","match","","","","","","","","","","","","","","key","j","16.787182539682522","720","446","f","false","nonmatch","img/trapezoid.png","三角","梯形","ALT1","formal_ALT1_1","","","","","","","","","","","",""
"null","<span style='color:red; font-size: 70px;'>错误! </span>","null","html-keyboard-response","156","417053","0.0-7.0-0.0-4.0-0.0-1.24","4","3","4","4","4","4","3","1","4","4","5","4","5","4","4","5","5","4","5","5","1","2","5","2","2","1","2","4","1","1","0","0","0","1","0","1","0","0","1","0","0","1","0","0","4","2","1","1","2","2","1","2","1","2","1","781502952228786178","汪","67","","","","","","","","","","","","","","","","","","","","","","","","","","","","","","feedback_test","","","","","","","","","","","",""
"909","","j","psychophysics","157","418966","0.0-7.0-0.0-4.0-0.0-0.25","4","3","4","4","4","4","3","1","4","4","5","4","5","4","4","5","5","4","5","5","1","2","5","2","2","1","2","4","1","1","0","0","0","1","0","1","0","0","1","0","0","1","0","0","4","2","1","1","2","2","1","2","1","2","1","781502952228786178","汪","67","","","","match","","","","","","","","","","","","","","key","j","16.655000000000122","720","446","j","true","match","img/triangle.png","三角","三角","ALT1","formal_ALT1_1","","","","","","","","","","","",""
"null","<span style='color:GreenYellow; font-size: 70px;'>正确! </span>","null","html-keyboard-response","158","419467","0.0-7.0-0.0-4.0-0.0-1.25","4","3","4","4","4","4","3","1","4","4","5","4","5","4","4","5","5","4","5","5","1","2","5","2","2","1","2","4","1","1","0","0","0","1","0","1","0","0","1","0","0","1","0","0","4","2","1","1","2","2","1","2","1","2","1","781502952228786178","汪","67","","","","","","","","","","","","","","","","","","","","","","","","","","","","","","feedback_test","","","","","","","","","","","",""
"847","","j","psychophysics","159","421318","0.0-7.0-0.0-4.0-0.0-0.26","4","3","4","4","4","4","3","1","4","4","5","4","5","4","4","5","5","4","5","5","1","2","5","2","2","1","2","4","1","1","0","0","0","1","0","1","0","0","1","0","0","1","0","0","4","2","1","1","2","2","1","2","1","2","1","781502952228786178","汪","67","","","","match","","","","","","","","","","","","","","key","j","16.65500000000017","720","446","j","true","match","img/pentagon.png","五边","五边","ALT1","formal_ALT1_1","","","","","","","","","","","",""
"null","<span style='color:GreenYellow; font-size: 70px;'>正确! </span>","null","html-keyboard-response","160","421819","0.0-7.0-0.0-4.0-0.0-1.26","4","3","4","4","4","4","3","1","4","4","5","4","5","4","4","5","5","4","5","5","1","2","5","2","2","1","2","4","1","1","0","0","0","1","0","1","0","0","1","0","0","1","0","0","4","2","1","1","2","2","1","2","1","2","1","781502952228786178","汪","67","","","","","","","","","","","","","","","","","","","","","","","","","","","","","","feedback_test","","","","","","","","","","","",""
"606","","j","psychophysics","161","423428","0.0-7.0-0.0-4.0-0.0-0.27","4","3","4","4","4","4","3","1","4","4","5","4","5","4","4","5","5","4","5","5","1","2","5","2","2","1","2","4","1","1","0","0","0","1","0","1","0","0","1","0","0","1","0","0","4","2","1","1","2","2","1","2","1","2","1","781502952228786178","汪","67","","","","match","","","","","","","","","","","","","","key","j","16.654999999999756","720","446","j","true","match","img/circle.png","圆形","圆形","ALT1","formal_ALT1_1","","","","","","","","","","","",""
"null","<span style='color:GreenYellow; font-size: 70px;'>正确! </span>","null","html-keyboard-response","162","423929","0.0-7.0-0.0-4.0-0.0-1.27","4","3","4","4","4","4","3","1","4","4","5","4","5","4","4","5","5","4","5","5","1","2","5","2","2","1","2","4","1","1","0","0","0","1","0","1","0","0","1","0","0","1","0","0","4","2","1","1","2","2","1","2","1","2","1","781502952228786178","汪","67","","","","","","","","","","","","","","","","","","","","","","","","","","","","","","feedback_test","","","","","","","","","","","",""
"782","","j","psychophysics","163","425715","0.0-7.0-0.0-4.0-0.0-0.28","4","3","4","4","4","4","3","1","4","4","5","4","5","4","4","5","5","4","5","5","1","2","5","2","2","1","2","4","1","1","0","0","0","1","0","1","0","0","1","0","0","1","0","0","4","2","1","1","2","2","1","2","1","2","1","781502952228786178","汪","67","","","","match","","","","","","","","","","","","","","key","j","16.658547169811154","720","446","j","true","match","img/trapezoid.png","梯形","梯形","ALT1","formal_ALT1_1","","","","","","","","","","","",""
"null","<span style='color:GreenYellow; font-size: 70px;'>正确! </span>","null","html-keyboard-response","164","426216","0.0-7.0-0.0-4.0-0.0-1.28","4","3","4","4","4","4","3","1","4","4","5","4","5","4","4","5","5","4","5","5","1","2","5","2","2","1","2","4","1","1","0","0","0","1","0","1","0","0","1","0","0","1","0","0","4","2","1","1","2","2","1","2","1","2","1","781502952228786178","汪","67","","","","","","","","","","","","","","","","","","","","","","","","","","","","","","feedback_test","","","","","","","","","","","",""
"607","","j","psychophysics","165","427825","0.0-7.0-0.0-4.0-0.0-0.29","4","3","4","4","4","4","3","1","4","4","5","4","5","4","4","5","5","4","5","5","1","2","5","2","2","1","2","4","1","1","0","0","0","1","0","1","0","0","1","0","0","1","0","0","4","2","1","1","2","2","1","2","1","2","1","781502952228786178","汪","67","","","","match","","","","","","","","","","","","","","key","j","16.654999999999756","720","446","j","true","match","img/trapezoid.png","梯形","梯形","ALT1","formal_ALT1_1","","","","","","","","","","","",""
"null","<span style='color:GreenYellow; font-size: 70px;'>正确! </span>","null","html-keyboard-response","166","428327","0.0-7.0-0.0-4.0-0.0-1.29","4","3","4","4","4","4","3","1","4","4","5","4","5","4","4","5","5","4","5","5","1","2","5","2","2","1","2","4","1","1","0","0","0","1","0","1","0","0","1","0","0","1","0","0","4","2","1","1","2","2","1","2","1","2","1","781502952228786178","汪","67","","","","","","","","","","","","","","","","","","","","","","","","","","","","","","feedback_test","","","","","","","","","","","",""
"916","","f","psychophysics","167","430247","0.0-7.0-0.0-4.0-0.0-0.30","4","3","4","4","4","4","3","1","4","4","5","4","5","4","4","5","5","4","5","5","1","2","5","2","2","1","2","4","1","1","0","0","0","1","0","1","0","0","1","0","0","1","0","0","4","2","1","1","2","2","1","2","1","2","1","781502952228786178","汪","67","","","","nonmatch","","","","","","","","","","","","","","key","f","16.80109649122766","720","446","f","true","nonmatch","img/pentagon.png","梯形","五边","ALT1","formal_ALT1_1","","","","","","","","","","","",""
"null","<span style='color:GreenYellow; font-size: 70px;'>正确! </span>","null","html-keyboard-response","168","430749","0.0-7.0-0.0-4.0-0.0-1.30","4","3","4","4","4","4","3","1","4","4","5","4","5","4","4","5","5","4","5","5","1","2","5","2","2","1","2","4","1","1","0","0","0","1","0","1","0","0","1","0","0","1","0","0","4","2","1","1","2","2","1","2","1","2","1","781502952228786178","汪","67","","","","","","","","","","","","","","","","","","","","","","","","","","","","","","feedback_test","","","","","","","","","","","",""
"691","","f","psychophysics","169","432443","0.0-7.0-0.0-4.0-0.0-0.31","4","3","4","4","4","4","3","1","4","4","5","4","5","4","4","5","5","4","5","5","1","2","5","2","2","1","2","4","1","1","0","0","0","1","0","1","0","0","1","0","0","1","0","0","4","2","1","1","2","2","1","2","1","2","1","781502952228786178","汪","67","","","","nonmatch","","","","","","","","","","","","","","key","f","16.655","720","446","j","false","match","img/triangle.png","三角","三角","ALT1","formal_ALT1_1","","","","","","","","","","","",""
"null","<span style='color:red; font-size: 70px;'>错误! </span>","null","html-keyboard-response","170","432944","0.0-7.0-0.0-4.0-0.0-1.31","4","3","4","4","4","4","3","1","4","4","5","4","5","4","4","5","5","4","5","5","1","2","5","2","2","1","2","4","1","1","0","0","0","1","0","1","0","0","1","0","0","1","0","0","4","2","1","1","2","2","1","2","1","2","1","781502952228786178","汪","67","","","","","","","","","","","","","","","","","","","","","","","","","","","","","","feedback_test","","","","","","","","","","","",""
"870","","f","psychophysics","171","434817","0.0-7.0-0.0-4.0-0.0-0.32","4","3","4","4","4","4","3","1","4","4","5","4","5","4","4","5","5","4","5","5","1","2","5","2","2","1","2","4","1","1","0","0","0","1","0","1","0","0","1","0","0","1","0","0","4","2","1","1","2","2","1","2","1","2","1","781502952228786178","汪","67","","","","nonmatch","","","","","","","","","","","","","","key","f","16.65838738738744","720","446","f","true","nonmatch","img/trapezoid.png","圆形","梯形","ALT1","formal_ALT1_1","","","","","","","","","","","",""
"null","<span style='color:GreenYellow; font-size: 70px;'>正确! </span>","null","html-keyboard-response","172","435318","0.0-7.0-0.0-4.0-0.0-1.32","4","3","4","4","4","4","3","1","4","4","5","4","5","4","4","5","5","4","5","5","1","2","5","2","2","1","2","4","1","1","0","0","0","1","0","1","0","0","1","0","0","1","0","0","4","2","1","1","2","2","1","2","1","2","1","781502952228786178","汪","67","","","","","","","","","","","","","","","","","","","","","","","","","","","","","","feedback_test","","","","","","","","","","","",""
"908","","f","psychophysics","173","437229","0.0-7.0-0.0-4.0-0.0-0.33","4","3","4","4","4","4","3","1","4","4","5","4","5","4","4","5","5","4","5","5","1","2","5","2","2","1","2","4","1","1","0","0","0","1","0","1","0","0","1","0","0","1","0","0","4","2","1","1","2","2","1","2","1","2","1","781502952228786178","汪","67","","","","nonmatch","","","","","","","","","","","","","","key","f","16.654999999999855","720","446","f","true","nonmatch","img/circle.png","五边","圆形","ALT1","formal_ALT1_1","","","","","","","","","","","",""
"null","<span style='color:GreenYellow; font-size: 70px;'>正确! </span>","null","html-keyboard-response","174","437730","0.0-7.0-0.0-4.0-0.0-1.33","4","3","4","4","4","4","3","1","4","4","5","4","5","4","4","5","5","4","5","5","1","2","5","2","2","1","2","4","1","1","0","0","0","1","0","1","0","0","1","0","0","1","0","0","4","2","1","1","2","2","1","2","1","2","1","781502952228786178","汪","67","","","","","","","","","","","","","","","","","","","","","","","","","","","","","","feedback_test","","","","","","","","","","","",""
"1063","","j","psychophysics","175","439797","0.0-7.0-0.0-4.0-0.0-0.34","4","3","4","4","4","4","3","1","4","4","5","4","5","4","4","5","5","4","5","5","1","2","5","2","2","1","2","4","1","1","0","0","0","1","0","1","0","0","1","0","0","1","0","0","4","2","1","1","2","2","1","2","1","2","1","781502952228786178","汪","67","","","","match","","","","","","","","","","","","","","key","j","16.65500000000002","720","446","j","true","match","img/trapezoid.png","梯形","梯形","ALT1","formal_ALT1_1","","","","","","","","","","","",""
"null","<span style='color:GreenYellow; font-size: 70px;'>正确! </span>","null","html-keyboard-response","176","440298","0.0-7.0-0.0-4.0-0.0-1.34","4","3","4","4","4","4","3","1","4","4","5","4","5","4","4","5","5","4","5","5","1","2","5","2","2","1","2","4","1","1","0","0","0","1","0","1","0","0","1","0","0","1","0","0","4","2","1","1","2","2","1","2","1","2","1","781502952228786178","汪","67","","","","","","","","","","","","","","","","","","","","","","","","","","","","","","feedback_test","","","","","","","","","","","",""
"665","","j","psychophysics","177","441967","0.0-7.0-0.0-4.0-0.0-0.35","4","3","4","4","4","4","3","1","4","4","5","4","5","4","4","5","5","4","5","5","1","2","5","2","2","1","2","4","1","1","0","0","0","1","0","1","0","0","1","0","0","1","0","0","4","2","1","1","2","2","1","2","1","2","1","781502952228786178","汪","67","","","","match","","","","","","","","","","","","","","key","j","16.82494897959155","720","446","j","true","match","img/circle.png","圆形","圆形","ALT1","formal_ALT1_1","","","","","","","","","","","",""
"null","<span style='color:GreenYellow; font-size: 70px;'>正确! </span>","null","html-keyboard-response","178","442468","0.0-7.0-0.0-4.0-0.0-1.35","4","3","4","4","4","4","3","1","4","4","5","4","5","4","4","5","5","4","5","5","1","2","5","2","2","1","2","4","1","1","0","0","0","1","0","1","0","0","1","0","0","1","0","0","4","2","1","1","2","2","1","2","1","2","1","781502952228786178","汪","67","","","","","","","","","","","","","","","","","","","","","","","","","","","","","","feedback_test","","","","","","","","","","","",""
"696","","f","psychophysics","179","444167","0.0-7.0-0.0-4.0-0.0-0.36","4","3","4","4","4","4","3","1","4","4","5","4","5","4","4","5","5","4","5","5","1","2","5","2","2","1","2","4","1","1","0","0","0","1","0","1","0","0","1","0","0","1","0","0","4","2","1","1","2","2","1","2","1","2","1","781502952228786178","汪","67","","","","nonmatch","","","","","","","","","","","","","","key","f","16.658769999999787","720","446","f","true","nonmatch","img/circle.png","梯形","圆形","ALT1","formal_ALT1_1","","","","","","","","","","","",""
"null","<span style='color:GreenYellow; font-size: 70px;'>正确! </span>","null","html-keyboard-response","180","444668","0.0-7.0-0.0-4.0-0.0-1.36","4","3","4","4","4","4","3","1","4","4","5","4","5","4","4","5","5","4","5","5","1","2","5","2","2","1","2","4","1","1","0","0","0","1","0","1","0","0","1","0","0","1","0","0","4","2","1","1","2","2","1","2","1","2","1","781502952228786178","汪","67","","","","","","","","","","","","","","","","","","","","","","","","","","","","","","feedback_test","","","","","","","","","","","",""
"723","","f","psychophysics","181","446394","0.0-7.0-0.0-4.0-0.0-0.37","4","3","4","4","4","4","3","1","4","4","5","4","5","4","4","5","5","4","5","5","1","2","5","2","2","1","2","4","1","1","0","0","0","1","0","1","0","0","1","0","0","1","0","0","4","2","1","1","2","2","1","2","1","2","1","781502952228786178","汪","67","","","","nonmatch","","","","","","","","","","","","","","key","f","16.654999999999976","720","446","f","true","nonmatch","img/triangle.png","圆形","三角","ALT1","formal_ALT1_1","","","","","","","","","","","",""
