"rt","stimulus","response","trial_type","trial_index","time_elapsed","internal_node_id","ses_1","ses_2","ses_3","ses_4","ses_5","ses_6","ses_7","ses_8","ses_9","ses_10","coreself_1","coreself_2","coreself_3","coreself_4","coreself_5","coreself_6","coreself_7","coreself_8","coreself_9","coreself_10","SGPS_1","SGPS_2","SGPS_3","SGPS_4","SGPS_5","SGPS_6","SGPS_7","SGPS_8","SGPS_9","NPI1","NPI2","NPI3","NPI4","NPI5","NPI6","NPI7","NPI8","NPI9","NPI10","NPI11","NPI12","NPI13","NPI14","NPI15","hsns_1","hsns_2","hsns_3","hsns_4","hsns_5","trap1","hsns_6","hsns_7","hsns_8","hsns_9","hsns_10","subj_idx","friend_name","ParticipantID","value","success","user_agent","responses","item_order","radio_event_ids","radio_event_times","key_event_times","mouse_event_times","straightlining","zigzagging","honeypot","timeout","failed_images","failed_audio","failed_video","version_attrib","version_target","correct","IAT","screen_id","task_id","RT","condition","word","varname","summary","version_attrib2","version_target2","time_stamp","view_history","response_type","key_press","avg_frame_time","center_x","center_y","correct_response","identity","Image","question_order","correct_answer","trap1_item"
"9941","
   <p><div style = ""color: white;font-size:25px;"">您好，欢迎参加本次实验。</div> </p>
   <p><div style = ""color: white;font-size:25px;"">为充分保障您的权利，请确保您已经知晓并同意《参与实验同意书》以及《数据公开知情同意书》。</div></p>
   <p><div style = ""color: white;font-size:25px;"">如果您未见过上述内容，请咨询实验员。</div></p>
   <p><div style = ""color: white;font-size:25px;"">如果您选择继续实验，则表示您已经清楚两份知情同意书的内容并同意。</div></p>
   <p><div style = ""color: pink;font-size:30px;"">请确保您记得day0的实验编号，您将在本次实验输入该编号，若您忘记，请咨询实验员后作答。</div></p>
   <p><div style = ""color: lightblue;font-size:25px;"">请您尽可能认真地作答，我们将依据您在各问卷和按键任务中的作答质量发放报酬。</div></p>
   <p> <div style = ""color: green;font-size:25px;""><按空格键至下页></div> </p>
   "," ","html-keyboard-response","0","9945","0.0-0.0","3","3","4","4","3","3","3","4","3","3","5","2","1","4","4","4","4","2","4","4","2","5","2","5","3","2","2","4","2","1","0","0","1","0","0","1","1","1","1","1","0","0","0","1","5","3","5","1","2","4","4","5","5","2","1","799230569765543938","仲","102","","","","","","","","","","","","","","","","","","","","","","","","","","","","","","","","","","","","","","","","","",""
"","","","call-function","1","9948","0.0-1.0-0.0","3","3","4","4","3","3","3","4","3","3","5","2","1","4","4","4","4","2","4","4","2","5","2","5","3","2","2","4","2","1","0","0","1","0","0","1","1","1","1","1","0","0","0","1","5","3","5","1","2","4","4","5","5","2","1","799230569765543938","仲","102","","","","","","","","","","","","","","","","","","","","","","","","","","","","","","","","","","","","","","","","","",""
"41101","","{""friend_name"":""仲"",""ParticipantID"":""102""}","survey-html-form","2","51050","0.0-1.0-1.0","3","3","4","4","3","3","3","4","3","3","5","2","1","4","4","4","4","2","4","4","2","5","2","5","3","2","2","4","2","1","0","0","1","0","0","1","1","1","1","1","0","0","0","1","5","3","5","1","2","4","4","5","5","2","1","799230569765543938","仲","102","","","","","","","","","","","","","","","","","","","","","","","","","","","","","","","","","","","","","","","","","",""
"","","","fullscreen","3","79432","0.0-2.0","3","3","4","4","3","3","3","4","3","3","5","2","1","4","4","4","4","2","4","4","2","5","2","5","3","2","2","4","2","1","0","0","1","0","0","1","1","1","1","1","0","0","0","1","5","3","5","1","2","4","4","5","5","2","1","799230569765543938","仲","102","","true","{}","","","","","","","","","","","","","","","","","","","","","","","","","","","","","","","","","","","","","","",""
"47686.79999999702","","{""Q01"":""3"",""Q02"":""3"",""Q03"":""4"",""Q04"":""4"",""Q05"":""3"",""Q06"":""3"",""Q07"":""3"",""Q08"":""4"",""Q09"":""3"",""Q10"":""3""}","survey-template","4","127124","0.0-3.0","3","3","4","4","3","3","3","4","3","3","5","2","1","4","4","4","4","2","4","4","2","5","2","5","3","2","2","4","2","1","0","0","1","0","0","1","1","1","1","1","0","0","0","1","5","3","5","1","2","4","4","5","5","2","1","799230569765543938","仲","102","","","","{""Q01"":""3"",""Q02"":""3"",""Q03"":""4"",""Q04"":""4"",""Q05"":""3"",""Q06"":""3"",""Q07"":""3"",""Q08"":""4"",""Q09"":""3"",""Q10"":""3""}","[0,1,2,3,4,5,6,7,8,9]","[""Q01"",""Q02"",""Q03"",""Q04"",""Q05"",""Q05"",""Q06"",""Q07"",""Q08"",""Q09"",""Q10""]","[9830.39999999851,10846.19999999553,13640,16454.29999999702,25349,26701.29999999702,28044.29999999702,29750.10000000149,36310.89999999851,43046.19999999553,43789.10000000149]","[]","[9830.39999999851,10846.19999999553,13640,15649.29999999702,16454.29999999702,25349,26701.29999999702,28044.29999999702,29750.10000000149,36310.89999999851,43046.19999999553,43789.10000000149,47685.29999999702]","0.4","0.3333333333333333","0","","","","","","","","","","","","","","","","","","","","","","","","","","","","","",""
"60724.39999999851","","{""Q01"":""5"",""Q02"":""2"",""Q03"":""1"",""Q04"":""4"",""Q05"":""4"",""Q06"":""4"",""Q07"":""4"",""Q08"":""2"",""Q09"":""4"",""Q10"":""4""}","survey-template","5","187855","0.0-4.0","3","3","4","4","3","3","3","4","3","3","5","2","1","4","4","4","4","2","4","4","2","5","2","5","3","2","2","4","2","1","0","0","1","0","0","1","1","1","1","1","0","0","0","1","5","3","5","1","2","4","4","5","5","2","1","799230569765543938","仲","102","","","","{""Q01"":""5"",""Q02"":""2"",""Q03"":""1"",""Q04"":""4"",""Q05"":""4"",""Q06"":""4"",""Q07"":""4"",""Q08"":""2"",""Q09"":""4"",""Q10"":""4""}","[0,1,2,3,4,5,6,7,8,9]","[""Q01"",""Q03"",""Q02"",""Q04"",""Q06"",""Q05"",""Q07"",""Q08"",""Q09"",""Q10""]","[6663.79999999702,15839.29999999702,22913.79999999702,24343.79999999702,31128.69999999553,36470.69999999553,49412.19999999553,51150.59999999404,53087.79999999702,58392.89999999851]","[]","[6663.79999999702,15839.29999999702,22913.79999999702,24343.79999999702,31128.69999999553,36470.69999999553,49412.19999999553,51150.59999999404,53087.79999999702,58392.89999999851,59439.5,60721]","0.5","0.3333333333333333","0","","","","","","","","","","","","","","","","","","","","","","","","","","","","","",""
"","","","preload","6","188212","0.0-5.0","3","3","4","4","3","3","3","4","3","3","5","2","1","4","4","4","4","2","4","4","2","5","2","5","3","2","2","4","2","1","0","0","1","0","0","1","1","1","1","1","0","0","0","1","5","3","5","1","2","4","4","5","5","2","1","799230569765543938","仲","102","","true","","","","","","","","","","","false","[]","[]","[]","","","","","","","","","","","","","","","","","","","","","","","","","",""
"13597","
    <h3>词语分类任务</h3>
    <p>在接下来的任务中，你需要对一系列词语进行分类。</p>
    <p>请先熟悉这些词语，这有利于你完成接下来的任务。</p>
    <table align=""center"" border=1 cellpadding=3 cellspacing=0>
    <tr> <th>类别</th> <th>词语</th> </tr>
    <tr> <td>&emsp;积极&emsp;</td> <td>&emsp;能干、全能、全才、高效、精干、天才&emsp;</td> </tr>
    <tr> <td>&emsp;消极&emsp;</td> <td>&emsp;无能、低能、废物、拙笨、愚钝、蠢笨&emsp;</td> </tr>
    <tr> <td>&emsp;自我&emsp;</td> <td>&emsp;我、我的、自己、自己的、本人、本人的&emsp;</td> </tr>
    <tr> <td>&emsp;他人&emsp;</td> <td>&emsp;他、他的、别人、别人的、他人、他人的&emsp;</td> </tr>
    </table><br/>","0","html-button-response","7","201811","0.0-6.0-0.0-0.0","3","3","4","4","3","3","3","4","3","3","5","2","1","4","4","4","4","2","4","4","2","5","2","5","3","2","2","4","2","1","0","0","1","0","0","1","1","1","1","1","0","0","0","1","5","3","5","1","2","4","4","5","5","2","1","799230569765543938","仲","102","","","","","","","","","","","","","","","","","2","1","","","","","","","","","","","","","","","","","","","","","","","",""
"23965","
    <div class=""tag-bottom"">
    <p> —— 任务1：对“自我”词和“他人”词分类 ——<p/>
    不同词语会出现在屏幕中央，类别标签将始终显示在屏幕上方<p/>   
    <span style=""color:#FFD866""><b>请根据上方标签的提示，尽可能正确并且快速地做出按键反应</b></span><p/>
    当按键错误时屏幕中会出现<span style=""color:red""> X </span>，需要按另一个键纠正才能继续<br/><p/>
    请把双手食指分别放在键盘的“E”键和“I”键上<p/>
    按<空格键>开始
    </p></div>"," ","html-keyboard-response","8","225780","0.0-6.0-0.0-1.0","3","3","4","4","3","3","3","4","3","3","5","2","1","4","4","4","4","2","4","4","2","5","2","5","3","2","2","4","2","1","0","0","1","0","0","1","1","1","1","1","0","0","0","1","5","3","5","1","2","4","4","5","5","2","1","799230569765543938","仲","102","","","","","","","","","","","","","","","","","","","","","","","","","","","","","","","","","","","","","","","","","",""
"null","","null","html-keyboard-response","9","226031","0.0-6.0-0.0-2.0-0.0","3","3","4","4","3","3","3","4","3","3","5","2","1","4","4","4","4","2","4","4","2","5","2","5","3","2","2","4","2","1","0","0","1","0","0","1","1","1","1","1","0","0","0","1","5","3","5","1","2","4","4","5","5","2","1","799230569765543938","仲","102","","","","","","","","","","","","","","","","","","","","","","","","","","","","","","","","","","","","","","","","","",""
"1033","<p style=""color:rgb(150, 250, 100); font-size: 35px;"">本人</p>","e","categorize-html","10","227070","0.0-6.0-0.0-2.0-1.0","3","3","4","4","3","3","3","4","3","3","5","2","1","4","4","4","4","2","4","4","2","5","2","5","3","2","2","4","2","1","0","0","1","0","0","1","1","1","1","1","0","0","0","1","5","3","5","1","2","4","4","5","5","2","1","799230569765543938","仲","102","","","","","","","","","","","","","","","","","","","true","1","1","ability","1033","self","本人","","","","","","","","","","","","","","","","",""
"null","","null","html-keyboard-response","11","227322","0.0-6.0-0.0-2.0-0.1","3","3","4","4","3","3","3","4","3","3","5","2","1","4","4","4","4","2","4","4","2","5","2","5","3","2","2","4","2","1","0","0","1","0","0","1","1","1","1","1","0","0","0","1","5","3","5","1","2","4","4","5","5","2","1","799230569765543938","仲","102","","","","","","","","","","","","","","","","","","","","","","","","","","","","","","","","","","","","","","","","","",""
"711","<p style=""color:rgb(150, 250, 100); font-size: 35px;"">别人</p>","i","categorize-html","12","228036","0.0-6.0-0.0-2.0-1.1","3","3","4","4","3","3","3","4","3","3","5","2","1","4","4","4","4","2","4","4","2","5","2","5","3","2","2","4","2","1","0","0","1","0","0","1","1","1","1","1","0","0","0","1","5","3","5","1","2","4","4","5","5","2","1","799230569765543938","仲","102","","","","","","","","","","","","","","","","","","","true","1","1","ability","711","other","别人","","","","","","","","","","","","","","","","",""
"null","","null","html-keyboard-response","13","228288","0.0-6.0-0.0-2.0-0.2","3","3","4","4","3","3","3","4","3","3","5","2","1","4","4","4","4","2","4","4","2","5","2","5","3","2","2","4","2","1","0","0","1","0","0","1","1","1","1","1","0","0","0","1","5","3","5","1","2","4","4","5","5","2","1","799230569765543938","仲","102","","","","","","","","","","","","","","","","","","","","","","","","","","","","","","","","","","","","","","","","","",""
"611","<p style=""color:rgb(150, 250, 100); font-size: 35px;"">他人的</p>","i","categorize-html","14","228902","0.0-6.0-0.0-2.0-1.2","3","3","4","4","3","3","3","4","3","3","5","2","1","4","4","4","4","2","4","4","2","5","2","5","3","2","2","4","2","1","0","0","1","0","0","1","1","1","1","1","0","0","0","1","5","3","5","1","2","4","4","5","5","2","1","799230569765543938","仲","102","","","","","","","","","","","","","","","","","","","true","1","1","ability","611","other","他人的","","","","","","","","","","","","","","","","",""
"null","","null","html-keyboard-response","15","229154","0.0-6.0-0.0-2.0-0.3","3","3","4","4","3","3","3","4","3","3","5","2","1","4","4","4","4","2","4","4","2","5","2","5","3","2","2","4","2","1","0","0","1","0","0","1","1","1","1","1","0","0","0","1","5","3","5","1","2","4","4","5","5","2","1","799230569765543938","仲","102","","","","","","","","","","","","","","","","","","","","","","","","","","","","","","","","","","","","","","","","","",""
"468","<p style=""color:rgb(150, 250, 100); font-size: 35px;"">他人</p>","i","categorize-html","16","229625","0.0-6.0-0.0-2.0-1.3","3","3","4","4","3","3","3","4","3","3","5","2","1","4","4","4","4","2","4","4","2","5","2","5","3","2","2","4","2","1","0","0","1","0","0","1","1","1","1","1","0","0","0","1","5","3","5","1","2","4","4","5","5","2","1","799230569765543938","仲","102","","","","","","","","","","","","","","","","","","","true","1","1","ability","468","other","他人","","","","","","","","","","","","","","","","",""
"null","","null","html-keyboard-response","17","229876","0.0-6.0-0.0-2.0-0.4","3","3","4","4","3","3","3","4","3","3","5","2","1","4","4","4","4","2","4","4","2","5","2","5","3","2","2","4","2","1","0","0","1","0","0","1","1","1","1","1","0","0","0","1","5","3","5","1","2","4","4","5","5","2","1","799230569765543938","仲","102","","","","","","","","","","","","","","","","","","","","","","","","","","","","","","","","","","","","","","","","","",""
"473","<p style=""color:rgb(150, 250, 100); font-size: 35px;"">他的</p>","i","categorize-html","18","230353","0.0-6.0-0.0-2.0-1.4","3","3","4","4","3","3","3","4","3","3","5","2","1","4","4","4","4","2","4","4","2","5","2","5","3","2","2","4","2","1","0","0","1","0","0","1","1","1","1","1","0","0","0","1","5","3","5","1","2","4","4","5","5","2","1","799230569765543938","仲","102","","","","","","","","","","","","","","","","","","","true","1","1","ability","473","other","他的","","","","","","","","","","","","","","","","",""
"null","","null","html-keyboard-response","19","230605","0.0-6.0-0.0-2.0-0.5","3","3","4","4","3","3","3","4","3","3","5","2","1","4","4","4","4","2","4","4","2","5","2","5","3","2","2","4","2","1","0","0","1","0","0","1","1","1","1","1","0","0","0","1","5","3","5","1","2","4","4","5","5","2","1","799230569765543938","仲","102","","","","","","","","","","","","","","","","","","","","","","","","","","","","","","","","","","","","","","","","","",""
"474","<p style=""color:rgb(150, 250, 100); font-size: 35px;"">别人的</p>","i","categorize-html","20","231082","0.0-6.0-0.0-2.0-1.5","3","3","4","4","3","3","3","4","3","3","5","2","1","4","4","4","4","2","4","4","2","5","2","5","3","2","2","4","2","1","0","0","1","0","0","1","1","1","1","1","0","0","0","1","5","3","5","1","2","4","4","5","5","2","1","799230569765543938","仲","102","","","","","","","","","","","","","","","","","","","true","1","1","ability","474","other","别人的","","","","","","","","","","","","","","","","",""
"null","","null","html-keyboard-response","21","231334","0.0-6.0-0.0-2.0-0.6","3","3","4","4","3","3","3","4","3","3","5","2","1","4","4","4","4","2","4","4","2","5","2","5","3","2","2","4","2","1","0","0","1","0","0","1","1","1","1","1","0","0","0","1","5","3","5","1","2","4","4","5","5","2","1","799230569765543938","仲","102","","","","","","","","","","","","","","","","","","","","","","","","","","","","","","","","","","","","","","","","","",""
"443","<p style=""color:rgb(150, 250, 100); font-size: 35px;"">他</p>","i","categorize-html","22","231781","0.0-6.0-0.0-2.0-1.6","3","3","4","4","3","3","3","4","3","3","5","2","1","4","4","4","4","2","4","4","2","5","2","5","3","2","2","4","2","1","0","0","1","0","0","1","1","1","1","1","0","0","0","1","5","3","5","1","2","4","4","5","5","2","1","799230569765543938","仲","102","","","","","","","","","","","","","","","","","","","true","1","1","ability","443","other","他","","","","","","","","","","","","","","","","",""
"null","","null","html-keyboard-response","23","232033","0.0-6.0-0.0-2.0-0.7","3","3","4","4","3","3","3","4","3","3","5","2","1","4","4","4","4","2","4","4","2","5","2","5","3","2","2","4","2","1","0","0","1","0","0","1","1","1","1","1","0","0","0","1","5","3","5","1","2","4","4","5","5","2","1","799230569765543938","仲","102","","","","","","","","","","","","","","","","","","","","","","","","","","","","","","","","","","","","","","","","","",""
"421","<p style=""color:rgb(150, 250, 100); font-size: 35px;"">自己</p>","e","categorize-html","24","232457","0.0-6.0-0.0-2.0-1.7","3","3","4","4","3","3","3","4","3","3","5","2","1","4","4","4","4","2","4","4","2","5","2","5","3","2","2","4","2","1","0","0","1","0","0","1","1","1","1","1","0","0","0","1","5","3","5","1","2","4","4","5","5","2","1","799230569765543938","仲","102","","","","","","","","","","","","","","","","","","","true","1","1","ability","421","self","自己","","","","","","","","","","","","","","","","",""
"null","","null","html-keyboard-response","25","232709","0.0-6.0-0.0-2.0-0.8","3","3","4","4","3","3","3","4","3","3","5","2","1","4","4","4","4","2","4","4","2","5","2","5","3","2","2","4","2","1","0","0","1","0","0","1","1","1","1","1","0","0","0","1","5","3","5","1","2","4","4","5","5","2","1","799230569765543938","仲","102","","","","","","","","","","","","","","","","","","","","","","","","","","","","","","","","","","","","","","","","","",""
"456","<p style=""color:rgb(150, 250, 100); font-size: 35px;"">我的</p>","e","categorize-html","26","233169","0.0-6.0-0.0-2.0-1.8","3","3","4","4","3","3","3","4","3","3","5","2","1","4","4","4","4","2","4","4","2","5","2","5","3","2","2","4","2","1","0","0","1","0","0","1","1","1","1","1","0","0","0","1","5","3","5","1","2","4","4","5","5","2","1","799230569765543938","仲","102","","","","","","","","","","","","","","","","","","","true","1","1","ability","456","self","我的","","","","","","","","","","","","","","","","",""
"null","","null","html-keyboard-response","27","233421","0.0-6.0-0.0-2.0-0.9","3","3","4","4","3","3","3","4","3","3","5","2","1","4","4","4","4","2","4","4","2","5","2","5","3","2","2","4","2","1","0","0","1","0","0","1","1","1","1","1","0","0","0","1","5","3","5","1","2","4","4","5","5","2","1","799230569765543938","仲","102","","","","","","","","","","","","","","","","","","","","","","","","","","","","","","","","","","","","","","","","","",""
"411","<p style=""color:rgb(150, 250, 100); font-size: 35px;"">自己的</p>","e","categorize-html","28","233836","0.0-6.0-0.0-2.0-1.9","3","3","4","4","3","3","3","4","3","3","5","2","1","4","4","4","4","2","4","4","2","5","2","5","3","2","2","4","2","1","0","0","1","0","0","1","1","1","1","1","0","0","0","1","5","3","5","1","2","4","4","5","5","2","1","799230569765543938","仲","102","","","","","","","","","","","","","","","","","","","true","1","1","ability","411","self","自己的","","","","","","","","","","","","","","","","",""
"null","","null","html-keyboard-response","29","234087","0.0-6.0-0.0-2.0-0.10","3","3","4","4","3","3","3","4","3","3","5","2","1","4","4","4","4","2","4","4","2","5","2","5","3","2","2","4","2","1","0","0","1","0","0","1","1","1","1","1","0","0","0","1","5","3","5","1","2","4","4","5","5","2","1","799230569765543938","仲","102","","","","","","","","","","","","","","","","","","","","","","","","","","","","","","","","","","","","","","","","","",""
"480","<p style=""color:rgb(150, 250, 100); font-size: 35px;"">本人的</p>","e","categorize-html","30","234571","0.0-6.0-0.0-2.0-1.10","3","3","4","4","3","3","3","4","3","3","5","2","1","4","4","4","4","2","4","4","2","5","2","5","3","2","2","4","2","1","0","0","1","0","0","1","1","1","1","1","0","0","0","1","5","3","5","1","2","4","4","5","5","2","1","799230569765543938","仲","102","","","","","","","","","","","","","","","","","","","true","1","1","ability","480","self","本人的","","","","","","","","","","","","","","","","",""
"null","","null","html-keyboard-response","31","234823","0.0-6.0-0.0-2.0-0.11","3","3","4","4","3","3","3","4","3","3","5","2","1","4","4","4","4","2","4","4","2","5","2","5","3","2","2","4","2","1","0","0","1","0","0","1","1","1","1","1","0","0","0","1","5","3","5","1","2","4","4","5","5","2","1","799230569765543938","仲","102","","","","","","","","","","","","","","","","","","","","","","","","","","","","","","","","","","","","","","","","","",""
"462","<p style=""color:rgb(150, 250, 100); font-size: 35px;"">我</p>","e","categorize-html","32","235290","0.0-6.0-0.0-2.0-1.11","3","3","4","4","3","3","3","4","3","3","5","2","1","4","4","4","4","2","4","4","2","5","2","5","3","2","2","4","2","1","0","0","1","0","0","1","1","1","1","1","0","0","0","1","5","3","5","1","2","4","4","5","5","2","1","799230569765543938","仲","102","","","","","","","","","","","","","","","","","","","true","1","1","ability","462","self","我","","","","","","","","","","","","","","","","",""
"12699","
    <div class=""tag-bottom""><p>
    —— 任务2：对“消极”词和“积极”词分类 ——<p/>   
    <span style=""color:#78DCE8""><b>注意上方，类别标签和需要分类的词语都已经改变</b></span><p/>
    <span style=""color:#FFD866""><b>请根据上方标签的提示，尽可能正确并且快速地做出按键反应</b></span><p/>
    当按键错误时屏幕中会出现<span style=""color:red""> X </span>，需要按另一个键纠正才能继续<br/><p/>
    请把双手食指分别放在键盘的“E”键和“I”键上<p/>
    按<空格键>开始
    </p></div>"," ","html-keyboard-response","33","247990","0.0-6.0-0.0-3.0","3","3","4","4","3","3","3","4","3","3","5","2","1","4","4","4","4","2","4","4","2","5","2","5","3","2","2","4","2","1","0","0","1","0","0","1","1","1","1","1","0","0","0","1","5","3","5","1","2","4","4","5","5","2","1","799230569765543938","仲","102","","","","","","","","","","","","","","","","","","","","","","","","","","","","","","","","","","","","","","","","","",""
"null","","null","html-keyboard-response","34","248241","0.0-6.0-0.0-4.0-0.0","3","3","4","4","3","3","3","4","3","3","5","2","1","4","4","4","4","2","4","4","2","5","2","5","3","2","2","4","2","1","0","0","1","0","0","1","1","1","1","1","0","0","0","1","5","3","5","1","2","4","4","5","5","2","1","799230569765543938","仲","102","","","","","","","","","","","","","","","","","","","","","","","","","","","","","","","","","","","","","","","","","",""
"474","<p style=""color:white; font-size: 35px;"">高效</p>","i","categorize-html","35","248719","0.0-6.0-0.0-4.0-1.0","3","3","4","4","3","3","3","4","3","3","5","2","1","4","4","4","4","2","4","4","2","5","2","5","3","2","2","4","2","1","0","0","1","0","0","1","1","1","1","1","0","0","0","1","5","3","5","1","2","4","4","5","5","2","1","799230569765543938","仲","102","","","","","","","","","","","","","","","","","","","true","2","2","ability","474","positive","高效","","","","","","","","","","","","","","","","",""
"null","","null","html-keyboard-response","36","248971","0.0-6.0-0.0-4.0-0.1","3","3","4","4","3","3","3","4","3","3","5","2","1","4","4","4","4","2","4","4","2","5","2","5","3","2","2","4","2","1","0","0","1","0","0","1","1","1","1","1","0","0","0","1","5","3","5","1","2","4","4","5","5","2","1","799230569765543938","仲","102","","","","","","","","","","","","","","","","","","","","","","","","","","","","","","","","","","","","","","","","","",""
"439","<p style=""color:white; font-size: 35px;"">蠢笨</p>","e","categorize-html","37","249414","0.0-6.0-0.0-4.0-1.1","3","3","4","4","3","3","3","4","3","3","5","2","1","4","4","4","4","2","4","4","2","5","2","5","3","2","2","4","2","1","0","0","1","0","0","1","1","1","1","1","0","0","0","1","5","3","5","1","2","4","4","5","5","2","1","799230569765543938","仲","102","","","","","","","","","","","","","","","","","","","true","2","2","ability","439","negative","蠢笨","","","","","","","","","","","","","","","","",""
"null","","null","html-keyboard-response","38","249666","0.0-6.0-0.0-4.0-0.2","3","3","4","4","3","3","3","4","3","3","5","2","1","4","4","4","4","2","4","4","2","5","2","5","3","2","2","4","2","1","0","0","1","0","0","1","1","1","1","1","0","0","0","1","5","3","5","1","2","4","4","5","5","2","1","799230569765543938","仲","102","","","","","","","","","","","","","","","","","","","","","","","","","","","","","","","","","","","","","","","","","",""
"467","<p style=""color:white; font-size: 35px;"">全能</p>","i","categorize-html","39","250137","0.0-6.0-0.0-4.0-1.2","3","3","4","4","3","3","3","4","3","3","5","2","1","4","4","4","4","2","4","4","2","5","2","5","3","2","2","4","2","1","0","0","1","0","0","1","1","1","1","1","0","0","0","1","5","3","5","1","2","4","4","5","5","2","1","799230569765543938","仲","102","","","","","","","","","","","","","","","","","","","true","2","2","ability","467","positive","全能","","","","","","","","","","","","","","","","",""
"null","","null","html-keyboard-response","40","250388","0.0-6.0-0.0-4.0-0.3","3","3","4","4","3","3","3","4","3","3","5","2","1","4","4","4","4","2","4","4","2","5","2","5","3","2","2","4","2","1","0","0","1","0","0","1","1","1","1","1","0","0","0","1","5","3","5","1","2","4","4","5","5","2","1","799230569765543938","仲","102","","","","","","","","","","","","","","","","","","","","","","","","","","","","","","","","","","","","","","","","","",""
"478","<p style=""color:white; font-size: 35px;"">低能</p>","e","categorize-html","41","250870","0.0-6.0-0.0-4.0-1.3","3","3","4","4","3","3","3","4","3","3","5","2","1","4","4","4","4","2","4","4","2","5","2","5","3","2","2","4","2","1","0","0","1","0","0","1","1","1","1","1","0","0","0","1","5","3","5","1","2","4","4","5","5","2","1","799230569765543938","仲","102","","","","","","","","","","","","","","","","","","","true","2","2","ability","478","negative","低能","","","","","","","","","","","","","","","","",""
"null","","null","html-keyboard-response","42","251122","0.0-6.0-0.0-4.0-0.4","3","3","4","4","3","3","3","4","3","3","5","2","1","4","4","4","4","2","4","4","2","5","2","5","3","2","2","4","2","1","0","0","1","0","0","1","1","1","1","1","0","0","0","1","5","3","5","1","2","4","4","5","5","2","1","799230569765543938","仲","102","","","","","","","","","","","","","","","","","","","","","","","","","","","","","","","","","","","","","","","","","",""
"400","<p style=""color:white; font-size: 35px;"">全才</p>","i","categorize-html","43","251527","0.0-6.0-0.0-4.0-1.4","3","3","4","4","3","3","3","4","3","3","5","2","1","4","4","4","4","2","4","4","2","5","2","5","3","2","2","4","2","1","0","0","1","0","0","1","1","1","1","1","0","0","0","1","5","3","5","1","2","4","4","5","5","2","1","799230569765543938","仲","102","","","","","","","","","","","","","","","","","","","true","2","2","ability","400","positive","全才","","","","","","","","","","","","","","","","",""
"null","","null","html-keyboard-response","44","251778","0.0-6.0-0.0-4.0-0.5","3","3","4","4","3","3","3","4","3","3","5","2","1","4","4","4","4","2","4","4","2","5","2","5","3","2","2","4","2","1","0","0","1","0","0","1","1","1","1","1","0","0","0","1","5","3","5","1","2","4","4","5","5","2","1","799230569765543938","仲","102","","","","","","","","","","","","","","","","","","","","","","","","","","","","","","","","","","","","","","","","","",""
"447","<p style=""color:white; font-size: 35px;"">废物</p>","e","categorize-html","45","252230","0.0-6.0-0.0-4.0-1.5","3","3","4","4","3","3","3","4","3","3","5","2","1","4","4","4","4","2","4","4","2","5","2","5","3","2","2","4","2","1","0","0","1","0","0","1","1","1","1","1","0","0","0","1","5","3","5","1","2","4","4","5","5","2","1","799230569765543938","仲","102","","","","","","","","","","","","","","","","","","","true","2","2","ability","447","negative","废物","","","","","","","","","","","","","","","","",""
"null","","null","html-keyboard-response","46","252482","0.0-6.0-0.0-4.0-0.6","3","3","4","4","3","3","3","4","3","3","5","2","1","4","4","4","4","2","4","4","2","5","2","5","3","2","2","4","2","1","0","0","1","0","0","1","1","1","1","1","0","0","0","1","5","3","5","1","2","4","4","5","5","2","1","799230569765543938","仲","102","","","","","","","","","","","","","","","","","","","","","","","","","","","","","","","","","","","","","","","","","",""
"525","<p style=""color:white; font-size: 35px;"">愚钝</p>","e","categorize-html","47","253010","0.0-6.0-0.0-4.0-1.6","3","3","4","4","3","3","3","4","3","3","5","2","1","4","4","4","4","2","4","4","2","5","2","5","3","2","2","4","2","1","0","0","1","0","0","1","1","1","1","1","0","0","0","1","5","3","5","1","2","4","4","5","5","2","1","799230569765543938","仲","102","","","","","","","","","","","","","","","","","","","true","2","2","ability","525","negative","愚钝","","","","","","","","","","","","","","","","",""
"null","","null","html-keyboard-response","48","253263","0.0-6.0-0.0-4.0-0.7","3","3","4","4","3","3","3","4","3","3","5","2","1","4","4","4","4","2","4","4","2","5","2","5","3","2","2","4","2","1","0","0","1","0","0","1","1","1","1","1","0","0","0","1","5","3","5","1","2","4","4","5","5","2","1","799230569765543938","仲","102","","","","","","","","","","","","","","","","","","","","","","","","","","","","","","","","","","","","","","","","","",""
"506","<p style=""color:white; font-size: 35px;"">能干</p>","i","categorize-html","49","253772","0.0-6.0-0.0-4.0-1.7","3","3","4","4","3","3","3","4","3","3","5","2","1","4","4","4","4","2","4","4","2","5","2","5","3","2","2","4","2","1","0","0","1","0","0","1","1","1","1","1","0","0","0","1","5","3","5","1","2","4","4","5","5","2","1","799230569765543938","仲","102","","","","","","","","","","","","","","","","","","","true","2","2","ability","506","positive","能干","","","","","","","","","","","","","","","","",""
"null","","null","html-keyboard-response","50","254025","0.0-6.0-0.0-4.0-0.8","3","3","4","4","3","3","3","4","3","3","5","2","1","4","4","4","4","2","4","4","2","5","2","5","3","2","2","4","2","1","0","0","1","0","0","1","1","1","1","1","0","0","0","1","5","3","5","1","2","4","4","5","5","2","1","799230569765543938","仲","102","","","","","","","","","","","","","","","","","","","","","","","","","","","","","","","","","","","","","","","","","",""
"488","<p style=""color:white; font-size: 35px;"">拙笨</p>","e","categorize-html","51","254517","0.0-6.0-0.0-4.0-1.8","3","3","4","4","3","3","3","4","3","3","5","2","1","4","4","4","4","2","4","4","2","5","2","5","3","2","2","4","2","1","0","0","1","0","0","1","1","1","1","1","0","0","0","1","5","3","5","1","2","4","4","5","5","2","1","799230569765543938","仲","102","","","","","","","","","","","","","","","","","","","true","2","2","ability","488","negative","拙笨","","","","","","","","","","","","","","","","",""
"null","","null","html-keyboard-response","52","254769","0.0-6.0-0.0-4.0-0.9","3","3","4","4","3","3","3","4","3","3","5","2","1","4","4","4","4","2","4","4","2","5","2","5","3","2","2","4","2","1","0","0","1","0","0","1","1","1","1","1","0","0","0","1","5","3","5","1","2","4","4","5","5","2","1","799230569765543938","仲","102","","","","","","","","","","","","","","","","","","","","","","","","","","","","","","","","","","","","","","","","","",""
"568","<p style=""color:white; font-size: 35px;"">天才</p>","i","categorize-html","53","255341","0.0-6.0-0.0-4.0-1.9","3","3","4","4","3","3","3","4","3","3","5","2","1","4","4","4","4","2","4","4","2","5","2","5","3","2","2","4","2","1","0","0","1","0","0","1","1","1","1","1","0","0","0","1","5","3","5","1","2","4","4","5","5","2","1","799230569765543938","仲","102","","","","","","","","","","","","","","","","","","","true","2","2","ability","568","positive","天才","","","","","","","","","","","","","","","","",""
"null","","null","html-keyboard-response","54","255593","0.0-6.0-0.0-4.0-0.10","3","3","4","4","3","3","3","4","3","3","5","2","1","4","4","4","4","2","4","4","2","5","2","5","3","2","2","4","2","1","0","0","1","0","0","1","1","1","1","1","0","0","0","1","5","3","5","1","2","4","4","5","5","2","1","799230569765543938","仲","102","","","","","","","","","","","","","","","","","","","","","","","","","","","","","","","","","","","","","","","","","",""
"721","<p style=""color:white; font-size: 35px;"">无能</p>","e","categorize-html","55","256317","0.0-6.0-0.0-4.0-1.10","3","3","4","4","3","3","3","4","3","3","5","2","1","4","4","4","4","2","4","4","2","5","2","5","3","2","2","4","2","1","0","0","1","0","0","1","1","1","1","1","0","0","0","1","5","3","5","1","2","4","4","5","5","2","1","799230569765543938","仲","102","","","","","","","","","","","","","","","","","","","true","2","2","ability","721","negative","无能","","","","","","","","","","","","","","","","",""
"null","","null","html-keyboard-response","56","256569","0.0-6.0-0.0-4.0-0.11","3","3","4","4","3","3","3","4","3","3","5","2","1","4","4","4","4","2","4","4","2","5","2","5","3","2","2","4","2","1","0","0","1","0","0","1","1","1","1","1","0","0","0","1","5","3","5","1","2","4","4","5","5","2","1","799230569765543938","仲","102","","","","","","","","","","","","","","","","","","","","","","","","","","","","","","","","","","","","","","","","","",""
"516","<p style=""color:white; font-size: 35px;"">精干</p>","i","categorize-html","57","257089","0.0-6.0-0.0-4.0-1.11","3","3","4","4","3","3","3","4","3","3","5","2","1","4","4","4","4","2","4","4","2","5","2","5","3","2","2","4","2","1","0","0","1","0","0","1","1","1","1","1","0","0","0","1","5","3","5","1","2","4","4","5","5","2","1","799230569765543938","仲","102","","","","","","","","","","","","","","","","","","","true","2","2","ability","516","positive","精干","","","","","","","","","","","","","","","","",""
"10484","
    <div class=""tag-bottom""><p>
    —— 任务3：对“自我/消极”词和“他人/积极”词分类 ——<p/>
    <span style=""color:#78DCE8""><b>注意上方，之前的四类词语将混合在一起交替呈现</b></span><p/>
    <span style=""color:#FFD866""><b>请根据上方标签的提示，尽可能正确并且快速地做出按键反应</b></span><p/>
    当按键错误时屏幕中会出现<span style=""color:red""> X </span>，需要按另一个键纠正才能继续<br/><p/>
    请把双手食指分别放在键盘的“E”键和“I”键上<p/>
    按<空格键>开始
    </p></div>"," ","html-keyboard-response","58","267575","0.0-6.0-0.0-5.0","3","3","4","4","3","3","3","4","3","3","5","2","1","4","4","4","4","2","4","4","2","5","2","5","3","2","2","4","2","1","0","0","1","0","0","1","1","1","1","1","0","0","0","1","5","3","5","1","2","4","4","5","5","2","1","799230569765543938","仲","102","","","","","","","","","","","","","","","","","","","","","","","","","","","","","","","","","","","","","","","","","",""
"null","","null","html-keyboard-response","59","267827","0.0-6.0-0.0-6.0-0.0","3","3","4","4","3","3","3","4","3","3","5","2","1","4","4","4","4","2","4","4","2","5","2","5","3","2","2","4","2","1","0","0","1","0","0","1","1","1","1","1","0","0","0","1","5","3","5","1","2","4","4","5","5","2","1","799230569765543938","仲","102","","","","","","","","","","","","","","","","","","","","","","","","","","","","","","","","","","","","","","","","","",""
"564","<p style=""color:rgb(150, 250, 100); font-size: 35px;"">他人的</p>","i","categorize-html","60","268396","0.0-6.0-0.0-6.0-1.0","3","3","4","4","3","3","3","4","3","3","5","2","1","4","4","4","4","2","4","4","2","5","2","5","3","2","2","4","2","1","0","0","1","0","0","1","1","1","1","1","0","0","0","1","5","3","5","1","2","4","4","5","5","2","1","799230569765543938","仲","102","","","","","","","","","","","","","","","","","","","true","3","3","ability","564","other","他人的","","","","","","","","","","","","","","","","",""
"null","","null","html-keyboard-response","61","268648","0.0-6.0-0.0-6.0-0.1","3","3","4","4","3","3","3","4","3","3","5","2","1","4","4","4","4","2","4","4","2","5","2","5","3","2","2","4","2","1","0","0","1","0","0","1","1","1","1","1","0","0","0","1","5","3","5","1","2","4","4","5","5","2","1","799230569765543938","仲","102","","","","","","","","","","","","","","","","","","","","","","","","","","","","","","","","","","","","","","","","","",""
"555","<p style=""color:white; font-size: 35px;"">全能</p>","i","categorize-html","62","269208","0.0-6.0-0.0-6.0-1.1","3","3","4","4","3","3","3","4","3","3","5","2","1","4","4","4","4","2","4","4","2","5","2","5","3","2","2","4","2","1","0","0","1","0","0","1","1","1","1","1","0","0","0","1","5","3","5","1","2","4","4","5","5","2","1","799230569765543938","仲","102","","","","","","","","","","","","","","","","","","","true","3","3","ability","555","positive","全能","","","","","","","","","","","","","","","","",""
"null","","null","html-keyboard-response","63","269459","0.0-6.0-0.0-6.0-0.2","3","3","4","4","3","3","3","4","3","3","5","2","1","4","4","4","4","2","4","4","2","5","2","5","3","2","2","4","2","1","0","0","1","0","0","1","1","1","1","1","0","0","0","1","5","3","5","1","2","4","4","5","5","2","1","799230569765543938","仲","102","","","","","","","","","","","","","","","","","","","","","","","","","","","","","","","","","","","","","","","","","",""
"399","<p style=""color:rgb(150, 250, 100); font-size: 35px;"">本人</p>","i","categorize-html","64","270310","0.0-6.0-0.0-6.0-1.2","3","3","4","4","3","3","3","4","3","3","5","2","1","4","4","4","4","2","4","4","2","5","2","5","3","2","2","4","2","1","0","0","1","0","0","1","1","1","1","1","0","0","0","1","5","3","5","1","2","4","4","5","5","2","1","799230569765543938","仲","102","","","","","","","","","","","","","","","","","","","false","3","3","ability","1303.8636363636365","self","本人","","","","","","","","","","","","","","","","",""
"null","","null","html-keyboard-response","65","270562","0.0-6.0-0.0-6.0-0.3","3","3","4","4","3","3","3","4","3","3","5","2","1","4","4","4","4","2","4","4","2","5","2","5","3","2","2","4","2","1","0","0","1","0","0","1","1","1","1","1","0","0","0","1","5","3","5","1","2","4","4","5","5","2","1","799230569765543938","仲","102","","","","","","","","","","","","","","","","","","","","","","","","","","","","","","","","","","","","","","","","","",""
"799","<p style=""color:white; font-size: 35px;"">蠢笨</p>","e","categorize-html","66","271365","0.0-6.0-0.0-6.0-1.3","3","3","4","4","3","3","3","4","3","3","5","2","1","4","4","4","4","2","4","4","2","5","2","5","3","2","2","4","2","1","0","0","1","0","0","1","1","1","1","1","0","0","0","1","5","3","5","1","2","4","4","5","5","2","1","799230569765543938","仲","102","","","","","","","","","","","","","","","","","","","true","3","3","ability","799","negative","蠢笨","","","","","","","","","","","","","","","","",""
"null","","null","html-keyboard-response","67","271618","0.0-6.0-0.0-6.0-0.4","3","3","4","4","3","3","3","4","3","3","5","2","1","4","4","4","4","2","4","4","2","5","2","5","3","2","2","4","2","1","0","0","1","0","0","1","1","1","1","1","0","0","0","1","5","3","5","1","2","4","4","5","5","2","1","799230569765543938","仲","102","","","","","","","","","","","","","","","","","","","","","","","","","","","","","","","","","","","","","","","","","",""
"540","<p style=""color:rgb(150, 250, 100); font-size: 35px;"">自己</p>","e","categorize-html","68","272162","0.0-6.0-0.0-6.0-1.4","3","3","4","4","3","3","3","4","3","3","5","2","1","4","4","4","4","2","4","4","2","5","2","5","3","2","2","4","2","1","0","0","1","0","0","1","1","1","1","1","0","0","0","1","5","3","5","1","2","4","4","5","5","2","1","799230569765543938","仲","102","","","","","","","","","","","","","","","","","","","true","3","3","ability","540","self","自己","","","","","","","","","","","","","","","","",""
"null","","null","html-keyboard-response","69","272414","0.0-6.0-0.0-6.0-0.5","3","3","4","4","3","3","3","4","3","3","5","2","1","4","4","4","4","2","4","4","2","5","2","5","3","2","2","4","2","1","0","0","1","0","0","1","1","1","1","1","0","0","0","1","5","3","5","1","2","4","4","5","5","2","1","799230569765543938","仲","102","","","","","","","","","","","","","","","","","","","","","","","","","","","","","","","","","","","","","","","","","",""
"415","<p style=""color:white; font-size: 35px;"">天才</p>","e","categorize-html","70","273176","0.0-6.0-0.0-6.0-1.5","3","3","4","4","3","3","3","4","3","3","5","2","1","4","4","4","4","2","4","4","2","5","2","5","3","2","2","4","2","1","0","0","1","0","0","1","1","1","1","1","0","0","0","1","5","3","5","1","2","4","4","5","5","2","1","799230569765543938","仲","102","","","","","","","","","","","","","","","","","","","false","3","3","ability","1303.8636363636365","positive","天才","","","","","","","","","","","","","","","","",""
"null","","null","html-keyboard-response","71","273429","0.0-6.0-0.0-6.0-0.6","3","3","4","4","3","3","3","4","3","3","5","2","1","4","4","4","4","2","4","4","2","5","2","5","3","2","2","4","2","1","0","0","1","0","0","1","1","1","1","1","0","0","0","1","5","3","5","1","2","4","4","5","5","2","1","799230569765543938","仲","102","","","","","","","","","","","","","","","","","","","","","","","","","","","","","","","","","","","","","","","","","",""
"1515","<p style=""color:rgb(150, 250, 100); font-size: 35px;"">他的</p>","i","categorize-html","72","274948","0.0-6.0-0.0-6.0-1.6","3","3","4","4","3","3","3","4","3","3","5","2","1","4","4","4","4","2","4","4","2","5","2","5","3","2","2","4","2","1","0","0","1","0","0","1","1","1","1","1","0","0","0","1","5","3","5","1","2","4","4","5","5","2","1","799230569765543938","仲","102","","","","","","","","","","","","","","","","","","","true","3","3","ability","1515","other","他的","","","","","","","","","","","","","","","","",""
"null","","null","html-keyboard-response","73","275201","0.0-6.0-0.0-6.0-0.7","3","3","4","4","3","3","3","4","3","3","5","2","1","4","4","4","4","2","4","4","2","5","2","5","3","2","2","4","2","1","0","0","1","0","0","1","1","1","1","1","0","0","0","1","5","3","5","1","2","4","4","5","5","2","1","799230569765543938","仲","102","","","","","","","","","","","","","","","","","","","","","","","","","","","","","","","","","","","","","","","","","",""
"886","<p style=""color:white; font-size: 35px;"">无能</p>","e","categorize-html","74","276092","0.0-6.0-0.0-6.0-1.7","3","3","4","4","3","3","3","4","3","3","5","2","1","4","4","4","4","2","4","4","2","5","2","5","3","2","2","4","2","1","0","0","1","0","0","1","1","1","1","1","0","0","0","1","5","3","5","1","2","4","4","5","5","2","1","799230569765543938","仲","102","","","","","","","","","","","","","","","","","","","true","3","3","ability","886","negative","无能","","","","","","","","","","","","","","","","",""
"null","","null","html-keyboard-response","75","276344","0.0-6.0-0.0-6.0-0.8","3","3","4","4","3","3","3","4","3","3","5","2","1","4","4","4","4","2","4","4","2","5","2","5","3","2","2","4","2","1","0","0","1","0","0","1","1","1","1","1","0","0","0","1","5","3","5","1","2","4","4","5","5","2","1","799230569765543938","仲","102","","","","","","","","","","","","","","","","","","","","","","","","","","","","","","","","","","","","","","","","","",""
"848","<p style=""color:rgb(150, 250, 100); font-size: 35px;"">本人的</p>","e","categorize-html","76","277197","0.0-6.0-0.0-6.0-1.8","3","3","4","4","3","3","3","4","3","3","5","2","1","4","4","4","4","2","4","4","2","5","2","5","3","2","2","4","2","1","0","0","1","0","0","1","1","1","1","1","0","0","0","1","5","3","5","1","2","4","4","5","5","2","1","799230569765543938","仲","102","","","","","","","","","","","","","","","","","","","true","3","3","ability","848","self","本人的","","","","","","","","","","","","","","","","",""
"null","","null","html-keyboard-response","77","277449","0.0-6.0-0.0-6.0-0.9","3","3","4","4","3","3","3","4","3","3","5","2","1","4","4","4","4","2","4","4","2","5","2","5","3","2","2","4","2","1","0","0","1","0","0","1","1","1","1","1","0","0","0","1","5","3","5","1","2","4","4","5","5","2","1","799230569765543938","仲","102","","","","","","","","","","","","","","","","","","","","","","","","","","","","","","","","","","","","","","","","","",""
"804","<p style=""color:white; font-size: 35px;"">全才</p>","i","categorize-html","78","278258","0.0-6.0-0.0-6.0-1.9","3","3","4","4","3","3","3","4","3","3","5","2","1","4","4","4","4","2","4","4","2","5","2","5","3","2","2","4","2","1","0","0","1","0","0","1","1","1","1","1","0","0","0","1","5","3","5","1","2","4","4","5","5","2","1","799230569765543938","仲","102","","","","","","","","","","","","","","","","","","","true","3","3","ability","804","positive","全才","","","","","","","","","","","","","","","","",""
"null","","null","html-keyboard-response","79","278509","0.0-6.0-0.0-6.0-0.10","3","3","4","4","3","3","3","4","3","3","5","2","1","4","4","4","4","2","4","4","2","5","2","5","3","2","2","4","2","1","0","0","1","0","0","1","1","1","1","1","0","0","0","1","5","3","5","1","2","4","4","5","5","2","1","799230569765543938","仲","102","","","","","","","","","","","","","","","","","","","","","","","","","","","","","","","","","","","","","","","","","",""
"515","<p style=""color:rgb(150, 250, 100); font-size: 35px;"">他人</p>","i","categorize-html","80","279028","0.0-6.0-0.0-6.0-1.10","3","3","4","4","3","3","3","4","3","3","5","2","1","4","4","4","4","2","4","4","2","5","2","5","3","2","2","4","2","1","0","0","1","0","0","1","1","1","1","1","0","0","0","1","5","3","5","1","2","4","4","5","5","2","1","799230569765543938","仲","102","","","","","","","","","","","","","","","","","","","true","3","3","ability","515","other","他人","","","","","","","","","","","","","","","","",""
"null","","null","html-keyboard-response","81","279280","0.0-6.0-0.0-6.0-0.11","3","3","4","4","3","3","3","4","3","3","5","2","1","4","4","4","4","2","4","4","2","5","2","5","3","2","2","4","2","1","0","0","1","0","0","1","1","1","1","1","0","0","0","1","5","3","5","1","2","4","4","5","5","2","1","799230569765543938","仲","102","","","","","","","","","","","","","","","","","","","","","","","","","","","","","","","","","","","","","","","","","",""
"815","<p style=""color:white; font-size: 35px;"">废物</p>","e","categorize-html","82","280099","0.0-6.0-0.0-6.0-1.11","3","3","4","4","3","3","3","4","3","3","5","2","1","4","4","4","4","2","4","4","2","5","2","5","3","2","2","4","2","1","0","0","1","0","0","1","1","1","1","1","0","0","0","1","5","3","5","1","2","4","4","5","5","2","1","799230569765543938","仲","102","","","","","","","","","","","","","","","","","","","true","3","3","ability","815","negative","废物","","","","","","","","","","","","","","","","",""
"null","","null","html-keyboard-response","83","280350","0.0-6.0-0.0-6.0-0.12","3","3","4","4","3","3","3","4","3","3","5","2","1","4","4","4","4","2","4","4","2","5","2","5","3","2","2","4","2","1","0","0","1","0","0","1","1","1","1","1","0","0","0","1","5","3","5","1","2","4","4","5","5","2","1","799230569765543938","仲","102","","","","","","","","","","","","","","","","","","","","","","","","","","","","","","","","","","","","","","","","","",""
"659","<p style=""color:rgb(150, 250, 100); font-size: 35px;"">别人的</p>","i","categorize-html","84","281014","0.0-6.0-0.0-6.0-1.12","3","3","4","4","3","3","3","4","3","3","5","2","1","4","4","4","4","2","4","4","2","5","2","5","3","2","2","4","2","1","0","0","1","0","0","1","1","1","1","1","0","0","0","1","5","3","5","1","2","4","4","5","5","2","1","799230569765543938","仲","102","","","","","","","","","","","","","","","","","","","true","3","3","ability","659","other","别人的","","","","","","","","","","","","","","","","",""
"null","","null","html-keyboard-response","85","281265","0.0-6.0-0.0-6.0-0.13","3","3","4","4","3","3","3","4","3","3","5","2","1","4","4","4","4","2","4","4","2","5","2","5","3","2","2","4","2","1","0","0","1","0","0","1","1","1","1","1","0","0","0","1","5","3","5","1","2","4","4","5","5","2","1","799230569765543938","仲","102","","","","","","","","","","","","","","","","","","","","","","","","","","","","","","","","","","","","","","","","","",""
"496","<p style=""color:white; font-size: 35px;"">愚钝</p>","e","categorize-html","86","281768","0.0-6.0-0.0-6.0-1.13","3","3","4","4","3","3","3","4","3","3","5","2","1","4","4","4","4","2","4","4","2","5","2","5","3","2","2","4","2","1","0","0","1","0","0","1","1","1","1","1","0","0","0","1","5","3","5","1","2","4","4","5","5","2","1","799230569765543938","仲","102","","","","","","","","","","","","","","","","","","","true","3","3","ability","496","negative","愚钝","","","","","","","","","","","","","","","","",""
"null","","null","html-keyboard-response","87","282019","0.0-6.0-0.0-6.0-0.14","3","3","4","4","3","3","3","4","3","3","5","2","1","4","4","4","4","2","4","4","2","5","2","5","3","2","2","4","2","1","0","0","1","0","0","1","1","1","1","1","0","0","0","1","5","3","5","1","2","4","4","5","5","2","1","799230569765543938","仲","102","","","","","","","","","","","","","","","","","","","","","","","","","","","","","","","","","","","","","","","","","",""
"643","<p style=""color:rgb(150, 250, 100); font-size: 35px;"">我的</p>","e","categorize-html","88","282665","0.0-6.0-0.0-6.0-1.14","3","3","4","4","3","3","3","4","3","3","5","2","1","4","4","4","4","2","4","4","2","5","2","5","3","2","2","4","2","1","0","0","1","0","0","1","1","1","1","1","0","0","0","1","5","3","5","1","2","4","4","5","5","2","1","799230569765543938","仲","102","","","","","","","","","","","","","","","","","","","true","3","3","ability","643","self","我的","","","","","","","","","","","","","","","","",""
"null","","null","html-keyboard-response","89","282916","0.0-6.0-0.0-6.0-0.15","3","3","4","4","3","3","3","4","3","3","5","2","1","4","4","4","4","2","4","4","2","5","2","5","3","2","2","4","2","1","0","0","1","0","0","1","1","1","1","1","0","0","0","1","5","3","5","1","2","4","4","5","5","2","1","799230569765543938","仲","102","","","","","","","","","","","","","","","","","","","","","","","","","","","","","","","","","","","","","","","","","",""
"1042","<p style=""color:white; font-size: 35px;"">高效</p>","i","categorize-html","90","283963","0.0-6.0-0.0-6.0-1.15","3","3","4","4","3","3","3","4","3","3","5","2","1","4","4","4","4","2","4","4","2","5","2","5","3","2","2","4","2","1","0","0","1","0","0","1","1","1","1","1","0","0","0","1","5","3","5","1","2","4","4","5","5","2","1","799230569765543938","仲","102","","","","","","","","","","","","","","","","","","","true","3","3","ability","1042","positive","高效","","","","","","","","","","","","","","","","",""
"null","","null","html-keyboard-response","91","284216","0.0-6.0-0.0-6.0-0.16","3","3","4","4","3","3","3","4","3","3","5","2","1","4","4","4","4","2","4","4","2","5","2","5","3","2","2","4","2","1","0","0","1","0","0","1","1","1","1","1","0","0","0","1","5","3","5","1","2","4","4","5","5","2","1","799230569765543938","仲","102","","","","","","","","","","","","","","","","","","","","","","","","","","","","","","","","","","","","","","","","","",""
"555","<p style=""color:rgb(150, 250, 100); font-size: 35px;"">自己的</p>","e","categorize-html","92","284775","0.0-6.0-0.0-6.0-1.16","3","3","4","4","3","3","3","4","3","3","5","2","1","4","4","4","4","2","4","4","2","5","2","5","3","2","2","4","2","1","0","0","1","0","0","1","1","1","1","1","0","0","0","1","5","3","5","1","2","4","4","5","5","2","1","799230569765543938","仲","102","","","","","","","","","","","","","","","","","","","true","3","3","ability","555","self","自己的","","","","","","","","","","","","","","","","",""
"null","","null","html-keyboard-response","93","285027","0.0-6.0-0.0-6.0-0.17","3","3","4","4","3","3","3","4","3","3","5","2","1","4","4","4","4","2","4","4","2","5","2","5","3","2","2","4","2","1","0","0","1","0","0","1","1","1","1","1","0","0","0","1","5","3","5","1","2","4","4","5","5","2","1","799230569765543938","仲","102","","","","","","","","","","","","","","","","","","","","","","","","","","","","","","","","","","","","","","","","","",""
"515","<p style=""color:white; font-size: 35px;"">能干</p>","i","categorize-html","94","285546","0.0-6.0-0.0-6.0-1.17","3","3","4","4","3","3","3","4","3","3","5","2","1","4","4","4","4","2","4","4","2","5","2","5","3","2","2","4","2","1","0","0","1","0","0","1","1","1","1","1","0","0","0","1","5","3","5","1","2","4","4","5","5","2","1","799230569765543938","仲","102","","","","","","","","","","","","","","","","","","","true","3","3","ability","515","positive","能干","","","","","","","","","","","","","","","","",""
"null","","null","html-keyboard-response","95","285799","0.0-6.0-0.0-6.0-0.18","3","3","4","4","3","3","3","4","3","3","5","2","1","4","4","4","4","2","4","4","2","5","2","5","3","2","2","4","2","1","0","0","1","0","0","1","1","1","1","1","0","0","0","1","5","3","5","1","2","4","4","5","5","2","1","799230569765543938","仲","102","","","","","","","","","","","","","","","","","","","","","","","","","","","","","","","","","","","","","","","","","",""
"530","<p style=""color:rgb(150, 250, 100); font-size: 35px;"">别人</p>","i","categorize-html","96","286333","0.0-6.0-0.0-6.0-1.18","3","3","4","4","3","3","3","4","3","3","5","2","1","4","4","4","4","2","4","4","2","5","2","5","3","2","2","4","2","1","0","0","1","0","0","1","1","1","1","1","0","0","0","1","5","3","5","1","2","4","4","5","5","2","1","799230569765543938","仲","102","","","","","","","","","","","","","","","","","","","true","3","3","ability","530","other","别人","","","","","","","","","","","","","","","","",""
"null","","null","html-keyboard-response","97","286585","0.0-6.0-0.0-6.0-0.19","3","3","4","4","3","3","3","4","3","3","5","2","1","4","4","4","4","2","4","4","2","5","2","5","3","2","2","4","2","1","0","0","1","0","0","1","1","1","1","1","0","0","0","1","5","3","5","1","2","4","4","5","5","2","1","799230569765543938","仲","102","","","","","","","","","","","","","","","","","","","","","","","","","","","","","","","","","","","","","","","","","",""
"562","<p style=""color:white; font-size: 35px;"">低能</p>","e","categorize-html","98","287151","0.0-6.0-0.0-6.0-1.19","3","3","4","4","3","3","3","4","3","3","5","2","1","4","4","4","4","2","4","4","2","5","2","5","3","2","2","4","2","1","0","0","1","0","0","1","1","1","1","1","0","0","0","1","5","3","5","1","2","4","4","5","5","2","1","799230569765543938","仲","102","","","","","","","","","","","","","","","","","","","true","3","3","ability","562","negative","低能","","","","","","","","","","","","","","","","",""
"null","","null","html-keyboard-response","99","287403","0.0-6.0-0.0-6.0-0.20","3","3","4","4","3","3","3","4","3","3","5","2","1","4","4","4","4","2","4","4","2","5","2","5","3","2","2","4","2","1","0","0","1","0","0","1","1","1","1","1","0","0","0","1","5","3","5","1","2","4","4","5","5","2","1","799230569765543938","仲","102","","","","","","","","","","","","","","","","","","","","","","","","","","","","","","","","","","","","","","","","","",""
"417","<p style=""color:rgb(150, 250, 100); font-size: 35px;"">我</p>","e","categorize-html","100","287822","0.0-6.0-0.0-6.0-1.20","3","3","4","4","3","3","3","4","3","3","5","2","1","4","4","4","4","2","4","4","2","5","2","5","3","2","2","4","2","1","0","0","1","0","0","1","1","1","1","1","0","0","0","1","5","3","5","1","2","4","4","5","5","2","1","799230569765543938","仲","102","","","","","","","","","","","","","","","","","","","true","3","3","ability","417","self","我","","","","","","","","","","","","","","","","",""
"null","","null","html-keyboard-response","101","288074","0.0-6.0-0.0-6.0-0.21","3","3","4","4","3","3","3","4","3","3","5","2","1","4","4","4","4","2","4","4","2","5","2","5","3","2","2","4","2","1","0","0","1","0","0","1","1","1","1","1","0","0","0","1","5","3","5","1","2","4","4","5","5","2","1","799230569765543938","仲","102","","","","","","","","","","","","","","","","","","","","","","","","","","","","","","","","","","","","","","","","","",""
"1084","<p style=""color:white; font-size: 35px;"">精干</p>","i","categorize-html","102","289161","0.0-6.0-0.0-6.0-1.21","3","3","4","4","3","3","3","4","3","3","5","2","1","4","4","4","4","2","4","4","2","5","2","5","3","2","2","4","2","1","0","0","1","0","0","1","1","1","1","1","0","0","0","1","5","3","5","1","2","4","4","5","5","2","1","799230569765543938","仲","102","","","","","","","","","","","","","","","","","","","true","3","3","ability","1084","positive","精干","","","","","","","","","","","","","","","","",""
"null","","null","html-keyboard-response","103","289413","0.0-6.0-0.0-6.0-0.22","3","3","4","4","3","3","3","4","3","3","5","2","1","4","4","4","4","2","4","4","2","5","2","5","3","2","2","4","2","1","0","0","1","0","0","1","1","1","1","1","0","0","0","1","5","3","5","1","2","4","4","5","5","2","1","799230569765543938","仲","102","","","","","","","","","","","","","","","","","","","","","","","","","","","","","","","","","","","","","","","","","",""
"645","<p style=""color:rgb(150, 250, 100); font-size: 35px;"">他</p>","i","categorize-html","104","290062","0.0-6.0-0.0-6.0-1.22","3","3","4","4","3","3","3","4","3","3","5","2","1","4","4","4","4","2","4","4","2","5","2","5","3","2","2","4","2","1","0","0","1","0","0","1","1","1","1","1","0","0","0","1","5","3","5","1","2","4","4","5","5","2","1","799230569765543938","仲","102","","","","","","","","","","","","","","","","","","","true","3","3","ability","645","other","他","","","","","","","","","","","","","","","","",""
"null","","null","html-keyboard-response","105","290313","0.0-6.0-0.0-6.0-0.23","3","3","4","4","3","3","3","4","3","3","5","2","1","4","4","4","4","2","4","4","2","5","2","5","3","2","2","4","2","1","0","0","1","0","0","1","1","1","1","1","0","0","0","1","5","3","5","1","2","4","4","5","5","2","1","799230569765543938","仲","102","","","","","","","","","","","","","","","","","","","","","","","","","","","","","","","","","","","","","","","","","",""
"496","<p style=""color:white; font-size: 35px;"">拙笨</p>","e","categorize-html","106","290814","0.0-6.0-0.0-6.0-1.23","3","3","4","4","3","3","3","4","3","3","5","2","1","4","4","4","4","2","4","4","2","5","2","5","3","2","2","4","2","1","0","0","1","0","0","1","1","1","1","1","0","0","0","1","5","3","5","1","2","4","4","5","5","2","1","799230569765543938","仲","102","","","","","","","","","","","","","","","","","","","true","3","3","ability","496","negative","拙笨","","","","","","","","","","","","","","","","",""
"7478","
    <div class=""tag-bottom""><p>
    —— 任务4：对“自我/消极”词和“他人/积极”词分类 ——<p/>
    <span style=""color:#78DCE8""><b>与刚才的任务完全相同，请再次对这四类词语分类</b></span><p/>
    <span style=""color:#FFD866""><b>请根据上方标签的提示，尽可能正确并且快速地做出按键反应</b></span><p/>
    当按键错误时屏幕中会出现<span style=""color:red""> X </span>，需要按另一个键纠正才能继续<br/><p/>
    请把双手食指分别放在键盘的“E”键和“I”键上<p/>
    按<空格键>开始
    </p></div>"," ","html-keyboard-response","107","298294","0.0-6.0-0.0-7.0","3","3","4","4","3","3","3","4","3","3","5","2","1","4","4","4","4","2","4","4","2","5","2","5","3","2","2","4","2","1","0","0","1","0","0","1","1","1","1","1","0","0","0","1","5","3","5","1","2","4","4","5","5","2","1","799230569765543938","仲","102","","","","","","","","","","","","","","","","","","","","","","","","","","","","","","","","","","","","","","","","","",""
"null","","null","html-keyboard-response","108","298546","0.0-6.0-0.0-8.0-0.0","3","3","4","4","3","3","3","4","3","3","5","2","1","4","4","4","4","2","4","4","2","5","2","5","3","2","2","4","2","1","0","0","1","0","0","1","1","1","1","1","0","0","0","1","5","3","5","1","2","4","4","5","5","2","1","799230569765543938","仲","102","","","","","","","","","","","","","","","","","","","","","","","","","","","","","","","","","","","","","","","","","",""
"517","<p style=""color:rgb(150, 250, 100); font-size: 35px;"">自己的</p>","e","categorize-html","109","299069","0.0-6.0-0.0-8.0-1.0","3","3","4","4","3","3","3","4","3","3","5","2","1","4","4","4","4","2","4","4","2","5","2","5","3","2","2","4","2","1","0","0","1","0","0","1","1","1","1","1","0","0","0","1","5","3","5","1","2","4","4","5","5","2","1","799230569765543938","仲","102","","","","","","","","","","","","","","","","","","","true","4","4","ability","517","self","自己的","","","","","","","","","","","","","","","","",""
"null","","null","html-keyboard-response","110","299322","0.0-6.0-0.0-8.0-0.1","3","3","4","4","3","3","3","4","3","3","5","2","1","4","4","4","4","2","4","4","2","5","2","5","3","2","2","4","2","1","0","0","1","0","0","1","1","1","1","1","0","0","0","1","5","3","5","1","2","4","4","5","5","2","1","799230569765543938","仲","102","","","","","","","","","","","","","","","","","","","","","","","","","","","","","","","","","","","","","","","","","",""
"753","<p style=""color:white; font-size: 35px;"">全才</p>","i","categorize-html","111","300078","0.0-6.0-0.0-8.0-1.1","3","3","4","4","3","3","3","4","3","3","5","2","1","4","4","4","4","2","4","4","2","5","2","5","3","2","2","4","2","1","0","0","1","0","0","1","1","1","1","1","0","0","0","1","5","3","5","1","2","4","4","5","5","2","1","799230569765543938","仲","102","","","","","","","","","","","","","","","","","","","true","4","4","ability","753","positive","全才","","","","","","","","","","","","","","","","",""
"null","","null","html-keyboard-response","112","300330","0.0-6.0-0.0-8.0-0.2","3","3","4","4","3","3","3","4","3","3","5","2","1","4","4","4","4","2","4","4","2","5","2","5","3","2","2","4","2","1","0","0","1","0","0","1","1","1","1","1","0","0","0","1","5","3","5","1","2","4","4","5","5","2","1","799230569765543938","仲","102","","","","","","","","","","","","","","","","","","","","","","","","","","","","","","","","","","","","","","","","","",""
"598","<p style=""color:rgb(150, 250, 100); font-size: 35px;"">他</p>","i","categorize-html","113","300934","0.0-6.0-0.0-8.0-1.2","3","3","4","4","3","3","3","4","3","3","5","2","1","4","4","4","4","2","4","4","2","5","2","5","3","2","2","4","2","1","0","0","1","0","0","1","1","1","1","1","0","0","0","1","5","3","5","1","2","4","4","5","5","2","1","799230569765543938","仲","102","","","","","","","","","","","","","","","","","","","true","4","4","ability","598","other","他","","","","","","","","","","","","","","","","",""
"null","","null","html-keyboard-response","114","301186","0.0-6.0-0.0-8.0-0.3","3","3","4","4","3","3","3","4","3","3","5","2","1","4","4","4","4","2","4","4","2","5","2","5","3","2","2","4","2","1","0","0","1","0","0","1","1","1","1","1","0","0","0","1","5","3","5","1","2","4","4","5","5","2","1","799230569765543938","仲","102","","","","","","","","","","","","","","","","","","","","","","","","","","","","","","","","","","","","","","","","","",""
"567","<p style=""color:white; font-size: 35px;"">无能</p>","e","categorize-html","115","301757","0.0-6.0-0.0-8.0-1.3","3","3","4","4","3","3","3","4","3","3","5","2","1","4","4","4","4","2","4","4","2","5","2","5","3","2","2","4","2","1","0","0","1","0","0","1","1","1","1","1","0","0","0","1","5","3","5","1","2","4","4","5","5","2","1","799230569765543938","仲","102","","","","","","","","","","","","","","","","","","","true","4","4","ability","567","negative","无能","","","","","","","","","","","","","","","","",""
"null","","null","html-keyboard-response","116","302009","0.0-6.0-0.0-8.0-0.4","3","3","4","4","3","3","3","4","3","3","5","2","1","4","4","4","4","2","4","4","2","5","2","5","3","2","2","4","2","1","0","0","1","0","0","1","1","1","1","1","0","0","0","1","5","3","5","1","2","4","4","5","5","2","1","799230569765543938","仲","102","","","","","","","","","","","","","","","","","","","","","","","","","","","","","","","","","","","","","","","","","",""
"571","<p style=""color:rgb(150, 250, 100); font-size: 35px;"">他人的</p>","i","categorize-html","117","302584","0.0-6.0-0.0-8.0-1.4","3","3","4","4","3","3","3","4","3","3","5","2","1","4","4","4","4","2","4","4","2","5","2","5","3","2","2","4","2","1","0","0","1","0","0","1","1","1","1","1","0","0","0","1","5","3","5","1","2","4","4","5","5","2","1","799230569765543938","仲","102","","","","","","","","","","","","","","","","","","","true","4","4","ability","571","other","他人的","","","","","","","","","","","","","","","","",""
"null","","null","html-keyboard-response","118","302836","0.0-6.0-0.0-8.0-0.5","3","3","4","4","3","3","3","4","3","3","5","2","1","4","4","4","4","2","4","4","2","5","2","5","3","2","2","4","2","1","0","0","1","0","0","1","1","1","1","1","0","0","0","1","5","3","5","1","2","4","4","5","5","2","1","799230569765543938","仲","102","","","","","","","","","","","","","","","","","","","","","","","","","","","","","","","","","","","","","","","","","",""
"861","<p style=""color:white; font-size: 35px;"">能干</p>","i","categorize-html","119","303701","0.0-6.0-0.0-8.0-1.5","3","3","4","4","3","3","3","4","3","3","5","2","1","4","4","4","4","2","4","4","2","5","2","5","3","2","2","4","2","1","0","0","1","0","0","1","1","1","1","1","0","0","0","1","5","3","5","1","2","4","4","5","5","2","1","799230569765543938","仲","102","","","","","","","","","","","","","","","","","","","true","4","4","ability","861","positive","能干","","","","","","","","","","","","","","","","",""
"null","","null","html-keyboard-response","120","303952","0.0-6.0-0.0-8.0-0.6","3","3","4","4","3","3","3","4","3","3","5","2","1","4","4","4","4","2","4","4","2","5","2","5","3","2","2","4","2","1","0","0","1","0","0","1","1","1","1","1","0","0","0","1","5","3","5","1","2","4","4","5","5","2","1","799230569765543938","仲","102","","","","","","","","","","","","","","","","","","","","","","","","","","","","","","","","","","","","","","","","","",""
"579","<p style=""color:rgb(150, 250, 100); font-size: 35px;"">本人的</p>","e","categorize-html","121","304535","0.0-6.0-0.0-8.0-1.6","3","3","4","4","3","3","3","4","3","3","5","2","1","4","4","4","4","2","4","4","2","5","2","5","3","2","2","4","2","1","0","0","1","0","0","1","1","1","1","1","0","0","0","1","5","3","5","1","2","4","4","5","5","2","1","799230569765543938","仲","102","","","","","","","","","","","","","","","","","","","true","4","4","ability","579","self","本人的","","","","","","","","","","","","","","","","",""
"null","","null","html-keyboard-response","122","304787","0.0-6.0-0.0-8.0-0.7","3","3","4","4","3","3","3","4","3","3","5","2","1","4","4","4","4","2","4","4","2","5","2","5","3","2","2","4","2","1","0","0","1","0","0","1","1","1","1","1","0","0","0","1","5","3","5","1","2","4","4","5","5","2","1","799230569765543938","仲","102","","","","","","","","","","","","","","","","","","","","","","","","","","","","","","","","","","","","","","","","","",""
"744","<p style=""color:white; font-size: 35px;"">废物</p>","e","categorize-html","123","305535","0.0-6.0-0.0-8.0-1.7","3","3","4","4","3","3","3","4","3","3","5","2","1","4","4","4","4","2","4","4","2","5","2","5","3","2","2","4","2","1","0","0","1","0","0","1","1","1","1","1","0","0","0","1","5","3","5","1","2","4","4","5","5","2","1","799230569765543938","仲","102","","","","","","","","","","","","","","","","","","","true","4","4","ability","744","negative","废物","","","","","","","","","","","","","","","","",""
"null","","null","html-keyboard-response","124","305786","0.0-6.0-0.0-8.0-0.8","3","3","4","4","3","3","3","4","3","3","5","2","1","4","4","4","4","2","4","4","2","5","2","5","3","2","2","4","2","1","0","0","1","0","0","1","1","1","1","1","0","0","0","1","5","3","5","1","2","4","4","5","5","2","1","799230569765543938","仲","102","","","","","","","","","","","","","","","","","","","","","","","","","","","","","","","","","","","","","","","","","",""
"635","<p style=""color:rgb(150, 250, 100); font-size: 35px;"">我的</p>","e","categorize-html","125","306424","0.0-6.0-0.0-8.0-1.8","3","3","4","4","3","3","3","4","3","3","5","2","1","4","4","4","4","2","4","4","2","5","2","5","3","2","2","4","2","1","0","0","1","0","0","1","1","1","1","1","0","0","0","1","5","3","5","1","2","4","4","5","5","2","1","799230569765543938","仲","102","","","","","","","","","","","","","","","","","","","true","4","4","ability","635","self","我的","","","","","","","","","","","","","","","","",""
"null","","null","html-keyboard-response","126","306676","0.0-6.0-0.0-8.0-0.9","3","3","4","4","3","3","3","4","3","3","5","2","1","4","4","4","4","2","4","4","2","5","2","5","3","2","2","4","2","1","0","0","1","0","0","1","1","1","1","1","0","0","0","1","5","3","5","1","2","4","4","5","5","2","1","799230569765543938","仲","102","","","","","","","","","","","","","","","","","","","","","","","","","","","","","","","","","","","","","","","","","",""
"473","<p style=""color:white; font-size: 35px;"">高效</p>","e","categorize-html","127","307501","0.0-6.0-0.0-8.0-1.9","3","3","4","4","3","3","3","4","3","3","5","2","1","4","4","4","4","2","4","4","2","5","2","5","3","2","2","4","2","1","0","0","1","0","0","1","1","1","1","1","0","0","0","1","5","3","5","1","2","4","4","5","5","2","1","799230569765543938","仲","102","","","","","","","","","","","","","","","","","","","false","4","4","ability","1270.0227272727273","positive","高效","","","","","","","","","","","","","","","","",""
"null","","null","html-keyboard-response","128","307753","0.0-6.0-0.0-8.0-0.10","3","3","4","4","3","3","3","4","3","3","5","2","1","4","4","4","4","2","4","4","2","5","2","5","3","2","2","4","2","1","0","0","1","0","0","1","1","1","1","1","0","0","0","1","5","3","5","1","2","4","4","5","5","2","1","799230569765543938","仲","102","","","","","","","","","","","","","","","","","","","","","","","","","","","","","","","","","","","","","","","","","",""
"624","<p style=""color:rgb(150, 250, 100); font-size: 35px;"">他人</p>","i","categorize-html","129","308382","0.0-6.0-0.0-8.0-1.10","3","3","4","4","3","3","3","4","3","3","5","2","1","4","4","4","4","2","4","4","2","5","2","5","3","2","2","4","2","1","0","0","1","0","0","1","1","1","1","1","0","0","0","1","5","3","5","1","2","4","4","5","5","2","1","799230569765543938","仲","102","","","","","","","","","","","","","","","","","","","true","4","4","ability","624","other","他人","","","","","","","","","","","","","","","","",""
"null","","null","html-keyboard-response","130","308633","0.0-6.0-0.0-8.0-0.11","3","3","4","4","3","3","3","4","3","3","5","2","1","4","4","4","4","2","4","4","2","5","2","5","3","2","2","4","2","1","0","0","1","0","0","1","1","1","1","1","0","0","0","1","5","3","5","1","2","4","4","5","5","2","1","799230569765543938","仲","102","","","","","","","","","","","","","","","","","","","","","","","","","","","","","","","","","","","","","","","","","",""
"597","<p style=""color:white; font-size: 35px;"">愚钝</p>","e","categorize-html","131","309235","0.0-6.0-0.0-8.0-1.11","3","3","4","4","3","3","3","4","3","3","5","2","1","4","4","4","4","2","4","4","2","5","2","5","3","2","2","4","2","1","0","0","1","0","0","1","1","1","1","1","0","0","0","1","5","3","5","1","2","4","4","5","5","2","1","799230569765543938","仲","102","","","","","","","","","","","","","","","","","","","true","4","4","ability","597","negative","愚钝","","","","","","","","","","","","","","","","",""
"null","","null","html-keyboard-response","132","309487","0.0-6.0-0.0-8.0-0.12","3","3","4","4","3","3","3","4","3","3","5","2","1","4","4","4","4","2","4","4","2","5","2","5","3","2","2","4","2","1","0","0","1","0","0","1","1","1","1","1","0","0","0","1","5","3","5","1","2","4","4","5","5","2","1","799230569765543938","仲","102","","","","","","","","","","","","","","","","","","","","","","","","","","","","","","","","","","","","","","","","","",""
"529","<p style=""color:rgb(150, 250, 100); font-size: 35px;"">别人的</p>","i","categorize-html","133","310023","0.0-6.0-0.0-8.0-1.12","3","3","4","4","3","3","3","4","3","3","5","2","1","4","4","4","4","2","4","4","2","5","2","5","3","2","2","4","2","1","0","0","1","0","0","1","1","1","1","1","0","0","0","1","5","3","5","1","2","4","4","5","5","2","1","799230569765543938","仲","102","","","","","","","","","","","","","","","","","","","true","4","4","ability","529","other","别人的","","","","","","","","","","","","","","","","",""
"null","","null","html-keyboard-response","134","310275","0.0-6.0-0.0-8.0-0.13","3","3","4","4","3","3","3","4","3","3","5","2","1","4","4","4","4","2","4","4","2","5","2","5","3","2","2","4","2","1","0","0","1","0","0","1","1","1","1","1","0","0","0","1","5","3","5","1","2","4","4","5","5","2","1","799230569765543938","仲","102","","","","","","","","","","","","","","","","","","","","","","","","","","","","","","","","","","","","","","","","","",""
"1102","<p style=""color:white; font-size: 35px;"">废物</p>","e","categorize-html","135","311382","0.0-6.0-0.0-8.0-1.13","3","3","4","4","3","3","3","4","3","3","5","2","1","4","4","4","4","2","4","4","2","5","2","5","3","2","2","4","2","1","0","0","1","0","0","1","1","1","1","1","0","0","0","1","5","3","5","1","2","4","4","5","5","2","1","799230569765543938","仲","102","","","","","","","","","","","","","","","","","","","true","4","4","ability","1102","negative","废物","","","","","","","","","","","","","","","","",""
"null","","null","html-keyboard-response","136","311634","0.0-6.0-0.0-8.0-0.14","3","3","4","4","3","3","3","4","3","3","5","2","1","4","4","4","4","2","4","4","2","5","2","5","3","2","2","4","2","1","0","0","1","0","0","1","1","1","1","1","0","0","0","1","5","3","5","1","2","4","4","5","5","2","1","799230569765543938","仲","102","","","","","","","","","","","","","","","","","","","","","","","","","","","","","","","","","","","","","","","","","",""
"572","<p style=""color:rgb(150, 250, 100); font-size: 35px;"">我</p>","i","categorize-html","137","312615","0.0-6.0-0.0-8.0-1.14","3","3","4","4","3","3","3","4","3","3","5","2","1","4","4","4","4","2","4","4","2","5","2","5","3","2","2","4","2","1","0","0","1","0","0","1","1","1","1","1","0","0","0","1","5","3","5","1","2","4","4","5","5","2","1","799230569765543938","仲","102","","","","","","","","","","","","","","","","","","","false","4","4","ability","1270.0227272727273","self","我","","","","","","","","","","","","","","","","",""
"null","","null","html-keyboard-response","138","312867","0.0-6.0-0.0-8.0-0.15","3","3","4","4","3","3","3","4","3","3","5","2","1","4","4","4","4","2","4","4","2","5","2","5","3","2","2","4","2","1","0","0","1","0","0","1","1","1","1","1","0","0","0","1","5","3","5","1","2","4","4","5","5","2","1","799230569765543938","仲","102","","","","","","","","","","","","","","","","","","","","","","","","","","","","","","","","","","","","","","","","","",""
"2239","<p style=""color:white; font-size: 35px;"">全才</p>","i","categorize-html","139","315111","0.0-6.0-0.0-8.0-1.15","3","3","4","4","3","3","3","4","3","3","5","2","1","4","4","4","4","2","4","4","2","5","2","5","3","2","2","4","2","1","0","0","1","0","0","1","1","1","1","1","0","0","0","1","5","3","5","1","2","4","4","5","5","2","1","799230569765543938","仲","102","","","","","","","","","","","","","","","","","","","true","4","4","ability","2239","positive","全才","","","","","","","","","","","","","","","","",""
"null","","null","html-keyboard-response","140","315362","0.0-6.0-0.0-8.0-0.16","3","3","4","4","3","3","3","4","3","3","5","2","1","4","4","4","4","2","4","4","2","5","2","5","3","2","2","4","2","1","0","0","1","0","0","1","1","1","1","1","0","0","0","1","5","3","5","1","2","4","4","5","5","2","1","799230569765543938","仲","102","","","","","","","","","","","","","","","","","","","","","","","","","","","","","","","","","","","","","","","","","",""
"560","<p style=""color:rgb(150, 250, 100); font-size: 35px;"">他的</p>","i","categorize-html","141","315926","0.0-6.0-0.0-8.0-1.16","3","3","4","4","3","3","3","4","3","3","5","2","1","4","4","4","4","2","4","4","2","5","2","5","3","2","2","4","2","1","0","0","1","0","0","1","1","1","1","1","0","0","0","1","5","3","5","1","2","4","4","5","5","2","1","799230569765543938","仲","102","","","","","","","","","","","","","","","","","","","true","4","4","ability","560","other","他的","","","","","","","","","","","","","","","","",""
"null","","null","html-keyboard-response","142","316179","0.0-6.0-0.0-8.0-0.17","3","3","4","4","3","3","3","4","3","3","5","2","1","4","4","4","4","2","4","4","2","5","2","5","3","2","2","4","2","1","0","0","1","0","0","1","1","1","1","1","0","0","0","1","5","3","5","1","2","4","4","5","5","2","1","799230569765543938","仲","102","","","","","","","","","","","","","","","","","","","","","","","","","","","","","","","","","","","","","","","","","",""
"468","<p style=""color:white; font-size: 35px;"">天才</p>","e","categorize-html","143","317111","0.0-6.0-0.0-8.0-1.17","3","3","4","4","3","3","3","4","3","3","5","2","1","4","4","4","4","2","4","4","2","5","2","5","3","2","2","4","2","1","0","0","1","0","0","1","1","1","1","1","0","0","0","1","5","3","5","1","2","4","4","5","5","2","1","799230569765543938","仲","102","","","","","","","","","","","","","","","","","","","false","4","4","ability","1270.0227272727273","positive","天才","","","","","","","","","","","","","","","","",""
"null","","null","html-keyboard-response","144","317362","0.0-6.0-0.0-8.0-0.18","3","3","4","4","3","3","3","4","3","3","5","2","1","4","4","4","4","2","4","4","2","5","2","5","3","2","2","4","2","1","0","0","1","0","0","1","1","1","1","1","0","0","0","1","5","3","5","1","2","4","4","5","5","2","1","799230569765543938","仲","102","","","","","","","","","","","","","","","","","","","","","","","","","","","","","","","","","","","","","","","","","",""
"652","<p style=""color:rgb(150, 250, 100); font-size: 35px;"">自己</p>","e","categorize-html","145","318018","0.0-6.0-0.0-8.0-1.18","3","3","4","4","3","3","3","4","3","3","5","2","1","4","4","4","4","2","4","4","2","5","2","5","3","2","2","4","2","1","0","0","1","0","0","1","1","1","1","1","0","0","0","1","5","3","5","1","2","4","4","5","5","2","1","799230569765543938","仲","102","","","","","","","","","","","","","","","","","","","true","4","4","ability","652","self","自己","","","","","","","","","","","","","","","","",""
"null","","null","html-keyboard-response","146","318271","0.0-6.0-0.0-8.0-0.19","3","3","4","4","3","3","3","4","3","3","5","2","1","4","4","4","4","2","4","4","2","5","2","5","3","2","2","4","2","1","0","0","1","0","0","1","1","1","1","1","0","0","0","1","5","3","5","1","2","4","4","5","5","2","1","799230569765543938","仲","102","","","","","","","","","","","","","","","","","","","","","","","","","","","","","","","","","","","","","","","","","",""
"1055","<p style=""color:white; font-size: 35px;"">拙笨</p>","e","categorize-html","147","319330","0.0-6.0-0.0-8.0-1.19","3","3","4","4","3","3","3","4","3","3","5","2","1","4","4","4","4","2","4","4","2","5","2","5","3","2","2","4","2","1","0","0","1","0","0","1","1","1","1","1","0","0","0","1","5","3","5","1","2","4","4","5","5","2","1","799230569765543938","仲","102","","","","","","","","","","","","","","","","","","","true","4","4","ability","1055","negative","拙笨","","","","","","","","","","","","","","","","",""
"null","","null","html-keyboard-response","148","319582","0.0-6.0-0.0-8.0-0.20","3","3","4","4","3","3","3","4","3","3","5","2","1","4","4","4","4","2","4","4","2","5","2","5","3","2","2","4","2","1","0","0","1","0","0","1","1","1","1","1","0","0","0","1","5","3","5","1","2","4","4","5","5","2","1","799230569765543938","仲","102","","","","","","","","","","","","","","","","","","","","","","","","","","","","","","","","","","","","","","","","","",""
"723","<p style=""color:rgb(150, 250, 100); font-size: 35px;"">自己</p>","e","categorize-html","149","320309","0.0-6.0-0.0-8.0-1.20","3","3","4","4","3","3","3","4","3","3","5","2","1","4","4","4","4","2","4","4","2","5","2","5","3","2","2","4","2","1","0","0","1","0","0","1","1","1","1","1","0","0","0","1","5","3","5","1","2","4","4","5","5","2","1","799230569765543938","仲","102","","","","","","","","","","","","","","","","","","","true","4","4","ability","723","self","自己","","","","","","","","","","","","","","","","",""
"null","","null","html-keyboard-response","150","320561","0.0-6.0-0.0-8.0-0.21","3","3","4","4","3","3","3","4","3","3","5","2","1","4","4","4","4","2","4","4","2","5","2","5","3","2","2","4","2","1","0","0","1","0","0","1","1","1","1","1","0","0","0","1","5","3","5","1","2","4","4","5","5","2","1","799230569765543938","仲","102","","","","","","","","","","","","","","","","","","","","","","","","","","","","","","","","","","","","","","","","","",""
"534","<p style=""color:white; font-size: 35px;"">精干</p>","i","categorize-html","151","321099","0.0-6.0-0.0-8.0-1.21","3","3","4","4","3","3","3","4","3","3","5","2","1","4","4","4","4","2","4","4","2","5","2","5","3","2","2","4","2","1","0","0","1","0","0","1","1","1","1","1","0","0","0","1","5","3","5","1","2","4","4","5","5","2","1","799230569765543938","仲","102","","","","","","","","","","","","","","","","","","","true","4","4","ability","534","positive","精干","","","","","","","","","","","","","","","","",""
"null","","null","html-keyboard-response","152","321350","0.0-6.0-0.0-8.0-0.22","3","3","4","4","3","3","3","4","3","3","5","2","1","4","4","4","4","2","4","4","2","5","2","5","3","2","2","4","2","1","0","0","1","0","0","1","1","1","1","1","0","0","0","1","5","3","5","1","2","4","4","5","5","2","1","799230569765543938","仲","102","","","","","","","","","","","","","","","","","","","","","","","","","","","","","","","","","","","","","","","","","",""
"477","<p style=""color:rgb(150, 250, 100); font-size: 35px;"">他</p>","i","categorize-html","153","321831","0.0-6.0-0.0-8.0-1.22","3","3","4","4","3","3","3","4","3","3","5","2","1","4","4","4","4","2","4","4","2","5","2","5","3","2","2","4","2","1","0","0","1","0","0","1","1","1","1","1","0","0","0","1","5","3","5","1","2","4","4","5","5","2","1","799230569765543938","仲","102","","","","","","","","","","","","","","","","","","","true","4","4","ability","477","other","他","","","","","","","","","","","","","","","","",""
"null","","null","html-keyboard-response","154","322083","0.0-6.0-0.0-8.0-0.23","3","3","4","4","3","3","3","4","3","3","5","2","1","4","4","4","4","2","4","4","2","5","2","5","3","2","2","4","2","1","0","0","1","0","0","1","1","1","1","1","0","0","0","1","5","3","5","1","2","4","4","5","5","2","1","799230569765543938","仲","102","","","","","","","","","","","","","","","","","","","","","","","","","","","","","","","","","","","","","","","","","",""
"596","<p style=""color:white; font-size: 35px;"">低能</p>","e","categorize-html","155","322682","0.0-6.0-0.0-8.0-1.23","3","3","4","4","3","3","3","4","3","3","5","2","1","4","4","4","4","2","4","4","2","5","2","5","3","2","2","4","2","1","0","0","1","0","0","1","1","1","1","1","0","0","0","1","5","3","5","1","2","4","4","5","5","2","1","799230569765543938","仲","102","","","","","","","","","","","","","","","","","","","true","4","4","ability","596","negative","低能","","","","","","","","","","","","","","","","",""
"null","","null","html-keyboard-response","156","322934","0.0-6.0-0.0-8.0-0.24","3","3","4","4","3","3","3","4","3","3","5","2","1","4","4","4","4","2","4","4","2","5","2","5","3","2","2","4","2","1","0","0","1","0","0","1","1","1","1","1","0","0","0","1","5","3","5","1","2","4","4","5","5","2","1","799230569765543938","仲","102","","","","","","","","","","","","","","","","","","","","","","","","","","","","","","","","","","","","","","","","","",""
"630","<p style=""color:rgb(150, 250, 100); font-size: 35px;"">本人的</p>","e","categorize-html","157","323568","0.0-6.0-0.0-8.0-1.24","3","3","4","4","3","3","3","4","3","3","5","2","1","4","4","4","4","2","4","4","2","5","2","5","3","2","2","4","2","1","0","0","1","0","0","1","1","1","1","1","0","0","0","1","5","3","5","1","2","4","4","5","5","2","1","799230569765543938","仲","102","","","","","","","","","","","","","","","","","","","true","4","4","ability","630","self","本人的","","","","","","","","","","","","","","","","",""
"null","","null","html-keyboard-response","158","323819","0.0-6.0-0.0-8.0-0.25","3","3","4","4","3","3","3","4","3","3","5","2","1","4","4","4","4","2","4","4","2","5","2","5","3","2","2","4","2","1","0","0","1","0","0","1","1","1","1","1","0","0","0","1","5","3","5","1","2","4","4","5","5","2","1","799230569765543938","仲","102","","","","","","","","","","","","","","","","","","","","","","","","","","","","","","","","","","","","","","","","","",""
"504","<p style=""color:white; font-size: 35px;"">全能</p>","i","categorize-html","159","324327","0.0-6.0-0.0-8.0-1.25","3","3","4","4","3","3","3","4","3","3","5","2","1","4","4","4","4","2","4","4","2","5","2","5","3","2","2","4","2","1","0","0","1","0","0","1","1","1","1","1","0","0","0","1","5","3","5","1","2","4","4","5","5","2","1","799230569765543938","仲","102","","","","","","","","","","","","","","","","","","","true","4","4","ability","504","positive","全能","","","","","","","","","","","","","","","","",""
"null","","null","html-keyboard-response","160","324578","0.0-6.0-0.0-8.0-0.26","3","3","4","4","3","3","3","4","3","3","5","2","1","4","4","4","4","2","4","4","2","5","2","5","3","2","2","4","2","1","0","0","1","0","0","1","1","1","1","1","0","0","0","1","5","3","5","1","2","4","4","5","5","2","1","799230569765543938","仲","102","","","","","","","","","","","","","","","","","","","","","","","","","","","","","","","","","","","","","","","","","",""
"482","<p style=""color:rgb(150, 250, 100); font-size: 35px;"">别人</p>","i","categorize-html","161","325065","0.0-6.0-0.0-8.0-1.26","3","3","4","4","3","3","3","4","3","3","5","2","1","4","4","4","4","2","4","4","2","5","2","5","3","2","2","4","2","1","0","0","1","0","0","1","1","1","1","1","0","0","0","1","5","3","5","1","2","4","4","5","5","2","1","799230569765543938","仲","102","","","","","","","","","","","","","","","","","","","true","4","4","ability","482","other","别人","","","","","","","","","","","","","","","","",""
"null","","null","html-keyboard-response","162","325316","0.0-6.0-0.0-8.0-0.27","3","3","4","4","3","3","3","4","3","3","5","2","1","4","4","4","4","2","4","4","2","5","2","5","3","2","2","4","2","1","0","0","1","0","0","1","1","1","1","1","0","0","0","1","5","3","5","1","2","4","4","5","5","2","1","799230569765543938","仲","102","","","","","","","","","","","","","","","","","","","","","","","","","","","","","","","","","","","","","","","","","",""
"532","<p style=""color:white; font-size: 35px;"">拙笨</p>","e","categorize-html","163","325853","0.0-6.0-0.0-8.0-1.27","3","3","4","4","3","3","3","4","3","3","5","2","1","4","4","4","4","2","4","4","2","5","2","5","3","2","2","4","2","1","0","0","1","0","0","1","1","1","1","1","0","0","0","1","5","3","5","1","2","4","4","5","5","2","1","799230569765543938","仲","102","","","","","","","","","","","","","","","","","","","true","4","4","ability","532","negative","拙笨","","","","","","","","","","","","","","","","",""
"null","","null","html-keyboard-response","164","326105","0.0-6.0-0.0-8.0-0.28","3","3","4","4","3","3","3","4","3","3","5","2","1","4","4","4","4","2","4","4","2","5","2","5","3","2","2","4","2","1","0","0","1","0","0","1","1","1","1","1","0","0","0","1","5","3","5","1","2","4","4","5","5","2","1","799230569765543938","仲","102","","","","","","","","","","","","","","","","","","","","","","","","","","","","","","","","","","","","","","","","","",""
"448","<p style=""color:rgb(150, 250, 100); font-size: 35px;"">别人</p>","i","categorize-html","165","326557","0.0-6.0-0.0-8.0-1.28","3","3","4","4","3","3","3","4","3","3","5","2","1","4","4","4","4","2","4","4","2","5","2","5","3","2","2","4","2","1","0","0","1","0","0","1","1","1","1","1","0","0","0","1","5","3","5","1","2","4","4","5","5","2","1","799230569765543938","仲","102","","","","","","","","","","","","","","","","","","","true","4","4","ability","448","other","别人","","","","","","","","","","","","","","","","",""
"null","","null","html-keyboard-response","166","326809","0.0-6.0-0.0-8.0-0.29","3","3","4","4","3","3","3","4","3","3","5","2","1","4","4","4","4","2","4","4","2","5","2","5","3","2","2","4","2","1","0","0","1","0","0","1","1","1","1","1","0","0","0","1","5","3","5","1","2","4","4","5","5","2","1","799230569765543938","仲","102","","","","","","","","","","","","","","","","","","","","","","","","","","","","","","","","","","","","","","","","","",""
"492","<p style=""color:white; font-size: 35px;"">精干</p>","e","categorize-html","167","327703","0.0-6.0-0.0-8.0-1.29","3","3","4","4","3","3","3","4","3","3","5","2","1","4","4","4","4","2","4","4","2","5","2","5","3","2","2","4","2","1","0","0","1","0","0","1","1","1","1","1","0","0","0","1","5","3","5","1","2","4","4","5","5","2","1","799230569765543938","仲","102","","","","","","","","","","","","","","","","","","","false","4","4","ability","1270.0227272727273","positive","精干","","","","","","","","","","","","","","","","",""
"null","","null","html-keyboard-response","168","327955","0.0-6.0-0.0-8.0-0.30","3","3","4","4","3","3","3","4","3","3","5","2","1","4","4","4","4","2","4","4","2","5","2","5","3","2","2","4","2","1","0","0","1","0","0","1","1","1","1","1","0","0","0","1","5","3","5","1","2","4","4","5","5","2","1","799230569765543938","仲","102","","","","","","","","","","","","","","","","","","","","","","","","","","","","","","","","","","","","","","","","","",""
"1281","<p style=""color:rgb(150, 250, 100); font-size: 35px;"">我</p>","e","categorize-html","169","329241","0.0-6.0-0.0-8.0-1.30","3","3","4","4","3","3","3","4","3","3","5","2","1","4","4","4","4","2","4","4","2","5","2","5","3","2","2","4","2","1","0","0","1","0","0","1","1","1","1","1","0","0","0","1","5","3","5","1","2","4","4","5","5","2","1","799230569765543938","仲","102","","","","","","","","","","","","","","","","","","","true","4","4","ability","1281","self","我","","","","","","","","","","","","","","","","",""
"null","","null","html-keyboard-response","170","329492","0.0-6.0-0.0-8.0-0.31","3","3","4","4","3","3","3","4","3","3","5","2","1","4","4","4","4","2","4","4","2","5","2","5","3","2","2","4","2","1","0","0","1","0","0","1","1","1","1","1","0","0","0","1","5","3","5","1","2","4","4","5","5","2","1","799230569765543938","仲","102","","","","","","","","","","","","","","","","","","","","","","","","","","","","","","","","","","","","","","","","","",""
"666","<p style=""color:white; font-size: 35px;"">愚钝</p>","e","categorize-html","171","330162","0.0-6.0-0.0-8.0-1.31","3","3","4","4","3","3","3","4","3","3","5","2","1","4","4","4","4","2","4","4","2","5","2","5","3","2","2","4","2","1","0","0","1","0","0","1","1","1","1","1","0","0","0","1","5","3","5","1","2","4","4","5","5","2","1","799230569765543938","仲","102","","","","","","","","","","","","","","","","","","","true","4","4","ability","666","negative","愚钝","","","","","","","","","","","","","","","","",""
"null","","null","html-keyboard-response","172","330414","0.0-6.0-0.0-8.0-0.32","3","3","4","4","3","3","3","4","3","3","5","2","1","4","4","4","4","2","4","4","2","5","2","5","3","2","2","4","2","1","0","0","1","0","0","1","1","1","1","1","0","0","0","1","5","3","5","1","2","4","4","5","5","2","1","799230569765543938","仲","102","","","","","","","","","","","","","","","","","","","","","","","","","","","","","","","","","","","","","","","","","",""
"569","<p style=""color:rgb(150, 250, 100); font-size: 35px;"">别人的</p>","i","categorize-html","173","330988","0.0-6.0-0.0-8.0-1.32","3","3","4","4","3","3","3","4","3","3","5","2","1","4","4","4","4","2","4","4","2","5","2","5","3","2","2","4","2","1","0","0","1","0","0","1","1","1","1","1","0","0","0","1","5","3","5","1","2","4","4","5","5","2","1","799230569765543938","仲","102","","","","","","","","","","","","","","","","","","","true","4","4","ability","569","other","别人的","","","","","","","","","","","","","","","","",""
"null","","null","html-keyboard-response","174","331240","0.0-6.0-0.0-8.0-0.33","3","3","4","4","3","3","3","4","3","3","5","2","1","4","4","4","4","2","4","4","2","5","2","5","3","2","2","4","2","1","0","0","1","0","0","1","1","1","1","1","0","0","0","1","5","3","5","1","2","4","4","5","5","2","1","799230569765543938","仲","102","","","","","","","","","","","","","","","","","","","","","","","","","","","","","","","","","","","","","","","","","",""
"715","<p style=""color:white; font-size: 35px;"">能干</p>","i","categorize-html","175","331959","0.0-6.0-0.0-8.0-1.33","3","3","4","4","3","3","3","4","3","3","5","2","1","4","4","4","4","2","4","4","2","5","2","5","3","2","2","4","2","1","0","0","1","0","0","1","1","1","1","1","0","0","0","1","5","3","5","1","2","4","4","5","5","2","1","799230569765543938","仲","102","","","","","","","","","","","","","","","","","","","true","4","4","ability","715","positive","能干","","","","","","","","","","","","","","","","",""
"null","","null","html-keyboard-response","176","332211","0.0-6.0-0.0-8.0-0.34","3","3","4","4","3","3","3","4","3","3","5","2","1","4","4","4","4","2","4","4","2","5","2","5","3","2","2","4","2","1","0","0","1","0","0","1","1","1","1","1","0","0","0","1","5","3","5","1","2","4","4","5","5","2","1","799230569765543938","仲","102","","","","","","","","","","","","","","","","","","","","","","","","","","","","","","","","","","","","","","","","","",""
"596","<p style=""color:rgb(150, 250, 100); font-size: 35px;"">我的</p>","e","categorize-html","177","332812","0.0-6.0-0.0-8.0-1.34","3","3","4","4","3","3","3","4","3","3","5","2","1","4","4","4","4","2","4","4","2","5","2","5","3","2","2","4","2","1","0","0","1","0","0","1","1","1","1","1","0","0","0","1","5","3","5","1","2","4","4","5","5","2","1","799230569765543938","仲","102","","","","","","","","","","","","","","","","","","","true","4","4","ability","596","self","我的","","","","","","","","","","","","","","","","",""
"null","","null","html-keyboard-response","178","333063","0.0-6.0-0.0-8.0-0.35","3","3","4","4","3","3","3","4","3","3","5","2","1","4","4","4","4","2","4","4","2","5","2","5","3","2","2","4","2","1","0","0","1","0","0","1","1","1","1","1","0","0","0","1","5","3","5","1","2","4","4","5","5","2","1","799230569765543938","仲","102","","","","","","","","","","","","","","","","","","","","","","","","","","","","","","","","","","","","","","","","","",""
"568","<p style=""color:white; font-size: 35px;"">低能</p>","e","categorize-html","179","333635","0.0-6.0-0.0-8.0-1.35","3","3","4","4","3","3","3","4","3","3","5","2","1","4","4","4","4","2","4","4","2","5","2","5","3","2","2","4","2","1","0","0","1","0","0","1","1","1","1","1","0","0","0","1","5","3","5","1","2","4","4","5","5","2","1","799230569765543938","仲","102","","","","","","","","","","","","","","","","","","","true","4","4","ability","568","negative","低能","","","","","","","","","","","","","","","","",""
"null","","null","html-keyboard-response","180","333888","0.0-6.0-0.0-8.0-0.36","3","3","4","4","3","3","3","4","3","3","5","2","1","4","4","4","4","2","4","4","2","5","2","5","3","2","2","4","2","1","0","0","1","0","0","1","1","1","1","1","0","0","0","1","5","3","5","1","2","4","4","5","5","2","1","799230569765543938","仲","102","","","","","","","","","","","","","","","","","","","","","","","","","","","","","","","","","","","","","","","","","",""
"614","<p style=""color:rgb(150, 250, 100); font-size: 35px;"">本人</p>","e","categorize-html","181","334505","0.0-6.0-0.0-8.0-1.36","3","3","4","4","3","3","3","4","3","3","5","2","1","4","4","4","4","2","4","4","2","5","2","5","3","2","2","4","2","1","0","0","1","0","0","1","1","1","1","1","0","0","0","1","5","3","5","1","2","4","4","5","5","2","1","799230569765543938","仲","102","","","","","","","","","","","","","","","","","","","true","4","4","ability","614","self","本人","","","","","","","","","","","","","","","","",""
"null","","null","html-keyboard-response","182","334757","0.0-6.0-0.0-8.0-0.37","3","3","4","4","3","3","3","4","3","3","5","2","1","4","4","4","4","2","4","4","2","5","2","5","3","2","2","4","2","1","0","0","1","0","0","1","1","1","1","1","0","0","0","1","5","3","5","1","2","4","4","5","5","2","1","799230569765543938","仲","102","","","","","","","","","","","","","","","","","","","","","","","","","","","","","","","","","","","","","","","","","",""
"1027","<p style=""color:white; font-size: 35px;"">天才</p>","i","categorize-html","183","335788","0.0-6.0-0.0-8.0-1.37","3","3","4","4","3","3","3","4","3","3","5","2","1","4","4","4","4","2","4","4","2","5","2","5","3","2","2","4","2","1","0","0","1","0","0","1","1","1","1","1","0","0","0","1","5","3","5","1","2","4","4","5","5","2","1","799230569765543938","仲","102","","","","","","","","","","","","","","","","","","","true","4","4","ability","1027","positive","天才","","","","","","","","","","","","","","","","",""
"null","","null","html-keyboard-response","184","336040","0.0-6.0-0.0-8.0-0.38","3","3","4","4","3","3","3","4","3","3","5","2","1","4","4","4","4","2","4","4","2","5","2","5","3","2","2","4","2","1","0","0","1","0","0","1","1","1","1","1","0","0","0","1","5","3","5","1","2","4","4","5","5","2","1","799230569765543938","仲","102","","","","","","","","","","","","","","","","","","","","","","","","","","","","","","","","","","","","","","","","","",""
"481","<p style=""color:rgb(150, 250, 100); font-size: 35px;"">他人的</p>","i","categorize-html","185","336525","0.0-6.0-0.0-8.0-1.38","3","3","4","4","3","3","3","4","3","3","5","2","1","4","4","4","4","2","4","4","2","5","2","5","3","2","2","4","2","1","0","0","1","0","0","1","1","1","1","1","0","0","0","1","5","3","5","1","2","4","4","5","5","2","1","799230569765543938","仲","102","","","","","","","","","","","","","","","","","","","true","4","4","ability","481","other","他人的","","","","","","","","","","","","","","","","",""
"null","","null","html-keyboard-response","186","336777","0.0-6.0-0.0-8.0-0.39","3","3","4","4","3","3","3","4","3","3","5","2","1","4","4","4","4","2","4","4","2","5","2","5","3","2","2","4","2","1","0","0","1","0","0","1","1","1","1","1","0","0","0","1","5","3","5","1","2","4","4","5","5","2","1","799230569765543938","仲","102","","","","","","","","","","","","","","","","","","","","","","","","","","","","","","","","","","","","","","","","","",""
"499","<p style=""color:white; font-size: 35px;"">蠢笨</p>","e","categorize-html","187","337281","0.0-6.0-0.0-8.0-1.39","3","3","4","4","3","3","3","4","3","3","5","2","1","4","4","4","4","2","4","4","2","5","2","5","3","2","2","4","2","1","0","0","1","0","0","1","1","1","1","1","0","0","0","1","5","3","5","1","2","4","4","5","5","2","1","799230569765543938","仲","102","","","","","","","","","","","","","","","","","","","true","4","4","ability","499","negative","蠢笨","","","","","","","","","","","","","","","","",""
"null","","null","html-keyboard-response","188","337533","0.0-6.0-0.0-8.0-0.40","3","3","4","4","3","3","3","4","3","3","5","2","1","4","4","4","4","2","4","4","2","5","2","5","3","2","2","4","2","1","0","0","1","0","0","1","1","1","1","1","0","0","0","1","5","3","5","1","2","4","4","5","5","2","1","799230569765543938","仲","102","","","","","","","","","","","","","","","","","","","","","","","","","","","","","","","","","","","","","","","","","",""
"495","<p style=""color:rgb(150, 250, 100); font-size: 35px;"">他人</p>","i","categorize-html","189","338033","0.0-6.0-0.0-8.0-1.40","3","3","4","4","3","3","3","4","3","3","5","2","1","4","4","4","4","2","4","4","2","5","2","5","3","2","2","4","2","1","0","0","1","0","0","1","1","1","1","1","0","0","0","1","5","3","5","1","2","4","4","5","5","2","1","799230569765543938","仲","102","","","","","","","","","","","","","","","","","","","true","4","4","ability","495","other","他人","","","","","","","","","","","","","","","","",""
"null","","null","html-keyboard-response","190","338285","0.0-6.0-0.0-8.0-0.41","3","3","4","4","3","3","3","4","3","3","5","2","1","4","4","4","4","2","4","4","2","5","2","5","3","2","2","4","2","1","0","0","1","0","0","1","1","1","1","1","0","0","0","1","5","3","5","1","2","4","4","5","5","2","1","799230569765543938","仲","102","","","","","","","","","","","","","","","","","","","","","","","","","","","","","","","","","","","","","","","","","",""
"603","<p style=""color:white; font-size: 35px;"">蠢笨</p>","e","categorize-html","191","338891","0.0-6.0-0.0-8.0-1.41","3","3","4","4","3","3","3","4","3","3","5","2","1","4","4","4","4","2","4","4","2","5","2","5","3","2","2","4","2","1","0","0","1","0","0","1","1","1","1","1","0","0","0","1","5","3","5","1","2","4","4","5","5","2","1","799230569765543938","仲","102","","","","","","","","","","","","","","","","","","","true","4","4","ability","603","negative","蠢笨","","","","","","","","","","","","","","","","",""
"null","","null","html-keyboard-response","192","339144","0.0-6.0-0.0-8.0-0.42","3","3","4","4","3","3","3","4","3","3","5","2","1","4","4","4","4","2","4","4","2","5","2","5","3","2","2","4","2","1","0","0","1","0","0","1","1","1","1","1","0","0","0","1","5","3","5","1","2","4","4","5","5","2","1","799230569765543938","仲","102","","","","","","","","","","","","","","","","","","","","","","","","","","","","","","","","","","","","","","","","","",""
