"rt","stimulus","response","trial_type","trial_index","time_elapsed","internal_node_id","ses_1","ses_2","ses_3","ses_4","ses_5","ses_6","ses_7","ses_8","ses_9","ses_10","coreself_1","coreself_2","coreself_3","coreself_4","coreself_5","coreself_6","coreself_7","coreself_8","coreself_9","coreself_10","SGPS_1","SGPS_2","SGPS_3","SGPS_4","SGPS_5","SGPS_6","SGPS_7","SGPS_8","SGPS_9","NPI1","NPI2","NPI3","NPI4","NPI5","NPI6","NPI7","NPI8","NPI9","NPI10","NPI11","NPI12","NPI13","NPI14","NPI15","hsns_1","hsns_2","hsns_3","hsns_4","hsns_5","trap1","hsns_6","hsns_7","hsns_8","hsns_9","hsns_10","subj_idx","friend_name","ParticipantID","value","success","user_agent","responses","item_order","radio_event_ids","radio_event_times","key_event_times","mouse_event_times","straightlining","zigzagging","honeypot","timeout","failed_images","failed_audio","failed_video","version_attrib","version_target","correct","IAT","screen_id","task_id","RT","condition","word","varname","summary","version_attrib2","version_target2","time_stamp","view_history","response_type","key_press","avg_frame_time","center_x","center_y","correct_response","identity","Image","question_order","correct_answer","trap1_item"
"2206","
   <p><div style = ""color: white;font-size:25px;"">您好，欢迎参加本次实验。</div> </p>
   <p><div style = ""color: white;font-size:25px;"">为充分保障您的权利，请确保您已经知晓并同意《参与实验同意书》以及《数据公开知情同意书》。</div></p>
   <p><div style = ""color: white;font-size:25px;"">如果您未见过上述内容，请咨询实验员。</div></p>
   <p><div style = ""color: white;font-size:25px;"">如果您选择继续实验，则表示您已经清楚两份知情同意书的内容并同意。</div></p>
   <p><div style = ""color: pink;font-size:30px;"">请确保您记得day0的实验编号，您将在本次实验输入该编号，若您忘记，请咨询实验员后作答。</div></p>
   <p><div style = ""color: lightblue;font-size:25px;"">请您尽可能认真地作答，我们将依据您在各问卷和按键任务中的作答质量发放报酬。</div></p>
   <p> <div style = ""color: green;font-size:25px;""><按空格键至下页></div> </p>
   "," ","html-keyboard-response","0","2208","0.0-0.0","2","4","2","3","1","2","1","2","2","1","3","2","1","2","2","2","1","2","2","2","4","5","4","4","5","4","4","4","3","1","0","1","1","0","0","1","0","1","1","1","0","1","0","1","3","2","2","3","2","4","3","2","3","1","4","771420253753446401","张","244","","","","","","","","","","","","","","","","","","","","","","","","","","","","","","","","","","","","","","","","","",""
"","","","call-function","1","2209","0.0-1.0-0.0","2","4","2","3","1","2","1","2","2","1","3","2","1","2","2","2","1","2","2","2","4","5","4","4","5","4","4","4","3","1","0","1","1","0","0","1","0","1","1","1","0","1","0","1","3","2","2","3","2","4","3","2","3","1","4","771420253753446401","张","244","","","","","","","","","","","","","","","","","","","","","","","","","","","","","","","","","","","","","","","","","",""
"23215","","{""friend_name"":""张"",""ParticipantID"":""244""}","survey-html-form","2","25425","0.0-1.0-1.0","2","4","2","3","1","2","1","2","2","1","3","2","1","2","2","2","1","2","2","2","4","5","4","4","5","4","4","4","3","1","0","1","1","0","0","1","0","1","1","1","0","1","0","1","3","2","2","3","2","4","3","2","3","1","4","771420253753446401","张","244","","","","","","","","","","","","","","","","","","","","","","","","","","","","","","","","","","","","","","","","","",""
"","","","fullscreen","3","34096","0.0-2.0","2","4","2","3","1","2","1","2","2","1","3","2","1","2","2","2","1","2","2","2","4","5","4","4","5","4","4","4","3","1","0","1","1","0","0","1","0","1","1","1","0","1","0","1","3","2","2","3","2","4","3","2","3","1","4","771420253753446401","张","244","","true","{}","","","","","","","","","","","","","","","","","","","","","","","","","","","","","","","","","","","","","","",""
"80835.29999999702","","{""Q01"":""2"",""Q02"":""4"",""Q03"":""2"",""Q04"":""3"",""Q05"":""1"",""Q06"":""2"",""Q07"":""1"",""Q08"":""2"",""Q09"":""2"",""Q10"":""1""}","survey-template","4","114932","0.0-3.0","2","4","2","3","1","2","1","2","2","1","3","2","1","2","2","2","1","2","2","2","4","5","4","4","5","4","4","4","3","1","0","1","1","0","0","1","0","1","1","1","0","1","0","1","3","2","2","3","2","4","3","2","3","1","4","771420253753446401","张","244","","","","{""Q01"":""2"",""Q02"":""4"",""Q03"":""2"",""Q04"":""3"",""Q05"":""1"",""Q06"":""2"",""Q07"":""1"",""Q08"":""2"",""Q09"":""2"",""Q10"":""1""}","[0,1,2,3,4,5,6,7,8,9]","[""Q01"",""Q02"",""Q03"",""Q01"",""Q04"",""Q05"",""Q06"",""Q07"",""Q08"",""Q09"",""Q10""]","[12461.79999999702,17325.69999999553,40465.29999999702,45204.39999999851,50490,55912.19999999553,61945.29999999702,65689.39999999851,71070,75409.79999999702,79790]","[]","[12461.79999999702,17325.69999999553,40465.29999999702,45204.39999999851,50490,55057.89999999851,55912.19999999553,61945.29999999702,65689.39999999851,70499.09999999404,71070,75409.79999999702,78875.79999999702,79790,80834.39999999851]","0.4","0.4444444444444444","0","","","","","","","","","","","","","","","","","","","","","","","","","","","","","",""
"42267.90000000596","","{""Q01"":""3"",""Q02"":""2"",""Q03"":""1"",""Q04"":""2"",""Q05"":""2"",""Q06"":""2"",""Q07"":""1"",""Q08"":""2"",""Q09"":""2"",""Q10"":""2""}","survey-template","5","157205","0.0-4.0","2","4","2","3","1","2","1","2","2","1","3","2","1","2","2","2","1","2","2","2","4","5","4","4","5","4","4","4","3","1","0","1","1","0","0","1","0","1","1","1","0","1","0","1","3","2","2","3","2","4","3","2","3","1","4","771420253753446401","张","244","","","","{""Q01"":""3"",""Q02"":""2"",""Q03"":""1"",""Q04"":""2"",""Q05"":""2"",""Q06"":""2"",""Q07"":""1"",""Q08"":""2"",""Q09"":""2"",""Q10"":""2""}","[0,1,2,3,4,5,6,7,8,9]","[""Q01"",""Q02"",""Q03"",""Q04"",""Q05"",""Q05"",""Q06"",""Q07"",""Q08"",""Q09"",""Q10""]","[8316.5,10330.30000000447,16487.60000000149,22560.30000000447,25252.40000000596,26390.40000000596,30396.60000000149,32774.70000000298,35616.40000000596,39168.90000000596,41012.40000000596]","[]","[7664.4000000059605,8316.5,10330.30000000447,14190.30000000447,16487.60000000149,22560.30000000447,25252.40000000596,26390.40000000596,30396.60000000149,32774.70000000298,35616.40000000596,39168.90000000596,41012.40000000596,42266.90000000596]","0.4","0.3333333333333333","0","","","","","","","","","","","","","","","","","","","","","","","","","","","","","",""
"","","","preload","6","157491","0.0-5.0","2","4","2","3","1","2","1","2","2","1","3","2","1","2","2","2","1","2","2","2","4","5","4","4","5","4","4","4","3","1","0","1","1","0","0","1","0","1","1","1","0","1","0","1","3","2","2","3","2","4","3","2","3","1","4","771420253753446401","张","244","","true","","","","","","","","","","","false","[]","[]","[]","","","","","","","","","","","","","","","","","","","","","","","","","",""
"15206","
    <h3>词语分类任务</h3>
    <p>在接下来的任务中，你需要对一系列词语进行分类。</p>
    <p>请先熟悉这些词语，这有利于你完成接下来的任务。</p>
    <table align=""center"" border=1 cellpadding=3 cellspacing=0>
    <tr> <th>类别</th> <th>词语</th> </tr>
    <tr> <td>&emsp;积极&emsp;</td> <td>&emsp;能干、全能、全才、高效、精干、天才&emsp;</td> </tr>
    <tr> <td>&emsp;消极&emsp;</td> <td>&emsp;无能、低能、废物、拙笨、愚钝、蠢笨&emsp;</td> </tr>
    <tr> <td>&emsp;自我&emsp;</td> <td>&emsp;我、我的、自己、自己的、本人、本人的&emsp;</td> </tr>
    <tr> <td>&emsp;他人&emsp;</td> <td>&emsp;他、他的、别人、别人的、他人、他人的&emsp;</td> </tr>
    </table><br/>","0","html-button-response","7","172699","0.0-6.0-0.0-0.0","2","4","2","3","1","2","1","2","2","1","3","2","1","2","2","2","1","2","2","2","4","5","4","4","5","4","4","4","3","1","0","1","1","0","0","1","0","1","1","1","0","1","0","1","3","2","2","3","2","4","3","2","3","1","4","771420253753446401","张","244","","","","","","","","","","","","","","","","","1","1","","","","","","","","","","","","","","","","","","","","","","","",""
"12880","
    <div class=""tag-bottom"">
    <p> —— 任务1：对“自我”词和“他人”词分类 ——<p/>
    不同词语会出现在屏幕中央，类别标签将始终显示在屏幕上方<p/>   
    <span style=""color:#FFD866""><b>请根据上方标签的提示，尽可能正确并且快速地做出按键反应</b></span><p/>
    当按键错误时屏幕中会出现<span style=""color:red""> X </span>，需要按另一个键纠正才能继续<br/><p/>
    请把双手食指分别放在键盘的“E”键和“I”键上<p/>
    按<空格键>开始
    </p></div>"," ","html-keyboard-response","8","185581","0.0-6.0-0.0-1.0","2","4","2","3","1","2","1","2","2","1","3","2","1","2","2","2","1","2","2","2","4","5","4","4","5","4","4","4","3","1","0","1","1","0","0","1","0","1","1","1","0","1","0","1","3","2","2","3","2","4","3","2","3","1","4","771420253753446401","张","244","","","","","","","","","","","","","","","","","","","","","","","","","","","","","","","","","","","","","","","","","",""
"null","","null","html-keyboard-response","9","185833","0.0-6.0-0.0-2.0-0.0","2","4","2","3","1","2","1","2","2","1","3","2","1","2","2","2","1","2","2","2","4","5","4","4","5","4","4","4","3","1","0","1","1","0","0","1","0","1","1","1","0","1","0","1","3","2","2","3","2","4","3","2","3","1","4","771420253753446401","张","244","","","","","","","","","","","","","","","","","","","","","","","","","","","","","","","","","","","","","","","","","",""
"5850","<p style=""color:rgb(150, 250, 100); font-size: 35px;"">他人</p>","e","categorize-html","10","199706","0.0-6.0-0.0-2.0-1.0","2","4","2","3","1","2","1","2","2","1","3","2","1","2","2","2","1","2","2","2","4","5","4","4","5","4","4","4","3","1","0","1","1","0","0","1","0","1","1","1","0","1","0","1","3","2","2","3","2","4","3","2","3","1","4","771420253753446401","张","244","","","","","","","","","","","","","","","","","","","false","1","1","ability","5850","other","他人","","","","","","","","","","","","","","","","",""
"null","","null","html-keyboard-response","11","199957","0.0-6.0-0.0-2.0-0.1","2","4","2","3","1","2","1","2","2","1","3","2","1","2","2","2","1","2","2","2","4","5","4","4","5","4","4","4","3","1","0","1","1","0","0","1","0","1","1","1","0","1","0","1","3","2","2","3","2","4","3","2","3","1","4","771420253753446401","张","244","","","","","","","","","","","","","","","","","","","","","","","","","","","","","","","","","","","","","","","","","",""
"2300","<p style=""color:rgb(150, 250, 100); font-size: 35px;"">我</p>","e","categorize-html","12","202258","0.0-6.0-0.0-2.0-1.1","2","4","2","3","1","2","1","2","2","1","3","2","1","2","2","2","1","2","2","2","4","5","4","4","5","4","4","4","3","1","0","1","1","0","0","1","0","1","1","1","0","1","0","1","3","2","2","3","2","4","3","2","3","1","4","771420253753446401","张","244","","","","","","","","","","","","","","","","","","","true","1","1","ability","2300","self","我","","","","","","","","","","","","","","","","",""
"null","","null","html-keyboard-response","13","202509","0.0-6.0-0.0-2.0-0.2","2","4","2","3","1","2","1","2","2","1","3","2","1","2","2","2","1","2","2","2","4","5","4","4","5","4","4","4","3","1","0","1","1","0","0","1","0","1","1","1","0","1","0","1","3","2","2","3","2","4","3","2","3","1","4","771420253753446401","张","244","","","","","","","","","","","","","","","","","","","","","","","","","","","","","","","","","","","","","","","","","",""
"1292","<p style=""color:rgb(150, 250, 100); font-size: 35px;"">别人</p>","i","categorize-html","14","203803","0.0-6.0-0.0-2.0-1.2","2","4","2","3","1","2","1","2","2","1","3","2","1","2","2","2","1","2","2","2","4","5","4","4","5","4","4","4","3","1","0","1","1","0","0","1","0","1","1","1","0","1","0","1","3","2","2","3","2","4","3","2","3","1","4","771420253753446401","张","244","","","","","","","","","","","","","","","","","","","true","1","1","ability","1292","other","别人","","","","","","","","","","","","","","","","",""
"null","","null","html-keyboard-response","15","204054","0.0-6.0-0.0-2.0-0.3","2","4","2","3","1","2","1","2","2","1","3","2","1","2","2","2","1","2","2","2","4","5","4","4","5","4","4","4","3","1","0","1","1","0","0","1","0","1","1","1","0","1","0","1","3","2","2","3","2","4","3","2","3","1","4","771420253753446401","张","244","","","","","","","","","","","","","","","","","","","","","","","","","","","","","","","","","","","","","","","","","",""
"751","<p style=""color:rgb(150, 250, 100); font-size: 35px;"">我的</p>","e","categorize-html","16","204806","0.0-6.0-0.0-2.0-1.3","2","4","2","3","1","2","1","2","2","1","3","2","1","2","2","2","1","2","2","2","4","5","4","4","5","4","4","4","3","1","0","1","1","0","0","1","0","1","1","1","0","1","0","1","3","2","2","3","2","4","3","2","3","1","4","771420253753446401","张","244","","","","","","","","","","","","","","","","","","","true","1","1","ability","751","self","我的","","","","","","","","","","","","","","","","",""
"null","","null","html-keyboard-response","17","205057","0.0-6.0-0.0-2.0-0.4","2","4","2","3","1","2","1","2","2","1","3","2","1","2","2","2","1","2","2","2","4","5","4","4","5","4","4","4","3","1","0","1","1","0","0","1","0","1","1","1","0","1","0","1","3","2","2","3","2","4","3","2","3","1","4","771420253753446401","张","244","","","","","","","","","","","","","","","","","","","","","","","","","","","","","","","","","","","","","","","","","",""
"2305","<p style=""color:rgb(150, 250, 100); font-size: 35px;"">自己的</p>","e","categorize-html","18","207364","0.0-6.0-0.0-2.0-1.4","2","4","2","3","1","2","1","2","2","1","3","2","1","2","2","2","1","2","2","2","4","5","4","4","5","4","4","4","3","1","0","1","1","0","0","1","0","1","1","1","0","1","0","1","3","2","2","3","2","4","3","2","3","1","4","771420253753446401","张","244","","","","","","","","","","","","","","","","","","","true","1","1","ability","2305","self","自己的","","","","","","","","","","","","","","","","",""
"null","","null","html-keyboard-response","19","207614","0.0-6.0-0.0-2.0-0.5","2","4","2","3","1","2","1","2","2","1","3","2","1","2","2","2","1","2","2","2","4","5","4","4","5","4","4","4","3","1","0","1","1","0","0","1","0","1","1","1","0","1","0","1","3","2","2","3","2","4","3","2","3","1","4","771420253753446401","张","244","","","","","","","","","","","","","","","","","","","","","","","","","","","","","","","","","","","","","","","","","",""
"1777","<p style=""color:rgb(150, 250, 100); font-size: 35px;"">本人</p>","e","categorize-html","20","209393","0.0-6.0-0.0-2.0-1.5","2","4","2","3","1","2","1","2","2","1","3","2","1","2","2","2","1","2","2","2","4","5","4","4","5","4","4","4","3","1","0","1","1","0","0","1","0","1","1","1","0","1","0","1","3","2","2","3","2","4","3","2","3","1","4","771420253753446401","张","244","","","","","","","","","","","","","","","","","","","true","1","1","ability","1777","self","本人","","","","","","","","","","","","","","","","",""
"null","","null","html-keyboard-response","21","209645","0.0-6.0-0.0-2.0-0.6","2","4","2","3","1","2","1","2","2","1","3","2","1","2","2","2","1","2","2","2","4","5","4","4","5","4","4","4","3","1","0","1","1","0","0","1","0","1","1","1","0","1","0","1","3","2","2","3","2","4","3","2","3","1","4","771420253753446401","张","244","","","","","","","","","","","","","","","","","","","","","","","","","","","","","","","","","","","","","","","","","",""
"803","<p style=""color:rgb(150, 250, 100); font-size: 35px;"">别人的</p>","i","categorize-html","22","210449","0.0-6.0-0.0-2.0-1.6","2","4","2","3","1","2","1","2","2","1","3","2","1","2","2","2","1","2","2","2","4","5","4","4","5","4","4","4","3","1","0","1","1","0","0","1","0","1","1","1","0","1","0","1","3","2","2","3","2","4","3","2","3","1","4","771420253753446401","张","244","","","","","","","","","","","","","","","","","","","true","1","1","ability","803","other","别人的","","","","","","","","","","","","","","","","",""
"null","","null","html-keyboard-response","23","210699","0.0-6.0-0.0-2.0-0.7","2","4","2","3","1","2","1","2","2","1","3","2","1","2","2","2","1","2","2","2","4","5","4","4","5","4","4","4","3","1","0","1","1","0","0","1","0","1","1","1","0","1","0","1","3","2","2","3","2","4","3","2","3","1","4","771420253753446401","张","244","","","","","","","","","","","","","","","","","","","","","","","","","","","","","","","","","","","","","","","","","",""
"804","<p style=""color:rgb(150, 250, 100); font-size: 35px;"">自己</p>","e","categorize-html","24","211504","0.0-6.0-0.0-2.0-1.7","2","4","2","3","1","2","1","2","2","1","3","2","1","2","2","2","1","2","2","2","4","5","4","4","5","4","4","4","3","1","0","1","1","0","0","1","0","1","1","1","0","1","0","1","3","2","2","3","2","4","3","2","3","1","4","771420253753446401","张","244","","","","","","","","","","","","","","","","","","","true","1","1","ability","804","self","自己","","","","","","","","","","","","","","","","",""
"null","","null","html-keyboard-response","25","211756","0.0-6.0-0.0-2.0-0.8","2","4","2","3","1","2","1","2","2","1","3","2","1","2","2","2","1","2","2","2","4","5","4","4","5","4","4","4","3","1","0","1","1","0","0","1","0","1","1","1","0","1","0","1","3","2","2","3","2","4","3","2","3","1","4","771420253753446401","张","244","","","","","","","","","","","","","","","","","","","","","","","","","","","","","","","","","","","","","","","","","",""
"534","<p style=""color:rgb(150, 250, 100); font-size: 35px;"">他人的</p>","i","categorize-html","26","212291","0.0-6.0-0.0-2.0-1.8","2","4","2","3","1","2","1","2","2","1","3","2","1","2","2","2","1","2","2","2","4","5","4","4","5","4","4","4","3","1","0","1","1","0","0","1","0","1","1","1","0","1","0","1","3","2","2","3","2","4","3","2","3","1","4","771420253753446401","张","244","","","","","","","","","","","","","","","","","","","true","1","1","ability","534","other","他人的","","","","","","","","","","","","","","","","",""
"null","","null","html-keyboard-response","27","212543","0.0-6.0-0.0-2.0-0.9","2","4","2","3","1","2","1","2","2","1","3","2","1","2","2","2","1","2","2","2","4","5","4","4","5","4","4","4","3","1","0","1","1","0","0","1","0","1","1","1","0","1","0","1","3","2","2","3","2","4","3","2","3","1","4","771420253753446401","张","244","","","","","","","","","","","","","","","","","","","","","","","","","","","","","","","","","","","","","","","","","",""
"1869","<p style=""color:rgb(150, 250, 100); font-size: 35px;"">他的</p>","i","categorize-html","28","214414","0.0-6.0-0.0-2.0-1.9","2","4","2","3","1","2","1","2","2","1","3","2","1","2","2","2","1","2","2","2","4","5","4","4","5","4","4","4","3","1","0","1","1","0","0","1","0","1","1","1","0","1","0","1","3","2","2","3","2","4","3","2","3","1","4","771420253753446401","张","244","","","","","","","","","","","","","","","","","","","true","1","1","ability","1869","other","他的","","","","","","","","","","","","","","","","",""
"null","","null","html-keyboard-response","29","214665","0.0-6.0-0.0-2.0-0.10","2","4","2","3","1","2","1","2","2","1","3","2","1","2","2","2","1","2","2","2","4","5","4","4","5","4","4","4","3","1","0","1","1","0","0","1","0","1","1","1","0","1","0","1","3","2","2","3","2","4","3","2","3","1","4","771420253753446401","张","244","","","","","","","","","","","","","","","","","","","","","","","","","","","","","","","","","","","","","","","","","",""
"804","<p style=""color:rgb(150, 250, 100); font-size: 35px;"">他</p>","i","categorize-html","30","215470","0.0-6.0-0.0-2.0-1.10","2","4","2","3","1","2","1","2","2","1","3","2","1","2","2","2","1","2","2","2","4","5","4","4","5","4","4","4","3","1","0","1","1","0","0","1","0","1","1","1","0","1","0","1","3","2","2","3","2","4","3","2","3","1","4","771420253753446401","张","244","","","","","","","","","","","","","","","","","","","true","1","1","ability","804","other","他","","","","","","","","","","","","","","","","",""
"null","","null","html-keyboard-response","31","215722","0.0-6.0-0.0-2.0-0.11","2","4","2","3","1","2","1","2","2","1","3","2","1","2","2","2","1","2","2","2","4","5","4","4","5","4","4","4","3","1","0","1","1","0","0","1","0","1","1","1","0","1","0","1","3","2","2","3","2","4","3","2","3","1","4","771420253753446401","张","244","","","","","","","","","","","","","","","","","","","","","","","","","","","","","","","","","","","","","","","","","",""
"1473","<p style=""color:rgb(150, 250, 100); font-size: 35px;"">本人的</p>","e","categorize-html","32","217197","0.0-6.0-0.0-2.0-1.11","2","4","2","3","1","2","1","2","2","1","3","2","1","2","2","2","1","2","2","2","4","5","4","4","5","4","4","4","3","1","0","1","1","0","0","1","0","1","1","1","0","1","0","1","3","2","2","3","2","4","3","2","3","1","4","771420253753446401","张","244","","","","","","","","","","","","","","","","","","","true","1","1","ability","1473","self","本人的","","","","","","","","","","","","","","","","",""
"4510","
    <div class=""tag-bottom""><p>
    —— 任务2：对“积极”词和“消极”词分类 ——<p/>   
    <span style=""color:#78DCE8""><b>注意上方，类别标签和需要分类的词语都已经改变</b></span><p/>
    <span style=""color:#FFD866""><b>请根据上方标签的提示，尽可能正确并且快速地做出按键反应</b></span><p/>
    当按键错误时屏幕中会出现<span style=""color:red""> X </span>，需要按另一个键纠正才能继续<br/><p/>
    请把双手食指分别放在键盘的“E”键和“I”键上<p/>
    按<空格键>开始
    </p></div>"," ","html-keyboard-response","33","221708","0.0-6.0-0.0-3.0","2","4","2","3","1","2","1","2","2","1","3","2","1","2","2","2","1","2","2","2","4","5","4","4","5","4","4","4","3","1","0","1","1","0","0","1","0","1","1","1","0","1","0","1","3","2","2","3","2","4","3","2","3","1","4","771420253753446401","张","244","","","","","","","","","","","","","","","","","","","","","","","","","","","","","","","","","","","","","","","","","",""
"null","","null","html-keyboard-response","34","221959","0.0-6.0-0.0-4.0-0.0","2","4","2","3","1","2","1","2","2","1","3","2","1","2","2","2","1","2","2","2","4","5","4","4","5","4","4","4","3","1","0","1","1","0","0","1","0","1","1","1","0","1","0","1","3","2","2","3","2","4","3","2","3","1","4","771420253753446401","张","244","","","","","","","","","","","","","","","","","","","","","","","","","","","","","","","","","","","","","","","","","",""
"2395","<p style=""color:white; font-size: 35px;"">高效</p>","e","categorize-html","35","224356","0.0-6.0-0.0-4.0-1.0","2","4","2","3","1","2","1","2","2","1","3","2","1","2","2","2","1","2","2","2","4","5","4","4","5","4","4","4","3","1","0","1","1","0","0","1","0","1","1","1","0","1","0","1","3","2","2","3","2","4","3","2","3","1","4","771420253753446401","张","244","","","","","","","","","","","","","","","","","","","true","2","2","ability","2395","positive","高效","","","","","","","","","","","","","","","","",""
"null","","null","html-keyboard-response","36","224607","0.0-6.0-0.0-4.0-0.1","2","4","2","3","1","2","1","2","2","1","3","2","1","2","2","2","1","2","2","2","4","5","4","4","5","4","4","4","3","1","0","1","1","0","0","1","0","1","1","1","0","1","0","1","3","2","2","3","2","4","3","2","3","1","4","771420253753446401","张","244","","","","","","","","","","","","","","","","","","","","","","","","","","","","","","","","","","","","","","","","","",""
"608","<p style=""color:white; font-size: 35px;"">能干</p>","e","categorize-html","37","225216","0.0-6.0-0.0-4.0-1.1","2","4","2","3","1","2","1","2","2","1","3","2","1","2","2","2","1","2","2","2","4","5","4","4","5","4","4","4","3","1","0","1","1","0","0","1","0","1","1","1","0","1","0","1","3","2","2","3","2","4","3","2","3","1","4","771420253753446401","张","244","","","","","","","","","","","","","","","","","","","true","2","2","ability","608","positive","能干","","","","","","","","","","","","","","","","",""
"null","","null","html-keyboard-response","38","225467","0.0-6.0-0.0-4.0-0.2","2","4","2","3","1","2","1","2","2","1","3","2","1","2","2","2","1","2","2","2","4","5","4","4","5","4","4","4","3","1","0","1","1","0","0","1","0","1","1","1","0","1","0","1","3","2","2","3","2","4","3","2","3","1","4","771420253753446401","张","244","","","","","","","","","","","","","","","","","","","","","","","","","","","","","","","","","","","","","","","","","",""
"481","<p style=""color:white; font-size: 35px;"">全能</p>","e","categorize-html","39","225948","0.0-6.0-0.0-4.0-1.2","2","4","2","3","1","2","1","2","2","1","3","2","1","2","2","2","1","2","2","2","4","5","4","4","5","4","4","4","3","1","0","1","1","0","0","1","0","1","1","1","0","1","0","1","3","2","2","3","2","4","3","2","3","1","4","771420253753446401","张","244","","","","","","","","","","","","","","","","","","","true","2","2","ability","481","positive","全能","","","","","","","","","","","","","","","","",""
"null","","null","html-keyboard-response","40","226200","0.0-6.0-0.0-4.0-0.3","2","4","2","3","1","2","1","2","2","1","3","2","1","2","2","2","1","2","2","2","4","5","4","4","5","4","4","4","3","1","0","1","1","0","0","1","0","1","1","1","0","1","0","1","3","2","2","3","2","4","3","2","3","1","4","771420253753446401","张","244","","","","","","","","","","","","","","","","","","","","","","","","","","","","","","","","","","","","","","","","","",""
"586","<p style=""color:white; font-size: 35px;"">无能</p>","i","categorize-html","41","226787","0.0-6.0-0.0-4.0-1.3","2","4","2","3","1","2","1","2","2","1","3","2","1","2","2","2","1","2","2","2","4","5","4","4","5","4","4","4","3","1","0","1","1","0","0","1","0","1","1","1","0","1","0","1","3","2","2","3","2","4","3","2","3","1","4","771420253753446401","张","244","","","","","","","","","","","","","","","","","","","true","2","2","ability","586","negative","无能","","","","","","","","","","","","","","","","",""
"null","","null","html-keyboard-response","42","227038","0.0-6.0-0.0-4.0-0.4","2","4","2","3","1","2","1","2","2","1","3","2","1","2","2","2","1","2","2","2","4","5","4","4","5","4","4","4","3","1","0","1","1","0","0","1","0","1","1","1","0","1","0","1","3","2","2","3","2","4","3","2","3","1","4","771420253753446401","张","244","","","","","","","","","","","","","","","","","","","","","","","","","","","","","","","","","","","","","","","","","",""
"617","<p style=""color:white; font-size: 35px;"">天才</p>","e","categorize-html","43","227657","0.0-6.0-0.0-4.0-1.4","2","4","2","3","1","2","1","2","2","1","3","2","1","2","2","2","1","2","2","2","4","5","4","4","5","4","4","4","3","1","0","1","1","0","0","1","0","1","1","1","0","1","0","1","3","2","2","3","2","4","3","2","3","1","4","771420253753446401","张","244","","","","","","","","","","","","","","","","","","","true","2","2","ability","617","positive","天才","","","","","","","","","","","","","","","","",""
"null","","null","html-keyboard-response","44","227908","0.0-6.0-0.0-4.0-0.5","2","4","2","3","1","2","1","2","2","1","3","2","1","2","2","2","1","2","2","2","4","5","4","4","5","4","4","4","3","1","0","1","1","0","0","1","0","1","1","1","0","1","0","1","3","2","2","3","2","4","3","2","3","1","4","771420253753446401","张","244","","","","","","","","","","","","","","","","","","","","","","","","","","","","","","","","","","","","","","","","","",""
"504","<p style=""color:white; font-size: 35px;"">低能</p>","i","categorize-html","45","228414","0.0-6.0-0.0-4.0-1.5","2","4","2","3","1","2","1","2","2","1","3","2","1","2","2","2","1","2","2","2","4","5","4","4","5","4","4","4","3","1","0","1","1","0","0","1","0","1","1","1","0","1","0","1","3","2","2","3","2","4","3","2","3","1","4","771420253753446401","张","244","","","","","","","","","","","","","","","","","","","true","2","2","ability","504","negative","低能","","","","","","","","","","","","","","","","",""
"null","","null","html-keyboard-response","46","228665","0.0-6.0-0.0-4.0-0.6","2","4","2","3","1","2","1","2","2","1","3","2","1","2","2","2","1","2","2","2","4","5","4","4","5","4","4","4","3","1","0","1","1","0","0","1","0","1","1","1","0","1","0","1","3","2","2","3","2","4","3","2","3","1","4","771420253753446401","张","244","","","","","","","","","","","","","","","","","","","","","","","","","","","","","","","","","","","","","","","","","",""
"514","<p style=""color:white; font-size: 35px;"">愚钝</p>","i","categorize-html","47","229180","0.0-6.0-0.0-4.0-1.6","2","4","2","3","1","2","1","2","2","1","3","2","1","2","2","2","1","2","2","2","4","5","4","4","5","4","4","4","3","1","0","1","1","0","0","1","0","1","1","1","0","1","0","1","3","2","2","3","2","4","3","2","3","1","4","771420253753446401","张","244","","","","","","","","","","","","","","","","","","","true","2","2","ability","514","negative","愚钝","","","","","","","","","","","","","","","","",""
"null","","null","html-keyboard-response","48","229431","0.0-6.0-0.0-4.0-0.7","2","4","2","3","1","2","1","2","2","1","3","2","1","2","2","2","1","2","2","2","4","5","4","4","5","4","4","4","3","1","0","1","1","0","0","1","0","1","1","1","0","1","0","1","3","2","2","3","2","4","3","2","3","1","4","771420253753446401","张","244","","","","","","","","","","","","","","","","","","","","","","","","","","","","","","","","","","","","","","","","","",""
"717","<p style=""color:white; font-size: 35px;"">废物</p>","i","categorize-html","49","230149","0.0-6.0-0.0-4.0-1.7","2","4","2","3","1","2","1","2","2","1","3","2","1","2","2","2","1","2","2","2","4","5","4","4","5","4","4","4","3","1","0","1","1","0","0","1","0","1","1","1","0","1","0","1","3","2","2","3","2","4","3","2","3","1","4","771420253753446401","张","244","","","","","","","","","","","","","","","","","","","true","2","2","ability","717","negative","废物","","","","","","","","","","","","","","","","",""
"null","","null","html-keyboard-response","50","230400","0.0-6.0-0.0-4.0-0.8","2","4","2","3","1","2","1","2","2","1","3","2","1","2","2","2","1","2","2","2","4","5","4","4","5","4","4","4","3","1","0","1","1","0","0","1","0","1","1","1","0","1","0","1","3","2","2","3","2","4","3","2","3","1","4","771420253753446401","张","244","","","","","","","","","","","","","","","","","","","","","","","","","","","","","","","","","","","","","","","","","",""
"935","<p style=""color:white; font-size: 35px;"">全才</p>","e","categorize-html","51","231336","0.0-6.0-0.0-4.0-1.8","2","4","2","3","1","2","1","2","2","1","3","2","1","2","2","2","1","2","2","2","4","5","4","4","5","4","4","4","3","1","0","1","1","0","0","1","0","1","1","1","0","1","0","1","3","2","2","3","2","4","3","2","3","1","4","771420253753446401","张","244","","","","","","","","","","","","","","","","","","","true","2","2","ability","935","positive","全才","","","","","","","","","","","","","","","","",""
"null","","null","html-keyboard-response","52","231586","0.0-6.0-0.0-4.0-0.9","2","4","2","3","1","2","1","2","2","1","3","2","1","2","2","2","1","2","2","2","4","5","4","4","5","4","4","4","3","1","0","1","1","0","0","1","0","1","1","1","0","1","0","1","3","2","2","3","2","4","3","2","3","1","4","771420253753446401","张","244","","","","","","","","","","","","","","","","","","","","","","","","","","","","","","","","","","","","","","","","","",""
"921","<p style=""color:white; font-size: 35px;"">拙笨</p>","i","categorize-html","53","232509","0.0-6.0-0.0-4.0-1.9","2","4","2","3","1","2","1","2","2","1","3","2","1","2","2","2","1","2","2","2","4","5","4","4","5","4","4","4","3","1","0","1","1","0","0","1","0","1","1","1","0","1","0","1","3","2","2","3","2","4","3","2","3","1","4","771420253753446401","张","244","","","","","","","","","","","","","","","","","","","true","2","2","ability","921","negative","拙笨","","","","","","","","","","","","","","","","",""
"null","","null","html-keyboard-response","54","232760","0.0-6.0-0.0-4.0-0.10","2","4","2","3","1","2","1","2","2","1","3","2","1","2","2","2","1","2","2","2","4","5","4","4","5","4","4","4","3","1","0","1","1","0","0","1","0","1","1","1","0","1","0","1","3","2","2","3","2","4","3","2","3","1","4","771420253753446401","张","244","","","","","","","","","","","","","","","","","","","","","","","","","","","","","","","","","","","","","","","","","",""
"712","<p style=""color:white; font-size: 35px;"">精干</p>","e","categorize-html","55","233473","0.0-6.0-0.0-4.0-1.10","2","4","2","3","1","2","1","2","2","1","3","2","1","2","2","2","1","2","2","2","4","5","4","4","5","4","4","4","3","1","0","1","1","0","0","1","0","1","1","1","0","1","0","1","3","2","2","3","2","4","3","2","3","1","4","771420253753446401","张","244","","","","","","","","","","","","","","","","","","","true","2","2","ability","712","positive","精干","","","","","","","","","","","","","","","","",""
"null","","null","html-keyboard-response","56","233724","0.0-6.0-0.0-4.0-0.11","2","4","2","3","1","2","1","2","2","1","3","2","1","2","2","2","1","2","2","2","4","5","4","4","5","4","4","4","3","1","0","1","1","0","0","1","0","1","1","1","0","1","0","1","3","2","2","3","2","4","3","2","3","1","4","771420253753446401","张","244","","","","","","","","","","","","","","","","","","","","","","","","","","","","","","","","","","","","","","","","","",""
"683","<p style=""color:white; font-size: 35px;"">蠢笨</p>","i","categorize-html","57","234408","0.0-6.0-0.0-4.0-1.11","2","4","2","3","1","2","1","2","2","1","3","2","1","2","2","2","1","2","2","2","4","5","4","4","5","4","4","4","3","1","0","1","1","0","0","1","0","1","1","1","0","1","0","1","3","2","2","3","2","4","3","2","3","1","4","771420253753446401","张","244","","","","","","","","","","","","","","","","","","","true","2","2","ability","683","negative","蠢笨","","","","","","","","","","","","","","","","",""
"1881","
    <div class=""tag-bottom""><p>
    —— 任务3：对“自我/积极”词和“他人/消极”词分类 ——<p/>
    <span style=""color:#78DCE8""><b>注意上方，之前的四类词语将混合在一起交替呈现</b></span><p/>
    <span style=""color:#FFD866""><b>请根据上方标签的提示，尽可能正确并且快速地做出按键反应</b></span><p/>
    当按键错误时屏幕中会出现<span style=""color:red""> X </span>，需要按另一个键纠正才能继续<br/><p/>
    请把双手食指分别放在键盘的“E”键和“I”键上<p/>
    按<空格键>开始
    </p></div>"," ","html-keyboard-response","58","236289","0.0-6.0-0.0-5.0","2","4","2","3","1","2","1","2","2","1","3","2","1","2","2","2","1","2","2","2","4","5","4","4","5","4","4","4","3","1","0","1","1","0","0","1","0","1","1","1","0","1","0","1","3","2","2","3","2","4","3","2","3","1","4","771420253753446401","张","244","","","","","","","","","","","","","","","","","","","","","","","","","","","","","","","","","","","","","","","","","",""
"null","","null","html-keyboard-response","59","236540","0.0-6.0-0.0-6.0-0.0","2","4","2","3","1","2","1","2","2","1","3","2","1","2","2","2","1","2","2","2","4","5","4","4","5","4","4","4","3","1","0","1","1","0","0","1","0","1","1","1","0","1","0","1","3","2","2","3","2","4","3","2","3","1","4","771420253753446401","张","244","","","","","","","","","","","","","","","","","","","","","","","","","","","","","","","","","","","","","","","","","",""
"1312","<p style=""color:rgb(150, 250, 100); font-size: 35px;"">自己的</p>","e","categorize-html","60","237854","0.0-6.0-0.0-6.0-1.0","2","4","2","3","1","2","1","2","2","1","3","2","1","2","2","2","1","2","2","2","4","5","4","4","5","4","4","4","3","1","0","1","1","0","0","1","0","1","1","1","0","1","0","1","3","2","2","3","2","4","3","2","3","1","4","771420253753446401","张","244","","","","","","","","","","","","","","","","","","","true","3","3","ability","1312","self","自己的","","","","","","","","","","","","","","","","",""
"null","","null","html-keyboard-response","61","238106","0.0-6.0-0.0-6.0-0.1","2","4","2","3","1","2","1","2","2","1","3","2","1","2","2","2","1","2","2","2","4","5","4","4","5","4","4","4","3","1","0","1","1","0","0","1","0","1","1","1","0","1","0","1","3","2","2","3","2","4","3","2","3","1","4","771420253753446401","张","244","","","","","","","","","","","","","","","","","","","","","","","","","","","","","","","","","","","","","","","","","",""
"1123","<p style=""color:white; font-size: 35px;"">全能</p>","e","categorize-html","62","239231","0.0-6.0-0.0-6.0-1.1","2","4","2","3","1","2","1","2","2","1","3","2","1","2","2","2","1","2","2","2","4","5","4","4","5","4","4","4","3","1","0","1","1","0","0","1","0","1","1","1","0","1","0","1","3","2","2","3","2","4","3","2","3","1","4","771420253753446401","张","244","","","","","","","","","","","","","","","","","","","true","3","3","ability","1123","positive","全能","","","","","","","","","","","","","","","","",""
"null","","null","html-keyboard-response","63","239481","0.0-6.0-0.0-6.0-0.2","2","4","2","3","1","2","1","2","2","1","3","2","1","2","2","2","1","2","2","2","4","5","4","4","5","4","4","4","3","1","0","1","1","0","0","1","0","1","1","1","0","1","0","1","3","2","2","3","2","4","3","2","3","1","4","771420253753446401","张","244","","","","","","","","","","","","","","","","","","","","","","","","","","","","","","","","","","","","","","","","","",""
"947","<p style=""color:rgb(150, 250, 100); font-size: 35px;"">他</p>","i","categorize-html","64","240429","0.0-6.0-0.0-6.0-1.2","2","4","2","3","1","2","1","2","2","1","3","2","1","2","2","2","1","2","2","2","4","5","4","4","5","4","4","4","3","1","0","1","1","0","0","1","0","1","1","1","0","1","0","1","3","2","2","3","2","4","3","2","3","1","4","771420253753446401","张","244","","","","","","","","","","","","","","","","","","","true","3","3","ability","947","other","他","","","","","","","","","","","","","","","","",""
"null","","null","html-keyboard-response","65","240680","0.0-6.0-0.0-6.0-0.3","2","4","2","3","1","2","1","2","2","1","3","2","1","2","2","2","1","2","2","2","4","5","4","4","5","4","4","4","3","1","0","1","1","0","0","1","0","1","1","1","0","1","0","1","3","2","2","3","2","4","3","2","3","1","4","771420253753446401","张","244","","","","","","","","","","","","","","","","","","","","","","","","","","","","","","","","","","","","","","","","","",""
"821","<p style=""color:white; font-size: 35px;"">无能</p>","i","categorize-html","66","241502","0.0-6.0-0.0-6.0-1.3","2","4","2","3","1","2","1","2","2","1","3","2","1","2","2","2","1","2","2","2","4","5","4","4","5","4","4","4","3","1","0","1","1","0","0","1","0","1","1","1","0","1","0","1","3","2","2","3","2","4","3","2","3","1","4","771420253753446401","张","244","","","","","","","","","","","","","","","","","","","true","3","3","ability","821","negative","无能","","","","","","","","","","","","","","","","",""
"null","","null","html-keyboard-response","67","241753","0.0-6.0-0.0-6.0-0.4","2","4","2","3","1","2","1","2","2","1","3","2","1","2","2","2","1","2","2","2","4","5","4","4","5","4","4","4","3","1","0","1","1","0","0","1","0","1","1","1","0","1","0","1","3","2","2","3","2","4","3","2","3","1","4","771420253753446401","张","244","","","","","","","","","","","","","","","","","","","","","","","","","","","","","","","","","","","","","","","","","",""
"693","<p style=""color:rgb(150, 250, 100); font-size: 35px;"">他人</p>","i","categorize-html","68","242448","0.0-6.0-0.0-6.0-1.4","2","4","2","3","1","2","1","2","2","1","3","2","1","2","2","2","1","2","2","2","4","5","4","4","5","4","4","4","3","1","0","1","1","0","0","1","0","1","1","1","0","1","0","1","3","2","2","3","2","4","3","2","3","1","4","771420253753446401","张","244","","","","","","","","","","","","","","","","","","","true","3","3","ability","693","other","他人","","","","","","","","","","","","","","","","",""
"null","","null","html-keyboard-response","69","242699","0.0-6.0-0.0-6.0-0.5","2","4","2","3","1","2","1","2","2","1","3","2","1","2","2","2","1","2","2","2","4","5","4","4","5","4","4","4","3","1","0","1","1","0","0","1","0","1","1","1","0","1","0","1","3","2","2","3","2","4","3","2","3","1","4","771420253753446401","张","244","","","","","","","","","","","","","","","","","","","","","","","","","","","","","","","","","","","","","","","","","",""
"703","<p style=""color:white; font-size: 35px;"">愚钝</p>","i","categorize-html","70","243404","0.0-6.0-0.0-6.0-1.5","2","4","2","3","1","2","1","2","2","1","3","2","1","2","2","2","1","2","2","2","4","5","4","4","5","4","4","4","3","1","0","1","1","0","0","1","0","1","1","1","0","1","0","1","3","2","2","3","2","4","3","2","3","1","4","771420253753446401","张","244","","","","","","","","","","","","","","","","","","","true","3","3","ability","703","negative","愚钝","","","","","","","","","","","","","","","","",""
"null","","null","html-keyboard-response","71","243655","0.0-6.0-0.0-6.0-0.6","2","4","2","3","1","2","1","2","2","1","3","2","1","2","2","2","1","2","2","2","4","5","4","4","5","4","4","4","3","1","0","1","1","0","0","1","0","1","1","1","0","1","0","1","3","2","2","3","2","4","3","2","3","1","4","771420253753446401","张","244","","","","","","","","","","","","","","","","","","","","","","","","","","","","","","","","","","","","","","","","","",""
"1011","<p style=""color:rgb(150, 250, 100); font-size: 35px;"">本人</p>","e","categorize-html","72","244667","0.0-6.0-0.0-6.0-1.6","2","4","2","3","1","2","1","2","2","1","3","2","1","2","2","2","1","2","2","2","4","5","4","4","5","4","4","4","3","1","0","1","1","0","0","1","0","1","1","1","0","1","0","1","3","2","2","3","2","4","3","2","3","1","4","771420253753446401","张","244","","","","","","","","","","","","","","","","","","","true","3","3","ability","1011","self","本人","","","","","","","","","","","","","","","","",""
"null","","null","html-keyboard-response","73","244918","0.0-6.0-0.0-6.0-0.7","2","4","2","3","1","2","1","2","2","1","3","2","1","2","2","2","1","2","2","2","4","5","4","4","5","4","4","4","3","1","0","1","1","0","0","1","0","1","1","1","0","1","0","1","3","2","2","3","2","4","3","2","3","1","4","771420253753446401","张","244","","","","","","","","","","","","","","","","","","","","","","","","","","","","","","","","","","","","","","","","","",""
"566","<p style=""color:white; font-size: 35px;"">高效</p>","e","categorize-html","74","245486","0.0-6.0-0.0-6.0-1.7","2","4","2","3","1","2","1","2","2","1","3","2","1","2","2","2","1","2","2","2","4","5","4","4","5","4","4","4","3","1","0","1","1","0","0","1","0","1","1","1","0","1","0","1","3","2","2","3","2","4","3","2","3","1","4","771420253753446401","张","244","","","","","","","","","","","","","","","","","","","true","3","3","ability","566","positive","高效","","","","","","","","","","","","","","","","",""
"null","","null","html-keyboard-response","75","245737","0.0-6.0-0.0-6.0-0.8","2","4","2","3","1","2","1","2","2","1","3","2","1","2","2","2","1","2","2","2","4","5","4","4","5","4","4","4","3","1","0","1","1","0","0","1","0","1","1","1","0","1","0","1","3","2","2","3","2","4","3","2","3","1","4","771420253753446401","张","244","","","","","","","","","","","","","","","","","","","","","","","","","","","","","","","","","","","","","","","","","",""
"1205","<p style=""color:rgb(150, 250, 100); font-size: 35px;"">他人的</p>","i","categorize-html","76","246943","0.0-6.0-0.0-6.0-1.8","2","4","2","3","1","2","1","2","2","1","3","2","1","2","2","2","1","2","2","2","4","5","4","4","5","4","4","4","3","1","0","1","1","0","0","1","0","1","1","1","0","1","0","1","3","2","2","3","2","4","3","2","3","1","4","771420253753446401","张","244","","","","","","","","","","","","","","","","","","","true","3","3","ability","1205","other","他人的","","","","","","","","","","","","","","","","",""
"null","","null","html-keyboard-response","77","247195","0.0-6.0-0.0-6.0-0.9","2","4","2","3","1","2","1","2","2","1","3","2","1","2","2","2","1","2","2","2","4","5","4","4","5","4","4","4","3","1","0","1","1","0","0","1","0","1","1","1","0","1","0","1","3","2","2","3","2","4","3","2","3","1","4","771420253753446401","张","244","","","","","","","","","","","","","","","","","","","","","","","","","","","","","","","","","","","","","","","","","",""
"1030","<p style=""color:white; font-size: 35px;"">精干</p>","e","categorize-html","78","248227","0.0-6.0-0.0-6.0-1.9","2","4","2","3","1","2","1","2","2","1","3","2","1","2","2","2","1","2","2","2","4","5","4","4","5","4","4","4","3","1","0","1","1","0","0","1","0","1","1","1","0","1","0","1","3","2","2","3","2","4","3","2","3","1","4","771420253753446401","张","244","","","","","","","","","","","","","","","","","","","true","3","3","ability","1030","positive","精干","","","","","","","","","","","","","","","","",""
"null","","null","html-keyboard-response","79","248478","0.0-6.0-0.0-6.0-0.10","2","4","2","3","1","2","1","2","2","1","3","2","1","2","2","2","1","2","2","2","4","5","4","4","5","4","4","4","3","1","0","1","1","0","0","1","0","1","1","1","0","1","0","1","3","2","2","3","2","4","3","2","3","1","4","771420253753446401","张","244","","","","","","","","","","","","","","","","","","","","","","","","","","","","","","","","","","","","","","","","","",""
"592","<p style=""color:rgb(150, 250, 100); font-size: 35px;"">本人的</p>","e","categorize-html","80","249071","0.0-6.0-0.0-6.0-1.10","2","4","2","3","1","2","1","2","2","1","3","2","1","2","2","2","1","2","2","2","4","5","4","4","5","4","4","4","3","1","0","1","1","0","0","1","0","1","1","1","0","1","0","1","3","2","2","3","2","4","3","2","3","1","4","771420253753446401","张","244","","","","","","","","","","","","","","","","","","","true","3","3","ability","592","self","本人的","","","","","","","","","","","","","","","","",""
"null","","null","html-keyboard-response","81","249322","0.0-6.0-0.0-6.0-0.11","2","4","2","3","1","2","1","2","2","1","3","2","1","2","2","2","1","2","2","2","4","5","4","4","5","4","4","4","3","1","0","1","1","0","0","1","0","1","1","1","0","1","0","1","3","2","2","3","2","4","3","2","3","1","4","771420253753446401","张","244","","","","","","","","","","","","","","","","","","","","","","","","","","","","","","","","","","","","","","","","","",""
"803","<p style=""color:white; font-size: 35px;"">拙笨</p>","i","categorize-html","82","250127","0.0-6.0-0.0-6.0-1.11","2","4","2","3","1","2","1","2","2","1","3","2","1","2","2","2","1","2","2","2","4","5","4","4","5","4","4","4","3","1","0","1","1","0","0","1","0","1","1","1","0","1","0","1","3","2","2","3","2","4","3","2","3","1","4","771420253753446401","张","244","","","","","","","","","","","","","","","","","","","true","3","3","ability","803","negative","拙笨","","","","","","","","","","","","","","","","",""
"null","","null","html-keyboard-response","83","250377","0.0-6.0-0.0-6.0-0.12","2","4","2","3","1","2","1","2","2","1","3","2","1","2","2","2","1","2","2","2","4","5","4","4","5","4","4","4","3","1","0","1","1","0","0","1","0","1","1","1","0","1","0","1","3","2","2","3","2","4","3","2","3","1","4","771420253753446401","张","244","","","","","","","","","","","","","","","","","","","","","","","","","","","","","","","","","","","","","","","","","",""
"739","<p style=""color:rgb(150, 250, 100); font-size: 35px;"">自己</p>","e","categorize-html","84","251118","0.0-6.0-0.0-6.0-1.12","2","4","2","3","1","2","1","2","2","1","3","2","1","2","2","2","1","2","2","2","4","5","4","4","5","4","4","4","3","1","0","1","1","0","0","1","0","1","1","1","0","1","0","1","3","2","2","3","2","4","3","2","3","1","4","771420253753446401","张","244","","","","","","","","","","","","","","","","","","","true","3","3","ability","739","self","自己","","","","","","","","","","","","","","","","",""
"null","","null","html-keyboard-response","85","251369","0.0-6.0-0.0-6.0-0.13","2","4","2","3","1","2","1","2","2","1","3","2","1","2","2","2","1","2","2","2","4","5","4","4","5","4","4","4","3","1","0","1","1","0","0","1","0","1","1","1","0","1","0","1","3","2","2","3","2","4","3","2","3","1","4","771420253753446401","张","244","","","","","","","","","","","","","","","","","","","","","","","","","","","","","","","","","","","","","","","","","",""
"707","<p style=""color:white; font-size: 35px;"">天才</p>","e","categorize-html","86","252078","0.0-6.0-0.0-6.0-1.13","2","4","2","3","1","2","1","2","2","1","3","2","1","2","2","2","1","2","2","2","4","5","4","4","5","4","4","4","3","1","0","1","1","0","0","1","0","1","1","1","0","1","0","1","3","2","2","3","2","4","3","2","3","1","4","771420253753446401","张","244","","","","","","","","","","","","","","","","","","","true","3","3","ability","707","positive","天才","","","","","","","","","","","","","","","","",""
"null","","null","html-keyboard-response","87","252329","0.0-6.0-0.0-6.0-0.14","2","4","2","3","1","2","1","2","2","1","3","2","1","2","2","2","1","2","2","2","4","5","4","4","5","4","4","4","3","1","0","1","1","0","0","1","0","1","1","1","0","1","0","1","3","2","2","3","2","4","3","2","3","1","4","771420253753446401","张","244","","","","","","","","","","","","","","","","","","","","","","","","","","","","","","","","","","","","","","","","","",""
"670","<p style=""color:rgb(150, 250, 100); font-size: 35px;"">别人</p>","i","categorize-html","88","253001","0.0-6.0-0.0-6.0-1.14","2","4","2","3","1","2","1","2","2","1","3","2","1","2","2","2","1","2","2","2","4","5","4","4","5","4","4","4","3","1","0","1","1","0","0","1","0","1","1","1","0","1","0","1","3","2","2","3","2","4","3","2","3","1","4","771420253753446401","张","244","","","","","","","","","","","","","","","","","","","true","3","3","ability","670","other","别人","","","","","","","","","","","","","","","","",""
"null","","null","html-keyboard-response","89","253252","0.0-6.0-0.0-6.0-0.15","2","4","2","3","1","2","1","2","2","1","3","2","1","2","2","2","1","2","2","2","4","5","4","4","5","4","4","4","3","1","0","1","1","0","0","1","0","1","1","1","0","1","0","1","3","2","2","3","2","4","3","2","3","1","4","771420253753446401","张","244","","","","","","","","","","","","","","","","","","","","","","","","","","","","","","","","","","","","","","","","","",""
"1773","<p style=""color:white; font-size: 35px;"">蠢笨</p>","i","categorize-html","90","255027","0.0-6.0-0.0-6.0-1.15","2","4","2","3","1","2","1","2","2","1","3","2","1","2","2","2","1","2","2","2","4","5","4","4","5","4","4","4","3","1","0","1","1","0","0","1","0","1","1","1","0","1","0","1","3","2","2","3","2","4","3","2","3","1","4","771420253753446401","张","244","","","","","","","","","","","","","","","","","","","true","3","3","ability","1773","negative","蠢笨","","","","","","","","","","","","","","","","",""
"null","","null","html-keyboard-response","91","255278","0.0-6.0-0.0-6.0-0.16","2","4","2","3","1","2","1","2","2","1","3","2","1","2","2","2","1","2","2","2","4","5","4","4","5","4","4","4","3","1","0","1","1","0","0","1","0","1","1","1","0","1","0","1","3","2","2","3","2","4","3","2","3","1","4","771420253753446401","张","244","","","","","","","","","","","","","","","","","","","","","","","","","","","","","","","","","","","","","","","","","",""
"952","<p style=""color:rgb(150, 250, 100); font-size: 35px;"">我的</p>","e","categorize-html","92","256232","0.0-6.0-0.0-6.0-1.16","2","4","2","3","1","2","1","2","2","1","3","2","1","2","2","2","1","2","2","2","4","5","4","4","5","4","4","4","3","1","0","1","1","0","0","1","0","1","1","1","0","1","0","1","3","2","2","3","2","4","3","2","3","1","4","771420253753446401","张","244","","","","","","","","","","","","","","","","","","","true","3","3","ability","952","self","我的","","","","","","","","","","","","","","","","",""
"null","","null","html-keyboard-response","93","256482","0.0-6.0-0.0-6.0-0.17","2","4","2","3","1","2","1","2","2","1","3","2","1","2","2","2","1","2","2","2","4","5","4","4","5","4","4","4","3","1","0","1","1","0","0","1","0","1","1","1","0","1","0","1","3","2","2","3","2","4","3","2","3","1","4","771420253753446401","张","244","","","","","","","","","","","","","","","","","","","","","","","","","","","","","","","","","","","","","","","","","",""
"710","<p style=""color:white; font-size: 35px;"">全才</p>","e","categorize-html","94","257194","0.0-6.0-0.0-6.0-1.17","2","4","2","3","1","2","1","2","2","1","3","2","1","2","2","2","1","2","2","2","4","5","4","4","5","4","4","4","3","1","0","1","1","0","0","1","0","1","1","1","0","1","0","1","3","2","2","3","2","4","3","2","3","1","4","771420253753446401","张","244","","","","","","","","","","","","","","","","","","","true","3","3","ability","710","positive","全才","","","","","","","","","","","","","","","","",""
"null","","null","html-keyboard-response","95","257445","0.0-6.0-0.0-6.0-0.18","2","4","2","3","1","2","1","2","2","1","3","2","1","2","2","2","1","2","2","2","4","5","4","4","5","4","4","4","3","1","0","1","1","0","0","1","0","1","1","1","0","1","0","1","3","2","2","3","2","4","3","2","3","1","4","771420253753446401","张","244","","","","","","","","","","","","","","","","","","","","","","","","","","","","","","","","","","","","","","","","","",""
"608","<p style=""color:rgb(150, 250, 100); font-size: 35px;"">他的</p>","i","categorize-html","96","258056","0.0-6.0-0.0-6.0-1.18","2","4","2","3","1","2","1","2","2","1","3","2","1","2","2","2","1","2","2","2","4","5","4","4","5","4","4","4","3","1","0","1","1","0","0","1","0","1","1","1","0","1","0","1","3","2","2","3","2","4","3","2","3","1","4","771420253753446401","张","244","","","","","","","","","","","","","","","","","","","true","3","3","ability","608","other","他的","","","","","","","","","","","","","","","","",""
"null","","null","html-keyboard-response","97","258306","0.0-6.0-0.0-6.0-0.19","2","4","2","3","1","2","1","2","2","1","3","2","1","2","2","2","1","2","2","2","4","5","4","4","5","4","4","4","3","1","0","1","1","0","0","1","0","1","1","1","0","1","0","1","3","2","2","3","2","4","3","2","3","1","4","771420253753446401","张","244","","","","","","","","","","","","","","","","","","","","","","","","","","","","","","","","","","","","","","","","","",""
"701","<p style=""color:white; font-size: 35px;"">废物</p>","i","categorize-html","98","259009","0.0-6.0-0.0-6.0-1.19","2","4","2","3","1","2","1","2","2","1","3","2","1","2","2","2","1","2","2","2","4","5","4","4","5","4","4","4","3","1","0","1","1","0","0","1","0","1","1","1","0","1","0","1","3","2","2","3","2","4","3","2","3","1","4","771420253753446401","张","244","","","","","","","","","","","","","","","","","","","true","3","3","ability","701","negative","废物","","","","","","","","","","","","","","","","",""
"null","","null","html-keyboard-response","99","259260","0.0-6.0-0.0-6.0-0.20","2","4","2","3","1","2","1","2","2","1","3","2","1","2","2","2","1","2","2","2","4","5","4","4","5","4","4","4","3","1","0","1","1","0","0","1","0","1","1","1","0","1","0","1","3","2","2","3","2","4","3","2","3","1","4","771420253753446401","张","244","","","","","","","","","","","","","","","","","","","","","","","","","","","","","","","","","","","","","","","","","",""
"619","<p style=""color:rgb(150, 250, 100); font-size: 35px;"">我</p>","e","categorize-html","100","259880","0.0-6.0-0.0-6.0-1.20","2","4","2","3","1","2","1","2","2","1","3","2","1","2","2","2","1","2","2","2","4","5","4","4","5","4","4","4","3","1","0","1","1","0","0","1","0","1","1","1","0","1","0","1","3","2","2","3","2","4","3","2","3","1","4","771420253753446401","张","244","","","","","","","","","","","","","","","","","","","true","3","3","ability","619","self","我","","","","","","","","","","","","","","","","",""
"null","","null","html-keyboard-response","101","260131","0.0-6.0-0.0-6.0-0.21","2","4","2","3","1","2","1","2","2","1","3","2","1","2","2","2","1","2","2","2","4","5","4","4","5","4","4","4","3","1","0","1","1","0","0","1","0","1","1","1","0","1","0","1","3","2","2","3","2","4","3","2","3","1","4","771420253753446401","张","244","","","","","","","","","","","","","","","","","","","","","","","","","","","","","","","","","","","","","","","","","",""
"1215","<p style=""color:white; font-size: 35px;"">能干</p>","e","categorize-html","102","261347","0.0-6.0-0.0-6.0-1.21","2","4","2","3","1","2","1","2","2","1","3","2","1","2","2","2","1","2","2","2","4","5","4","4","5","4","4","4","3","1","0","1","1","0","0","1","0","1","1","1","0","1","0","1","3","2","2","3","2","4","3","2","3","1","4","771420253753446401","张","244","","","","","","","","","","","","","","","","","","","true","3","3","ability","1215","positive","能干","","","","","","","","","","","","","","","","",""
"null","","null","html-keyboard-response","103","261598","0.0-6.0-0.0-6.0-0.22","2","4","2","3","1","2","1","2","2","1","3","2","1","2","2","2","1","2","2","2","4","5","4","4","5","4","4","4","3","1","0","1","1","0","0","1","0","1","1","1","0","1","0","1","3","2","2","3","2","4","3","2","3","1","4","771420253753446401","张","244","","","","","","","","","","","","","","","","","","","","","","","","","","","","","","","","","","","","","","","","","",""
"683","<p style=""color:rgb(150, 250, 100); font-size: 35px;"">别人的</p>","i","categorize-html","104","262283","0.0-6.0-0.0-6.0-1.22","2","4","2","3","1","2","1","2","2","1","3","2","1","2","2","2","1","2","2","2","4","5","4","4","5","4","4","4","3","1","0","1","1","0","0","1","0","1","1","1","0","1","0","1","3","2","2","3","2","4","3","2","3","1","4","771420253753446401","张","244","","","","","","","","","","","","","","","","","","","true","3","3","ability","683","other","别人的","","","","","","","","","","","","","","","","",""
"null","","null","html-keyboard-response","105","262533","0.0-6.0-0.0-6.0-0.23","2","4","2","3","1","2","1","2","2","1","3","2","1","2","2","2","1","2","2","2","4","5","4","4","5","4","4","4","3","1","0","1","1","0","0","1","0","1","1","1","0","1","0","1","3","2","2","3","2","4","3","2","3","1","4","771420253753446401","张","244","","","","","","","","","","","","","","","","","","","","","","","","","","","","","","","","","","","","","","","","","",""
"780","<p style=""color:white; font-size: 35px;"">低能</p>","i","categorize-html","106","263315","0.0-6.0-0.0-6.0-1.23","2","4","2","3","1","2","1","2","2","1","3","2","1","2","2","2","1","2","2","2","4","5","4","4","5","4","4","4","3","1","0","1","1","0","0","1","0","1","1","1","0","1","0","1","3","2","2","3","2","4","3","2","3","1","4","771420253753446401","张","244","","","","","","","","","","","","","","","","","","","true","3","3","ability","780","negative","低能","","","","","","","","","","","","","","","","",""
"1429","
    <div class=""tag-bottom""><p>
    —— 任务4：对“自我/积极”词和“他人/消极”词分类 ——<p/>
    <span style=""color:#78DCE8""><b>与刚才的任务完全相同，请再次对这四类词语分类</b></span><p/>
    <span style=""color:#FFD866""><b>请根据上方标签的提示，尽可能正确并且快速地做出按键反应</b></span><p/>
    当按键错误时屏幕中会出现<span style=""color:red""> X </span>，需要按另一个键纠正才能继续<br/><p/>
    请把双手食指分别放在键盘的“E”键和“I”键上<p/>
    按<空格键>开始
    </p></div>"," ","html-keyboard-response","107","264744","0.0-6.0-0.0-7.0","2","4","2","3","1","2","1","2","2","1","3","2","1","2","2","2","1","2","2","2","4","5","4","4","5","4","4","4","3","1","0","1","1","0","0","1","0","1","1","1","0","1","0","1","3","2","2","3","2","4","3","2","3","1","4","771420253753446401","张","244","","","","","","","","","","","","","","","","","","","","","","","","","","","","","","","","","","","","","","","","","",""
"null","","null","html-keyboard-response","108","264995","0.0-6.0-0.0-8.0-0.0","2","4","2","3","1","2","1","2","2","1","3","2","1","2","2","2","1","2","2","2","4","5","4","4","5","4","4","4","3","1","0","1","1","0","0","1","0","1","1","1","0","1","0","1","3","2","2","3","2","4","3","2","3","1","4","771420253753446401","张","244","","","","","","","","","","","","","","","","","","","","","","","","","","","","","","","","","","","","","","","","","",""
"1002","<p style=""color:rgb(150, 250, 100); font-size: 35px;"">自己的</p>","e","categorize-html","109","266000","0.0-6.0-0.0-8.0-1.0","2","4","2","3","1","2","1","2","2","1","3","2","1","2","2","2","1","2","2","2","4","5","4","4","5","4","4","4","3","1","0","1","1","0","0","1","0","1","1","1","0","1","0","1","3","2","2","3","2","4","3","2","3","1","4","771420253753446401","张","244","","","","","","","","","","","","","","","","","","","true","4","4","ability","1002","self","自己的","","","","","","","","","","","","","","","","",""
"null","","null","html-keyboard-response","110","266251","0.0-6.0-0.0-8.0-0.1","2","4","2","3","1","2","1","2","2","1","3","2","1","2","2","2","1","2","2","2","4","5","4","4","5","4","4","4","3","1","0","1","1","0","0","1","0","1","1","1","0","1","0","1","3","2","2","3","2","4","3","2","3","1","4","771420253753446401","张","244","","","","","","","","","","","","","","","","","","","","","","","","","","","","","","","","","","","","","","","","","",""
"895","<p style=""color:white; font-size: 35px;"">蠢笨</p>","i","categorize-html","111","267148","0.0-6.0-0.0-8.0-1.1","2","4","2","3","1","2","1","2","2","1","3","2","1","2","2","2","1","2","2","2","4","5","4","4","5","4","4","4","3","1","0","1","1","0","0","1","0","1","1","1","0","1","0","1","3","2","2","3","2","4","3","2","3","1","4","771420253753446401","张","244","","","","","","","","","","","","","","","","","","","true","4","4","ability","895","negative","蠢笨","","","","","","","","","","","","","","","","",""
"null","","null","html-keyboard-response","112","267398","0.0-6.0-0.0-8.0-0.2","2","4","2","3","1","2","1","2","2","1","3","2","1","2","2","2","1","2","2","2","4","5","4","4","5","4","4","4","3","1","0","1","1","0","0","1","0","1","1","1","0","1","0","1","3","2","2","3","2","4","3","2","3","1","4","771420253753446401","张","244","","","","","","","","","","","","","","","","","","","","","","","","","","","","","","","","","","","","","","","","","",""
"1146","<p style=""color:rgb(150, 250, 100); font-size: 35px;"">别人</p>","i","categorize-html","113","268546","0.0-6.0-0.0-8.0-1.2","2","4","2","3","1","2","1","2","2","1","3","2","1","2","2","2","1","2","2","2","4","5","4","4","5","4","4","4","3","1","0","1","1","0","0","1","0","1","1","1","0","1","0","1","3","2","2","3","2","4","3","2","3","1","4","771420253753446401","张","244","","","","","","","","","","","","","","","","","","","true","4","4","ability","1146","other","别人","","","","","","","","","","","","","","","","",""
"null","","null","html-keyboard-response","114","268798","0.0-6.0-0.0-8.0-0.3","2","4","2","3","1","2","1","2","2","1","3","2","1","2","2","2","1","2","2","2","4","5","4","4","5","4","4","4","3","1","0","1","1","0","0","1","0","1","1","1","0","1","0","1","3","2","2","3","2","4","3","2","3","1","4","771420253753446401","张","244","","","","","","","","","","","","","","","","","","","","","","","","","","","","","","","","","","","","","","","","","",""
"1874","<p style=""color:white; font-size: 35px;"">精干</p>","e","categorize-html","115","270673","0.0-6.0-0.0-8.0-1.3","2","4","2","3","1","2","1","2","2","1","3","2","1","2","2","2","1","2","2","2","4","5","4","4","5","4","4","4","3","1","0","1","1","0","0","1","0","1","1","1","0","1","0","1","3","2","2","3","2","4","3","2","3","1","4","771420253753446401","张","244","","","","","","","","","","","","","","","","","","","true","4","4","ability","1874","positive","精干","","","","","","","","","","","","","","","","",""
"null","","null","html-keyboard-response","116","270924","0.0-6.0-0.0-8.0-0.4","2","4","2","3","1","2","1","2","2","1","3","2","1","2","2","2","1","2","2","2","4","5","4","4","5","4","4","4","3","1","0","1","1","0","0","1","0","1","1","1","0","1","0","1","3","2","2","3","2","4","3","2","3","1","4","771420253753446401","张","244","","","","","","","","","","","","","","","","","","","","","","","","","","","","","","","","","","","","","","","","","",""
"939","<p style=""color:rgb(150, 250, 100); font-size: 35px;"">他人</p>","i","categorize-html","117","271864","0.0-6.0-0.0-8.0-1.4","2","4","2","3","1","2","1","2","2","1","3","2","1","2","2","2","1","2","2","2","4","5","4","4","5","4","4","4","3","1","0","1","1","0","0","1","0","1","1","1","0","1","0","1","3","2","2","3","2","4","3","2","3","1","4","771420253753446401","张","244","","","","","","","","","","","","","","","","","","","true","4","4","ability","939","other","他人","","","","","","","","","","","","","","","","",""
"null","","null","html-keyboard-response","118","272115","0.0-6.0-0.0-8.0-0.5","2","4","2","3","1","2","1","2","2","1","3","2","1","2","2","2","1","2","2","2","4","5","4","4","5","4","4","4","3","1","0","1","1","0","0","1","0","1","1","1","0","1","0","1","3","2","2","3","2","4","3","2","3","1","4","771420253753446401","张","244","","","","","","","","","","","","","","","","","","","","","","","","","","","","","","","","","","","","","","","","","",""
"1258","<p style=""color:white; font-size: 35px;"">精干</p>","e","categorize-html","119","273374","0.0-6.0-0.0-8.0-1.5","2","4","2","3","1","2","1","2","2","1","3","2","1","2","2","2","1","2","2","2","4","5","4","4","5","4","4","4","3","1","0","1","1","0","0","1","0","1","1","1","0","1","0","1","3","2","2","3","2","4","3","2","3","1","4","771420253753446401","张","244","","","","","","","","","","","","","","","","","","","true","4","4","ability","1258","positive","精干","","","","","","","","","","","","","","","","",""
"null","","null","html-keyboard-response","120","273625","0.0-6.0-0.0-8.0-0.6","2","4","2","3","1","2","1","2","2","1","3","2","1","2","2","2","1","2","2","2","4","5","4","4","5","4","4","4","3","1","0","1","1","0","0","1","0","1","1","1","0","1","0","1","3","2","2","3","2","4","3","2","3","1","4","771420253753446401","张","244","","","","","","","","","","","","","","","","","","","","","","","","","","","","","","","","","","","","","","","","","",""
"1466","<p style=""color:rgb(150, 250, 100); font-size: 35px;"">本人</p>","e","categorize-html","121","275093","0.0-6.0-0.0-8.0-1.6","2","4","2","3","1","2","1","2","2","1","3","2","1","2","2","2","1","2","2","2","4","5","4","4","5","4","4","4","3","1","0","1","1","0","0","1","0","1","1","1","0","1","0","1","3","2","2","3","2","4","3","2","3","1","4","771420253753446401","张","244","","","","","","","","","","","","","","","","","","","true","4","4","ability","1466","self","本人","","","","","","","","","","","","","","","","",""
"null","","null","html-keyboard-response","122","275344","0.0-6.0-0.0-8.0-0.7","2","4","2","3","1","2","1","2","2","1","3","2","1","2","2","2","1","2","2","2","4","5","4","4","5","4","4","4","3","1","0","1","1","0","0","1","0","1","1","1","0","1","0","1","3","2","2","3","2","4","3","2","3","1","4","771420253753446401","张","244","","","","","","","","","","","","","","","","","","","","","","","","","","","","","","","","","","","","","","","","","",""
"2047","<p style=""color:white; font-size: 35px;"">愚钝</p>","i","categorize-html","123","277393","0.0-6.0-0.0-8.0-1.7","2","4","2","3","1","2","1","2","2","1","3","2","1","2","2","2","1","2","2","2","4","5","4","4","5","4","4","4","3","1","0","1","1","0","0","1","0","1","1","1","0","1","0","1","3","2","2","3","2","4","3","2","3","1","4","771420253753446401","张","244","","","","","","","","","","","","","","","","","","","true","4","4","ability","2047","negative","愚钝","","","","","","","","","","","","","","","","",""
"null","","null","html-keyboard-response","124","277644","0.0-6.0-0.0-8.0-0.8","2","4","2","3","1","2","1","2","2","1","3","2","1","2","2","2","1","2","2","2","4","5","4","4","5","4","4","4","3","1","0","1","1","0","0","1","0","1","1","1","0","1","0","1","3","2","2","3","2","4","3","2","3","1","4","771420253753446401","张","244","","","","","","","","","","","","","","","","","","","","","","","","","","","","","","","","","","","","","","","","","",""
"727","<p style=""color:rgb(150, 250, 100); font-size: 35px;"">自己</p>","e","categorize-html","125","278373","0.0-6.0-0.0-8.0-1.8","2","4","2","3","1","2","1","2","2","1","3","2","1","2","2","2","1","2","2","2","4","5","4","4","5","4","4","4","3","1","0","1","1","0","0","1","0","1","1","1","0","1","0","1","3","2","2","3","2","4","3","2","3","1","4","771420253753446401","张","244","","","","","","","","","","","","","","","","","","","true","4","4","ability","727","self","自己","","","","","","","","","","","","","","","","",""
"null","","null","html-keyboard-response","126","278623","0.0-6.0-0.0-8.0-0.9","2","4","2","3","1","2","1","2","2","1","3","2","1","2","2","2","1","2","2","2","4","5","4","4","5","4","4","4","3","1","0","1","1","0","0","1","0","1","1","1","0","1","0","1","3","2","2","3","2","4","3","2","3","1","4","771420253753446401","张","244","","","","","","","","","","","","","","","","","","","","","","","","","","","","","","","","","","","","","","","","","",""
"527","<p style=""color:white; font-size: 35px;"">天才</p>","e","categorize-html","127","279152","0.0-6.0-0.0-8.0-1.9","2","4","2","3","1","2","1","2","2","1","3","2","1","2","2","2","1","2","2","2","4","5","4","4","5","4","4","4","3","1","0","1","1","0","0","1","0","1","1","1","0","1","0","1","3","2","2","3","2","4","3","2","3","1","4","771420253753446401","张","244","","","","","","","","","","","","","","","","","","","true","4","4","ability","527","positive","天才","","","","","","","","","","","","","","","","",""
"null","","null","html-keyboard-response","128","279402","0.0-6.0-0.0-8.0-0.10","2","4","2","3","1","2","1","2","2","1","3","2","1","2","2","2","1","2","2","2","4","5","4","4","5","4","4","4","3","1","0","1","1","0","0","1","0","1","1","1","0","1","0","1","3","2","2","3","2","4","3","2","3","1","4","771420253753446401","张","244","","","","","","","","","","","","","","","","","","","","","","","","","","","","","","","","","","","","","","","","","",""
"611","<p style=""color:rgb(150, 250, 100); font-size: 35px;"">别人</p>","e","categorize-html","129","281329","0.0-6.0-0.0-8.0-1.10","2","4","2","3","1","2","1","2","2","1","3","2","1","2","2","2","1","2","2","2","4","5","4","4","5","4","4","4","3","1","0","1","1","0","0","1","0","1","1","1","0","1","0","1","3","2","2","3","2","4","3","2","3","1","4","771420253753446401","张","244","","","","","","","","","","","","","","","","","","","false","4","4","ability","1639.1521739130435","other","别人","","","","","","","","","","","","","","","","",""
"null","","null","html-keyboard-response","130","281580","0.0-6.0-0.0-8.0-0.11","2","4","2","3","1","2","1","2","2","1","3","2","1","2","2","2","1","2","2","2","4","5","4","4","5","4","4","4","3","1","0","1","1","0","0","1","0","1","1","1","0","1","0","1","3","2","2","3","2","4","3","2","3","1","4","771420253753446401","张","244","","","","","","","","","","","","","","","","","","","","","","","","","","","","","","","","","","","","","","","","","",""
"1053","<p style=""color:white; font-size: 35px;"">拙笨</p>","i","categorize-html","131","282635","0.0-6.0-0.0-8.0-1.11","2","4","2","3","1","2","1","2","2","1","3","2","1","2","2","2","1","2","2","2","4","5","4","4","5","4","4","4","3","1","0","1","1","0","0","1","0","1","1","1","0","1","0","1","3","2","2","3","2","4","3","2","3","1","4","771420253753446401","张","244","","","","","","","","","","","","","","","","","","","true","4","4","ability","1053","negative","拙笨","","","","","","","","","","","","","","","","",""
"null","","null","html-keyboard-response","132","282885","0.0-6.0-0.0-8.0-0.12","2","4","2","3","1","2","1","2","2","1","3","2","1","2","2","2","1","2","2","2","4","5","4","4","5","4","4","4","3","1","0","1","1","0","0","1","0","1","1","1","0","1","0","1","3","2","2","3","2","4","3","2","3","1","4","771420253753446401","张","244","","","","","","","","","","","","","","","","","","","","","","","","","","","","","","","","","","","","","","","","","",""
"571","<p style=""color:rgb(150, 250, 100); font-size: 35px;"">我的</p>","e","categorize-html","133","283457","0.0-6.0-0.0-8.0-1.12","2","4","2","3","1","2","1","2","2","1","3","2","1","2","2","2","1","2","2","2","4","5","4","4","5","4","4","4","3","1","0","1","1","0","0","1","0","1","1","1","0","1","0","1","3","2","2","3","2","4","3","2","3","1","4","771420253753446401","张","244","","","","","","","","","","","","","","","","","","","true","4","4","ability","571","self","我的","","","","","","","","","","","","","","","","",""
"null","","null","html-keyboard-response","134","283708","0.0-6.0-0.0-8.0-0.13","2","4","2","3","1","2","1","2","2","1","3","2","1","2","2","2","1","2","2","2","4","5","4","4","5","4","4","4","3","1","0","1","1","0","0","1","0","1","1","1","0","1","0","1","3","2","2","3","2","4","3","2","3","1","4","771420253753446401","张","244","","","","","","","","","","","","","","","","","","","","","","","","","","","","","","","","","","","","","","","","","",""
"573","<p style=""color:white; font-size: 35px;"">拙笨</p>","i","categorize-html","135","284282","0.0-6.0-0.0-8.0-1.13","2","4","2","3","1","2","1","2","2","1","3","2","1","2","2","2","1","2","2","2","4","5","4","4","5","4","4","4","3","1","0","1","1","0","0","1","0","1","1","1","0","1","0","1","3","2","2","3","2","4","3","2","3","1","4","771420253753446401","张","244","","","","","","","","","","","","","","","","","","","true","4","4","ability","573","negative","拙笨","","","","","","","","","","","","","","","","",""
"null","","null","html-keyboard-response","136","284534","0.0-6.0-0.0-8.0-0.14","2","4","2","3","1","2","1","2","2","1","3","2","1","2","2","2","1","2","2","2","4","5","4","4","5","4","4","4","3","1","0","1","1","0","0","1","0","1","1","1","0","1","0","1","3","2","2","3","2","4","3","2","3","1","4","771420253753446401","张","244","","","","","","","","","","","","","","","","","","","","","","","","","","","","","","","","","","","","","","","","","",""
"894","<p style=""color:rgb(150, 250, 100); font-size: 35px;"">他的</p>","i","categorize-html","137","285429","0.0-6.0-0.0-8.0-1.14","2","4","2","3","1","2","1","2","2","1","3","2","1","2","2","2","1","2","2","2","4","5","4","4","5","4","4","4","3","1","0","1","1","0","0","1","0","1","1","1","0","1","0","1","3","2","2","3","2","4","3","2","3","1","4","771420253753446401","张","244","","","","","","","","","","","","","","","","","","","true","4","4","ability","894","other","他的","","","","","","","","","","","","","","","","",""
"null","","null","html-keyboard-response","138","285680","0.0-6.0-0.0-8.0-0.15","2","4","2","3","1","2","1","2","2","1","3","2","1","2","2","2","1","2","2","2","4","5","4","4","5","4","4","4","3","1","0","1","1","0","0","1","0","1","1","1","0","1","0","1","3","2","2","3","2","4","3","2","3","1","4","771420253753446401","张","244","","","","","","","","","","","","","","","","","","","","","","","","","","","","","","","","","","","","","","","","","",""
"930","<p style=""color:white; font-size: 35px;"">能干</p>","e","categorize-html","139","286612","0.0-6.0-0.0-8.0-1.15","2","4","2","3","1","2","1","2","2","1","3","2","1","2","2","2","1","2","2","2","4","5","4","4","5","4","4","4","3","1","0","1","1","0","0","1","0","1","1","1","0","1","0","1","3","2","2","3","2","4","3","2","3","1","4","771420253753446401","张","244","","","","","","","","","","","","","","","","","","","true","4","4","ability","930","positive","能干","","","","","","","","","","","","","","","","",""
"null","","null","html-keyboard-response","140","286863","0.0-6.0-0.0-8.0-0.16","2","4","2","3","1","2","1","2","2","1","3","2","1","2","2","2","1","2","2","2","4","5","4","4","5","4","4","4","3","1","0","1","1","0","0","1","0","1","1","1","0","1","0","1","3","2","2","3","2","4","3","2","3","1","4","771420253753446401","张","244","","","","","","","","","","","","","","","","","","","","","","","","","","","","","","","","","","","","","","","","","",""
"1205","<p style=""color:rgb(150, 250, 100); font-size: 35px;"">自己</p>","e","categorize-html","141","288069","0.0-6.0-0.0-8.0-1.16","2","4","2","3","1","2","1","2","2","1","3","2","1","2","2","2","1","2","2","2","4","5","4","4","5","4","4","4","3","1","0","1","1","0","0","1","0","1","1","1","0","1","0","1","3","2","2","3","2","4","3","2","3","1","4","771420253753446401","张","244","","","","","","","","","","","","","","","","","","","true","4","4","ability","1205","self","自己","","","","","","","","","","","","","","","","",""
"null","","null","html-keyboard-response","142","288320","0.0-6.0-0.0-8.0-0.17","2","4","2","3","1","2","1","2","2","1","3","2","1","2","2","2","1","2","2","2","4","5","4","4","5","4","4","4","3","1","0","1","1","0","0","1","0","1","1","1","0","1","0","1","3","2","2","3","2","4","3","2","3","1","4","771420253753446401","张","244","","","","","","","","","","","","","","","","","","","","","","","","","","","","","","","","","","","","","","","","","",""
"648","<p style=""color:white; font-size: 35px;"">全能</p>","e","categorize-html","143","288970","0.0-6.0-0.0-8.0-1.17","2","4","2","3","1","2","1","2","2","1","3","2","1","2","2","2","1","2","2","2","4","5","4","4","5","4","4","4","3","1","0","1","1","0","0","1","0","1","1","1","0","1","0","1","3","2","2","3","2","4","3","2","3","1","4","771420253753446401","张","244","","","","","","","","","","","","","","","","","","","true","4","4","ability","648","positive","全能","","","","","","","","","","","","","","","","",""
"null","","null","html-keyboard-response","144","289221","0.0-6.0-0.0-8.0-0.18","2","4","2","3","1","2","1","2","2","1","3","2","1","2","2","2","1","2","2","2","4","5","4","4","5","4","4","4","3","1","0","1","1","0","0","1","0","1","1","1","0","1","0","1","3","2","2","3","2","4","3","2","3","1","4","771420253753446401","张","244","","","","","","","","","","","","","","","","","","","","","","","","","","","","","","","","","","","","","","","","","",""
"2104","<p style=""color:rgb(150, 250, 100); font-size: 35px;"">别人的</p>","i","categorize-html","145","291326","0.0-6.0-0.0-8.0-1.18","2","4","2","3","1","2","1","2","2","1","3","2","1","2","2","2","1","2","2","2","4","5","4","4","5","4","4","4","3","1","0","1","1","0","0","1","0","1","1","1","0","1","0","1","3","2","2","3","2","4","3","2","3","1","4","771420253753446401","张","244","","","","","","","","","","","","","","","","","","","true","4","4","ability","2104","other","别人的","","","","","","","","","","","","","","","","",""
"null","","null","html-keyboard-response","146","291577","0.0-6.0-0.0-8.0-0.19","2","4","2","3","1","2","1","2","2","1","3","2","1","2","2","2","1","2","2","2","4","5","4","4","5","4","4","4","3","1","0","1","1","0","0","1","0","1","1","1","0","1","0","1","3","2","2","3","2","4","3","2","3","1","4","771420253753446401","张","244","","","","","","","","","","","","","","","","","","","","","","","","","","","","","","","","","","","","","","","","","",""
"1254","<p style=""color:white; font-size: 35px;"">无能</p>","i","categorize-html","147","292832","0.0-6.0-0.0-8.0-1.19","2","4","2","3","1","2","1","2","2","1","3","2","1","2","2","2","1","2","2","2","4","5","4","4","5","4","4","4","3","1","0","1","1","0","0","1","0","1","1","1","0","1","0","1","3","2","2","3","2","4","3","2","3","1","4","771420253753446401","张","244","","","","","","","","","","","","","","","","","","","true","4","4","ability","1254","negative","无能","","","","","","","","","","","","","","","","",""
"null","","null","html-keyboard-response","148","293083","0.0-6.0-0.0-8.0-0.20","2","4","2","3","1","2","1","2","2","1","3","2","1","2","2","2","1","2","2","2","4","5","4","4","5","4","4","4","3","1","0","1","1","0","0","1","0","1","1","1","0","1","0","1","3","2","2","3","2","4","3","2","3","1","4","771420253753446401","张","244","","","","","","","","","","","","","","","","","","","","","","","","","","","","","","","","","","","","","","","","","",""
"658","<p style=""color:rgb(150, 250, 100); font-size: 35px;"">我的</p>","e","categorize-html","149","293743","0.0-6.0-0.0-8.0-1.20","2","4","2","3","1","2","1","2","2","1","3","2","1","2","2","2","1","2","2","2","4","5","4","4","5","4","4","4","3","1","0","1","1","0","0","1","0","1","1","1","0","1","0","1","3","2","2","3","2","4","3","2","3","1","4","771420253753446401","张","244","","","","","","","","","","","","","","","","","","","true","4","4","ability","658","self","我的","","","","","","","","","","","","","","","","",""
"null","","null","html-keyboard-response","150","293994","0.0-6.0-0.0-8.0-0.21","2","4","2","3","1","2","1","2","2","1","3","2","1","2","2","2","1","2","2","2","4","5","4","4","5","4","4","4","3","1","0","1","1","0","0","1","0","1","1","1","0","1","0","1","3","2","2","3","2","4","3","2","3","1","4","771420253753446401","张","244","","","","","","","","","","","","","","","","","","","","","","","","","","","","","","","","","","","","","","","","","",""
"1289","<p style=""color:white; font-size: 35px;"">高效</p>","e","categorize-html","151","295285","0.0-6.0-0.0-8.0-1.21","2","4","2","3","1","2","1","2","2","1","3","2","1","2","2","2","1","2","2","2","4","5","4","4","5","4","4","4","3","1","0","1","1","0","0","1","0","1","1","1","0","1","0","1","3","2","2","3","2","4","3","2","3","1","4","771420253753446401","张","244","","","","","","","","","","","","","","","","","","","true","4","4","ability","1289","positive","高效","","","","","","","","","","","","","","","","",""
"null","","null","html-keyboard-response","152","295536","0.0-6.0-0.0-8.0-0.22","2","4","2","3","1","2","1","2","2","1","3","2","1","2","2","2","1","2","2","2","4","5","4","4","5","4","4","4","3","1","0","1","1","0","0","1","0","1","1","1","0","1","0","1","3","2","2","3","2","4","3","2","3","1","4","771420253753446401","张","244","","","","","","","","","","","","","","","","","","","","","","","","","","","","","","","","","","","","","","","","","",""
"1000","<p style=""color:rgb(150, 250, 100); font-size: 35px;"">他的</p>","i","categorize-html","153","296538","0.0-6.0-0.0-8.0-1.22","2","4","2","3","1","2","1","2","2","1","3","2","1","2","2","2","1","2","2","2","4","5","4","4","5","4","4","4","3","1","0","1","1","0","0","1","0","1","1","1","0","1","0","1","3","2","2","3","2","4","3","2","3","1","4","771420253753446401","张","244","","","","","","","","","","","","","","","","","","","true","4","4","ability","1000","other","他的","","","","","","","","","","","","","","","","",""
"null","","null","html-keyboard-response","154","296788","0.0-6.0-0.0-8.0-0.23","2","4","2","3","1","2","1","2","2","1","3","2","1","2","2","2","1","2","2","2","4","5","4","4","5","4","4","4","3","1","0","1","1","0","0","1","0","1","1","1","0","1","0","1","3","2","2","3","2","4","3","2","3","1","4","771420253753446401","张","244","","","","","","","","","","","","","","","","","","","","","","","","","","","","","","","","","","","","","","","","","",""
"863","<p style=""color:white; font-size: 35px;"">废物</p>","e","categorize-html","155","298284","0.0-6.0-0.0-8.0-1.23","2","4","2","3","1","2","1","2","2","1","3","2","1","2","2","2","1","2","2","2","4","5","4","4","5","4","4","4","3","1","0","1","1","0","0","1","0","1","1","1","0","1","0","1","3","2","2","3","2","4","3","2","3","1","4","771420253753446401","张","244","","","","","","","","","","","","","","","","","","","false","4","4","ability","1639.1521739130435","negative","废物","","","","","","","","","","","","","","","","",""
"null","","null","html-keyboard-response","156","298535","0.0-6.0-0.0-8.0-0.24","2","4","2","3","1","2","1","2","2","1","3","2","1","2","2","2","1","2","2","2","4","5","4","4","5","4","4","4","3","1","0","1","1","0","0","1","0","1","1","1","0","1","0","1","3","2","2","3","2","4","3","2","3","1","4","771420253753446401","张","244","","","","","","","","","","","","","","","","","","","","","","","","","","","","","","","","","","","","","","","","","",""
"1461","<p style=""color:rgb(150, 250, 100); font-size: 35px;"">他人的</p>","i","categorize-html","157","299998","0.0-6.0-0.0-8.0-1.24","2","4","2","3","1","2","1","2","2","1","3","2","1","2","2","2","1","2","2","2","4","5","4","4","5","4","4","4","3","1","0","1","1","0","0","1","0","1","1","1","0","1","0","1","3","2","2","3","2","4","3","2","3","1","4","771420253753446401","张","244","","","","","","","","","","","","","","","","","","","true","4","4","ability","1461","other","他人的","","","","","","","","","","","","","","","","",""
"null","","null","html-keyboard-response","158","300249","0.0-6.0-0.0-8.0-0.25","2","4","2","3","1","2","1","2","2","1","3","2","1","2","2","2","1","2","2","2","4","5","4","4","5","4","4","4","3","1","0","1","1","0","0","1","0","1","1","1","0","1","0","1","3","2","2","3","2","4","3","2","3","1","4","771420253753446401","张","244","","","","","","","","","","","","","","","","","","","","","","","","","","","","","","","","","","","","","","","","","",""
"660","<p style=""color:white; font-size: 35px;"">天才</p>","e","categorize-html","159","300911","0.0-6.0-0.0-8.0-1.25","2","4","2","3","1","2","1","2","2","1","3","2","1","2","2","2","1","2","2","2","4","5","4","4","5","4","4","4","3","1","0","1","1","0","0","1","0","1","1","1","0","1","0","1","3","2","2","3","2","4","3","2","3","1","4","771420253753446401","张","244","","","","","","","","","","","","","","","","","","","true","4","4","ability","660","positive","天才","","","","","","","","","","","","","","","","",""
"null","","null","html-keyboard-response","160","301163","0.0-6.0-0.0-8.0-0.26","2","4","2","3","1","2","1","2","2","1","3","2","1","2","2","2","1","2","2","2","4","5","4","4","5","4","4","4","3","1","0","1","1","0","0","1","0","1","1","1","0","1","0","1","3","2","2","3","2","4","3","2","3","1","4","771420253753446401","张","244","","","","","","","","","","","","","","","","","","","","","","","","","","","","","","","","","","","","","","","","","",""
"542","<p style=""color:rgb(150, 250, 100); font-size: 35px;"">我</p>","e","categorize-html","161","301707","0.0-6.0-0.0-8.0-1.26","2","4","2","3","1","2","1","2","2","1","3","2","1","2","2","2","1","2","2","2","4","5","4","4","5","4","4","4","3","1","0","1","1","0","0","1","0","1","1","1","0","1","0","1","3","2","2","3","2","4","3","2","3","1","4","771420253753446401","张","244","","","","","","","","","","","","","","","","","","","true","4","4","ability","542","self","我","","","","","","","","","","","","","","","","",""
"null","","null","html-keyboard-response","162","301957","0.0-6.0-0.0-8.0-0.27","2","4","2","3","1","2","1","2","2","1","3","2","1","2","2","2","1","2","2","2","4","5","4","4","5","4","4","4","3","1","0","1","1","0","0","1","0","1","1","1","0","1","0","1","3","2","2","3","2","4","3","2","3","1","4","771420253753446401","张","244","","","","","","","","","","","","","","","","","","","","","","","","","","","","","","","","","","","","","","","","","",""
"1419","<p style=""color:white; font-size: 35px;"">废物</p>","i","categorize-html","163","303378","0.0-6.0-0.0-8.0-1.27","2","4","2","3","1","2","1","2","2","1","3","2","1","2","2","2","1","2","2","2","4","5","4","4","5","4","4","4","3","1","0","1","1","0","0","1","0","1","1","1","0","1","0","1","3","2","2","3","2","4","3","2","3","1","4","771420253753446401","张","244","","","","","","","","","","","","","","","","","","","true","4","4","ability","1419","negative","废物","","","","","","","","","","","","","","","","",""
"null","","null","html-keyboard-response","164","303628","0.0-6.0-0.0-8.0-0.28","2","4","2","3","1","2","1","2","2","1","3","2","1","2","2","2","1","2","2","2","4","5","4","4","5","4","4","4","3","1","0","1","1","0","0","1","0","1","1","1","0","1","0","1","3","2","2","3","2","4","3","2","3","1","4","771420253753446401","张","244","","","","","","","","","","","","","","","","","","","","","","","","","","","","","","","","","","","","","","","","","",""
"1157","<p style=""color:rgb(150, 250, 100); font-size: 35px;"">他</p>","i","categorize-html","165","304787","0.0-6.0-0.0-8.0-1.28","2","4","2","3","1","2","1","2","2","1","3","2","1","2","2","2","1","2","2","2","4","5","4","4","5","4","4","4","3","1","0","1","1","0","0","1","0","1","1","1","0","1","0","1","3","2","2","3","2","4","3","2","3","1","4","771420253753446401","张","244","","","","","","","","","","","","","","","","","","","true","4","4","ability","1157","other","他","","","","","","","","","","","","","","","","",""
"null","","null","html-keyboard-response","166","305038","0.0-6.0-0.0-8.0-0.29","2","4","2","3","1","2","1","2","2","1","3","2","1","2","2","2","1","2","2","2","4","5","4","4","5","4","4","4","3","1","0","1","1","0","0","1","0","1","1","1","0","1","0","1","3","2","2","3","2","4","3","2","3","1","4","771420253753446401","张","244","","","","","","","","","","","","","","","","","","","","","","","","","","","","","","","","","","","","","","","","","",""
"481","<p style=""color:white; font-size: 35px;"">全才</p>","e","categorize-html","167","305520","0.0-6.0-0.0-8.0-1.29","2","4","2","3","1","2","1","2","2","1","3","2","1","2","2","2","1","2","2","2","4","5","4","4","5","4","4","4","3","1","0","1","1","0","0","1","0","1","1","1","0","1","0","1","3","2","2","3","2","4","3","2","3","1","4","771420253753446401","张","244","","","","","","","","","","","","","","","","","","","true","4","4","ability","481","positive","全才","","","","","","","","","","","","","","","","",""
"null","","null","html-keyboard-response","168","305771","0.0-6.0-0.0-8.0-0.30","2","4","2","3","1","2","1","2","2","1","3","2","1","2","2","2","1","2","2","2","4","5","4","4","5","4","4","4","3","1","0","1","1","0","0","1","0","1","1","1","0","1","0","1","3","2","2","3","2","4","3","2","3","1","4","771420253753446401","张","244","","","","","","","","","","","","","","","","","","","","","","","","","","","","","","","","","","","","","","","","","",""
"567","<p style=""color:rgb(150, 250, 100); font-size: 35px;"">我</p>","e","categorize-html","169","306339","0.0-6.0-0.0-8.0-1.30","2","4","2","3","1","2","1","2","2","1","3","2","1","2","2","2","1","2","2","2","4","5","4","4","5","4","4","4","3","1","0","1","1","0","0","1","0","1","1","1","0","1","0","1","3","2","2","3","2","4","3","2","3","1","4","771420253753446401","张","244","","","","","","","","","","","","","","","","","","","true","4","4","ability","567","self","我","","","","","","","","","","","","","","","","",""
"null","","null","html-keyboard-response","170","306594","0.0-6.0-0.0-8.0-0.31","2","4","2","3","1","2","1","2","2","1","3","2","1","2","2","2","1","2","2","2","4","5","4","4","5","4","4","4","3","1","0","1","1","0","0","1","0","1","1","1","0","1","0","1","3","2","2","3","2","4","3","2","3","1","4","771420253753446401","张","244","","","","","","","","","","","","","","","","","","","","","","","","","","","","","","","","","","","","","","","","","",""
"1332","<p style=""color:white; font-size: 35px;"">无能</p>","i","categorize-html","171","307927","0.0-6.0-0.0-8.0-1.31","2","4","2","3","1","2","1","2","2","1","3","2","1","2","2","2","1","2","2","2","4","5","4","4","5","4","4","4","3","1","0","1","1","0","0","1","0","1","1","1","0","1","0","1","3","2","2","3","2","4","3","2","3","1","4","771420253753446401","张","244","","","","","","","","","","","","","","","","","","","true","4","4","ability","1332","negative","无能","","","","","","","","","","","","","","","","",""
"null","","null","html-keyboard-response","172","308178","0.0-6.0-0.0-8.0-0.32","2","4","2","3","1","2","1","2","2","1","3","2","1","2","2","2","1","2","2","2","4","5","4","4","5","4","4","4","3","1","0","1","1","0","0","1","0","1","1","1","0","1","0","1","3","2","2","3","2","4","3","2","3","1","4","771420253753446401","张","244","","","","","","","","","","","","","","","","","","","","","","","","","","","","","","","","","","","","","","","","","",""
"1047","<p style=""color:rgb(150, 250, 100); font-size: 35px;"">本人</p>","e","categorize-html","173","309227","0.0-6.0-0.0-8.0-1.32","2","4","2","3","1","2","1","2","2","1","3","2","1","2","2","2","1","2","2","2","4","5","4","4","5","4","4","4","3","1","0","1","1","0","0","1","0","1","1","1","0","1","0","1","3","2","2","3","2","4","3","2","3","1","4","771420253753446401","张","244","","","","","","","","","","","","","","","","","","","true","4","4","ability","1047","self","本人","","","","","","","","","","","","","","","","",""
"null","","null","html-keyboard-response","174","309477","0.0-6.0-0.0-8.0-0.33","2","4","2","3","1","2","1","2","2","1","3","2","1","2","2","2","1","2","2","2","4","5","4","4","5","4","4","4","3","1","0","1","1","0","0","1","0","1","1","1","0","1","0","1","3","2","2","3","2","4","3","2","3","1","4","771420253753446401","张","244","","","","","","","","","","","","","","","","","","","","","","","","","","","","","","","","","","","","","","","","","",""
"1134","<p style=""color:white; font-size: 35px;"">高效</p>","e","categorize-html","175","310613","0.0-6.0-0.0-8.0-1.33","2","4","2","3","1","2","1","2","2","1","3","2","1","2","2","2","1","2","2","2","4","5","4","4","5","4","4","4","3","1","0","1","1","0","0","1","0","1","1","1","0","1","0","1","3","2","2","3","2","4","3","2","3","1","4","771420253753446401","张","244","","","","","","","","","","","","","","","","","","","true","4","4","ability","1134","positive","高效","","","","","","","","","","","","","","","","",""
"null","","null","html-keyboard-response","176","310864","0.0-6.0-0.0-8.0-0.34","2","4","2","3","1","2","1","2","2","1","3","2","1","2","2","2","1","2","2","2","4","5","4","4","5","4","4","4","3","1","0","1","1","0","0","1","0","1","1","1","0","1","0","1","3","2","2","3","2","4","3","2","3","1","4","771420253753446401","张","244","","","","","","","","","","","","","","","","","","","","","","","","","","","","","","","","","","","","","","","","","",""
"1529","<p style=""color:rgb(150, 250, 100); font-size: 35px;"">别人的</p>","i","categorize-html","177","312395","0.0-6.0-0.0-8.0-1.34","2","4","2","3","1","2","1","2","2","1","3","2","1","2","2","2","1","2","2","2","4","5","4","4","5","4","4","4","3","1","0","1","1","0","0","1","0","1","1","1","0","1","0","1","3","2","2","3","2","4","3","2","3","1","4","771420253753446401","张","244","","","","","","","","","","","","","","","","","","","true","4","4","ability","1529","other","别人的","","","","","","","","","","","","","","","","",""
"null","","null","html-keyboard-response","178","312646","0.0-6.0-0.0-8.0-0.35","2","4","2","3","1","2","1","2","2","1","3","2","1","2","2","2","1","2","2","2","4","5","4","4","5","4","4","4","3","1","0","1","1","0","0","1","0","1","1","1","0","1","0","1","3","2","2","3","2","4","3","2","3","1","4","771420253753446401","张","244","","","","","","","","","","","","","","","","","","","","","","","","","","","","","","","","","","","","","","","","","",""
"1562","<p style=""color:white; font-size: 35px;"">蠢笨</p>","i","categorize-html","179","314209","0.0-6.0-0.0-8.0-1.35","2","4","2","3","1","2","1","2","2","1","3","2","1","2","2","2","1","2","2","2","4","5","4","4","5","4","4","4","3","1","0","1","1","0","0","1","0","1","1","1","0","1","0","1","3","2","2","3","2","4","3","2","3","1","4","771420253753446401","张","244","","","","","","","","","","","","","","","","","","","true","4","4","ability","1562","negative","蠢笨","","","","","","","","","","","","","","","","",""
"null","","null","html-keyboard-response","180","314460","0.0-6.0-0.0-8.0-0.36","2","4","2","3","1","2","1","2","2","1","3","2","1","2","2","2","1","2","2","2","4","5","4","4","5","4","4","4","3","1","0","1","1","0","0","1","0","1","1","1","0","1","0","1","3","2","2","3","2","4","3","2","3","1","4","771420253753446401","张","244","","","","","","","","","","","","","","","","","","","","","","","","","","","","","","","","","","","","","","","","","",""
"985","<p style=""color:rgb(150, 250, 100); font-size: 35px;"">本人的</p>","e","categorize-html","181","315447","0.0-6.0-0.0-8.0-1.36","2","4","2","3","1","2","1","2","2","1","3","2","1","2","2","2","1","2","2","2","4","5","4","4","5","4","4","4","3","1","0","1","1","0","0","1","0","1","1","1","0","1","0","1","3","2","2","3","2","4","3","2","3","1","4","771420253753446401","张","244","","","","","","","","","","","","","","","","","","","true","4","4","ability","985","self","本人的","","","","","","","","","","","","","","","","",""
"null","","null","html-keyboard-response","182","315698","0.0-6.0-0.0-8.0-0.37","2","4","2","3","1","2","1","2","2","1","3","2","1","2","2","2","1","2","2","2","4","5","4","4","5","4","4","4","3","1","0","1","1","0","0","1","0","1","1","1","0","1","0","1","3","2","2","3","2","4","3","2","3","1","4","771420253753446401","张","244","","","","","","","","","","","","","","","","","","","","","","","","","","","","","","","","","","","","","","","","","",""
"1208","<p style=""color:white; font-size: 35px;"">能干</p>","e","categorize-html","183","316908","0.0-6.0-0.0-8.0-1.37","2","4","2","3","1","2","1","2","2","1","3","2","1","2","2","2","1","2","2","2","4","5","4","4","5","4","4","4","3","1","0","1","1","0","0","1","0","1","1","1","0","1","0","1","3","2","2","3","2","4","3","2","3","1","4","771420253753446401","张","244","","","","","","","","","","","","","","","","","","","true","4","4","ability","1208","positive","能干","","","","","","","","","","","","","","","","",""
"null","","null","html-keyboard-response","184","317159","0.0-6.0-0.0-8.0-0.38","2","4","2","3","1","2","1","2","2","1","3","2","1","2","2","2","1","2","2","2","4","5","4","4","5","4","4","4","3","1","0","1","1","0","0","1","0","1","1","1","0","1","0","1","3","2","2","3","2","4","3","2","3","1","4","771420253753446401","张","244","","","","","","","","","","","","","","","","","","","","","","","","","","","","","","","","","","","","","","","","","",""
"928","<p style=""color:rgb(150, 250, 100); font-size: 35px;"">他</p>","i","categorize-html","185","318088","0.0-6.0-0.0-8.0-1.38","2","4","2","3","1","2","1","2","2","1","3","2","1","2","2","2","1","2","2","2","4","5","4","4","5","4","4","4","3","1","0","1","1","0","0","1","0","1","1","1","0","1","0","1","3","2","2","3","2","4","3","2","3","1","4","771420253753446401","张","244","","","","","","","","","","","","","","","","","","","true","4","4","ability","928","other","他","","","","","","","","","","","","","","","","",""
"null","","null","html-keyboard-response","186","318339","0.0-6.0-0.0-8.0-0.39","2","4","2","3","1","2","1","2","2","1","3","2","1","2","2","2","1","2","2","2","4","5","4","4","5","4","4","4","3","1","0","1","1","0","0","1","0","1","1","1","0","1","0","1","3","2","2","3","2","4","3","2","3","1","4","771420253753446401","张","244","","","","","","","","","","","","","","","","","","","","","","","","","","","","","","","","","","","","","","","","","",""
"872","<p style=""color:white; font-size: 35px;"">低能</p>","i","categorize-html","187","319212","0.0-6.0-0.0-8.0-1.39","2","4","2","3","1","2","1","2","2","1","3","2","1","2","2","2","1","2","2","2","4","5","4","4","5","4","4","4","3","1","0","1","1","0","0","1","0","1","1","1","0","1","0","1","3","2","2","3","2","4","3","2","3","1","4","771420253753446401","张","244","","","","","","","","","","","","","","","","","","","true","4","4","ability","872","negative","低能","","","","","","","","","","","","","","","","",""
"null","","null","html-keyboard-response","188","319464","0.0-6.0-0.0-8.0-0.40","2","4","2","3","1","2","1","2","2","1","3","2","1","2","2","2","1","2","2","2","4","5","4","4","5","4","4","4","3","1","0","1","1","0","0","1","0","1","1","1","0","1","0","1","3","2","2","3","2","4","3","2","3","1","4","771420253753446401","张","244","","","","","","","","","","","","","","","","","","","","","","","","","","","","","","","","","","","","","","","","","",""
"467","<p style=""color:rgb(150, 250, 100); font-size: 35px;"">自己的</p>","e","categorize-html","189","319932","0.0-6.0-0.0-8.0-1.40","2","4","2","3","1","2","1","2","2","1","3","2","1","2","2","2","1","2","2","2","4","5","4","4","5","4","4","4","3","1","0","1","1","0","0","1","0","1","1","1","0","1","0","1","3","2","2","3","2","4","3","2","3","1","4","771420253753446401","张","244","","","","","","","","","","","","","","","","","","","true","4","4","ability","467","self","自己的","","","","","","","","","","","","","","","","",""
"null","","null","html-keyboard-response","190","320183","0.0-6.0-0.0-8.0-0.41","2","4","2","3","1","2","1","2","2","1","3","2","1","2","2","2","1","2","2","2","4","5","4","4","5","4","4","4","3","1","0","1","1","0","0","1","0","1","1","1","0","1","0","1","3","2","2","3","2","4","3","2","3","1","4","771420253753446401","张","244","","","","","","","","","","","","","","","","","","","","","","","","","","","","","","","","","","","","","","","","","",""
"630","<p style=""color:white; font-size: 35px;"">低能</p>","i","categorize-html","191","320815","0.0-6.0-0.0-8.0-1.41","2","4","2","3","1","2","1","2","2","1","3","2","1","2","2","2","1","2","2","2","4","5","4","4","5","4","4","4","3","1","0","1","1","0","0","1","0","1","1","1","0","1","0","1","3","2","2","3","2","4","3","2","3","1","4","771420253753446401","张","244","","","","","","","","","","","","","","","","","","","true","4","4","ability","630","negative","低能","","","","","","","","","","","","","","","","",""
"null","","null","html-keyboard-response","192","321065","0.0-6.0-0.0-8.0-0.42","2","4","2","3","1","2","1","2","2","1","3","2","1","2","2","2","1","2","2","2","4","5","4","4","5","4","4","4","3","1","0","1","1","0","0","1","0","1","1","1","0","1","0","1","3","2","2","3","2","4","3","2","3","1","4","771420253753446401","张","244","","","","","","","","","","","","","","","","","","","","","","","","","","","","","","","","","","","","","","","","","",""
