"rt","stimulus","response","trial_type","trial_index","time_elapsed","internal_node_id","ses_1","ses_2","ses_3","ses_4","ses_5","ses_6","ses_7","ses_8","ses_9","ses_10","coreself_1","coreself_2","coreself_3","coreself_4","coreself_5","coreself_6","coreself_7","coreself_8","coreself_9","coreself_10","SGPS_1","SGPS_2","SGPS_3","SGPS_4","SGPS_5","SGPS_6","SGPS_7","SGPS_8","SGPS_9","NPI1","NPI2","NPI3","NPI4","NPI5","NPI6","NPI7","NPI8","NPI9","NPI10","NPI11","NPI12","NPI13","NPI14","NPI15","hsns_1","hsns_2","hsns_3","hsns_4","hsns_5","trap1","hsns_6","hsns_7","hsns_8","hsns_9","hsns_10","subj_idx","friend_name","ParticipantID","value","success","user_agent","responses","item_order","radio_event_ids","radio_event_times","key_event_times","mouse_event_times","straightlining","zigzagging","honeypot","timeout","failed_images","failed_audio","failed_video","version_attrib2","version_target2","correct","IAT","screen_id","task_id","RT","condition","word","varname","summary","version_attrib","version_target","time_stamp","view_history","response_type","key_press","avg_frame_time","center_x","center_y","correct_response","identity","Image","question_order","correct_answer","trap1_item"
"16775","
   <p><div style = ""color: white;font-size:25px;"">您好，欢迎参加本次实验。</div> </p>
   <p><div style = ""color: white;font-size:25px;"">为充分保障您的权利，请确保您已经知晓并同意《参与实验同意书》以及《数据公开知情同意书》。</div></p>
   <p><div style = ""color: white;font-size:25px;"">如果您未见过上述内容，请咨询实验员。</div></p>
   <p><div style = ""color: white;font-size:25px;"">如果您选择继续实验，则表示您已经清楚两份知情同意书的内容并同意。</div></p>
   <p><div style = ""color: pink;font-size:30px;"">请确保您记得day0的实验编号，您将在本次实验输入该编号，若您忘记，请咨询实验员后作答。</div></p>
   <p><div style = ""color: lightblue;font-size:25px;"">请您尽可能认真地作答，我们将依据您在各问卷和按键任务中的作答质量发放报酬。</div></p>
   <p> <div style = ""color: green;font-size:25px;""><按空格键至下页></div> </p>
   "," ","html-keyboard-response","0","16777","0.0-0.0","3","4","3","3","3","4","3","3","4","4","4","3","4","4","3","4","3","3","3","4","4","4","4","3","5","3","3","3","2","1","0","1","1","0","0","0","0","0","1","1","0","1","0","1","4","3","4","4","5","3","4","5","","4","5","789065248304009217","陈","211","","","","","","","","","","","","","","","","","","","","","","","","","","","","","","","","","","","","","","","","","",""
"","","","call-function","1","16779","0.0-1.0-0.0","3","4","3","3","3","4","3","3","4","4","4","3","4","4","3","4","3","3","3","4","4","4","4","3","5","3","3","3","2","1","0","1","1","0","0","0","0","0","1","1","0","1","0","1","4","3","4","4","5","3","4","5","","4","5","789065248304009217","陈","211","","","","","","","","","","","","","","","","","","","","","","","","","","","","","","","","","","","","","","","","","",""
"37141","","{""friend_name"":""陈"",""ParticipantID"":""211""}","survey-html-form","2","53920","0.0-1.0-1.0","3","4","3","3","3","4","3","3","4","4","4","3","4","4","3","4","3","3","3","4","4","4","4","3","5","3","3","3","2","1","0","1","1","0","0","0","0","0","1","1","0","1","0","1","4","3","4","4","5","3","4","5","","4","5","789065248304009217","陈","211","","","","","","","","","","","","","","","","","","","","","","","","","","","","","","","","","","","","","","","","","",""
"","","","fullscreen","3","59478","0.0-2.0","3","4","3","3","3","4","3","3","4","4","4","3","4","4","3","4","3","3","3","4","4","4","4","3","5","3","3","3","2","1","0","1","1","0","0","0","0","0","1","1","0","1","0","1","4","3","4","4","5","3","4","5","","4","5","789065248304009217","陈","211","","true","{}","","","","","","","","","","","","","","","","","","","","","","","","","","","","","","","","","","","","","","",""
"40041.90000000014","","{""Q01"":""3"",""Q02"":""4"",""Q03"":""3"",""Q04"":""3"",""Q05"":""3"",""Q06"":""4"",""Q07"":""3"",""Q08"":""3"",""Q09"":""4"",""Q10"":""4""}","survey-template","4","99521","0.0-3.0","3","4","3","3","3","4","3","3","4","4","4","3","4","4","3","4","3","3","3","4","4","4","4","3","5","3","3","3","2","1","0","1","1","0","0","0","0","0","1","1","0","1","0","1","4","3","4","4","5","3","4","5","","4","5","789065248304009217","陈","211","","","","{""Q01"":""3"",""Q02"":""4"",""Q03"":""3"",""Q04"":""3"",""Q05"":""3"",""Q06"":""4"",""Q07"":""3"",""Q08"":""3"",""Q09"":""4"",""Q10"":""4""}","[0,1,2,3,4,5,6,7,8,9]","[""Q01"",""Q02"",""Q03"",""Q04"",""Q05"",""Q06"",""Q07"",""Q08"",""Q09"",""Q10""]","[15040.699999999953,19472.600000000093,22496.90000000014,24833.40000000014,30320.800000000047,31720.800000000047,32856.80000000005,37312.69999999995,38016.80000000005,38928.80000000005]","[]","[14385.100000000093,15040.699999999953,19472.600000000093,22496.90000000014,24833.40000000014,30320.800000000047,31720.800000000047,32856.80000000005,34728.80000000005,36320.80000000005,37041.30000000005,37312.69999999995,38016.80000000005,38928.80000000005,40040.90000000014]","0.3","0.6666666666666666","0","","","","","","","","","","","","","","","","","","","","","","","","","","","","","",""
"29403.699999999953","","{""Q01"":""4"",""Q02"":""3"",""Q03"":""4"",""Q04"":""4"",""Q05"":""3"",""Q06"":""4"",""Q07"":""3"",""Q08"":""3"",""Q09"":""3"",""Q10"":""4""}","survey-template","5","128929","0.0-4.0","3","4","3","3","3","4","3","3","4","4","4","3","4","4","3","4","3","3","3","4","4","4","4","3","5","3","3","3","2","1","0","1","1","0","0","0","0","0","1","1","0","1","0","1","4","3","4","4","5","3","4","5","","4","5","789065248304009217","陈","211","","","","{""Q01"":""4"",""Q02"":""3"",""Q03"":""4"",""Q04"":""4"",""Q05"":""3"",""Q06"":""4"",""Q07"":""3"",""Q08"":""3"",""Q09"":""3"",""Q10"":""4""}","[0,1,2,3,4,5,6,7,8,9]","[""Q01"",""Q02"",""Q03"",""Q04"",""Q05"",""Q06"",""Q07"",""Q08"",""Q09"",""Q10""]","[4194.800000000047,5243.100000000093,12050.800000000047,13275,19378.899999999907,20122.899999999907,24130.800000000047,25562.800000000047,27106.899999999907,28595.5]","[]","[3275,4194.800000000047,5243.100000000093,12050.800000000047,13275,17747,19378.899999999907,20122.899999999907,24130.800000000047,25562.800000000047,27106.899999999907,28595.5,29402.699999999953]","0.5","0.6666666666666666","0","","","","","","","","","","","","","","","","","","","","","","","","","","","","","",""
"","","","preload","6","129174","0.0-5.0","3","4","3","3","3","4","3","3","4","4","4","3","4","4","3","4","3","3","3","4","4","4","4","3","5","3","3","3","2","1","0","1","1","0","0","0","0","0","1","1","0","1","0","1","4","3","4","4","5","3","4","5","","4","5","789065248304009217","陈","211","","true","","","","","","","","","","","false","[]","[]","[]","","","","","","","","","","","","","","","","","","","","","","","","","",""
"19361","
    <h3>词语分类任务</h3>
    <p>在接下来的任务中，你需要对一系列词语进行分类。<p/>
    请先熟悉这些词语，这有利于你完成接下来的任务。</p>
    <table align=""center"" border=1 cellpadding=3 cellspacing=0>
    <tr> <th>类别</th> <th>词语</th> </tr>
    <tr> <td>&emsp;积极&emsp;</td> <td>&emsp;高尚、诚信、善良、君子、廉正、正直&emsp;</td> </tr>
    <tr> <td>&emsp;消极&emsp;</td> <td>&emsp;缺德、卑鄙、不孝、不仁、小人、黑心&emsp;</td> </tr>
    <tr> <td>&emsp;自我&emsp;</td> <td>&emsp;我、我的、自己、自己的、本人、本人的&emsp;</td> </tr>
    <tr> <td>&emsp;他人&emsp;</td> <td>&emsp;他、他的、别人、别人的、他人、他人的&emsp;</td> </tr>
    </table><br/>","0","html-button-response","7","148536","0.0-6.0-1.0-0.0","3","4","3","3","3","4","3","3","4","4","4","3","4","4","3","4","3","3","3","4","4","4","4","3","5","3","3","3","2","1","0","1","1","0","0","0","0","0","1","1","0","1","0","1","4","3","4","4","5","3","4","5","","4","5","789065248304009217","陈","211","","","","","","","","","","","","","","","","","2","1","","","","","","","","","","","","","","","","","","","","","","","",""
"48474","
    <div class=""tag-bottom""><p>
    —— 任务1：对“自我”词和“他人”词分类 ——<p/>
    不同词语会出现在屏幕中央，类别标签将始终显示在屏幕上方<p/>   
    <span style=""color:#FFD866""><b>请根据上方标签的提示，尽可能正确并且快速地做出按键反应</b></span><p/>
    当按键错误时屏幕中会出现<span style=""color:red""> X </span>，需要按另一个键纠正才能继续<br/><p/>
    请把双手食指分别放在键盘的“E”键和“I”键上<p/>
    按<空格键>开始
    </p></div>"," ","html-keyboard-response","8","197013","0.0-6.0-1.0-1.0","3","4","3","3","3","4","3","3","4","4","4","3","4","4","3","4","3","3","3","4","4","4","4","3","5","3","3","3","2","1","0","1","1","0","0","0","0","0","1","1","0","1","0","1","4","3","4","4","5","3","4","5","","4","5","789065248304009217","陈","211","","","","","","","","","","","","","","","","","","","","","","","","","","","","","","","","","","","","","","","","","",""
"null","","null","html-keyboard-response","9","197264","0.0-6.0-1.0-2.0-0.0","3","4","3","3","3","4","3","3","4","4","4","3","4","4","3","4","3","3","3","4","4","4","4","3","5","3","3","3","2","1","0","1","1","0","0","0","0","0","1","1","0","1","0","1","4","3","4","4","5","3","4","5","","4","5","789065248304009217","陈","211","","","","","","","","","","","","","","","","","","","","","","","","","","","","","","","","","","","","","","","","","",""
"813","<p style=""color:rgb(150, 250, 100); font-size: 35px;"">自己</p>","e","categorize-html","10","198084","0.0-6.0-1.0-2.0-1.0","3","4","3","3","3","4","3","3","4","4","4","3","4","4","3","4","3","3","3","4","4","4","4","3","5","3","3","3","2","1","0","1","1","0","0","0","0","0","1","1","0","1","0","1","4","3","4","4","5","3","4","5","","4","5","789065248304009217","陈","211","","","","","","","","","","","","","","","","","","","true","11","1","moral","813","self","自己","","","","","","","","","","","","","","","","",""
"null","","null","html-keyboard-response","11","198337","0.0-6.0-1.0-2.0-0.1","3","4","3","3","3","4","3","3","4","4","4","3","4","4","3","4","3","3","3","4","4","4","4","3","5","3","3","3","2","1","0","1","1","0","0","0","0","0","1","1","0","1","0","1","4","3","4","4","5","3","4","5","","4","5","789065248304009217","陈","211","","","","","","","","","","","","","","","","","","","","","","","","","","","","","","","","","","","","","","","","","",""
"1186","<p style=""color:rgb(150, 250, 100); font-size: 35px;"">别人的</p>","i","categorize-html","12","199526","0.0-6.0-1.0-2.0-1.1","3","4","3","3","3","4","3","3","4","4","4","3","4","4","3","4","3","3","3","4","4","4","4","3","5","3","3","3","2","1","0","1","1","0","0","0","0","0","1","1","0","1","0","1","4","3","4","4","5","3","4","5","","4","5","789065248304009217","陈","211","","","","","","","","","","","","","","","","","","","true","11","1","moral","1186","other","别人的","","","","","","","","","","","","","","","","",""
"null","","null","html-keyboard-response","13","199777","0.0-6.0-1.0-2.0-0.2","3","4","3","3","3","4","3","3","4","4","4","3","4","4","3","4","3","3","3","4","4","4","4","3","5","3","3","3","2","1","0","1","1","0","0","0","0","0","1","1","0","1","0","1","4","3","4","4","5","3","4","5","","4","5","789065248304009217","陈","211","","","","","","","","","","","","","","","","","","","","","","","","","","","","","","","","","","","","","","","","","",""
"1040","<p style=""color:rgb(150, 250, 100); font-size: 35px;"">他人</p>","i","categorize-html","14","200819","0.0-6.0-1.0-2.0-1.2","3","4","3","3","3","4","3","3","4","4","4","3","4","4","3","4","3","3","3","4","4","4","4","3","5","3","3","3","2","1","0","1","1","0","0","0","0","0","1","1","0","1","0","1","4","3","4","4","5","3","4","5","","4","5","789065248304009217","陈","211","","","","","","","","","","","","","","","","","","","true","11","1","moral","1040","other","他人","","","","","","","","","","","","","","","","",""
"null","","null","html-keyboard-response","15","201071","0.0-6.0-1.0-2.0-0.3","3","4","3","3","3","4","3","3","4","4","4","3","4","4","3","4","3","3","3","4","4","4","4","3","5","3","3","3","2","1","0","1","1","0","0","0","0","0","1","1","0","1","0","1","4","3","4","4","5","3","4","5","","4","5","789065248304009217","陈","211","","","","","","","","","","","","","","","","","","","","","","","","","","","","","","","","","","","","","","","","","",""
"839","<p style=""color:rgb(150, 250, 100); font-size: 35px;"">我</p>","e","categorize-html","16","201914","0.0-6.0-1.0-2.0-1.3","3","4","3","3","3","4","3","3","4","4","4","3","4","4","3","4","3","3","3","4","4","4","4","3","5","3","3","3","2","1","0","1","1","0","0","0","0","0","1","1","0","1","0","1","4","3","4","4","5","3","4","5","","4","5","789065248304009217","陈","211","","","","","","","","","","","","","","","","","","","true","11","1","moral","839","self","我","","","","","","","","","","","","","","","","",""
"null","","null","html-keyboard-response","17","202165","0.0-6.0-1.0-2.0-0.4","3","4","3","3","3","4","3","3","4","4","4","3","4","4","3","4","3","3","3","4","4","4","4","3","5","3","3","3","2","1","0","1","1","0","0","0","0","0","1","1","0","1","0","1","4","3","4","4","5","3","4","5","","4","5","789065248304009217","陈","211","","","","","","","","","","","","","","","","","","","","","","","","","","","","","","","","","","","","","","","","","",""
"958","<p style=""color:rgb(150, 250, 100); font-size: 35px;"">自己的</p>","e","categorize-html","18","203127","0.0-6.0-1.0-2.0-1.4","3","4","3","3","3","4","3","3","4","4","4","3","4","4","3","4","3","3","3","4","4","4","4","3","5","3","3","3","2","1","0","1","1","0","0","0","0","0","1","1","0","1","0","1","4","3","4","4","5","3","4","5","","4","5","789065248304009217","陈","211","","","","","","","","","","","","","","","","","","","true","11","1","moral","958","self","自己的","","","","","","","","","","","","","","","","",""
"null","","null","html-keyboard-response","19","203378","0.0-6.0-1.0-2.0-0.5","3","4","3","3","3","4","3","3","4","4","4","3","4","4","3","4","3","3","3","4","4","4","4","3","5","3","3","3","2","1","0","1","1","0","0","0","0","0","1","1","0","1","0","1","4","3","4","4","5","3","4","5","","4","5","789065248304009217","陈","211","","","","","","","","","","","","","","","","","","","","","","","","","","","","","","","","","","","","","","","","","",""
"952","<p style=""color:rgb(150, 250, 100); font-size: 35px;"">本人的</p>","e","categorize-html","20","204334","0.0-6.0-1.0-2.0-1.5","3","4","3","3","3","4","3","3","4","4","4","3","4","4","3","4","3","3","3","4","4","4","4","3","5","3","3","3","2","1","0","1","1","0","0","0","0","0","1","1","0","1","0","1","4","3","4","4","5","3","4","5","","4","5","789065248304009217","陈","211","","","","","","","","","","","","","","","","","","","true","11","1","moral","952","self","本人的","","","","","","","","","","","","","","","","",""
"null","","null","html-keyboard-response","21","204585","0.0-6.0-1.0-2.0-0.6","3","4","3","3","3","4","3","3","4","4","4","3","4","4","3","4","3","3","3","4","4","4","4","3","5","3","3","3","2","1","0","1","1","0","0","0","0","0","1","1","0","1","0","1","4","3","4","4","5","3","4","5","","4","5","789065248304009217","陈","211","","","","","","","","","","","","","","","","","","","","","","","","","","","","","","","","","","","","","","","","","",""
"748","<p style=""color:rgb(150, 250, 100); font-size: 35px;"">我的</p>","e","categorize-html","22","205337","0.0-6.0-1.0-2.0-1.6","3","4","3","3","3","4","3","3","4","4","4","3","4","4","3","4","3","3","3","4","4","4","4","3","5","3","3","3","2","1","0","1","1","0","0","0","0","0","1","1","0","1","0","1","4","3","4","4","5","3","4","5","","4","5","789065248304009217","陈","211","","","","","","","","","","","","","","","","","","","true","11","1","moral","748","self","我的","","","","","","","","","","","","","","","","",""
"null","","null","html-keyboard-response","23","205588","0.0-6.0-1.0-2.0-0.7","3","4","3","3","3","4","3","3","4","4","4","3","4","4","3","4","3","3","3","4","4","4","4","3","5","3","3","3","2","1","0","1","1","0","0","0","0","0","1","1","0","1","0","1","4","3","4","4","5","3","4","5","","4","5","789065248304009217","陈","211","","","","","","","","","","","","","","","","","","","","","","","","","","","","","","","","","","","","","","","","","",""
"876","<p style=""color:rgb(150, 250, 100); font-size: 35px;"">他</p>","i","categorize-html","24","206468","0.0-6.0-1.0-2.0-1.7","3","4","3","3","3","4","3","3","4","4","4","3","4","4","3","4","3","3","3","4","4","4","4","3","5","3","3","3","2","1","0","1","1","0","0","0","0","0","1","1","0","1","0","1","4","3","4","4","5","3","4","5","","4","5","789065248304009217","陈","211","","","","","","","","","","","","","","","","","","","true","11","1","moral","876","other","他","","","","","","","","","","","","","","","","",""
"null","","null","html-keyboard-response","25","206719","0.0-6.0-1.0-2.0-0.8","3","4","3","3","3","4","3","3","4","4","4","3","4","4","3","4","3","3","3","4","4","4","4","3","5","3","3","3","2","1","0","1","1","0","0","0","0","0","1","1","0","1","0","1","4","3","4","4","5","3","4","5","","4","5","789065248304009217","陈","211","","","","","","","","","","","","","","","","","","","","","","","","","","","","","","","","","","","","","","","","","",""
"803","<p style=""color:rgb(150, 250, 100); font-size: 35px;"">他的</p>","i","categorize-html","26","207526","0.0-6.0-1.0-2.0-1.8","3","4","3","3","3","4","3","3","4","4","4","3","4","4","3","4","3","3","3","4","4","4","4","3","5","3","3","3","2","1","0","1","1","0","0","0","0","0","1","1","0","1","0","1","4","3","4","4","5","3","4","5","","4","5","789065248304009217","陈","211","","","","","","","","","","","","","","","","","","","true","11","1","moral","803","other","他的","","","","","","","","","","","","","","","","",""
"null","","null","html-keyboard-response","27","207777","0.0-6.0-1.0-2.0-0.9","3","4","3","3","3","4","3","3","4","4","4","3","4","4","3","4","3","3","3","4","4","4","4","3","5","3","3","3","2","1","0","1","1","0","0","0","0","0","1","1","0","1","0","1","4","3","4","4","5","3","4","5","","4","5","789065248304009217","陈","211","","","","","","","","","","","","","","","","","","","","","","","","","","","","","","","","","","","","","","","","","",""
"1264","<p style=""color:rgb(150, 250, 100); font-size: 35px;"">别人</p>","i","categorize-html","28","209042","0.0-6.0-1.0-2.0-1.9","3","4","3","3","3","4","3","3","4","4","4","3","4","4","3","4","3","3","3","4","4","4","4","3","5","3","3","3","2","1","0","1","1","0","0","0","0","0","1","1","0","1","0","1","4","3","4","4","5","3","4","5","","4","5","789065248304009217","陈","211","","","","","","","","","","","","","","","","","","","true","11","1","moral","1264","other","别人","","","","","","","","","","","","","","","","",""
"null","","null","html-keyboard-response","29","209293","0.0-6.0-1.0-2.0-0.10","3","4","3","3","3","4","3","3","4","4","4","3","4","4","3","4","3","3","3","4","4","4","4","3","5","3","3","3","2","1","0","1","1","0","0","0","0","0","1","1","0","1","0","1","4","3","4","4","5","3","4","5","","4","5","789065248304009217","陈","211","","","","","","","","","","","","","","","","","","","","","","","","","","","","","","","","","","","","","","","","","",""
"865","<p style=""color:rgb(150, 250, 100); font-size: 35px;"">他人的</p>","i","categorize-html","30","210161","0.0-6.0-1.0-2.0-1.10","3","4","3","3","3","4","3","3","4","4","4","3","4","4","3","4","3","3","3","4","4","4","4","3","5","3","3","3","2","1","0","1","1","0","0","0","0","0","1","1","0","1","0","1","4","3","4","4","5","3","4","5","","4","5","789065248304009217","陈","211","","","","","","","","","","","","","","","","","","","true","11","1","moral","865","other","他人的","","","","","","","","","","","","","","","","",""
"null","","null","html-keyboard-response","31","210412","0.0-6.0-1.0-2.0-0.11","3","4","3","3","3","4","3","3","4","4","4","3","4","4","3","4","3","3","3","4","4","4","4","3","5","3","3","3","2","1","0","1","1","0","0","0","0","0","1","1","0","1","0","1","4","3","4","4","5","3","4","5","","4","5","789065248304009217","陈","211","","","","","","","","","","","","","","","","","","","","","","","","","","","","","","","","","","","","","","","","","",""
"809","<p style=""color:rgb(150, 250, 100); font-size: 35px;"">本人</p>","e","categorize-html","32","211225","0.0-6.0-1.0-2.0-1.11","3","4","3","3","3","4","3","3","4","4","4","3","4","4","3","4","3","3","3","4","4","4","4","3","5","3","3","3","2","1","0","1","1","0","0","0","0","0","1","1","0","1","0","1","4","3","4","4","5","3","4","5","","4","5","789065248304009217","陈","211","","","","","","","","","","","","","","","","","","","true","11","1","moral","809","self","本人","","","","","","","","","","","","","","","","",""
"3623","
    <div class=""tag-bottom""><p>
    —— 任务2：对“消极”词和“积极”词分类 ——<p/>   
    <span style=""color:#78DCE8""><b>注意上方，类别标签和需要分类的词语都已经改变</b></span><p/>
    <span style=""color:#FFD866""><b>请根据上方标签的提示，尽可能正确并且快速地做出按键反应</b></span><p/>
    当按键错误时屏幕中会出现<span style=""color:red""> X </span>，需要按另一个键纠正才能继续<br/><p/>
    请把双手食指分别放在键盘的“E”键和“I”键上<p/>
    按<空格键>开始
    </p></div>"," ","html-keyboard-response","33","214849","0.0-6.0-1.0-3.0","3","4","3","3","3","4","3","3","4","4","4","3","4","4","3","4","3","3","3","4","4","4","4","3","5","3","3","3","2","1","0","1","1","0","0","0","0","0","1","1","0","1","0","1","4","3","4","4","5","3","4","5","","4","5","789065248304009217","陈","211","","","","","","","","","","","","","","","","","","","","","","","","","","","","","","","","","","","","","","","","","",""
"null","","null","html-keyboard-response","34","215100","0.0-6.0-1.0-4.0-0.0","3","4","3","3","3","4","3","3","4","4","4","3","4","4","3","4","3","3","3","4","4","4","4","3","5","3","3","3","2","1","0","1","1","0","0","0","0","0","1","1","0","1","0","1","4","3","4","4","5","3","4","5","","4","5","789065248304009217","陈","211","","","","","","","","","","","","","","","","","","","","","","","","","","","","","","","","","","","","","","","","","",""
"807","<p style=""color:white; font-size: 35px;"">廉正</p>","e","categorize-html","35","216889","0.0-6.0-1.0-4.0-1.0","3","4","3","3","3","4","3","3","4","4","4","3","4","4","3","4","3","3","3","4","4","4","4","3","5","3","3","3","2","1","0","1","1","0","0","0","0","0","1","1","0","1","0","1","4","3","4","4","5","3","4","5","","4","5","789065248304009217","陈","211","","","","","","","","","","","","","","","","","","","false","12","2","moral","807","positive","廉正","","","","","","","","","","","","","","","","",""
"null","","null","html-keyboard-response","36","217141","0.0-6.0-1.0-4.0-0.1","3","4","3","3","3","4","3","3","4","4","4","3","4","4","3","4","3","3","3","4","4","4","4","3","5","3","3","3","2","1","0","1","1","0","0","0","0","0","1","1","0","1","0","1","4","3","4","4","5","3","4","5","","4","5","789065248304009217","陈","211","","","","","","","","","","","","","","","","","","","","","","","","","","","","","","","","","","","","","","","","","",""
"1278","<p style=""color:white; font-size: 35px;"">善良</p>","i","categorize-html","37","218423","0.0-6.0-1.0-4.0-1.1","3","4","3","3","3","4","3","3","4","4","4","3","4","4","3","4","3","3","3","4","4","4","4","3","5","3","3","3","2","1","0","1","1","0","0","0","0","0","1","1","0","1","0","1","4","3","4","4","5","3","4","5","","4","5","789065248304009217","陈","211","","","","","","","","","","","","","","","","","","","true","12","2","moral","1278","positive","善良","","","","","","","","","","","","","","","","",""
"null","","null","html-keyboard-response","38","218674","0.0-6.0-1.0-4.0-0.2","3","4","3","3","3","4","3","3","4","4","4","3","4","4","3","4","3","3","3","4","4","4","4","3","5","3","3","3","2","1","0","1","1","0","0","0","0","0","1","1","0","1","0","1","4","3","4","4","5","3","4","5","","4","5","789065248304009217","陈","211","","","","","","","","","","","","","","","","","","","","","","","","","","","","","","","","","","","","","","","","","",""
"942","<p style=""color:white; font-size: 35px;"">不孝</p>","e","categorize-html","39","219619","0.0-6.0-1.0-4.0-1.2","3","4","3","3","3","4","3","3","4","4","4","3","4","4","3","4","3","3","3","4","4","4","4","3","5","3","3","3","2","1","0","1","1","0","0","0","0","0","1","1","0","1","0","1","4","3","4","4","5","3","4","5","","4","5","789065248304009217","陈","211","","","","","","","","","","","","","","","","","","","true","12","2","moral","942","negative","不孝","","","","","","","","","","","","","","","","",""
"null","","null","html-keyboard-response","40","219871","0.0-6.0-1.0-4.0-0.3","3","4","3","3","3","4","3","3","4","4","4","3","4","4","3","4","3","3","3","4","4","4","4","3","5","3","3","3","2","1","0","1","1","0","0","0","0","0","1","1","0","1","0","1","4","3","4","4","5","3","4","5","","4","5","789065248304009217","陈","211","","","","","","","","","","","","","","","","","","","","","","","","","","","","","","","","","","","","","","","","","",""
"990","<p style=""color:white; font-size: 35px;"">不仁</p>","e","categorize-html","41","220865","0.0-6.0-1.0-4.0-1.3","3","4","3","3","3","4","3","3","4","4","4","3","4","4","3","4","3","3","3","4","4","4","4","3","5","3","3","3","2","1","0","1","1","0","0","0","0","0","1","1","0","1","0","1","4","3","4","4","5","3","4","5","","4","5","789065248304009217","陈","211","","","","","","","","","","","","","","","","","","","true","12","2","moral","990","negative","不仁","","","","","","","","","","","","","","","","",""
"null","","null","html-keyboard-response","42","221116","0.0-6.0-1.0-4.0-0.4","3","4","3","3","3","4","3","3","4","4","4","3","4","4","3","4","3","3","3","4","4","4","4","3","5","3","3","3","2","1","0","1","1","0","0","0","0","0","1","1","0","1","0","1","4","3","4","4","5","3","4","5","","4","5","789065248304009217","陈","211","","","","","","","","","","","","","","","","","","","","","","","","","","","","","","","","","","","","","","","","","",""
"780","<p style=""color:white; font-size: 35px;"">卑鄙</p>","e","categorize-html","43","221897","0.0-6.0-1.0-4.0-1.4","3","4","3","3","3","4","3","3","4","4","4","3","4","4","3","4","3","3","3","4","4","4","4","3","5","3","3","3","2","1","0","1","1","0","0","0","0","0","1","1","0","1","0","1","4","3","4","4","5","3","4","5","","4","5","789065248304009217","陈","211","","","","","","","","","","","","","","","","","","","true","12","2","moral","780","negative","卑鄙","","","","","","","","","","","","","","","","",""
"null","","null","html-keyboard-response","44","222149","0.0-6.0-1.0-4.0-0.5","3","4","3","3","3","4","3","3","4","4","4","3","4","4","3","4","3","3","3","4","4","4","4","3","5","3","3","3","2","1","0","1","1","0","0","0","0","0","1","1","0","1","0","1","4","3","4","4","5","3","4","5","","4","5","789065248304009217","陈","211","","","","","","","","","","","","","","","","","","","","","","","","","","","","","","","","","","","","","","","","","",""
"880","<p style=""color:white; font-size: 35px;"">诚信</p>","i","categorize-html","45","223030","0.0-6.0-1.0-4.0-1.5","3","4","3","3","3","4","3","3","4","4","4","3","4","4","3","4","3","3","3","4","4","4","4","3","5","3","3","3","2","1","0","1","1","0","0","0","0","0","1","1","0","1","0","1","4","3","4","4","5","3","4","5","","4","5","789065248304009217","陈","211","","","","","","","","","","","","","","","","","","","true","12","2","moral","880","positive","诚信","","","","","","","","","","","","","","","","",""
"null","","null","html-keyboard-response","46","223281","0.0-6.0-1.0-4.0-0.6","3","4","3","3","3","4","3","3","4","4","4","3","4","4","3","4","3","3","3","4","4","4","4","3","5","3","3","3","2","1","0","1","1","0","0","0","0","0","1","1","0","1","0","1","4","3","4","4","5","3","4","5","","4","5","789065248304009217","陈","211","","","","","","","","","","","","","","","","","","","","","","","","","","","","","","","","","","","","","","","","","",""
"946","<p style=""color:white; font-size: 35px;"">君子</p>","i","categorize-html","47","224228","0.0-6.0-1.0-4.0-1.6","3","4","3","3","3","4","3","3","4","4","4","3","4","4","3","4","3","3","3","4","4","4","4","3","5","3","3","3","2","1","0","1","1","0","0","0","0","0","1","1","0","1","0","1","4","3","4","4","5","3","4","5","","4","5","789065248304009217","陈","211","","","","","","","","","","","","","","","","","","","true","12","2","moral","946","positive","君子","","","","","","","","","","","","","","","","",""
"null","","null","html-keyboard-response","48","224479","0.0-6.0-1.0-4.0-0.7","3","4","3","3","3","4","3","3","4","4","4","3","4","4","3","4","3","3","3","4","4","4","4","3","5","3","3","3","2","1","0","1","1","0","0","0","0","0","1","1","0","1","0","1","4","3","4","4","5","3","4","5","","4","5","789065248304009217","陈","211","","","","","","","","","","","","","","","","","","","","","","","","","","","","","","","","","","","","","","","","","",""
"776","<p style=""color:white; font-size: 35px;"">小人</p>","e","categorize-html","49","225258","0.0-6.0-1.0-4.0-1.7","3","4","3","3","3","4","3","3","4","4","4","3","4","4","3","4","3","3","3","4","4","4","4","3","5","3","3","3","2","1","0","1","1","0","0","0","0","0","1","1","0","1","0","1","4","3","4","4","5","3","4","5","","4","5","789065248304009217","陈","211","","","","","","","","","","","","","","","","","","","true","12","2","moral","776","negative","小人","","","","","","","","","","","","","","","","",""
"null","","null","html-keyboard-response","50","225510","0.0-6.0-1.0-4.0-0.8","3","4","3","3","3","4","3","3","4","4","4","3","4","4","3","4","3","3","3","4","4","4","4","3","5","3","3","3","2","1","0","1","1","0","0","0","0","0","1","1","0","1","0","1","4","3","4","4","5","3","4","5","","4","5","789065248304009217","陈","211","","","","","","","","","","","","","","","","","","","","","","","","","","","","","","","","","","","","","","","","","",""
"1229","<p style=""color:white; font-size: 35px;"">黑心</p>","e","categorize-html","51","226740","0.0-6.0-1.0-4.0-1.8","3","4","3","3","3","4","3","3","4","4","4","3","4","4","3","4","3","3","3","4","4","4","4","3","5","3","3","3","2","1","0","1","1","0","0","0","0","0","1","1","0","1","0","1","4","3","4","4","5","3","4","5","","4","5","789065248304009217","陈","211","","","","","","","","","","","","","","","","","","","true","12","2","moral","1229","negative","黑心","","","","","","","","","","","","","","","","",""
"null","","null","html-keyboard-response","52","226990","0.0-6.0-1.0-4.0-0.9","3","4","3","3","3","4","3","3","4","4","4","3","4","4","3","4","3","3","3","4","4","4","4","3","5","3","3","3","2","1","0","1","1","0","0","0","0","0","1","1","0","1","0","1","4","3","4","4","5","3","4","5","","4","5","789065248304009217","陈","211","","","","","","","","","","","","","","","","","","","","","","","","","","","","","","","","","","","","","","","","","",""
"842","<p style=""color:white; font-size: 35px;"">高尚</p>","i","categorize-html","53","227836","0.0-6.0-1.0-4.0-1.9","3","4","3","3","3","4","3","3","4","4","4","3","4","4","3","4","3","3","3","4","4","4","4","3","5","3","3","3","2","1","0","1","1","0","0","0","0","0","1","1","0","1","0","1","4","3","4","4","5","3","4","5","","4","5","789065248304009217","陈","211","","","","","","","","","","","","","","","","","","","true","12","2","moral","842","positive","高尚","","","","","","","","","","","","","","","","",""
"null","","null","html-keyboard-response","54","228087","0.0-6.0-1.0-4.0-0.10","3","4","3","3","3","4","3","3","4","4","4","3","4","4","3","4","3","3","3","4","4","4","4","3","5","3","3","3","2","1","0","1","1","0","0","0","0","0","1","1","0","1","0","1","4","3","4","4","5","3","4","5","","4","5","789065248304009217","陈","211","","","","","","","","","","","","","","","","","","","","","","","","","","","","","","","","","","","","","","","","","",""
"1049","<p style=""color:white; font-size: 35px;"">缺德</p>","e","categorize-html","55","229140","0.0-6.0-1.0-4.0-1.10","3","4","3","3","3","4","3","3","4","4","4","3","4","4","3","4","3","3","3","4","4","4","4","3","5","3","3","3","2","1","0","1","1","0","0","0","0","0","1","1","0","1","0","1","4","3","4","4","5","3","4","5","","4","5","789065248304009217","陈","211","","","","","","","","","","","","","","","","","","","true","12","2","moral","1049","negative","缺德","","","","","","","","","","","","","","","","",""
"null","","null","html-keyboard-response","56","229391","0.0-6.0-1.0-4.0-0.11","3","4","3","3","3","4","3","3","4","4","4","3","4","4","3","4","3","3","3","4","4","4","4","3","5","3","3","3","2","1","0","1","1","0","0","0","0","0","1","1","0","1","0","1","4","3","4","4","5","3","4","5","","4","5","789065248304009217","陈","211","","","","","","","","","","","","","","","","","","","","","","","","","","","","","","","","","","","","","","","","","",""
"840","<p style=""color:white; font-size: 35px;"">正直</p>","i","categorize-html","57","230231","0.0-6.0-1.0-4.0-1.11","3","4","3","3","3","4","3","3","4","4","4","3","4","4","3","4","3","3","3","4","4","4","4","3","5","3","3","3","2","1","0","1","1","0","0","0","0","0","1","1","0","1","0","1","4","3","4","4","5","3","4","5","","4","5","789065248304009217","陈","211","","","","","","","","","","","","","","","","","","","true","12","2","moral","840","positive","正直","","","","","","","","","","","","","","","","",""
"7617","
    <div class=""tag-bottom""><p>
    —— 任务3：对“自我/消极”词和“他人/积极”词分类 ——<p/>
    <span style=""color:#78DCE8""><b>注意上方，之前的四类词语将混合在一起交替呈现</b></span><p/>
    <span style=""color:#FFD866""><b>请根据上方标签的提示，尽可能正确并且快速地做出按键反应</b></span><p/>
    当按键错误时屏幕中会出现<span style=""color:red""> X </span>，需要按另一个键纠正才能继续<br/><p/>
    请把双手食指分别放在键盘的“E”键和“I”键上<p/>
    按<空格键>开始
    </p></div>"," ","html-keyboard-response","58","237849","0.0-6.0-1.0-5.0","3","4","3","3","3","4","3","3","4","4","4","3","4","4","3","4","3","3","3","4","4","4","4","3","5","3","3","3","2","1","0","1","1","0","0","0","0","0","1","1","0","1","0","1","4","3","4","4","5","3","4","5","","4","5","789065248304009217","陈","211","","","","","","","","","","","","","","","","","","","","","","","","","","","","","","","","","","","","","","","","","",""
"null","","null","html-keyboard-response","59","238101","0.0-6.0-1.0-6.0-0.0","3","4","3","3","3","4","3","3","4","4","4","3","4","4","3","4","3","3","3","4","4","4","4","3","5","3","3","3","2","1","0","1","1","0","0","0","0","0","1","1","0","1","0","1","4","3","4","4","5","3","4","5","","4","5","789065248304009217","陈","211","","","","","","","","","","","","","","","","","","","","","","","","","","","","","","","","","","","","","","","","","",""
"1531","<p style=""color:rgb(150, 250, 100); font-size: 35px;"">别人</p>","i","categorize-html","60","239637","0.0-6.0-1.0-6.0-1.0","3","4","3","3","3","4","3","3","4","4","4","3","4","4","3","4","3","3","3","4","4","4","4","3","5","3","3","3","2","1","0","1","1","0","0","0","0","0","1","1","0","1","0","1","4","3","4","4","5","3","4","5","","4","5","789065248304009217","陈","211","","","","","","","","","","","","","","","","","","","true","13","3","moral","1531","other","别人","","","","","","","","","","","","","","","","",""
"null","","null","html-keyboard-response","61","239888","0.0-6.0-1.0-6.0-0.1","3","4","3","3","3","4","3","3","4","4","4","3","4","4","3","4","3","3","3","4","4","4","4","3","5","3","3","3","2","1","0","1","1","0","0","0","0","0","1","1","0","1","0","1","4","3","4","4","5","3","4","5","","4","5","789065248304009217","陈","211","","","","","","","","","","","","","","","","","","","","","","","","","","","","","","","","","","","","","","","","","",""
"1476","<p style=""color:white; font-size: 35px;"">小人</p>","e","categorize-html","62","241368","0.0-6.0-1.0-6.0-1.1","3","4","3","3","3","4","3","3","4","4","4","3","4","4","3","4","3","3","3","4","4","4","4","3","5","3","3","3","2","1","0","1","1","0","0","0","0","0","1","1","0","1","0","1","4","3","4","4","5","3","4","5","","4","5","789065248304009217","陈","211","","","","","","","","","","","","","","","","","","","true","13","3","moral","1476","negative","小人","","","","","","","","","","","","","","","","",""
"null","","null","html-keyboard-response","63","241620","0.0-6.0-1.0-6.0-0.2","3","4","3","3","3","4","3","3","4","4","4","3","4","4","3","4","3","3","3","4","4","4","4","3","5","3","3","3","2","1","0","1","1","0","0","0","0","0","1","1","0","1","0","1","4","3","4","4","5","3","4","5","","4","5","789065248304009217","陈","211","","","","","","","","","","","","","","","","","","","","","","","","","","","","","","","","","","","","","","","","","",""
"1196","<p style=""color:rgb(150, 250, 100); font-size: 35px;"">本人</p>","e","categorize-html","64","242819","0.0-6.0-1.0-6.0-1.2","3","4","3","3","3","4","3","3","4","4","4","3","4","4","3","4","3","3","3","4","4","4","4","3","5","3","3","3","2","1","0","1","1","0","0","0","0","0","1","1","0","1","0","1","4","3","4","4","5","3","4","5","","4","5","789065248304009217","陈","211","","","","","","","","","","","","","","","","","","","true","13","3","moral","1196","self","本人","","","","","","","","","","","","","","","","",""
"null","","null","html-keyboard-response","65","243070","0.0-6.0-1.0-6.0-0.3","3","4","3","3","3","4","3","3","4","4","4","3","4","4","3","4","3","3","3","4","4","4","4","3","5","3","3","3","2","1","0","1","1","0","0","0","0","0","1","1","0","1","0","1","4","3","4","4","5","3","4","5","","4","5","789065248304009217","陈","211","","","","","","","","","","","","","","","","","","","","","","","","","","","","","","","","","","","","","","","","","",""
"1149","<p style=""color:white; font-size: 35px;"">君子</p>","i","categorize-html","66","244221","0.0-6.0-1.0-6.0-1.3","3","4","3","3","3","4","3","3","4","4","4","3","4","4","3","4","3","3","3","4","4","4","4","3","5","3","3","3","2","1","0","1","1","0","0","0","0","0","1","1","0","1","0","1","4","3","4","4","5","3","4","5","","4","5","789065248304009217","陈","211","","","","","","","","","","","","","","","","","","","true","13","3","moral","1149","positive","君子","","","","","","","","","","","","","","","","",""
"null","","null","html-keyboard-response","67","244471","0.0-6.0-1.0-6.0-0.4","3","4","3","3","3","4","3","3","4","4","4","3","4","4","3","4","3","3","3","4","4","4","4","3","5","3","3","3","2","1","0","1","1","0","0","0","0","0","1","1","0","1","0","1","4","3","4","4","5","3","4","5","","4","5","789065248304009217","陈","211","","","","","","","","","","","","","","","","","","","","","","","","","","","","","","","","","","","","","","","","","",""
"1087","<p style=""color:rgb(150, 250, 100); font-size: 35px;"">自己的</p>","e","categorize-html","68","245563","0.0-6.0-1.0-6.0-1.4","3","4","3","3","3","4","3","3","4","4","4","3","4","4","3","4","3","3","3","4","4","4","4","3","5","3","3","3","2","1","0","1","1","0","0","0","0","0","1","1","0","1","0","1","4","3","4","4","5","3","4","5","","4","5","789065248304009217","陈","211","","","","","","","","","","","","","","","","","","","true","13","3","moral","1087","self","自己的","","","","","","","","","","","","","","","","",""
"null","","null","html-keyboard-response","69","245814","0.0-6.0-1.0-6.0-0.5","3","4","3","3","3","4","3","3","4","4","4","3","4","4","3","4","3","3","3","4","4","4","4","3","5","3","3","3","2","1","0","1","1","0","0","0","0","0","1","1","0","1","0","1","4","3","4","4","5","3","4","5","","4","5","789065248304009217","陈","211","","","","","","","","","","","","","","","","","","","","","","","","","","","","","","","","","","","","","","","","","",""
"836","<p style=""color:white; font-size: 35px;"">不仁</p>","e","categorize-html","70","246653","0.0-6.0-1.0-6.0-1.5","3","4","3","3","3","4","3","3","4","4","4","3","4","4","3","4","3","3","3","4","4","4","4","3","5","3","3","3","2","1","0","1","1","0","0","0","0","0","1","1","0","1","0","1","4","3","4","4","5","3","4","5","","4","5","789065248304009217","陈","211","","","","","","","","","","","","","","","","","","","true","13","3","moral","836","negative","不仁","","","","","","","","","","","","","","","","",""
"null","","null","html-keyboard-response","71","246904","0.0-6.0-1.0-6.0-0.6","3","4","3","3","3","4","3","3","4","4","4","3","4","4","3","4","3","3","3","4","4","4","4","3","5","3","3","3","2","1","0","1","1","0","0","0","0","0","1","1","0","1","0","1","4","3","4","4","5","3","4","5","","4","5","789065248304009217","陈","211","","","","","","","","","","","","","","","","","","","","","","","","","","","","","","","","","","","","","","","","","",""
"951","<p style=""color:rgb(150, 250, 100); font-size: 35px;"">别人的</p>","i","categorize-html","72","247859","0.0-6.0-1.0-6.0-1.6","3","4","3","3","3","4","3","3","4","4","4","3","4","4","3","4","3","3","3","4","4","4","4","3","5","3","3","3","2","1","0","1","1","0","0","0","0","0","1","1","0","1","0","1","4","3","4","4","5","3","4","5","","4","5","789065248304009217","陈","211","","","","","","","","","","","","","","","","","","","true","13","3","moral","951","other","别人的","","","","","","","","","","","","","","","","",""
"null","","null","html-keyboard-response","73","248111","0.0-6.0-1.0-6.0-0.7","3","4","3","3","3","4","3","3","4","4","4","3","4","4","3","4","3","3","3","4","4","4","4","3","5","3","3","3","2","1","0","1","1","0","0","0","0","0","1","1","0","1","0","1","4","3","4","4","5","3","4","5","","4","5","789065248304009217","陈","211","","","","","","","","","","","","","","","","","","","","","","","","","","","","","","","","","","","","","","","","","",""
"1378","<p style=""color:white; font-size: 35px;"">善良</p>","i","categorize-html","74","249491","0.0-6.0-1.0-6.0-1.7","3","4","3","3","3","4","3","3","4","4","4","3","4","4","3","4","3","3","3","4","4","4","4","3","5","3","3","3","2","1","0","1","1","0","0","0","0","0","1","1","0","1","0","1","4","3","4","4","5","3","4","5","","4","5","789065248304009217","陈","211","","","","","","","","","","","","","","","","","","","true","13","3","moral","1378","positive","善良","","","","","","","","","","","","","","","","",""
"null","","null","html-keyboard-response","75","249742","0.0-6.0-1.0-6.0-0.8","3","4","3","3","3","4","3","3","4","4","4","3","4","4","3","4","3","3","3","4","4","4","4","3","5","3","3","3","2","1","0","1","1","0","0","0","0","0","1","1","0","1","0","1","4","3","4","4","5","3","4","5","","4","5","789065248304009217","陈","211","","","","","","","","","","","","","","","","","","","","","","","","","","","","","","","","","","","","","","","","","",""
"1172","<p style=""color:rgb(150, 250, 100); font-size: 35px;"">他的</p>","i","categorize-html","76","250917","0.0-6.0-1.0-6.0-1.8","3","4","3","3","3","4","3","3","4","4","4","3","4","4","3","4","3","3","3","4","4","4","4","3","5","3","3","3","2","1","0","1","1","0","0","0","0","0","1","1","0","1","0","1","4","3","4","4","5","3","4","5","","4","5","789065248304009217","陈","211","","","","","","","","","","","","","","","","","","","true","13","3","moral","1172","other","他的","","","","","","","","","","","","","","","","",""
"null","","null","html-keyboard-response","77","251169","0.0-6.0-1.0-6.0-0.9","3","4","3","3","3","4","3","3","4","4","4","3","4","4","3","4","3","3","3","4","4","4","4","3","5","3","3","3","2","1","0","1","1","0","0","0","0","0","1","1","0","1","0","1","4","3","4","4","5","3","4","5","","4","5","789065248304009217","陈","211","","","","","","","","","","","","","","","","","","","","","","","","","","","","","","","","","","","","","","","","","",""
"1297","<p style=""color:white; font-size: 35px;"">缺德</p>","e","categorize-html","78","252470","0.0-6.0-1.0-6.0-1.9","3","4","3","3","3","4","3","3","4","4","4","3","4","4","3","4","3","3","3","4","4","4","4","3","5","3","3","3","2","1","0","1","1","0","0","0","0","0","1","1","0","1","0","1","4","3","4","4","5","3","4","5","","4","5","789065248304009217","陈","211","","","","","","","","","","","","","","","","","","","true","13","3","moral","1297","negative","缺德","","","","","","","","","","","","","","","","",""
"null","","null","html-keyboard-response","79","252722","0.0-6.0-1.0-6.0-0.10","3","4","3","3","3","4","3","3","4","4","4","3","4","4","3","4","3","3","3","4","4","4","4","3","5","3","3","3","2","1","0","1","1","0","0","0","0","0","1","1","0","1","0","1","4","3","4","4","5","3","4","5","","4","5","789065248304009217","陈","211","","","","","","","","","","","","","","","","","","","","","","","","","","","","","","","","","","","","","","","","","",""
"968","<p style=""color:rgb(150, 250, 100); font-size: 35px;"">自己</p>","e","categorize-html","80","253694","0.0-6.0-1.0-6.0-1.10","3","4","3","3","3","4","3","3","4","4","4","3","4","4","3","4","3","3","3","4","4","4","4","3","5","3","3","3","2","1","0","1","1","0","0","0","0","0","1","1","0","1","0","1","4","3","4","4","5","3","4","5","","4","5","789065248304009217","陈","211","","","","","","","","","","","","","","","","","","","true","13","3","moral","968","self","自己","","","","","","","","","","","","","","","","",""
"null","","null","html-keyboard-response","81","253945","0.0-6.0-1.0-6.0-0.11","3","4","3","3","3","4","3","3","4","4","4","3","4","4","3","4","3","3","3","4","4","4","4","3","5","3","3","3","2","1","0","1","1","0","0","0","0","0","1","1","0","1","0","1","4","3","4","4","5","3","4","5","","4","5","789065248304009217","陈","211","","","","","","","","","","","","","","","","","","","","","","","","","","","","","","","","","","","","","","","","","",""
"1240","<p style=""color:white; font-size: 35px;"">廉正</p>","i","categorize-html","82","255189","0.0-6.0-1.0-6.0-1.11","3","4","3","3","3","4","3","3","4","4","4","3","4","4","3","4","3","3","3","4","4","4","4","3","5","3","3","3","2","1","0","1","1","0","0","0","0","0","1","1","0","1","0","1","4","3","4","4","5","3","4","5","","4","5","789065248304009217","陈","211","","","","","","","","","","","","","","","","","","","true","13","3","moral","1240","positive","廉正","","","","","","","","","","","","","","","","",""
"null","","null","html-keyboard-response","83","255441","0.0-6.0-1.0-6.0-0.12","3","4","3","3","3","4","3","3","4","4","4","3","4","4","3","4","3","3","3","4","4","4","4","3","5","3","3","3","2","1","0","1","1","0","0","0","0","0","1","1","0","1","0","1","4","3","4","4","5","3","4","5","","4","5","789065248304009217","陈","211","","","","","","","","","","","","","","","","","","","","","","","","","","","","","","","","","","","","","","","","","",""
"1065","<p style=""color:rgb(150, 250, 100); font-size: 35px;"">他人的</p>","i","categorize-html","84","256510","0.0-6.0-1.0-6.0-1.12","3","4","3","3","3","4","3","3","4","4","4","3","4","4","3","4","3","3","3","4","4","4","4","3","5","3","3","3","2","1","0","1","1","0","0","0","0","0","1","1","0","1","0","1","4","3","4","4","5","3","4","5","","4","5","789065248304009217","陈","211","","","","","","","","","","","","","","","","","","","true","13","3","moral","1065","other","他人的","","","","","","","","","","","","","","","","",""
"null","","null","html-keyboard-response","85","256761","0.0-6.0-1.0-6.0-0.13","3","4","3","3","3","4","3","3","4","4","4","3","4","4","3","4","3","3","3","4","4","4","4","3","5","3","3","3","2","1","0","1","1","0","0","0","0","0","1","1","0","1","0","1","4","3","4","4","5","3","4","5","","4","5","789065248304009217","陈","211","","","","","","","","","","","","","","","","","","","","","","","","","","","","","","","","","","","","","","","","","",""
"1193","<p style=""color:white; font-size: 35px;"">卑鄙</p>","e","categorize-html","86","257955","0.0-6.0-1.0-6.0-1.13","3","4","3","3","3","4","3","3","4","4","4","3","4","4","3","4","3","3","3","4","4","4","4","3","5","3","3","3","2","1","0","1","1","0","0","0","0","0","1","1","0","1","0","1","4","3","4","4","5","3","4","5","","4","5","789065248304009217","陈","211","","","","","","","","","","","","","","","","","","","true","13","3","moral","1193","negative","卑鄙","","","","","","","","","","","","","","","","",""
"null","","null","html-keyboard-response","87","258208","0.0-6.0-1.0-6.0-0.14","3","4","3","3","3","4","3","3","4","4","4","3","4","4","3","4","3","3","3","4","4","4","4","3","5","3","3","3","2","1","0","1","1","0","0","0","0","0","1","1","0","1","0","1","4","3","4","4","5","3","4","5","","4","5","789065248304009217","陈","211","","","","","","","","","","","","","","","","","","","","","","","","","","","","","","","","","","","","","","","","","",""
"809","<p style=""color:rgb(150, 250, 100); font-size: 35px;"">我的</p>","e","categorize-html","88","259018","0.0-6.0-1.0-6.0-1.14","3","4","3","3","3","4","3","3","4","4","4","3","4","4","3","4","3","3","3","4","4","4","4","3","5","3","3","3","2","1","0","1","1","0","0","0","0","0","1","1","0","1","0","1","4","3","4","4","5","3","4","5","","4","5","789065248304009217","陈","211","","","","","","","","","","","","","","","","","","","true","13","3","moral","809","self","我的","","","","","","","","","","","","","","","","",""
"null","","null","html-keyboard-response","89","259268","0.0-6.0-1.0-6.0-0.15","3","4","3","3","3","4","3","3","4","4","4","3","4","4","3","4","3","3","3","4","4","4","4","3","5","3","3","3","2","1","0","1","1","0","0","0","0","0","1","1","0","1","0","1","4","3","4","4","5","3","4","5","","4","5","789065248304009217","陈","211","","","","","","","","","","","","","","","","","","","","","","","","","","","","","","","","","","","","","","","","","",""
"1544","<p style=""color:white; font-size: 35px;"">正直</p>","i","categorize-html","90","260816","0.0-6.0-1.0-6.0-1.15","3","4","3","3","3","4","3","3","4","4","4","3","4","4","3","4","3","3","3","4","4","4","4","3","5","3","3","3","2","1","0","1","1","0","0","0","0","0","1","1","0","1","0","1","4","3","4","4","5","3","4","5","","4","5","789065248304009217","陈","211","","","","","","","","","","","","","","","","","","","true","13","3","moral","1544","positive","正直","","","","","","","","","","","","","","","","",""
"null","","null","html-keyboard-response","91","261068","0.0-6.0-1.0-6.0-0.16","3","4","3","3","3","4","3","3","4","4","4","3","4","4","3","4","3","3","3","4","4","4","4","3","5","3","3","3","2","1","0","1","1","0","0","0","0","0","1","1","0","1","0","1","4","3","4","4","5","3","4","5","","4","5","789065248304009217","陈","211","","","","","","","","","","","","","","","","","","","","","","","","","","","","","","","","","","","","","","","","","",""
"880","<p style=""color:rgb(150, 250, 100); font-size: 35px;"">本人的</p>","e","categorize-html","92","261949","0.0-6.0-1.0-6.0-1.16","3","4","3","3","3","4","3","3","4","4","4","3","4","4","3","4","3","3","3","4","4","4","4","3","5","3","3","3","2","1","0","1","1","0","0","0","0","0","1","1","0","1","0","1","4","3","4","4","5","3","4","5","","4","5","789065248304009217","陈","211","","","","","","","","","","","","","","","","","","","true","13","3","moral","880","self","本人的","","","","","","","","","","","","","","","","",""
"null","","null","html-keyboard-response","93","262199","0.0-6.0-1.0-6.0-0.17","3","4","3","3","3","4","3","3","4","4","4","3","4","4","3","4","3","3","3","4","4","4","4","3","5","3","3","3","2","1","0","1","1","0","0","0","0","0","1","1","0","1","0","1","4","3","4","4","5","3","4","5","","4","5","789065248304009217","陈","211","","","","","","","","","","","","","","","","","","","","","","","","","","","","","","","","","","","","","","","","","",""
"917","<p style=""color:white; font-size: 35px;"">黑心</p>","e","categorize-html","94","263118","0.0-6.0-1.0-6.0-1.17","3","4","3","3","3","4","3","3","4","4","4","3","4","4","3","4","3","3","3","4","4","4","4","3","5","3","3","3","2","1","0","1","1","0","0","0","0","0","1","1","0","1","0","1","4","3","4","4","5","3","4","5","","4","5","789065248304009217","陈","211","","","","","","","","","","","","","","","","","","","true","13","3","moral","917","negative","黑心","","","","","","","","","","","","","","","","",""
"null","","null","html-keyboard-response","95","263369","0.0-6.0-1.0-6.0-0.18","3","4","3","3","3","4","3","3","4","4","4","3","4","4","3","4","3","3","3","4","4","4","4","3","5","3","3","3","2","1","0","1","1","0","0","0","0","0","1","1","0","1","0","1","4","3","4","4","5","3","4","5","","4","5","789065248304009217","陈","211","","","","","","","","","","","","","","","","","","","","","","","","","","","","","","","","","","","","","","","","","",""
"931","<p style=""color:rgb(150, 250, 100); font-size: 35px;"">他人</p>","i","categorize-html","96","264302","0.0-6.0-1.0-6.0-1.18","3","4","3","3","3","4","3","3","4","4","4","3","4","4","3","4","3","3","3","4","4","4","4","3","5","3","3","3","2","1","0","1","1","0","0","0","0","0","1","1","0","1","0","1","4","3","4","4","5","3","4","5","","4","5","789065248304009217","陈","211","","","","","","","","","","","","","","","","","","","true","13","3","moral","931","other","他人","","","","","","","","","","","","","","","","",""
"null","","null","html-keyboard-response","97","264553","0.0-6.0-1.0-6.0-0.19","3","4","3","3","3","4","3","3","4","4","4","3","4","4","3","4","3","3","3","4","4","4","4","3","5","3","3","3","2","1","0","1","1","0","0","0","0","0","1","1","0","1","0","1","4","3","4","4","5","3","4","5","","4","5","789065248304009217","陈","211","","","","","","","","","","","","","","","","","","","","","","","","","","","","","","","","","","","","","","","","","",""
"1121","<p style=""color:white; font-size: 35px;"">高尚</p>","e","categorize-html","98","266665","0.0-6.0-1.0-6.0-1.19","3","4","3","3","3","4","3","3","4","4","4","3","4","4","3","4","3","3","3","4","4","4","4","3","5","3","3","3","2","1","0","1","1","0","0","0","0","0","1","1","0","1","0","1","4","3","4","4","5","3","4","5","","4","5","789065248304009217","陈","211","","","","","","","","","","","","","","","","","","","false","13","3","moral","1703.0869565217392","positive","高尚","","","","","","","","","","","","","","","","",""
"null","","null","html-keyboard-response","99","266917","0.0-6.0-1.0-6.0-0.20","3","4","3","3","3","4","3","3","4","4","4","3","4","4","3","4","3","3","3","4","4","4","4","3","5","3","3","3","2","1","0","1","1","0","0","0","0","0","1","1","0","1","0","1","4","3","4","4","5","3","4","5","","4","5","789065248304009217","陈","211","","","","","","","","","","","","","","","","","","","","","","","","","","","","","","","","","","","","","","","","","",""
"843","<p style=""color:rgb(150, 250, 100); font-size: 35px;"">我</p>","e","categorize-html","100","267763","0.0-6.0-1.0-6.0-1.20","3","4","3","3","3","4","3","3","4","4","4","3","4","4","3","4","3","3","3","4","4","4","4","3","5","3","3","3","2","1","0","1","1","0","0","0","0","0","1","1","0","1","0","1","4","3","4","4","5","3","4","5","","4","5","789065248304009217","陈","211","","","","","","","","","","","","","","","","","","","true","13","3","moral","843","self","我","","","","","","","","","","","","","","","","",""
"null","","null","html-keyboard-response","101","268015","0.0-6.0-1.0-6.0-0.21","3","4","3","3","3","4","3","3","4","4","4","3","4","4","3","4","3","3","3","4","4","4","4","3","5","3","3","3","2","1","0","1","1","0","0","0","0","0","1","1","0","1","0","1","4","3","4","4","5","3","4","5","","4","5","789065248304009217","陈","211","","","","","","","","","","","","","","","","","","","","","","","","","","","","","","","","","","","","","","","","","",""
"893","<p style=""color:white; font-size: 35px;"">诚信</p>","i","categorize-html","102","268911","0.0-6.0-1.0-6.0-1.21","3","4","3","3","3","4","3","3","4","4","4","3","4","4","3","4","3","3","3","4","4","4","4","3","5","3","3","3","2","1","0","1","1","0","0","0","0","0","1","1","0","1","0","1","4","3","4","4","5","3","4","5","","4","5","789065248304009217","陈","211","","","","","","","","","","","","","","","","","","","true","13","3","moral","893","positive","诚信","","","","","","","","","","","","","","","","",""
"null","","null","html-keyboard-response","103","269162","0.0-6.0-1.0-6.0-0.22","3","4","3","3","3","4","3","3","4","4","4","3","4","4","3","4","3","3","3","4","4","4","4","3","5","3","3","3","2","1","0","1","1","0","0","0","0","0","1","1","0","1","0","1","4","3","4","4","5","3","4","5","","4","5","789065248304009217","陈","211","","","","","","","","","","","","","","","","","","","","","","","","","","","","","","","","","","","","","","","","","",""
"1169","<p style=""color:rgb(150, 250, 100); font-size: 35px;"">他</p>","i","categorize-html","104","270335","0.0-6.0-1.0-6.0-1.22","3","4","3","3","3","4","3","3","4","4","4","3","4","4","3","4","3","3","3","4","4","4","4","3","5","3","3","3","2","1","0","1","1","0","0","0","0","0","1","1","0","1","0","1","4","3","4","4","5","3","4","5","","4","5","789065248304009217","陈","211","","","","","","","","","","","","","","","","","","","true","13","3","moral","1169","other","他","","","","","","","","","","","","","","","","",""
"null","","null","html-keyboard-response","105","270587","0.0-6.0-1.0-6.0-0.23","3","4","3","3","3","4","3","3","4","4","4","3","4","4","3","4","3","3","3","4","4","4","4","3","5","3","3","3","2","1","0","1","1","0","0","0","0","0","1","1","0","1","0","1","4","3","4","4","5","3","4","5","","4","5","789065248304009217","陈","211","","","","","","","","","","","","","","","","","","","","","","","","","","","","","","","","","","","","","","","","","",""
"846","<p style=""color:white; font-size: 35px;"">不孝</p>","e","categorize-html","106","271437","0.0-6.0-1.0-6.0-1.23","3","4","3","3","3","4","3","3","4","4","4","3","4","4","3","4","3","3","3","4","4","4","4","3","5","3","3","3","2","1","0","1","1","0","0","0","0","0","1","1","0","1","0","1","4","3","4","4","5","3","4","5","","4","5","789065248304009217","陈","211","","","","","","","","","","","","","","","","","","","true","13","3","moral","846","negative","不孝","","","","","","","","","","","","","","","","",""
"4310","
    <div class=""tag-bottom""><p>
    —— 任务4：对“自我/消极”词和“他人/积极”词分类 ——<p/>
    <span style=""color:#78DCE8""><b>与刚才的任务完全相同，请再次对这四类词语分类</b></span><p/>
    <span style=""color:#FFD866""><b>请根据上方标签的提示，尽可能正确并且快速地做出按键反应</b></span><p/>
    当按键错误时屏幕中会出现<span style=""color:red""> X </span>，需要按另一个键纠正才能继续<br/><p/>
    请把双手食指分别放在键盘的“E”键和“I”键上<p/>
    按<空格键>开始
    </p></div>"," ","html-keyboard-response","107","275747","0.0-6.0-1.0-7.0","3","4","3","3","3","4","3","3","4","4","4","3","4","4","3","4","3","3","3","4","4","4","4","3","5","3","3","3","2","1","0","1","1","0","0","0","0","0","1","1","0","1","0","1","4","3","4","4","5","3","4","5","","4","5","789065248304009217","陈","211","","","","","","","","","","","","","","","","","","","","","","","","","","","","","","","","","","","","","","","","","",""
"null","","null","html-keyboard-response","108","275999","0.0-6.0-1.0-8.0-0.0","3","4","3","3","3","4","3","3","4","4","4","3","4","4","3","4","3","3","3","4","4","4","4","3","5","3","3","3","2","1","0","1","1","0","0","0","0","0","1","1","0","1","0","1","4","3","4","4","5","3","4","5","","4","5","789065248304009217","陈","211","","","","","","","","","","","","","","","","","","","","","","","","","","","","","","","","","","","","","","","","","",""
"910","<p style=""color:rgb(150, 250, 100); font-size: 35px;"">他</p>","i","categorize-html","109","276913","0.0-6.0-1.0-8.0-1.0","3","4","3","3","3","4","3","3","4","4","4","3","4","4","3","4","3","3","3","4","4","4","4","3","5","3","3","3","2","1","0","1","1","0","0","0","0","0","1","1","0","1","0","1","4","3","4","4","5","3","4","5","","4","5","789065248304009217","陈","211","","","","","","","","","","","","","","","","","","","true","14","4","moral","910","other","他","","","","","","","","","","","","","","","","",""
"null","","null","html-keyboard-response","110","277165","0.0-6.0-1.0-8.0-0.1","3","4","3","3","3","4","3","3","4","4","4","3","4","4","3","4","3","3","3","4","4","4","4","3","5","3","3","3","2","1","0","1","1","0","0","0","0","0","1","1","0","1","0","1","4","3","4","4","5","3","4","5","","4","5","789065248304009217","陈","211","","","","","","","","","","","","","","","","","","","","","","","","","","","","","","","","","","","","","","","","","",""
"1140","<p style=""color:white; font-size: 35px;"">高尚</p>","i","categorize-html","111","278306","0.0-6.0-1.0-8.0-1.1","3","4","3","3","3","4","3","3","4","4","4","3","4","4","3","4","3","3","3","4","4","4","4","3","5","3","3","3","2","1","0","1","1","0","0","0","0","0","1","1","0","1","0","1","4","3","4","4","5","3","4","5","","4","5","789065248304009217","陈","211","","","","","","","","","","","","","","","","","","","true","14","4","moral","1140","positive","高尚","","","","","","","","","","","","","","","","",""
"null","","null","html-keyboard-response","112","278557","0.0-6.0-1.0-8.0-0.2","3","4","3","3","3","4","3","3","4","4","4","3","4","4","3","4","3","3","3","4","4","4","4","3","5","3","3","3","2","1","0","1","1","0","0","0","0","0","1","1","0","1","0","1","4","3","4","4","5","3","4","5","","4","5","789065248304009217","陈","211","","","","","","","","","","","","","","","","","","","","","","","","","","","","","","","","","","","","","","","","","",""
"812","<p style=""color:rgb(150, 250, 100); font-size: 35px;"">我的</p>","e","categorize-html","113","279372","0.0-6.0-1.0-8.0-1.2","3","4","3","3","3","4","3","3","4","4","4","3","4","4","3","4","3","3","3","4","4","4","4","3","5","3","3","3","2","1","0","1","1","0","0","0","0","0","1","1","0","1","0","1","4","3","4","4","5","3","4","5","","4","5","789065248304009217","陈","211","","","","","","","","","","","","","","","","","","","true","14","4","moral","812","self","我的","","","","","","","","","","","","","","","","",""
"null","","null","html-keyboard-response","114","279624","0.0-6.0-1.0-8.0-0.3","3","4","3","3","3","4","3","3","4","4","4","3","4","4","3","4","3","3","3","4","4","4","4","3","5","3","3","3","2","1","0","1","1","0","0","0","0","0","1","1","0","1","0","1","4","3","4","4","5","3","4","5","","4","5","789065248304009217","陈","211","","","","","","","","","","","","","","","","","","","","","","","","","","","","","","","","","","","","","","","","","",""
"882","<p style=""color:white; font-size: 35px;"">不孝</p>","e","categorize-html","115","280509","0.0-6.0-1.0-8.0-1.3","3","4","3","3","3","4","3","3","4","4","4","3","4","4","3","4","3","3","3","4","4","4","4","3","5","3","3","3","2","1","0","1","1","0","0","0","0","0","1","1","0","1","0","1","4","3","4","4","5","3","4","5","","4","5","789065248304009217","陈","211","","","","","","","","","","","","","","","","","","","true","14","4","moral","882","negative","不孝","","","","","","","","","","","","","","","","",""
"null","","null","html-keyboard-response","116","280761","0.0-6.0-1.0-8.0-0.4","3","4","3","3","3","4","3","3","4","4","4","3","4","4","3","4","3","3","3","4","4","4","4","3","5","3","3","3","2","1","0","1","1","0","0","0","0","0","1","1","0","1","0","1","4","3","4","4","5","3","4","5","","4","5","789065248304009217","陈","211","","","","","","","","","","","","","","","","","","","","","","","","","","","","","","","","","","","","","","","","","",""
"920","<p style=""color:rgb(150, 250, 100); font-size: 35px;"">他的</p>","i","categorize-html","117","281685","0.0-6.0-1.0-8.0-1.4","3","4","3","3","3","4","3","3","4","4","4","3","4","4","3","4","3","3","3","4","4","4","4","3","5","3","3","3","2","1","0","1","1","0","0","0","0","0","1","1","0","1","0","1","4","3","4","4","5","3","4","5","","4","5","789065248304009217","陈","211","","","","","","","","","","","","","","","","","","","true","14","4","moral","920","other","他的","","","","","","","","","","","","","","","","",""
"null","","null","html-keyboard-response","118","281937","0.0-6.0-1.0-8.0-0.5","3","4","3","3","3","4","3","3","4","4","4","3","4","4","3","4","3","3","3","4","4","4","4","3","5","3","3","3","2","1","0","1","1","0","0","0","0","0","1","1","0","1","0","1","4","3","4","4","5","3","4","5","","4","5","789065248304009217","陈","211","","","","","","","","","","","","","","","","","","","","","","","","","","","","","","","","","","","","","","","","","",""
"975","<p style=""color:white; font-size: 35px;"">不仁</p>","e","categorize-html","119","282916","0.0-6.0-1.0-8.0-1.5","3","4","3","3","3","4","3","3","4","4","4","3","4","4","3","4","3","3","3","4","4","4","4","3","5","3","3","3","2","1","0","1","1","0","0","0","0","0","1","1","0","1","0","1","4","3","4","4","5","3","4","5","","4","5","789065248304009217","陈","211","","","","","","","","","","","","","","","","","","","true","14","4","moral","975","negative","不仁","","","","","","","","","","","","","","","","",""
"null","","null","html-keyboard-response","120","283168","0.0-6.0-1.0-8.0-0.6","3","4","3","3","3","4","3","3","4","4","4","3","4","4","3","4","3","3","3","4","4","4","4","3","5","3","3","3","2","1","0","1","1","0","0","0","0","0","1","1","0","1","0","1","4","3","4","4","5","3","4","5","","4","5","789065248304009217","陈","211","","","","","","","","","","","","","","","","","","","","","","","","","","","","","","","","","","","","","","","","","",""
"850","<p style=""color:rgb(150, 250, 100); font-size: 35px;"">本人</p>","e","categorize-html","121","284021","0.0-6.0-1.0-8.0-1.6","3","4","3","3","3","4","3","3","4","4","4","3","4","4","3","4","3","3","3","4","4","4","4","3","5","3","3","3","2","1","0","1","1","0","0","0","0","0","1","1","0","1","0","1","4","3","4","4","5","3","4","5","","4","5","789065248304009217","陈","211","","","","","","","","","","","","","","","","","","","true","14","4","moral","850","self","本人","","","","","","","","","","","","","","","","",""
"null","","null","html-keyboard-response","122","284272","0.0-6.0-1.0-8.0-0.7","3","4","3","3","3","4","3","3","4","4","4","3","4","4","3","4","3","3","3","4","4","4","4","3","5","3","3","3","2","1","0","1","1","0","0","0","0","0","1","1","0","1","0","1","4","3","4","4","5","3","4","5","","4","5","789065248304009217","陈","211","","","","","","","","","","","","","","","","","","","","","","","","","","","","","","","","","","","","","","","","","",""
"742","<p style=""color:white; font-size: 35px;"">廉正</p>","i","categorize-html","123","285017","0.0-6.0-1.0-8.0-1.7","3","4","3","3","3","4","3","3","4","4","4","3","4","4","3","4","3","3","3","4","4","4","4","3","5","3","3","3","2","1","0","1","1","0","0","0","0","0","1","1","0","1","0","1","4","3","4","4","5","3","4","5","","4","5","789065248304009217","陈","211","","","","","","","","","","","","","","","","","","","true","14","4","moral","742","positive","廉正","","","","","","","","","","","","","","","","",""
"null","","null","html-keyboard-response","124","285268","0.0-6.0-1.0-8.0-0.8","3","4","3","3","3","4","3","3","4","4","4","3","4","4","3","4","3","3","3","4","4","4","4","3","5","3","3","3","2","1","0","1","1","0","0","0","0","0","1","1","0","1","0","1","4","3","4","4","5","3","4","5","","4","5","789065248304009217","陈","211","","","","","","","","","","","","","","","","","","","","","","","","","","","","","","","","","","","","","","","","","",""
"970","<p style=""color:rgb(150, 250, 100); font-size: 35px;"">别人的</p>","i","categorize-html","125","286242","0.0-6.0-1.0-8.0-1.8","3","4","3","3","3","4","3","3","4","4","4","3","4","4","3","4","3","3","3","4","4","4","4","3","5","3","3","3","2","1","0","1","1","0","0","0","0","0","1","1","0","1","0","1","4","3","4","4","5","3","4","5","","4","5","789065248304009217","陈","211","","","","","","","","","","","","","","","","","","","true","14","4","moral","970","other","别人的","","","","","","","","","","","","","","","","",""
"null","","null","html-keyboard-response","126","286494","0.0-6.0-1.0-8.0-0.9","3","4","3","3","3","4","3","3","4","4","4","3","4","4","3","4","3","3","3","4","4","4","4","3","5","3","3","3","2","1","0","1","1","0","0","0","0","0","1","1","0","1","0","1","4","3","4","4","5","3","4","5","","4","5","789065248304009217","陈","211","","","","","","","","","","","","","","","","","","","","","","","","","","","","","","","","","","","","","","","","","",""
"1126","<p style=""color:white; font-size: 35px;"">君子</p>","i","categorize-html","127","287623","0.0-6.0-1.0-8.0-1.9","3","4","3","3","3","4","3","3","4","4","4","3","4","4","3","4","3","3","3","4","4","4","4","3","5","3","3","3","2","1","0","1","1","0","0","0","0","0","1","1","0","1","0","1","4","3","4","4","5","3","4","5","","4","5","789065248304009217","陈","211","","","","","","","","","","","","","","","","","","","true","14","4","moral","1126","positive","君子","","","","","","","","","","","","","","","","",""
"null","","null","html-keyboard-response","128","287874","0.0-6.0-1.0-8.0-0.10","3","4","3","3","3","4","3","3","4","4","4","3","4","4","3","4","3","3","3","4","4","4","4","3","5","3","3","3","2","1","0","1","1","0","0","0","0","0","1","1","0","1","0","1","4","3","4","4","5","3","4","5","","4","5","789065248304009217","陈","211","","","","","","","","","","","","","","","","","","","","","","","","","","","","","","","","","","","","","","","","","",""
"831","<p style=""color:rgb(150, 250, 100); font-size: 35px;"">我</p>","e","categorize-html","129","288709","0.0-6.0-1.0-8.0-1.10","3","4","3","3","3","4","3","3","4","4","4","3","4","4","3","4","3","3","3","4","4","4","4","3","5","3","3","3","2","1","0","1","1","0","0","0","0","0","1","1","0","1","0","1","4","3","4","4","5","3","4","5","","4","5","789065248304009217","陈","211","","","","","","","","","","","","","","","","","","","true","14","4","moral","831","self","我","","","","","","","","","","","","","","","","",""
"null","","null","html-keyboard-response","130","288961","0.0-6.0-1.0-8.0-0.11","3","4","3","3","3","4","3","3","4","4","4","3","4","4","3","4","3","3","3","4","4","4","4","3","5","3","3","3","2","1","0","1","1","0","0","0","0","0","1","1","0","1","0","1","4","3","4","4","5","3","4","5","","4","5","789065248304009217","陈","211","","","","","","","","","","","","","","","","","","","","","","","","","","","","","","","","","","","","","","","","","",""
"931","<p style=""color:white; font-size: 35px;"">小人</p>","e","categorize-html","131","289896","0.0-6.0-1.0-8.0-1.11","3","4","3","3","3","4","3","3","4","4","4","3","4","4","3","4","3","3","3","4","4","4","4","3","5","3","3","3","2","1","0","1","1","0","0","0","0","0","1","1","0","1","0","1","4","3","4","4","5","3","4","5","","4","5","789065248304009217","陈","211","","","","","","","","","","","","","","","","","","","true","14","4","moral","931","negative","小人","","","","","","","","","","","","","","","","",""
"null","","null","html-keyboard-response","132","290147","0.0-6.0-1.0-8.0-0.12","3","4","3","3","3","4","3","3","4","4","4","3","4","4","3","4","3","3","3","4","4","4","4","3","5","3","3","3","2","1","0","1","1","0","0","0","0","0","1","1","0","1","0","1","4","3","4","4","5","3","4","5","","4","5","789065248304009217","陈","211","","","","","","","","","","","","","","","","","","","","","","","","","","","","","","","","","","","","","","","","","",""
"1108","<p style=""color:rgb(150, 250, 100); font-size: 35px;"">本人的</p>","e","categorize-html","133","291257","0.0-6.0-1.0-8.0-1.12","3","4","3","3","3","4","3","3","4","4","4","3","4","4","3","4","3","3","3","4","4","4","4","3","5","3","3","3","2","1","0","1","1","0","0","0","0","0","1","1","0","1","0","1","4","3","4","4","5","3","4","5","","4","5","789065248304009217","陈","211","","","","","","","","","","","","","","","","","","","true","14","4","moral","1108","self","本人的","","","","","","","","","","","","","","","","",""
"null","","null","html-keyboard-response","134","291508","0.0-6.0-1.0-8.0-0.13","3","4","3","3","3","4","3","3","4","4","4","3","4","4","3","4","3","3","3","4","4","4","4","3","5","3","3","3","2","1","0","1","1","0","0","0","0","0","1","1","0","1","0","1","4","3","4","4","5","3","4","5","","4","5","789065248304009217","陈","211","","","","","","","","","","","","","","","","","","","","","","","","","","","","","","","","","","","","","","","","","",""
"1129","<p style=""color:white; font-size: 35px;"">黑心</p>","i","categorize-html","135","293711","0.0-6.0-1.0-8.0-1.13","3","4","3","3","3","4","3","3","4","4","4","3","4","4","3","4","3","3","3","4","4","4","4","3","5","3","3","3","2","1","0","1","1","0","0","0","0","0","1","1","0","1","0","1","4","3","4","4","5","3","4","5","","4","5","789065248304009217","陈","211","","","","","","","","","","","","","","","","","","","false","14","4","moral","1745.2553191489362","negative","黑心","","","","","","","","","","","","","","","","",""
"null","","null","html-keyboard-response","136","293962","0.0-6.0-1.0-8.0-0.14","3","4","3","3","3","4","3","3","4","4","4","3","4","4","3","4","3","3","3","4","4","4","4","3","5","3","3","3","2","1","0","1","1","0","0","0","0","0","1","1","0","1","0","1","4","3","4","4","5","3","4","5","","4","5","789065248304009217","陈","211","","","","","","","","","","","","","","","","","","","","","","","","","","","","","","","","","","","","","","","","","",""
"1255","<p style=""color:rgb(150, 250, 100); font-size: 35px;"">他人</p>","i","categorize-html","137","295221","0.0-6.0-1.0-8.0-1.14","3","4","3","3","3","4","3","3","4","4","4","3","4","4","3","4","3","3","3","4","4","4","4","3","5","3","3","3","2","1","0","1","1","0","0","0","0","0","1","1","0","1","0","1","4","3","4","4","5","3","4","5","","4","5","789065248304009217","陈","211","","","","","","","","","","","","","","","","","","","true","14","4","moral","1255","other","他人","","","","","","","","","","","","","","","","",""
"null","","null","html-keyboard-response","138","295472","0.0-6.0-1.0-8.0-0.15","3","4","3","3","3","4","3","3","4","4","4","3","4","4","3","4","3","3","3","4","4","4","4","3","5","3","3","3","2","1","0","1","1","0","0","0","0","0","1","1","0","1","0","1","4","3","4","4","5","3","4","5","","4","5","789065248304009217","陈","211","","","","","","","","","","","","","","","","","","","","","","","","","","","","","","","","","","","","","","","","","",""
"1237","<p style=""color:white; font-size: 35px;"">善良</p>","i","categorize-html","139","296713","0.0-6.0-1.0-8.0-1.15","3","4","3","3","3","4","3","3","4","4","4","3","4","4","3","4","3","3","3","4","4","4","4","3","5","3","3","3","2","1","0","1","1","0","0","0","0","0","1","1","0","1","0","1","4","3","4","4","5","3","4","5","","4","5","789065248304009217","陈","211","","","","","","","","","","","","","","","","","","","true","14","4","moral","1237","positive","善良","","","","","","","","","","","","","","","","",""
"null","","null","html-keyboard-response","140","296965","0.0-6.0-1.0-8.0-0.16","3","4","3","3","3","4","3","3","4","4","4","3","4","4","3","4","3","3","3","4","4","4","4","3","5","3","3","3","2","1","0","1","1","0","0","0","0","0","1","1","0","1","0","1","4","3","4","4","5","3","4","5","","4","5","789065248304009217","陈","211","","","","","","","","","","","","","","","","","","","","","","","","","","","","","","","","","","","","","","","","","",""
"1867","<p style=""color:rgb(150, 250, 100); font-size: 35px;"">本人</p>","e","categorize-html","141","298837","0.0-6.0-1.0-8.0-1.16","3","4","3","3","3","4","3","3","4","4","4","3","4","4","3","4","3","3","3","4","4","4","4","3","5","3","3","3","2","1","0","1","1","0","0","0","0","0","1","1","0","1","0","1","4","3","4","4","5","3","4","5","","4","5","789065248304009217","陈","211","","","","","","","","","","","","","","","","","","","true","14","4","moral","1867","self","本人","","","","","","","","","","","","","","","","",""
"null","","null","html-keyboard-response","142","299088","0.0-6.0-1.0-8.0-0.17","3","4","3","3","3","4","3","3","4","4","4","3","4","4","3","4","3","3","3","4","4","4","4","3","5","3","3","3","2","1","0","1","1","0","0","0","0","0","1","1","0","1","0","1","4","3","4","4","5","3","4","5","","4","5","789065248304009217","陈","211","","","","","","","","","","","","","","","","","","","","","","","","","","","","","","","","","","","","","","","","","",""
"1027","<p style=""color:white; font-size: 35px;"">君子</p>","i","categorize-html","143","300118","0.0-6.0-1.0-8.0-1.17","3","4","3","3","3","4","3","3","4","4","4","3","4","4","3","4","3","3","3","4","4","4","4","3","5","3","3","3","2","1","0","1","1","0","0","0","0","0","1","1","0","1","0","1","4","3","4","4","5","3","4","5","","4","5","789065248304009217","陈","211","","","","","","","","","","","","","","","","","","","true","14","4","moral","1027","positive","君子","","","","","","","","","","","","","","","","",""
"null","","null","html-keyboard-response","144","300370","0.0-6.0-1.0-8.0-0.18","3","4","3","3","3","4","3","3","4","4","4","3","4","4","3","4","3","3","3","4","4","4","4","3","5","3","3","3","2","1","0","1","1","0","0","0","0","0","1","1","0","1","0","1","4","3","4","4","5","3","4","5","","4","5","789065248304009217","陈","211","","","","","","","","","","","","","","","","","","","","","","","","","","","","","","","","","","","","","","","","","",""
"1045","<p style=""color:rgb(150, 250, 100); font-size: 35px;"">他的</p>","i","categorize-html","145","301418","0.0-6.0-1.0-8.0-1.18","3","4","3","3","3","4","3","3","4","4","4","3","4","4","3","4","3","3","3","4","4","4","4","3","5","3","3","3","2","1","0","1","1","0","0","0","0","0","1","1","0","1","0","1","4","3","4","4","5","3","4","5","","4","5","789065248304009217","陈","211","","","","","","","","","","","","","","","","","","","true","14","4","moral","1045","other","他的","","","","","","","","","","","","","","","","",""
"null","","null","html-keyboard-response","146","301673","0.0-6.0-1.0-8.0-0.19","3","4","3","3","3","4","3","3","4","4","4","3","4","4","3","4","3","3","3","4","4","4","4","3","5","3","3","3","2","1","0","1","1","0","0","0","0","0","1","1","0","1","0","1","4","3","4","4","5","3","4","5","","4","5","789065248304009217","陈","211","","","","","","","","","","","","","","","","","","","","","","","","","","","","","","","","","","","","","","","","","",""
"1019","<p style=""color:white; font-size: 35px;"">卑鄙</p>","e","categorize-html","147","302694","0.0-6.0-1.0-8.0-1.19","3","4","3","3","3","4","3","3","4","4","4","3","4","4","3","4","3","3","3","4","4","4","4","3","5","3","3","3","2","1","0","1","1","0","0","0","0","0","1","1","0","1","0","1","4","3","4","4","5","3","4","5","","4","5","789065248304009217","陈","211","","","","","","","","","","","","","","","","","","","true","14","4","moral","1019","negative","卑鄙","","","","","","","","","","","","","","","","",""
"null","","null","html-keyboard-response","148","302944","0.0-6.0-1.0-8.0-0.20","3","4","3","3","3","4","3","3","4","4","4","3","4","4","3","4","3","3","3","4","4","4","4","3","5","3","3","3","2","1","0","1","1","0","0","0","0","0","1","1","0","1","0","1","4","3","4","4","5","3","4","5","","4","5","789065248304009217","陈","211","","","","","","","","","","","","","","","","","","","","","","","","","","","","","","","","","","","","","","","","","",""
"1192","<p style=""color:rgb(150, 250, 100); font-size: 35px;"">我</p>","e","categorize-html","149","304140","0.0-6.0-1.0-8.0-1.20","3","4","3","3","3","4","3","3","4","4","4","3","4","4","3","4","3","3","3","4","4","4","4","3","5","3","3","3","2","1","0","1","1","0","0","0","0","0","1","1","0","1","0","1","4","3","4","4","5","3","4","5","","4","5","789065248304009217","陈","211","","","","","","","","","","","","","","","","","","","true","14","4","moral","1192","self","我","","","","","","","","","","","","","","","","",""
"null","","null","html-keyboard-response","150","304391","0.0-6.0-1.0-8.0-0.21","3","4","3","3","3","4","3","3","4","4","4","3","4","4","3","4","3","3","3","4","4","4","4","3","5","3","3","3","2","1","0","1","1","0","0","0","0","0","1","1","0","1","0","1","4","3","4","4","5","3","4","5","","4","5","789065248304009217","陈","211","","","","","","","","","","","","","","","","","","","","","","","","","","","","","","","","","","","","","","","","","",""
"1509","<p style=""color:white; font-size: 35px;"">黑心</p>","e","categorize-html","151","305903","0.0-6.0-1.0-8.0-1.21","3","4","3","3","3","4","3","3","4","4","4","3","4","4","3","4","3","3","3","4","4","4","4","3","5","3","3","3","2","1","0","1","1","0","0","0","0","0","1","1","0","1","0","1","4","3","4","4","5","3","4","5","","4","5","789065248304009217","陈","211","","","","","","","","","","","","","","","","","","","true","14","4","moral","1509","negative","黑心","","","","","","","","","","","","","","","","",""
"null","","null","html-keyboard-response","152","306154","0.0-6.0-1.0-8.0-0.22","3","4","3","3","3","4","3","3","4","4","4","3","4","4","3","4","3","3","3","4","4","4","4","3","5","3","3","3","2","1","0","1","1","0","0","0","0","0","1","1","0","1","0","1","4","3","4","4","5","3","4","5","","4","5","789065248304009217","陈","211","","","","","","","","","","","","","","","","","","","","","","","","","","","","","","","","","","","","","","","","","",""
"1144","<p style=""color:rgb(150, 250, 100); font-size: 35px;"">他人的</p>","i","categorize-html","153","307299","0.0-6.0-1.0-8.0-1.22","3","4","3","3","3","4","3","3","4","4","4","3","4","4","3","4","3","3","3","4","4","4","4","3","5","3","3","3","2","1","0","1","1","0","0","0","0","0","1","1","0","1","0","1","4","3","4","4","5","3","4","5","","4","5","789065248304009217","陈","211","","","","","","","","","","","","","","","","","","","true","14","4","moral","1144","other","他人的","","","","","","","","","","","","","","","","",""
"null","","null","html-keyboard-response","154","307550","0.0-6.0-1.0-8.0-0.23","3","4","3","3","3","4","3","3","4","4","4","3","4","4","3","4","3","3","3","4","4","4","4","3","5","3","3","3","2","1","0","1","1","0","0","0","0","0","1","1","0","1","0","1","4","3","4","4","5","3","4","5","","4","5","789065248304009217","陈","211","","","","","","","","","","","","","","","","","","","","","","","","","","","","","","","","","","","","","","","","","",""
"1728","<p style=""color:white; font-size: 35px;"">诚信</p>","i","categorize-html","155","309279","0.0-6.0-1.0-8.0-1.23","3","4","3","3","3","4","3","3","4","4","4","3","4","4","3","4","3","3","3","4","4","4","4","3","5","3","3","3","2","1","0","1","1","0","0","0","0","0","1","1","0","1","0","1","4","3","4","4","5","3","4","5","","4","5","789065248304009217","陈","211","","","","","","","","","","","","","","","","","","","true","14","4","moral","1728","positive","诚信","","","","","","","","","","","","","","","","",""
"null","","null","html-keyboard-response","156","309531","0.0-6.0-1.0-8.0-0.24","3","4","3","3","3","4","3","3","4","4","4","3","4","4","3","4","3","3","3","4","4","4","4","3","5","3","3","3","2","1","0","1","1","0","0","0","0","0","1","1","0","1","0","1","4","3","4","4","5","3","4","5","","4","5","789065248304009217","陈","211","","","","","","","","","","","","","","","","","","","","","","","","","","","","","","","","","","","","","","","","","",""
"1072","<p style=""color:rgb(150, 250, 100); font-size: 35px;"">别人</p>","i","categorize-html","157","310607","0.0-6.0-1.0-8.0-1.24","3","4","3","3","3","4","3","3","4","4","4","3","4","4","3","4","3","3","3","4","4","4","4","3","5","3","3","3","2","1","0","1","1","0","0","0","0","0","1","1","0","1","0","1","4","3","4","4","5","3","4","5","","4","5","789065248304009217","陈","211","","","","","","","","","","","","","","","","","","","true","14","4","moral","1072","other","别人","","","","","","","","","","","","","","","","",""
"null","","null","html-keyboard-response","158","310859","0.0-6.0-1.0-8.0-0.25","3","4","3","3","3","4","3","3","4","4","4","3","4","4","3","4","3","3","3","4","4","4","4","3","5","3","3","3","2","1","0","1","1","0","0","0","0","0","1","1","0","1","0","1","4","3","4","4","5","3","4","5","","4","5","789065248304009217","陈","211","","","","","","","","","","","","","","","","","","","","","","","","","","","","","","","","","","","","","","","","","",""
"1177","<p style=""color:white; font-size: 35px;"">正直</p>","i","categorize-html","159","312036","0.0-6.0-1.0-8.0-1.25","3","4","3","3","3","4","3","3","4","4","4","3","4","4","3","4","3","3","3","4","4","4","4","3","5","3","3","3","2","1","0","1","1","0","0","0","0","0","1","1","0","1","0","1","4","3","4","4","5","3","4","5","","4","5","789065248304009217","陈","211","","","","","","","","","","","","","","","","","","","true","14","4","moral","1177","positive","正直","","","","","","","","","","","","","","","","",""
"null","","null","html-keyboard-response","160","312287","0.0-6.0-1.0-8.0-0.26","3","4","3","3","3","4","3","3","4","4","4","3","4","4","3","4","3","3","3","4","4","4","4","3","5","3","3","3","2","1","0","1","1","0","0","0","0","0","1","1","0","1","0","1","4","3","4","4","5","3","4","5","","4","5","789065248304009217","陈","211","","","","","","","","","","","","","","","","","","","","","","","","","","","","","","","","","","","","","","","","","",""
"1011","<p style=""color:rgb(150, 250, 100); font-size: 35px;"">本人的</p>","e","categorize-html","161","313302","0.0-6.0-1.0-8.0-1.26","3","4","3","3","3","4","3","3","4","4","4","3","4","4","3","4","3","3","3","4","4","4","4","3","5","3","3","3","2","1","0","1","1","0","0","0","0","0","1","1","0","1","0","1","4","3","4","4","5","3","4","5","","4","5","789065248304009217","陈","211","","","","","","","","","","","","","","","","","","","true","14","4","moral","1011","self","本人的","","","","","","","","","","","","","","","","",""
"null","","null","html-keyboard-response","162","313553","0.0-6.0-1.0-8.0-0.27","3","4","3","3","3","4","3","3","4","4","4","3","4","4","3","4","3","3","3","4","4","4","4","3","5","3","3","3","2","1","0","1","1","0","0","0","0","0","1","1","0","1","0","1","4","3","4","4","5","3","4","5","","4","5","789065248304009217","陈","211","","","","","","","","","","","","","","","","","","","","","","","","","","","","","","","","","","","","","","","","","",""
"976","<p style=""color:white; font-size: 35px;"">不仁</p>","e","categorize-html","163","314533","0.0-6.0-1.0-8.0-1.27","3","4","3","3","3","4","3","3","4","4","4","3","4","4","3","4","3","3","3","4","4","4","4","3","5","3","3","3","2","1","0","1","1","0","0","0","0","0","1","1","0","1","0","1","4","3","4","4","5","3","4","5","","4","5","789065248304009217","陈","211","","","","","","","","","","","","","","","","","","","true","14","4","moral","976","negative","不仁","","","","","","","","","","","","","","","","",""
"null","","null","html-keyboard-response","164","314785","0.0-6.0-1.0-8.0-0.28","3","4","3","3","3","4","3","3","4","4","4","3","4","4","3","4","3","3","3","4","4","4","4","3","5","3","3","3","2","1","0","1","1","0","0","0","0","0","1","1","0","1","0","1","4","3","4","4","5","3","4","5","","4","5","789065248304009217","陈","211","","","","","","","","","","","","","","","","","","","","","","","","","","","","","","","","","","","","","","","","","",""
"1054","<p style=""color:rgb(150, 250, 100); font-size: 35px;"">自己</p>","e","categorize-html","165","315843","0.0-6.0-1.0-8.0-1.28","3","4","3","3","3","4","3","3","4","4","4","3","4","4","3","4","3","3","3","4","4","4","4","3","5","3","3","3","2","1","0","1","1","0","0","0","0","0","1","1","0","1","0","1","4","3","4","4","5","3","4","5","","4","5","789065248304009217","陈","211","","","","","","","","","","","","","","","","","","","true","14","4","moral","1054","self","自己","","","","","","","","","","","","","","","","",""
"null","","null","html-keyboard-response","166","316094","0.0-6.0-1.0-8.0-0.29","3","4","3","3","3","4","3","3","4","4","4","3","4","4","3","4","3","3","3","4","4","4","4","3","5","3","3","3","2","1","0","1","1","0","0","0","0","0","1","1","0","1","0","1","4","3","4","4","5","3","4","5","","4","5","789065248304009217","陈","211","","","","","","","","","","","","","","","","","","","","","","","","","","","","","","","","","","","","","","","","","",""
"2014","<p style=""color:white; font-size: 35px;"">小人</p>","e","categorize-html","167","318113","0.0-6.0-1.0-8.0-1.29","3","4","3","3","3","4","3","3","4","4","4","3","4","4","3","4","3","3","3","4","4","4","4","3","5","3","3","3","2","1","0","1","1","0","0","0","0","0","1","1","0","1","0","1","4","3","4","4","5","3","4","5","","4","5","789065248304009217","陈","211","","","","","","","","","","","","","","","","","","","true","14","4","moral","2014","negative","小人","","","","","","","","","","","","","","","","",""
"null","","null","html-keyboard-response","168","318364","0.0-6.0-1.0-8.0-0.30","3","4","3","3","3","4","3","3","4","4","4","3","4","4","3","4","3","3","3","4","4","4","4","3","5","3","3","3","2","1","0","1","1","0","0","0","0","0","1","1","0","1","0","1","4","3","4","4","5","3","4","5","","4","5","789065248304009217","陈","211","","","","","","","","","","","","","","","","","","","","","","","","","","","","","","","","","","","","","","","","","",""
"934","<p style=""color:rgb(150, 250, 100); font-size: 35px;"">他人</p>","i","categorize-html","169","319303","0.0-6.0-1.0-8.0-1.30","3","4","3","3","3","4","3","3","4","4","4","3","4","4","3","4","3","3","3","4","4","4","4","3","5","3","3","3","2","1","0","1","1","0","0","0","0","0","1","1","0","1","0","1","4","3","4","4","5","3","4","5","","4","5","789065248304009217","陈","211","","","","","","","","","","","","","","","","","","","true","14","4","moral","934","other","他人","","","","","","","","","","","","","","","","",""
"null","","null","html-keyboard-response","170","319554","0.0-6.0-1.0-8.0-0.31","3","4","3","3","3","4","3","3","4","4","4","3","4","4","3","4","3","3","3","4","4","4","4","3","5","3","3","3","2","1","0","1","1","0","0","0","0","0","1","1","0","1","0","1","4","3","4","4","5","3","4","5","","4","5","789065248304009217","陈","211","","","","","","","","","","","","","","","","","","","","","","","","","","","","","","","","","","","","","","","","","",""
"1047","<p style=""color:white; font-size: 35px;"">诚信</p>","i","categorize-html","171","320604","0.0-6.0-1.0-8.0-1.31","3","4","3","3","3","4","3","3","4","4","4","3","4","4","3","4","3","3","3","4","4","4","4","3","5","3","3","3","2","1","0","1","1","0","0","0","0","0","1","1","0","1","0","1","4","3","4","4","5","3","4","5","","4","5","789065248304009217","陈","211","","","","","","","","","","","","","","","","","","","true","14","4","moral","1047","positive","诚信","","","","","","","","","","","","","","","","",""
"null","","null","html-keyboard-response","172","320856","0.0-6.0-1.0-8.0-0.32","3","4","3","3","3","4","3","3","4","4","4","3","4","4","3","4","3","3","3","4","4","4","4","3","5","3","3","3","2","1","0","1","1","0","0","0","0","0","1","1","0","1","0","1","4","3","4","4","5","3","4","5","","4","5","789065248304009217","陈","211","","","","","","","","","","","","","","","","","","","","","","","","","","","","","","","","","","","","","","","","","",""
"1041","<p style=""color:rgb(150, 250, 100); font-size: 35px;"">我的</p>","e","categorize-html","173","321900","0.0-6.0-1.0-8.0-1.32","3","4","3","3","3","4","3","3","4","4","4","3","4","4","3","4","3","3","3","4","4","4","4","3","5","3","3","3","2","1","0","1","1","0","0","0","0","0","1","1","0","1","0","1","4","3","4","4","5","3","4","5","","4","5","789065248304009217","陈","211","","","","","","","","","","","","","","","","","","","true","14","4","moral","1041","self","我的","","","","","","","","","","","","","","","","",""
"null","","null","html-keyboard-response","174","322152","0.0-6.0-1.0-8.0-0.33","3","4","3","3","3","4","3","3","4","4","4","3","4","4","3","4","3","3","3","4","4","4","4","3","5","3","3","3","2","1","0","1","1","0","0","0","0","0","1","1","0","1","0","1","4","3","4","4","5","3","4","5","","4","5","789065248304009217","陈","211","","","","","","","","","","","","","","","","","","","","","","","","","","","","","","","","","","","","","","","","","",""
"796","<p style=""color:white; font-size: 35px;"">不孝</p>","e","categorize-html","175","322952","0.0-6.0-1.0-8.0-1.33","3","4","3","3","3","4","3","3","4","4","4","3","4","4","3","4","3","3","3","4","4","4","4","3","5","3","3","3","2","1","0","1","1","0","0","0","0","0","1","1","0","1","0","1","4","3","4","4","5","3","4","5","","4","5","789065248304009217","陈","211","","","","","","","","","","","","","","","","","","","true","14","4","moral","796","negative","不孝","","","","","","","","","","","","","","","","",""
"null","","null","html-keyboard-response","176","323204","0.0-6.0-1.0-8.0-0.34","3","4","3","3","3","4","3","3","4","4","4","3","4","4","3","4","3","3","3","4","4","4","4","3","5","3","3","3","2","1","0","1","1","0","0","0","0","0","1","1","0","1","0","1","4","3","4","4","5","3","4","5","","4","5","789065248304009217","陈","211","","","","","","","","","","","","","","","","","","","","","","","","","","","","","","","","","","","","","","","","","",""
"1454","<p style=""color:rgb(150, 250, 100); font-size: 35px;"">别人的</p>","i","categorize-html","177","324661","0.0-6.0-1.0-8.0-1.34","3","4","3","3","3","4","3","3","4","4","4","3","4","4","3","4","3","3","3","4","4","4","4","3","5","3","3","3","2","1","0","1","1","0","0","0","0","0","1","1","0","1","0","1","4","3","4","4","5","3","4","5","","4","5","789065248304009217","陈","211","","","","","","","","","","","","","","","","","","","true","14","4","moral","1454","other","别人的","","","","","","","","","","","","","","","","",""
"null","","null","html-keyboard-response","178","324913","0.0-6.0-1.0-8.0-0.35","3","4","3","3","3","4","3","3","4","4","4","3","4","4","3","4","3","3","3","4","4","4","4","3","5","3","3","3","2","1","0","1","1","0","0","0","0","0","1","1","0","1","0","1","4","3","4","4","5","3","4","5","","4","5","789065248304009217","陈","211","","","","","","","","","","","","","","","","","","","","","","","","","","","","","","","","","","","","","","","","","",""
"920","<p style=""color:white; font-size: 35px;"">高尚</p>","i","categorize-html","179","325837","0.0-6.0-1.0-8.0-1.35","3","4","3","3","3","4","3","3","4","4","4","3","4","4","3","4","3","3","3","4","4","4","4","3","5","3","3","3","2","1","0","1","1","0","0","0","0","0","1","1","0","1","0","1","4","3","4","4","5","3","4","5","","4","5","789065248304009217","陈","211","","","","","","","","","","","","","","","","","","","true","14","4","moral","920","positive","高尚","","","","","","","","","","","","","","","","",""
"null","","null","html-keyboard-response","180","326088","0.0-6.0-1.0-8.0-0.36","3","4","3","3","3","4","3","3","4","4","4","3","4","4","3","4","3","3","3","4","4","4","4","3","5","3","3","3","2","1","0","1","1","0","0","0","0","0","1","1","0","1","0","1","4","3","4","4","5","3","4","5","","4","5","789065248304009217","陈","211","","","","","","","","","","","","","","","","","","","","","","","","","","","","","","","","","","","","","","","","","",""
"860","<p style=""color:rgb(150, 250, 100); font-size: 35px;"">自己</p>","e","categorize-html","181","326952","0.0-6.0-1.0-8.0-1.36","3","4","3","3","3","4","3","3","4","4","4","3","4","4","3","4","3","3","3","4","4","4","4","3","5","3","3","3","2","1","0","1","1","0","0","0","0","0","1","1","0","1","0","1","4","3","4","4","5","3","4","5","","4","5","789065248304009217","陈","211","","","","","","","","","","","","","","","","","","","true","14","4","moral","860","self","自己","","","","","","","","","","","","","","","","",""
"null","","null","html-keyboard-response","182","327204","0.0-6.0-1.0-8.0-0.37","3","4","3","3","3","4","3","3","4","4","4","3","4","4","3","4","3","3","3","4","4","4","4","3","5","3","3","3","2","1","0","1","1","0","0","0","0","0","1","1","0","1","0","1","4","3","4","4","5","3","4","5","","4","5","789065248304009217","陈","211","","","","","","","","","","","","","","","","","","","","","","","","","","","","","","","","","","","","","","","","","",""
"1730","<p style=""color:white; font-size: 35px;"">廉正</p>","i","categorize-html","183","328937","0.0-6.0-1.0-8.0-1.37","3","4","3","3","3","4","3","3","4","4","4","3","4","4","3","4","3","3","3","4","4","4","4","3","5","3","3","3","2","1","0","1","1","0","0","0","0","0","1","1","0","1","0","1","4","3","4","4","5","3","4","5","","4","5","789065248304009217","陈","211","","","","","","","","","","","","","","","","","","","true","14","4","moral","1730","positive","廉正","","","","","","","","","","","","","","","","",""
"null","","null","html-keyboard-response","184","329188","0.0-6.0-1.0-8.0-0.38","3","4","3","3","3","4","3","3","4","4","4","3","4","4","3","4","3","3","3","4","4","4","4","3","5","3","3","3","2","1","0","1","1","0","0","0","0","0","1","1","0","1","0","1","4","3","4","4","5","3","4","5","","4","5","789065248304009217","陈","211","","","","","","","","","","","","","","","","","","","","","","","","","","","","","","","","","","","","","","","","","",""
"855","<p style=""color:rgb(150, 250, 100); font-size: 35px;"">别人</p>","i","categorize-html","185","330043","0.0-6.0-1.0-8.0-1.38","3","4","3","3","3","4","3","3","4","4","4","3","4","4","3","4","3","3","3","4","4","4","4","3","5","3","3","3","2","1","0","1","1","0","0","0","0","0","1","1","0","1","0","1","4","3","4","4","5","3","4","5","","4","5","789065248304009217","陈","211","","","","","","","","","","","","","","","","","","","true","14","4","moral","855","other","别人","","","","","","","","","","","","","","","","",""
"null","","null","html-keyboard-response","186","330294","0.0-6.0-1.0-8.0-0.39","3","4","3","3","3","4","3","3","4","4","4","3","4","4","3","4","3","3","3","4","4","4","4","3","5","3","3","3","2","1","0","1","1","0","0","0","0","0","1","1","0","1","0","1","4","3","4","4","5","3","4","5","","4","5","789065248304009217","陈","211","","","","","","","","","","","","","","","","","","","","","","","","","","","","","","","","","","","","","","","","","",""
"1151","<p style=""color:white; font-size: 35px;"">缺德</p>","e","categorize-html","187","331448","0.0-6.0-1.0-8.0-1.39","3","4","3","3","3","4","3","3","4","4","4","3","4","4","3","4","3","3","3","4","4","4","4","3","5","3","3","3","2","1","0","1","1","0","0","0","0","0","1","1","0","1","0","1","4","3","4","4","5","3","4","5","","4","5","789065248304009217","陈","211","","","","","","","","","","","","","","","","","","","true","14","4","moral","1151","negative","缺德","","","","","","","","","","","","","","","","",""
"null","","null","html-keyboard-response","188","331705","0.0-6.0-1.0-8.0-0.40","3","4","3","3","3","4","3","3","4","4","4","3","4","4","3","4","3","3","3","4","4","4","4","3","5","3","3","3","2","1","0","1","1","0","0","0","0","0","1","1","0","1","0","1","4","3","4","4","5","3","4","5","","4","5","789065248304009217","陈","211","","","","","","","","","","","","","","","","","","","","","","","","","","","","","","","","","","","","","","","","","",""
"1097","<p style=""color:rgb(150, 250, 100); font-size: 35px;"">自己的</p>","e","categorize-html","189","332806","0.0-6.0-1.0-8.0-1.40","3","4","3","3","3","4","3","3","4","4","4","3","4","4","3","4","3","3","3","4","4","4","4","3","5","3","3","3","2","1","0","1","1","0","0","0","0","0","1","1","0","1","0","1","4","3","4","4","5","3","4","5","","4","5","789065248304009217","陈","211","","","","","","","","","","","","","","","","","","","true","14","4","moral","1097","self","自己的","","","","","","","","","","","","","","","","",""
"null","","null","html-keyboard-response","190","333057","0.0-6.0-1.0-8.0-0.41","3","4","3","3","3","4","3","3","4","4","4","3","4","4","3","4","3","3","3","4","4","4","4","3","5","3","3","3","2","1","0","1","1","0","0","0","0","0","1","1","0","1","0","1","4","3","4","4","5","3","4","5","","4","5","789065248304009217","陈","211","","","","","","","","","","","","","","","","","","","","","","","","","","","","","","","","","","","","","","","","","",""
"1142","<p style=""color:white; font-size: 35px;"">善良</p>","i","categorize-html","191","334203","0.0-6.0-1.0-8.0-1.41","3","4","3","3","3","4","3","3","4","4","4","3","4","4","3","4","3","3","3","4","4","4","4","3","5","3","3","3","2","1","0","1","1","0","0","0","0","0","1","1","0","1","0","1","4","3","4","4","5","3","4","5","","4","5","789065248304009217","陈","211","","","","","","","","","","","","","","","","","","","true","14","4","moral","1142","positive","善良","","","","","","","","","","","","","","","","",""
"null","","null","html-keyboard-response","192","334455","0.0-6.0-1.0-8.0-0.42","3","4","3","3","3","4","3","3","4","4","4","3","4","4","3","4","3","3","3","4","4","4","4","3","5","3","3","3","2","1","0","1","1","0","0","0","0","0","1","1","0","1","0","1","4","3","4","4","5","3","4","5","","4","5","789065248304009217","陈","211","","","","","","","","","","","","","","","","","","","","","","","","","","","","","","","","","","","","","","","","","",""
"812","<p style=""color:rgb(150, 250, 100); font-size: 35px;"">他人的</p>","i","categorize-html","193","335268","0.0-6.0-1.0-8.0-1.42","3","4","3","3","3","4","3","3","4","4","4","3","4","4","3","4","3","3","3","4","4","4","4","3","5","3","3","3","2","1","0","1","1","0","0","0","0","0","1","1","0","1","0","1","4","3","4","4","5","3","4","5","","4","5","789065248304009217","陈","211","","","","","","","","","","","","","","","","","","","true","14","4","moral","812","other","他人的","","","","","","","","","","","","","","","","",""
