"rt","stimulus","response","trial_type","trial_index","time_elapsed","internal_node_id","ses_1","ses_2","ses_3","ses_4","ses_5","ses_6","ses_7","ses_8","ses_9","ses_10","coreself_1","coreself_2","coreself_3","coreself_4","coreself_5","coreself_6","coreself_7","coreself_8","coreself_9","coreself_10","SGPS_1","SGPS_2","SGPS_3","SGPS_4","SGPS_5","SGPS_6","SGPS_7","SGPS_8","SGPS_9","NPI1","NPI2","NPI3","NPI4","NPI5","NPI6","NPI7","NPI8","NPI9","NPI10","NPI11","NPI12","NPI13","NPI14","NPI15","hsns_1","hsns_2","hsns_3","hsns_4","hsns_5","trap1","hsns_6","hsns_7","hsns_8","hsns_9","hsns_10","subj_idx","friend_name","ParticipantID","value","success","user_agent","responses","item_order","radio_event_ids","radio_event_times","key_event_times","mouse_event_times","straightlining","zigzagging","honeypot","timeout","failed_images","failed_audio","failed_video","version_attrib","version_target","correct","IAT","screen_id","task_id","RT","condition","word","varname","summary","version_attrib2","version_target2","time_stamp","view_history","response_type","key_press","avg_frame_time","center_x","center_y","correct_response","identity","Image","question_order","correct_answer","trap1_item"
"9034","
   <p><div style = ""color: white;font-size:25px;"">您好，欢迎参加本次实验。</div> </p>
   <p><div style = ""color: white;font-size:25px;"">为充分保障您的权利，请确保您已经知晓并同意《参与实验同意书》以及《数据公开知情同意书》。</div></p>
   <p><div style = ""color: white;font-size:25px;"">如果您未见过上述内容，请咨询实验员。</div></p>
   <p><div style = ""color: white;font-size:25px;"">如果您选择继续实验，则表示您已经清楚两份知情同意书的内容并同意。</div></p>
   <p><div style = ""color: pink;font-size:30px;"">请确保您记得day0的实验编号，您将在本次实验输入该编号，若您忘记，请咨询实验员后作答。</div></p>
   <p><div style = ""color: lightblue;font-size:25px;"">请您尽可能认真地作答，我们将依据您在各问卷和按键任务中的作答质量发放报酬。</div></p>
   <p> <div style = ""color: green;font-size:25px;""><按空格键至下页></div> </p>
   "," ","html-keyboard-response","0","9036","0.0-0.0","3","3","4","3","4","3","3","4","4","4","4","4","5","3","4","4","4","3","3","5","3","3","4","4","4","4","4","4","4","1","0","0","0","0","1","1","0","0","0","0","0","0","0","0","4","1","4","2","3","","2","3","2","4","3","781446825898151937","李","413","","","","","","","","","","","","","","","","","","","","","","","","","","","","","","","","","","","","","","","","","",""
"","","","call-function","1","9039","0.0-1.0-0.0","3","3","4","3","4","3","3","4","4","4","4","4","5","3","4","4","4","3","3","5","3","3","4","4","4","4","4","4","4","1","0","0","0","0","1","1","0","0","0","0","0","0","0","0","4","1","4","2","3","","2","3","2","4","3","781446825898151937","李","413","","","","","","","","","","","","","","","","","","","","","","","","","","","","","","","","","","","","","","","","","",""
"51346","","{""friend_name"":""李"",""ParticipantID"":""413""}","survey-html-form","2","60386","0.0-1.0-1.0","3","3","4","3","4","3","3","4","4","4","4","4","5","3","4","4","4","3","3","5","3","3","4","4","4","4","4","4","4","1","0","0","0","0","1","1","0","0","0","0","0","0","0","0","4","1","4","2","3","","2","3","2","4","3","781446825898151937","李","413","","","","","","","","","","","","","","","","","","","","","","","","","","","","","","","","","","","","","","","","","",""
"","","","fullscreen","3","84077","0.0-2.0","3","3","4","3","4","3","3","4","4","4","4","4","5","3","4","4","4","3","3","5","3","3","4","4","4","4","4","4","4","1","0","0","0","0","1","1","0","0","0","0","0","0","0","0","4","1","4","2","3","","2","3","2","4","3","781446825898151937","李","413","","true","{}","","","","","","","","","","","","","","","","","","","","","","","","","","","","","","","","","","","","","","",""
"32664.5","","{""Q01"":""3"",""Q02"":""3"",""Q03"":""4"",""Q04"":""3"",""Q05"":""4"",""Q06"":""3"",""Q07"":""3"",""Q08"":""4"",""Q09"":""4"",""Q10"":""4""}","survey-template","4","116746","0.0-3.0","3","3","4","3","4","3","3","4","4","4","4","4","5","3","4","4","4","3","3","5","3","3","4","4","4","4","4","4","4","1","0","0","0","0","1","1","0","0","0","0","0","0","0","0","4","1","4","2","3","","2","3","2","4","3","781446825898151937","李","413","","","","{""Q01"":""3"",""Q02"":""3"",""Q03"":""4"",""Q04"":""3"",""Q05"":""4"",""Q06"":""3"",""Q07"":""3"",""Q08"":""4"",""Q09"":""4"",""Q10"":""4""}","[0,1,2,3,4,5,6,7,8,9]","[""Q01"",""Q02"",""Q03"",""Q04"",""Q05"",""Q06"",""Q07"",""Q08"",""Q09"",""Q10""]","[5183.900000035763,9074.300000011921,11669.300000011921,16596.5,20277.100000023842,23989.900000035763,24559.19999998808,28956.100000023842,29987.400000035763,30820.30000001192]","[]","[5183.900000035763,7277.300000011921,9074.300000011921,9941.100000023842,11669.300000011921,16596.5,19103.900000035763,20277.100000023842,22123.600000023842,22813.30000001192,23989.900000035763,24559.19999998808,28956.100000023842,29987.400000035763,30820.30000001192,32663.19999998808]","0.5","0","0","","","","","","","","","","","","","","","","","","","","","","","","","","","","","",""
"56068","","{""Q01"":""4"",""Q02"":""4"",""Q03"":""5"",""Q04"":""3"",""Q05"":""4"",""Q06"":""4"",""Q07"":""4"",""Q08"":""3"",""Q09"":""3"",""Q10"":""5""}","survey-template","5","172821","0.0-4.0","3","3","4","3","4","3","3","4","4","4","4","4","5","3","4","4","4","3","3","5","3","3","4","4","4","4","4","4","4","1","0","0","0","0","1","1","0","0","0","0","0","0","0","0","4","1","4","2","3","","2","3","2","4","3","781446825898151937","李","413","","","","{""Q01"":""4"",""Q02"":""4"",""Q03"":""5"",""Q04"":""3"",""Q05"":""4"",""Q06"":""4"",""Q07"":""4"",""Q08"":""3"",""Q09"":""3"",""Q10"":""5""}","[0,1,2,3,4,5,6,7,8,9]","[""Q01"",""Q03"",""Q02"",""Q04"",""Q05"",""Q06"",""Q07"",""Q07"",""Q08"",""Q09"",""Q10""]","[21323.5,23223.400000035763,23892.80000001192,37490.80000001192,40409.80000001192,42769.5,44591.5,46487.40000003576,49757.30000001192,54115.5,54925.40000003576]","[]","[19450.80000001192,20812.80000001192,21323.5,22071.400000035763,23223.400000035763,23892.80000001192,37490.80000001192,40409.80000001192,42769.5,44591.5,46139.5,46487.40000003576,49197.30000001192,49757.30000001192,52677.80000001192,54115.5,54925.40000003576,56066.69999998808]","0.3","0.3333333333333333","0","","","","","","","","","","","","","","","","","","","","","","","","","","","","","",""
"","","","preload","6","173318","0.0-5.0","3","3","4","3","4","3","3","4","4","4","4","4","5","3","4","4","4","3","3","5","3","3","4","4","4","4","4","4","4","1","0","0","0","0","1","1","0","0","0","0","0","0","0","0","4","1","4","2","3","","2","3","2","4","3","781446825898151937","李","413","","true","","","","","","","","","","","false","[]","[]","[]","","","","","","","","","","","","","","","","","","","","","","","","","",""
"14453","
    <h3>词语分类任务</h3>
    <p>在接下来的任务中，你需要对一系列词语进行分类。</p>
    <p>请先熟悉这些词语，这有利于你完成接下来的任务。</p>
    <table align=""center"" border=1 cellpadding=3 cellspacing=0>
    <tr> <th>类别</th> <th>词语</th> </tr>
    <tr> <td>&emsp;积极&emsp;</td> <td>&emsp;能干、全能、全才、高效、精干、天才&emsp;</td> </tr>
    <tr> <td>&emsp;消极&emsp;</td> <td>&emsp;无能、低能、废物、拙笨、愚钝、蠢笨&emsp;</td> </tr>
    <tr> <td>&emsp;自我&emsp;</td> <td>&emsp;我、我的、自己、自己的、本人、本人的&emsp;</td> </tr>
    <tr> <td>&emsp;他人&emsp;</td> <td>&emsp;他、他的、别人、别人的、他人、他人的&emsp;</td> </tr>
    </table><br/>","0","html-button-response","7","187773","0.0-6.0-0.0-0.0","3","3","4","3","4","3","3","4","4","4","4","4","5","3","4","4","4","3","3","5","3","3","4","4","4","4","4","4","4","1","0","0","0","0","1","1","0","0","0","0","0","0","0","0","4","1","4","2","3","","2","3","2","4","3","781446825898151937","李","413","","","","","","","","","","","","","","","","","1","2","","","","","","","","","","","","","","","","","","","","","","","",""
"24888","
    <div class=""tag-bottom"">
    <p> —— 任务1：对“他人”词和“自我”词分类 ——<p/>
    不同词语会出现在屏幕中央，类别标签将始终显示在屏幕上方<p/>   
    <span style=""color:#FFD866""><b>请根据上方标签的提示，尽可能正确并且快速地做出按键反应</b></span><p/>
    当按键错误时屏幕中会出现<span style=""color:red""> X </span>，需要按另一个键纠正才能继续<br/><p/>
    请把双手食指分别放在键盘的“E”键和“I”键上<p/>
    按<空格键>开始
    </p></div>"," ","html-keyboard-response","8","212665","0.0-6.0-0.0-1.0","3","3","4","3","4","3","3","4","4","4","4","4","5","3","4","4","4","3","3","5","3","3","4","4","4","4","4","4","4","1","0","0","0","0","1","1","0","0","0","0","0","0","0","0","4","1","4","2","3","","2","3","2","4","3","781446825898151937","李","413","","","","","","","","","","","","","","","","","","","","","","","","","","","","","","","","","","","","","","","","","",""
"null","","null","html-keyboard-response","9","212916","0.0-6.0-0.0-2.0-0.0","3","3","4","3","4","3","3","4","4","4","4","4","5","3","4","4","4","3","3","5","3","3","4","4","4","4","4","4","4","1","0","0","0","0","1","1","0","0","0","0","0","0","0","0","4","1","4","2","3","","2","3","2","4","3","781446825898151937","李","413","","","","","","","","","","","","","","","","","","","","","","","","","","","","","","","","","","","","","","","","","",""
"1123","<p style=""color:rgb(150, 250, 100); font-size: 35px;"">本人的</p>","i","categorize-html","10","214044","0.0-6.0-0.0-2.0-1.0","3","3","4","3","4","3","3","4","4","4","4","4","5","3","4","4","4","3","3","5","3","3","4","4","4","4","4","4","4","1","0","0","0","0","1","1","0","0","0","0","0","0","0","0","4","1","4","2","3","","2","3","2","4","3","781446825898151937","李","413","","","","","","","","","","","","","","","","","","","true","1","1","ability","1123","self","本人的","","","","","","","","","","","","","","","","",""
"null","","null","html-keyboard-response","11","214296","0.0-6.0-0.0-2.0-0.1","3","3","4","3","4","3","3","4","4","4","4","4","5","3","4","4","4","3","3","5","3","3","4","4","4","4","4","4","4","1","0","0","0","0","1","1","0","0","0","0","0","0","0","0","4","1","4","2","3","","2","3","2","4","3","781446825898151937","李","413","","","","","","","","","","","","","","","","","","","","","","","","","","","","","","","","","","","","","","","","","",""
"727","<p style=""color:rgb(150, 250, 100); font-size: 35px;"">自己的</p>","i","categorize-html","12","215026","0.0-6.0-0.0-2.0-1.1","3","3","4","3","4","3","3","4","4","4","4","4","5","3","4","4","4","3","3","5","3","3","4","4","4","4","4","4","4","1","0","0","0","0","1","1","0","0","0","0","0","0","0","0","4","1","4","2","3","","2","3","2","4","3","781446825898151937","李","413","","","","","","","","","","","","","","","","","","","true","1","1","ability","727","self","自己的","","","","","","","","","","","","","","","","",""
"null","","null","html-keyboard-response","13","215277","0.0-6.0-0.0-2.0-0.2","3","3","4","3","4","3","3","4","4","4","4","4","5","3","4","4","4","3","3","5","3","3","4","4","4","4","4","4","4","1","0","0","0","0","1","1","0","0","0","0","0","0","0","0","4","1","4","2","3","","2","3","2","4","3","781446825898151937","李","413","","","","","","","","","","","","","","","","","","","","","","","","","","","","","","","","","","","","","","","","","",""
"596","<p style=""color:rgb(150, 250, 100); font-size: 35px;"">他</p>","e","categorize-html","14","215877","0.0-6.0-0.0-2.0-1.2","3","3","4","3","4","3","3","4","4","4","4","4","5","3","4","4","4","3","3","5","3","3","4","4","4","4","4","4","4","1","0","0","0","0","1","1","0","0","0","0","0","0","0","0","4","1","4","2","3","","2","3","2","4","3","781446825898151937","李","413","","","","","","","","","","","","","","","","","","","true","1","1","ability","596","other","他","","","","","","","","","","","","","","","","",""
"null","","null","html-keyboard-response","15","216128","0.0-6.0-0.0-2.0-0.3","3","3","4","3","4","3","3","4","4","4","4","4","5","3","4","4","4","3","3","5","3","3","4","4","4","4","4","4","4","1","0","0","0","0","1","1","0","0","0","0","0","0","0","0","4","1","4","2","3","","2","3","2","4","3","781446825898151937","李","413","","","","","","","","","","","","","","","","","","","","","","","","","","","","","","","","","","","","","","","","","",""
"490","<p style=""color:rgb(150, 250, 100); font-size: 35px;"">他的</p>","e","categorize-html","16","216620","0.0-6.0-0.0-2.0-1.3","3","3","4","3","4","3","3","4","4","4","4","4","5","3","4","4","4","3","3","5","3","3","4","4","4","4","4","4","4","1","0","0","0","0","1","1","0","0","0","0","0","0","0","0","4","1","4","2","3","","2","3","2","4","3","781446825898151937","李","413","","","","","","","","","","","","","","","","","","","true","1","1","ability","490","other","他的","","","","","","","","","","","","","","","","",""
"null","","null","html-keyboard-response","17","216871","0.0-6.0-0.0-2.0-0.4","3","3","4","3","4","3","3","4","4","4","4","4","5","3","4","4","4","3","3","5","3","3","4","4","4","4","4","4","4","1","0","0","0","0","1","1","0","0","0","0","0","0","0","0","4","1","4","2","3","","2","3","2","4","3","781446825898151937","李","413","","","","","","","","","","","","","","","","","","","","","","","","","","","","","","","","","","","","","","","","","",""
"984","<p style=""color:rgb(150, 250, 100); font-size: 35px;"">别人的</p>","e","categorize-html","18","217858","0.0-6.0-0.0-2.0-1.4","3","3","4","3","4","3","3","4","4","4","4","4","5","3","4","4","4","3","3","5","3","3","4","4","4","4","4","4","4","1","0","0","0","0","1","1","0","0","0","0","0","0","0","0","4","1","4","2","3","","2","3","2","4","3","781446825898151937","李","413","","","","","","","","","","","","","","","","","","","true","1","1","ability","984","other","别人的","","","","","","","","","","","","","","","","",""
"null","","null","html-keyboard-response","19","218110","0.0-6.0-0.0-2.0-0.5","3","3","4","3","4","3","3","4","4","4","4","4","5","3","4","4","4","3","3","5","3","3","4","4","4","4","4","4","4","1","0","0","0","0","1","1","0","0","0","0","0","0","0","0","4","1","4","2","3","","2","3","2","4","3","781446825898151937","李","413","","","","","","","","","","","","","","","","","","","","","","","","","","","","","","","","","","","","","","","","","",""
"568","<p style=""color:rgb(150, 250, 100); font-size: 35px;"">别人</p>","e","categorize-html","20","218681","0.0-6.0-0.0-2.0-1.5","3","3","4","3","4","3","3","4","4","4","4","4","5","3","4","4","4","3","3","5","3","3","4","4","4","4","4","4","4","1","0","0","0","0","1","1","0","0","0","0","0","0","0","0","4","1","4","2","3","","2","3","2","4","3","781446825898151937","李","413","","","","","","","","","","","","","","","","","","","true","1","1","ability","568","other","别人","","","","","","","","","","","","","","","","",""
"null","","null","html-keyboard-response","21","218932","0.0-6.0-0.0-2.0-0.6","3","3","4","3","4","3","3","4","4","4","4","4","5","3","4","4","4","3","3","5","3","3","4","4","4","4","4","4","4","1","0","0","0","0","1","1","0","0","0","0","0","0","0","0","4","1","4","2","3","","2","3","2","4","3","781446825898151937","李","413","","","","","","","","","","","","","","","","","","","","","","","","","","","","","","","","","","","","","","","","","",""
"1311","<p style=""color:rgb(150, 250, 100); font-size: 35px;"">他人的</p>","e","categorize-html","22","220245","0.0-6.0-0.0-2.0-1.6","3","3","4","3","4","3","3","4","4","4","4","4","5","3","4","4","4","3","3","5","3","3","4","4","4","4","4","4","4","1","0","0","0","0","1","1","0","0","0","0","0","0","0","0","4","1","4","2","3","","2","3","2","4","3","781446825898151937","李","413","","","","","","","","","","","","","","","","","","","true","1","1","ability","1311","other","他人的","","","","","","","","","","","","","","","","",""
"null","","null","html-keyboard-response","23","220496","0.0-6.0-0.0-2.0-0.7","3","3","4","3","4","3","3","4","4","4","4","4","5","3","4","4","4","3","3","5","3","3","4","4","4","4","4","4","4","1","0","0","0","0","1","1","0","0","0","0","0","0","0","0","4","1","4","2","3","","2","3","2","4","3","781446825898151937","李","413","","","","","","","","","","","","","","","","","","","","","","","","","","","","","","","","","","","","","","","","","",""
"806","<p style=""color:rgb(150, 250, 100); font-size: 35px;"">我的</p>","i","categorize-html","24","221304","0.0-6.0-0.0-2.0-1.7","3","3","4","3","4","3","3","4","4","4","4","4","5","3","4","4","4","3","3","5","3","3","4","4","4","4","4","4","4","1","0","0","0","0","1","1","0","0","0","0","0","0","0","0","4","1","4","2","3","","2","3","2","4","3","781446825898151937","李","413","","","","","","","","","","","","","","","","","","","true","1","1","ability","806","self","我的","","","","","","","","","","","","","","","","",""
"null","","null","html-keyboard-response","25","221555","0.0-6.0-0.0-2.0-0.8","3","3","4","3","4","3","3","4","4","4","4","4","5","3","4","4","4","3","3","5","3","3","4","4","4","4","4","4","4","1","0","0","0","0","1","1","0","0","0","0","0","0","0","0","4","1","4","2","3","","2","3","2","4","3","781446825898151937","李","413","","","","","","","","","","","","","","","","","","","","","","","","","","","","","","","","","","","","","","","","","",""
"719","<p style=""color:rgb(150, 250, 100); font-size: 35px;"">他人</p>","e","categorize-html","26","222277","0.0-6.0-0.0-2.0-1.8","3","3","4","3","4","3","3","4","4","4","4","4","5","3","4","4","4","3","3","5","3","3","4","4","4","4","4","4","4","1","0","0","0","0","1","1","0","0","0","0","0","0","0","0","4","1","4","2","3","","2","3","2","4","3","781446825898151937","李","413","","","","","","","","","","","","","","","","","","","true","1","1","ability","719","other","他人","","","","","","","","","","","","","","","","",""
"null","","null","html-keyboard-response","27","222528","0.0-6.0-0.0-2.0-0.9","3","3","4","3","4","3","3","4","4","4","4","4","5","3","4","4","4","3","3","5","3","3","4","4","4","4","4","4","4","1","0","0","0","0","1","1","0","0","0","0","0","0","0","0","4","1","4","2","3","","2","3","2","4","3","781446825898151937","李","413","","","","","","","","","","","","","","","","","","","","","","","","","","","","","","","","","","","","","","","","","",""
"606","<p style=""color:rgb(150, 250, 100); font-size: 35px;"">自己</p>","i","categorize-html","28","223137","0.0-6.0-0.0-2.0-1.9","3","3","4","3","4","3","3","4","4","4","4","4","5","3","4","4","4","3","3","5","3","3","4","4","4","4","4","4","4","1","0","0","0","0","1","1","0","0","0","0","0","0","0","0","4","1","4","2","3","","2","3","2","4","3","781446825898151937","李","413","","","","","","","","","","","","","","","","","","","true","1","1","ability","606","self","自己","","","","","","","","","","","","","","","","",""
"null","","null","html-keyboard-response","29","223388","0.0-6.0-0.0-2.0-0.10","3","3","4","3","4","3","3","4","4","4","4","4","5","3","4","4","4","3","3","5","3","3","4","4","4","4","4","4","4","1","0","0","0","0","1","1","0","0","0","0","0","0","0","0","4","1","4","2","3","","2","3","2","4","3","781446825898151937","李","413","","","","","","","","","","","","","","","","","","","","","","","","","","","","","","","","","","","","","","","","","",""
"565","<p style=""color:rgb(150, 250, 100); font-size: 35px;"">我</p>","i","categorize-html","30","223956","0.0-6.0-0.0-2.0-1.10","3","3","4","3","4","3","3","4","4","4","4","4","5","3","4","4","4","3","3","5","3","3","4","4","4","4","4","4","4","1","0","0","0","0","1","1","0","0","0","0","0","0","0","0","4","1","4","2","3","","2","3","2","4","3","781446825898151937","李","413","","","","","","","","","","","","","","","","","","","true","1","1","ability","565","self","我","","","","","","","","","","","","","","","","",""
"null","","null","html-keyboard-response","31","224207","0.0-6.0-0.0-2.0-0.11","3","3","4","3","4","3","3","4","4","4","4","4","5","3","4","4","4","3","3","5","3","3","4","4","4","4","4","4","4","1","0","0","0","0","1","1","0","0","0","0","0","0","0","0","4","1","4","2","3","","2","3","2","4","3","781446825898151937","李","413","","","","","","","","","","","","","","","","","","","","","","","","","","","","","","","","","","","","","","","","","",""
"743","<p style=""color:rgb(150, 250, 100); font-size: 35px;"">本人</p>","i","categorize-html","32","224953","0.0-6.0-0.0-2.0-1.11","3","3","4","3","4","3","3","4","4","4","4","4","5","3","4","4","4","3","3","5","3","3","4","4","4","4","4","4","4","1","0","0","0","0","1","1","0","0","0","0","0","0","0","0","4","1","4","2","3","","2","3","2","4","3","781446825898151937","李","413","","","","","","","","","","","","","","","","","","","true","1","1","ability","743","self","本人","","","","","","","","","","","","","","","","",""
"5242","
    <div class=""tag-bottom""><p>
    —— 任务2：对“积极”词和“消极”词分类 ——<p/>   
    <span style=""color:#78DCE8""><b>注意上方，类别标签和需要分类的词语都已经改变</b></span><p/>
    <span style=""color:#FFD866""><b>请根据上方标签的提示，尽可能正确并且快速地做出按键反应</b></span><p/>
    当按键错误时屏幕中会出现<span style=""color:red""> X </span>，需要按另一个键纠正才能继续<br/><p/>
    请把双手食指分别放在键盘的“E”键和“I”键上<p/>
    按<空格键>开始
    </p></div>"," ","html-keyboard-response","33","230196","0.0-6.0-0.0-3.0","3","3","4","3","4","3","3","4","4","4","4","4","5","3","4","4","4","3","3","5","3","3","4","4","4","4","4","4","4","1","0","0","0","0","1","1","0","0","0","0","0","0","0","0","4","1","4","2","3","","2","3","2","4","3","781446825898151937","李","413","","","","","","","","","","","","","","","","","","","","","","","","","","","","","","","","","","","","","","","","","",""
"null","","null","html-keyboard-response","34","230447","0.0-6.0-0.0-4.0-0.0","3","3","4","3","4","3","3","4","4","4","4","4","5","3","4","4","4","3","3","5","3","3","4","4","4","4","4","4","4","1","0","0","0","0","1","1","0","0","0","0","0","0","0","0","4","1","4","2","3","","2","3","2","4","3","781446825898151937","李","413","","","","","","","","","","","","","","","","","","","","","","","","","","","","","","","","","","","","","","","","","",""
"1207","<p style=""color:white; font-size: 35px;"">精干</p>","i","categorize-html","35","234295","0.0-6.0-0.0-4.0-1.0","3","3","4","3","4","3","3","4","4","4","4","4","5","3","4","4","4","3","3","5","3","3","4","4","4","4","4","4","4","1","0","0","0","0","1","1","0","0","0","0","0","0","0","0","4","1","4","2","3","","2","3","2","4","3","781446825898151937","李","413","","","","","","","","","","","","","","","","","","","false","2","2","ability","1207","positive","精干","","","","","","","","","","","","","","","","",""
"null","","null","html-keyboard-response","36","234547","0.0-6.0-0.0-4.0-0.1","3","3","4","3","4","3","3","4","4","4","4","4","5","3","4","4","4","3","3","5","3","3","4","4","4","4","4","4","4","1","0","0","0","0","1","1","0","0","0","0","0","0","0","0","4","1","4","2","3","","2","3","2","4","3","781446825898151937","李","413","","","","","","","","","","","","","","","","","","","","","","","","","","","","","","","","","","","","","","","","","",""
"830","<p style=""color:white; font-size: 35px;"">能干</p>","e","categorize-html","37","235380","0.0-6.0-0.0-4.0-1.1","3","3","4","3","4","3","3","4","4","4","4","4","5","3","4","4","4","3","3","5","3","3","4","4","4","4","4","4","4","1","0","0","0","0","1","1","0","0","0","0","0","0","0","0","4","1","4","2","3","","2","3","2","4","3","781446825898151937","李","413","","","","","","","","","","","","","","","","","","","true","2","2","ability","830","positive","能干","","","","","","","","","","","","","","","","",""
"null","","null","html-keyboard-response","38","235631","0.0-6.0-0.0-4.0-0.2","3","3","4","3","4","3","3","4","4","4","4","4","5","3","4","4","4","3","3","5","3","3","4","4","4","4","4","4","4","1","0","0","0","0","1","1","0","0","0","0","0","0","0","0","4","1","4","2","3","","2","3","2","4","3","781446825898151937","李","413","","","","","","","","","","","","","","","","","","","","","","","","","","","","","","","","","","","","","","","","","",""
"860","<p style=""color:white; font-size: 35px;"">无能</p>","i","categorize-html","39","236494","0.0-6.0-0.0-4.0-1.2","3","3","4","3","4","3","3","4","4","4","4","4","5","3","4","4","4","3","3","5","3","3","4","4","4","4","4","4","4","1","0","0","0","0","1","1","0","0","0","0","0","0","0","0","4","1","4","2","3","","2","3","2","4","3","781446825898151937","李","413","","","","","","","","","","","","","","","","","","","true","2","2","ability","860","negative","无能","","","","","","","","","","","","","","","","",""
"null","","null","html-keyboard-response","40","236745","0.0-6.0-0.0-4.0-0.3","3","3","4","3","4","3","3","4","4","4","4","4","5","3","4","4","4","3","3","5","3","3","4","4","4","4","4","4","4","1","0","0","0","0","1","1","0","0","0","0","0","0","0","0","4","1","4","2","3","","2","3","2","4","3","781446825898151937","李","413","","","","","","","","","","","","","","","","","","","","","","","","","","","","","","","","","","","","","","","","","",""
"580","<p style=""color:white; font-size: 35px;"">高效</p>","e","categorize-html","41","237328","0.0-6.0-0.0-4.0-1.3","3","3","4","3","4","3","3","4","4","4","4","4","5","3","4","4","4","3","3","5","3","3","4","4","4","4","4","4","4","1","0","0","0","0","1","1","0","0","0","0","0","0","0","0","4","1","4","2","3","","2","3","2","4","3","781446825898151937","李","413","","","","","","","","","","","","","","","","","","","true","2","2","ability","580","positive","高效","","","","","","","","","","","","","","","","",""
"null","","null","html-keyboard-response","42","237580","0.0-6.0-0.0-4.0-0.4","3","3","4","3","4","3","3","4","4","4","4","4","5","3","4","4","4","3","3","5","3","3","4","4","4","4","4","4","4","1","0","0","0","0","1","1","0","0","0","0","0","0","0","0","4","1","4","2","3","","2","3","2","4","3","781446825898151937","李","413","","","","","","","","","","","","","","","","","","","","","","","","","","","","","","","","","","","","","","","","","",""
"1333","<p style=""color:white; font-size: 35px;"">天才</p>","e","categorize-html","43","238915","0.0-6.0-0.0-4.0-1.4","3","3","4","3","4","3","3","4","4","4","4","4","5","3","4","4","4","3","3","5","3","3","4","4","4","4","4","4","4","1","0","0","0","0","1","1","0","0","0","0","0","0","0","0","4","1","4","2","3","","2","3","2","4","3","781446825898151937","李","413","","","","","","","","","","","","","","","","","","","true","2","2","ability","1333","positive","天才","","","","","","","","","","","","","","","","",""
"null","","null","html-keyboard-response","44","239166","0.0-6.0-0.0-4.0-0.5","3","3","4","3","4","3","3","4","4","4","4","4","5","3","4","4","4","3","3","5","3","3","4","4","4","4","4","4","4","1","0","0","0","0","1","1","0","0","0","0","0","0","0","0","4","1","4","2","3","","2","3","2","4","3","781446825898151937","李","413","","","","","","","","","","","","","","","","","","","","","","","","","","","","","","","","","","","","","","","","","",""
"694","<p style=""color:white; font-size: 35px;"">愚钝</p>","i","categorize-html","45","239864","0.0-6.0-0.0-4.0-1.5","3","3","4","3","4","3","3","4","4","4","4","4","5","3","4","4","4","3","3","5","3","3","4","4","4","4","4","4","4","1","0","0","0","0","1","1","0","0","0","0","0","0","0","0","4","1","4","2","3","","2","3","2","4","3","781446825898151937","李","413","","","","","","","","","","","","","","","","","","","true","2","2","ability","694","negative","愚钝","","","","","","","","","","","","","","","","",""
"null","","null","html-keyboard-response","46","240115","0.0-6.0-0.0-4.0-0.6","3","3","4","3","4","3","3","4","4","4","4","4","5","3","4","4","4","3","3","5","3","3","4","4","4","4","4","4","4","1","0","0","0","0","1","1","0","0","0","0","0","0","0","0","4","1","4","2","3","","2","3","2","4","3","781446825898151937","李","413","","","","","","","","","","","","","","","","","","","","","","","","","","","","","","","","","","","","","","","","","",""
"732","<p style=""color:white; font-size: 35px;"">低能</p>","i","categorize-html","47","240849","0.0-6.0-0.0-4.0-1.6","3","3","4","3","4","3","3","4","4","4","4","4","5","3","4","4","4","3","3","5","3","3","4","4","4","4","4","4","4","1","0","0","0","0","1","1","0","0","0","0","0","0","0","0","4","1","4","2","3","","2","3","2","4","3","781446825898151937","李","413","","","","","","","","","","","","","","","","","","","true","2","2","ability","732","negative","低能","","","","","","","","","","","","","","","","",""
"null","","null","html-keyboard-response","48","241101","0.0-6.0-0.0-4.0-0.7","3","3","4","3","4","3","3","4","4","4","4","4","5","3","4","4","4","3","3","5","3","3","4","4","4","4","4","4","4","1","0","0","0","0","1","1","0","0","0","0","0","0","0","0","4","1","4","2","3","","2","3","2","4","3","781446825898151937","李","413","","","","","","","","","","","","","","","","","","","","","","","","","","","","","","","","","","","","","","","","","",""
"941","<p style=""color:white; font-size: 35px;"">全才</p>","e","categorize-html","49","242045","0.0-6.0-0.0-4.0-1.7","3","3","4","3","4","3","3","4","4","4","4","4","5","3","4","4","4","3","3","5","3","3","4","4","4","4","4","4","4","1","0","0","0","0","1","1","0","0","0","0","0","0","0","0","4","1","4","2","3","","2","3","2","4","3","781446825898151937","李","413","","","","","","","","","","","","","","","","","","","true","2","2","ability","941","positive","全才","","","","","","","","","","","","","","","","",""
"null","","null","html-keyboard-response","50","242297","0.0-6.0-0.0-4.0-0.8","3","3","4","3","4","3","3","4","4","4","4","4","5","3","4","4","4","3","3","5","3","3","4","4","4","4","4","4","4","1","0","0","0","0","1","1","0","0","0","0","0","0","0","0","4","1","4","2","3","","2","3","2","4","3","781446825898151937","李","413","","","","","","","","","","","","","","","","","","","","","","","","","","","","","","","","","","","","","","","","","",""
"630","<p style=""color:white; font-size: 35px;"">全能</p>","e","categorize-html","51","242929","0.0-6.0-0.0-4.0-1.8","3","3","4","3","4","3","3","4","4","4","4","4","5","3","4","4","4","3","3","5","3","3","4","4","4","4","4","4","4","1","0","0","0","0","1","1","0","0","0","0","0","0","0","0","4","1","4","2","3","","2","3","2","4","3","781446825898151937","李","413","","","","","","","","","","","","","","","","","","","true","2","2","ability","630","positive","全能","","","","","","","","","","","","","","","","",""
"null","","null","html-keyboard-response","52","243180","0.0-6.0-0.0-4.0-0.9","3","3","4","3","4","3","3","4","4","4","4","4","5","3","4","4","4","3","3","5","3","3","4","4","4","4","4","4","4","1","0","0","0","0","1","1","0","0","0","0","0","0","0","0","4","1","4","2","3","","2","3","2","4","3","781446825898151937","李","413","","","","","","","","","","","","","","","","","","","","","","","","","","","","","","","","","","","","","","","","","",""
"610","<p style=""color:white; font-size: 35px;"">拙笨</p>","i","categorize-html","53","243793","0.0-6.0-0.0-4.0-1.9","3","3","4","3","4","3","3","4","4","4","4","4","5","3","4","4","4","3","3","5","3","3","4","4","4","4","4","4","4","1","0","0","0","0","1","1","0","0","0","0","0","0","0","0","4","1","4","2","3","","2","3","2","4","3","781446825898151937","李","413","","","","","","","","","","","","","","","","","","","true","2","2","ability","610","negative","拙笨","","","","","","","","","","","","","","","","",""
"null","","null","html-keyboard-response","54","244044","0.0-6.0-0.0-4.0-0.10","3","3","4","3","4","3","3","4","4","4","4","4","5","3","4","4","4","3","3","5","3","3","4","4","4","4","4","4","4","1","0","0","0","0","1","1","0","0","0","0","0","0","0","0","4","1","4","2","3","","2","3","2","4","3","781446825898151937","李","413","","","","","","","","","","","","","","","","","","","","","","","","","","","","","","","","","","","","","","","","","",""
"2824","<p style=""color:white; font-size: 35px;"">蠢笨</p>","i","categorize-html","55","246871","0.0-6.0-0.0-4.0-1.10","3","3","4","3","4","3","3","4","4","4","4","4","5","3","4","4","4","3","3","5","3","3","4","4","4","4","4","4","4","1","0","0","0","0","1","1","0","0","0","0","0","0","0","0","4","1","4","2","3","","2","3","2","4","3","781446825898151937","李","413","","","","","","","","","","","","","","","","","","","true","2","2","ability","2824","negative","蠢笨","","","","","","","","","","","","","","","","",""
"null","","null","html-keyboard-response","56","247122","0.0-6.0-0.0-4.0-0.11","3","3","4","3","4","3","3","4","4","4","4","4","5","3","4","4","4","3","3","5","3","3","4","4","4","4","4","4","4","1","0","0","0","0","1","1","0","0","0","0","0","0","0","0","4","1","4","2","3","","2","3","2","4","3","781446825898151937","李","413","","","","","","","","","","","","","","","","","","","","","","","","","","","","","","","","","","","","","","","","","",""
"634","<p style=""color:white; font-size: 35px;"">废物</p>","i","categorize-html","57","247759","0.0-6.0-0.0-4.0-1.11","3","3","4","3","4","3","3","4","4","4","4","4","5","3","4","4","4","3","3","5","3","3","4","4","4","4","4","4","4","1","0","0","0","0","1","1","0","0","0","0","0","0","0","0","4","1","4","2","3","","2","3","2","4","3","781446825898151937","李","413","","","","","","","","","","","","","","","","","","","true","2","2","ability","634","negative","废物","","","","","","","","","","","","","","","","",""
"31692","
    <div class=""tag-bottom""><p>
    —— 任务3：对“他人/积极”词和“自我/消极”词分类 ——<p/>
    <span style=""color:#78DCE8""><b>注意上方，之前的四类词语将混合在一起交替呈现</b></span><p/>
    <span style=""color:#FFD866""><b>请根据上方标签的提示，尽可能正确并且快速地做出按键反应</b></span><p/>
    当按键错误时屏幕中会出现<span style=""color:red""> X </span>，需要按另一个键纠正才能继续<br/><p/>
    请把双手食指分别放在键盘的“E”键和“I”键上<p/>
    按<空格键>开始
    </p></div>"," ","html-keyboard-response","58","279452","0.0-6.0-0.0-5.0","3","3","4","3","4","3","3","4","4","4","4","4","5","3","4","4","4","3","3","5","3","3","4","4","4","4","4","4","4","1","0","0","0","0","1","1","0","0","0","0","0","0","0","0","4","1","4","2","3","","2","3","2","4","3","781446825898151937","李","413","","","","","","","","","","","","","","","","","","","","","","","","","","","","","","","","","","","","","","","","","",""
"null","","null","html-keyboard-response","59","279704","0.0-6.0-0.0-6.0-0.0","3","3","4","3","4","3","3","4","4","4","4","4","5","3","4","4","4","3","3","5","3","3","4","4","4","4","4","4","4","1","0","0","0","0","1","1","0","0","0","0","0","0","0","0","4","1","4","2","3","","2","3","2","4","3","781446825898151937","李","413","","","","","","","","","","","","","","","","","","","","","","","","","","","","","","","","","","","","","","","","","",""
"1926","<p style=""color:rgb(150, 250, 100); font-size: 35px;"">我</p>","i","categorize-html","60","281634","0.0-6.0-0.0-6.0-1.0","3","3","4","3","4","3","3","4","4","4","4","4","5","3","4","4","4","3","3","5","3","3","4","4","4","4","4","4","4","1","0","0","0","0","1","1","0","0","0","0","0","0","0","0","4","1","4","2","3","","2","3","2","4","3","781446825898151937","李","413","","","","","","","","","","","","","","","","","","","true","3","3","ability","1926","self","我","","","","","","","","","","","","","","","","",""
"null","","null","html-keyboard-response","61","281885","0.0-6.0-0.0-6.0-0.1","3","3","4","3","4","3","3","4","4","4","4","4","5","3","4","4","4","3","3","5","3","3","4","4","4","4","4","4","4","1","0","0","0","0","1","1","0","0","0","0","0","0","0","0","4","1","4","2","3","","2","3","2","4","3","781446825898151937","李","413","","","","","","","","","","","","","","","","","","","","","","","","","","","","","","","","","","","","","","","","","",""
"1152","<p style=""color:white; font-size: 35px;"">蠢笨</p>","i","categorize-html","62","283040","0.0-6.0-0.0-6.0-1.1","3","3","4","3","4","3","3","4","4","4","4","4","5","3","4","4","4","3","3","5","3","3","4","4","4","4","4","4","4","1","0","0","0","0","1","1","0","0","0","0","0","0","0","0","4","1","4","2","3","","2","3","2","4","3","781446825898151937","李","413","","","","","","","","","","","","","","","","","","","true","3","3","ability","1152","negative","蠢笨","","","","","","","","","","","","","","","","",""
"null","","null","html-keyboard-response","63","283292","0.0-6.0-0.0-6.0-0.2","3","3","4","3","4","3","3","4","4","4","4","4","5","3","4","4","4","3","3","5","3","3","4","4","4","4","4","4","4","1","0","0","0","0","1","1","0","0","0","0","0","0","0","0","4","1","4","2","3","","2","3","2","4","3","781446825898151937","李","413","","","","","","","","","","","","","","","","","","","","","","","","","","","","","","","","","","","","","","","","","",""
"1967","<p style=""color:rgb(150, 250, 100); font-size: 35px;"">别人</p>","e","categorize-html","64","285261","0.0-6.0-0.0-6.0-1.2","3","3","4","3","4","3","3","4","4","4","4","4","5","3","4","4","4","3","3","5","3","3","4","4","4","4","4","4","4","1","0","0","0","0","1","1","0","0","0","0","0","0","0","0","4","1","4","2","3","","2","3","2","4","3","781446825898151937","李","413","","","","","","","","","","","","","","","","","","","true","3","3","ability","1967","other","别人","","","","","","","","","","","","","","","","",""
"null","","null","html-keyboard-response","65","285513","0.0-6.0-0.0-6.0-0.3","3","3","4","3","4","3","3","4","4","4","4","4","5","3","4","4","4","3","3","5","3","3","4","4","4","4","4","4","4","1","0","0","0","0","1","1","0","0","0","0","0","0","0","0","4","1","4","2","3","","2","3","2","4","3","781446825898151937","李","413","","","","","","","","","","","","","","","","","","","","","","","","","","","","","","","","","","","","","","","","","",""
"815","<p style=""color:white; font-size: 35px;"">天才</p>","e","categorize-html","66","286332","0.0-6.0-0.0-6.0-1.3","3","3","4","3","4","3","3","4","4","4","4","4","5","3","4","4","4","3","3","5","3","3","4","4","4","4","4","4","4","1","0","0","0","0","1","1","0","0","0","0","0","0","0","0","4","1","4","2","3","","2","3","2","4","3","781446825898151937","李","413","","","","","","","","","","","","","","","","","","","true","3","3","ability","815","positive","天才","","","","","","","","","","","","","","","","",""
"null","","null","html-keyboard-response","67","286583","0.0-6.0-0.0-6.0-0.4","3","3","4","3","4","3","3","4","4","4","4","4","5","3","4","4","4","3","3","5","3","3","4","4","4","4","4","4","4","1","0","0","0","0","1","1","0","0","0","0","0","0","0","0","4","1","4","2","3","","2","3","2","4","3","781446825898151937","李","413","","","","","","","","","","","","","","","","","","","","","","","","","","","","","","","","","","","","","","","","","",""
"890","<p style=""color:rgb(150, 250, 100); font-size: 35px;"">他人的</p>","e","categorize-html","68","287476","0.0-6.0-0.0-6.0-1.4","3","3","4","3","4","3","3","4","4","4","4","4","5","3","4","4","4","3","3","5","3","3","4","4","4","4","4","4","4","1","0","0","0","0","1","1","0","0","0","0","0","0","0","0","4","1","4","2","3","","2","3","2","4","3","781446825898151937","李","413","","","","","","","","","","","","","","","","","","","true","3","3","ability","890","other","他人的","","","","","","","","","","","","","","","","",""
"null","","null","html-keyboard-response","69","287727","0.0-6.0-0.0-6.0-0.5","3","3","4","3","4","3","3","4","4","4","4","4","5","3","4","4","4","3","3","5","3","3","4","4","4","4","4","4","4","1","0","0","0","0","1","1","0","0","0","0","0","0","0","0","4","1","4","2","3","","2","3","2","4","3","781446825898151937","李","413","","","","","","","","","","","","","","","","","","","","","","","","","","","","","","","","","","","","","","","","","",""
"954","<p style=""color:white; font-size: 35px;"">精干</p>","e","categorize-html","70","288684","0.0-6.0-0.0-6.0-1.5","3","3","4","3","4","3","3","4","4","4","4","4","5","3","4","4","4","3","3","5","3","3","4","4","4","4","4","4","4","1","0","0","0","0","1","1","0","0","0","0","0","0","0","0","4","1","4","2","3","","2","3","2","4","3","781446825898151937","李","413","","","","","","","","","","","","","","","","","","","true","3","3","ability","954","positive","精干","","","","","","","","","","","","","","","","",""
"null","","null","html-keyboard-response","71","288935","0.0-6.0-0.0-6.0-0.6","3","3","4","3","4","3","3","4","4","4","4","4","5","3","4","4","4","3","3","5","3","3","4","4","4","4","4","4","4","1","0","0","0","0","1","1","0","0","0","0","0","0","0","0","4","1","4","2","3","","2","3","2","4","3","781446825898151937","李","413","","","","","","","","","","","","","","","","","","","","","","","","","","","","","","","","","","","","","","","","","",""
"1280","<p style=""color:rgb(150, 250, 100); font-size: 35px;"">本人的</p>","i","categorize-html","72","290218","0.0-6.0-0.0-6.0-1.6","3","3","4","3","4","3","3","4","4","4","4","4","5","3","4","4","4","3","3","5","3","3","4","4","4","4","4","4","4","1","0","0","0","0","1","1","0","0","0","0","0","0","0","0","4","1","4","2","3","","2","3","2","4","3","781446825898151937","李","413","","","","","","","","","","","","","","","","","","","true","3","3","ability","1280","self","本人的","","","","","","","","","","","","","","","","",""
"null","","null","html-keyboard-response","73","290470","0.0-6.0-0.0-6.0-0.7","3","3","4","3","4","3","3","4","4","4","4","4","5","3","4","4","4","3","3","5","3","3","4","4","4","4","4","4","4","1","0","0","0","0","1","1","0","0","0","0","0","0","0","0","4","1","4","2","3","","2","3","2","4","3","781446825898151937","李","413","","","","","","","","","","","","","","","","","","","","","","","","","","","","","","","","","","","","","","","","","",""
"952","<p style=""color:white; font-size: 35px;"">低能</p>","i","categorize-html","74","291425","0.0-6.0-0.0-6.0-1.7","3","3","4","3","4","3","3","4","4","4","4","4","5","3","4","4","4","3","3","5","3","3","4","4","4","4","4","4","4","1","0","0","0","0","1","1","0","0","0","0","0","0","0","0","4","1","4","2","3","","2","3","2","4","3","781446825898151937","李","413","","","","","","","","","","","","","","","","","","","true","3","3","ability","952","negative","低能","","","","","","","","","","","","","","","","",""
"null","","null","html-keyboard-response","75","291677","0.0-6.0-0.0-6.0-0.8","3","3","4","3","4","3","3","4","4","4","4","4","5","3","4","4","4","3","3","5","3","3","4","4","4","4","4","4","4","1","0","0","0","0","1","1","0","0","0","0","0","0","0","0","4","1","4","2","3","","2","3","2","4","3","781446825898151937","李","413","","","","","","","","","","","","","","","","","","","","","","","","","","","","","","","","","","","","","","","","","",""
"1345","<p style=""color:rgb(150, 250, 100); font-size: 35px;"">自己的</p>","i","categorize-html","76","293024","0.0-6.0-0.0-6.0-1.8","3","3","4","3","4","3","3","4","4","4","4","4","5","3","4","4","4","3","3","5","3","3","4","4","4","4","4","4","4","1","0","0","0","0","1","1","0","0","0","0","0","0","0","0","4","1","4","2","3","","2","3","2","4","3","781446825898151937","李","413","","","","","","","","","","","","","","","","","","","true","3","3","ability","1345","self","自己的","","","","","","","","","","","","","","","","",""
"null","","null","html-keyboard-response","77","293275","0.0-6.0-0.0-6.0-0.9","3","3","4","3","4","3","3","4","4","4","4","4","5","3","4","4","4","3","3","5","3","3","4","4","4","4","4","4","4","1","0","0","0","0","1","1","0","0","0","0","0","0","0","0","4","1","4","2","3","","2","3","2","4","3","781446825898151937","李","413","","","","","","","","","","","","","","","","","","","","","","","","","","","","","","","","","","","","","","","","","",""
"623","<p style=""color:white; font-size: 35px;"">愚钝</p>","i","categorize-html","78","293901","0.0-6.0-0.0-6.0-1.9","3","3","4","3","4","3","3","4","4","4","4","4","5","3","4","4","4","3","3","5","3","3","4","4","4","4","4","4","4","1","0","0","0","0","1","1","0","0","0","0","0","0","0","0","4","1","4","2","3","","2","3","2","4","3","781446825898151937","李","413","","","","","","","","","","","","","","","","","","","true","3","3","ability","623","negative","愚钝","","","","","","","","","","","","","","","","",""
"null","","null","html-keyboard-response","79","294153","0.0-6.0-0.0-6.0-0.10","3","3","4","3","4","3","3","4","4","4","4","4","5","3","4","4","4","3","3","5","3","3","4","4","4","4","4","4","4","1","0","0","0","0","1","1","0","0","0","0","0","0","0","0","4","1","4","2","3","","2","3","2","4","3","781446825898151937","李","413","","","","","","","","","","","","","","","","","","","","","","","","","","","","","","","","","","","","","","","","","",""
"504","<p style=""color:rgb(150, 250, 100); font-size: 35px;"">他人</p>","e","categorize-html","80","294660","0.0-6.0-0.0-6.0-1.10","3","3","4","3","4","3","3","4","4","4","4","4","5","3","4","4","4","3","3","5","3","3","4","4","4","4","4","4","4","1","0","0","0","0","1","1","0","0","0","0","0","0","0","0","4","1","4","2","3","","2","3","2","4","3","781446825898151937","李","413","","","","","","","","","","","","","","","","","","","true","3","3","ability","504","other","他人","","","","","","","","","","","","","","","","",""
"null","","null","html-keyboard-response","81","294912","0.0-6.0-0.0-6.0-0.11","3","3","4","3","4","3","3","4","4","4","4","4","5","3","4","4","4","3","3","5","3","3","4","4","4","4","4","4","4","1","0","0","0","0","1","1","0","0","0","0","0","0","0","0","4","1","4","2","3","","2","3","2","4","3","781446825898151937","李","413","","","","","","","","","","","","","","","","","","","","","","","","","","","","","","","","","","","","","","","","","",""
"868","<p style=""color:white; font-size: 35px;"">高效</p>","e","categorize-html","82","295783","0.0-6.0-0.0-6.0-1.11","3","3","4","3","4","3","3","4","4","4","4","4","5","3","4","4","4","3","3","5","3","3","4","4","4","4","4","4","4","1","0","0","0","0","1","1","0","0","0","0","0","0","0","0","4","1","4","2","3","","2","3","2","4","3","781446825898151937","李","413","","","","","","","","","","","","","","","","","","","true","3","3","ability","868","positive","高效","","","","","","","","","","","","","","","","",""
"null","","null","html-keyboard-response","83","296035","0.0-6.0-0.0-6.0-0.12","3","3","4","3","4","3","3","4","4","4","4","4","5","3","4","4","4","3","3","5","3","3","4","4","4","4","4","4","4","1","0","0","0","0","1","1","0","0","0","0","0","0","0","0","4","1","4","2","3","","2","3","2","4","3","781446825898151937","李","413","","","","","","","","","","","","","","","","","","","","","","","","","","","","","","","","","","","","","","","","","",""
"670","<p style=""color:rgb(150, 250, 100); font-size: 35px;"">他</p>","e","categorize-html","84","296708","0.0-6.0-0.0-6.0-1.12","3","3","4","3","4","3","3","4","4","4","4","4","5","3","4","4","4","3","3","5","3","3","4","4","4","4","4","4","4","1","0","0","0","0","1","1","0","0","0","0","0","0","0","0","4","1","4","2","3","","2","3","2","4","3","781446825898151937","李","413","","","","","","","","","","","","","","","","","","","true","3","3","ability","670","other","他","","","","","","","","","","","","","","","","",""
"null","","null","html-keyboard-response","85","296959","0.0-6.0-0.0-6.0-0.13","3","3","4","3","4","3","3","4","4","4","4","4","5","3","4","4","4","3","3","5","3","3","4","4","4","4","4","4","4","1","0","0","0","0","1","1","0","0","0","0","0","0","0","0","4","1","4","2","3","","2","3","2","4","3","781446825898151937","李","413","","","","","","","","","","","","","","","","","","","","","","","","","","","","","","","","","","","","","","","","","",""
"702","<p style=""color:white; font-size: 35px;"">全能</p>","e","categorize-html","86","297664","0.0-6.0-0.0-6.0-1.13","3","3","4","3","4","3","3","4","4","4","4","4","5","3","4","4","4","3","3","5","3","3","4","4","4","4","4","4","4","1","0","0","0","0","1","1","0","0","0","0","0","0","0","0","4","1","4","2","3","","2","3","2","4","3","781446825898151937","李","413","","","","","","","","","","","","","","","","","","","true","3","3","ability","702","positive","全能","","","","","","","","","","","","","","","","",""
"null","","null","html-keyboard-response","87","297915","0.0-6.0-0.0-6.0-0.14","3","3","4","3","4","3","3","4","4","4","4","4","5","3","4","4","4","3","3","5","3","3","4","4","4","4","4","4","4","1","0","0","0","0","1","1","0","0","0","0","0","0","0","0","4","1","4","2","3","","2","3","2","4","3","781446825898151937","李","413","","","","","","","","","","","","","","","","","","","","","","","","","","","","","","","","","","","","","","","","","",""
"954","<p style=""color:rgb(150, 250, 100); font-size: 35px;"">自己</p>","i","categorize-html","88","298873","0.0-6.0-0.0-6.0-1.14","3","3","4","3","4","3","3","4","4","4","4","4","5","3","4","4","4","3","3","5","3","3","4","4","4","4","4","4","4","1","0","0","0","0","1","1","0","0","0","0","0","0","0","0","4","1","4","2","3","","2","3","2","4","3","781446825898151937","李","413","","","","","","","","","","","","","","","","","","","true","3","3","ability","954","self","自己","","","","","","","","","","","","","","","","",""
"null","","null","html-keyboard-response","89","299124","0.0-6.0-0.0-6.0-0.15","3","3","4","3","4","3","3","4","4","4","4","4","5","3","4","4","4","3","3","5","3","3","4","4","4","4","4","4","4","1","0","0","0","0","1","1","0","0","0","0","0","0","0","0","4","1","4","2","3","","2","3","2","4","3","781446825898151937","李","413","","","","","","","","","","","","","","","","","","","","","","","","","","","","","","","","","","","","","","","","","",""
"537","<p style=""color:white; font-size: 35px;"">无能</p>","i","categorize-html","90","299664","0.0-6.0-0.0-6.0-1.15","3","3","4","3","4","3","3","4","4","4","4","4","5","3","4","4","4","3","3","5","3","3","4","4","4","4","4","4","4","1","0","0","0","0","1","1","0","0","0","0","0","0","0","0","4","1","4","2","3","","2","3","2","4","3","781446825898151937","李","413","","","","","","","","","","","","","","","","","","","true","3","3","ability","537","negative","无能","","","","","","","","","","","","","","","","",""
"null","","null","html-keyboard-response","91","299915","0.0-6.0-0.0-6.0-0.16","3","3","4","3","4","3","3","4","4","4","4","4","5","3","4","4","4","3","3","5","3","3","4","4","4","4","4","4","4","1","0","0","0","0","1","1","0","0","0","0","0","0","0","0","4","1","4","2","3","","2","3","2","4","3","781446825898151937","李","413","","","","","","","","","","","","","","","","","","","","","","","","","","","","","","","","","","","","","","","","","",""
"1105","<p style=""color:rgb(150, 250, 100); font-size: 35px;"">本人</p>","i","categorize-html","92","301023","0.0-6.0-0.0-6.0-1.16","3","3","4","3","4","3","3","4","4","4","4","4","5","3","4","4","4","3","3","5","3","3","4","4","4","4","4","4","4","1","0","0","0","0","1","1","0","0","0","0","0","0","0","0","4","1","4","2","3","","2","3","2","4","3","781446825898151937","李","413","","","","","","","","","","","","","","","","","","","true","3","3","ability","1105","self","本人","","","","","","","","","","","","","","","","",""
"null","","null","html-keyboard-response","93","301274","0.0-6.0-0.0-6.0-0.17","3","3","4","3","4","3","3","4","4","4","4","4","5","3","4","4","4","3","3","5","3","3","4","4","4","4","4","4","4","1","0","0","0","0","1","1","0","0","0","0","0","0","0","0","4","1","4","2","3","","2","3","2","4","3","781446825898151937","李","413","","","","","","","","","","","","","","","","","","","","","","","","","","","","","","","","","","","","","","","","","",""
"684","<p style=""color:white; font-size: 35px;"">废物</p>","i","categorize-html","94","301962","0.0-6.0-0.0-6.0-1.17","3","3","4","3","4","3","3","4","4","4","4","4","5","3","4","4","4","3","3","5","3","3","4","4","4","4","4","4","4","1","0","0","0","0","1","1","0","0","0","0","0","0","0","0","4","1","4","2","3","","2","3","2","4","3","781446825898151937","李","413","","","","","","","","","","","","","","","","","","","true","3","3","ability","684","negative","废物","","","","","","","","","","","","","","","","",""
"null","","null","html-keyboard-response","95","302214","0.0-6.0-0.0-6.0-0.18","3","3","4","3","4","3","3","4","4","4","4","4","5","3","4","4","4","3","3","5","3","3","4","4","4","4","4","4","4","1","0","0","0","0","1","1","0","0","0","0","0","0","0","0","4","1","4","2","3","","2","3","2","4","3","781446825898151937","李","413","","","","","","","","","","","","","","","","","","","","","","","","","","","","","","","","","","","","","","","","","",""
"1402","<p style=""color:rgb(150, 250, 100); font-size: 35px;"">他的</p>","e","categorize-html","96","303619","0.0-6.0-0.0-6.0-1.18","3","3","4","3","4","3","3","4","4","4","4","4","5","3","4","4","4","3","3","5","3","3","4","4","4","4","4","4","4","1","0","0","0","0","1","1","0","0","0","0","0","0","0","0","4","1","4","2","3","","2","3","2","4","3","781446825898151937","李","413","","","","","","","","","","","","","","","","","","","true","3","3","ability","1402","other","他的","","","","","","","","","","","","","","","","",""
"null","","null","html-keyboard-response","97","303871","0.0-6.0-0.0-6.0-0.19","3","3","4","3","4","3","3","4","4","4","4","4","5","3","4","4","4","3","3","5","3","3","4","4","4","4","4","4","4","1","0","0","0","0","1","1","0","0","0","0","0","0","0","0","4","1","4","2","3","","2","3","2","4","3","781446825898151937","李","413","","","","","","","","","","","","","","","","","","","","","","","","","","","","","","","","","","","","","","","","","",""
"2336","<p style=""color:white; font-size: 35px;"">全才</p>","e","categorize-html","98","306210","0.0-6.0-0.0-6.0-1.19","3","3","4","3","4","3","3","4","4","4","4","4","5","3","4","4","4","3","3","5","3","3","4","4","4","4","4","4","4","1","0","0","0","0","1","1","0","0","0","0","0","0","0","0","4","1","4","2","3","","2","3","2","4","3","781446825898151937","李","413","","","","","","","","","","","","","","","","","","","true","3","3","ability","2336","positive","全才","","","","","","","","","","","","","","","","",""
"null","","null","html-keyboard-response","99","306461","0.0-6.0-0.0-6.0-0.20","3","3","4","3","4","3","3","4","4","4","4","4","5","3","4","4","4","3","3","5","3","3","4","4","4","4","4","4","4","1","0","0","0","0","1","1","0","0","0","0","0","0","0","0","4","1","4","2","3","","2","3","2","4","3","781446825898151937","李","413","","","","","","","","","","","","","","","","","","","","","","","","","","","","","","","","","","","","","","","","","",""
"909","<p style=""color:rgb(150, 250, 100); font-size: 35px;"">别人的</p>","e","categorize-html","100","307373","0.0-6.0-0.0-6.0-1.20","3","3","4","3","4","3","3","4","4","4","4","4","5","3","4","4","4","3","3","5","3","3","4","4","4","4","4","4","4","1","0","0","0","0","1","1","0","0","0","0","0","0","0","0","4","1","4","2","3","","2","3","2","4","3","781446825898151937","李","413","","","","","","","","","","","","","","","","","","","true","3","3","ability","909","other","别人的","","","","","","","","","","","","","","","","",""
"null","","null","html-keyboard-response","101","307625","0.0-6.0-0.0-6.0-0.21","3","3","4","3","4","3","3","4","4","4","4","4","5","3","4","4","4","3","3","5","3","3","4","4","4","4","4","4","4","1","0","0","0","0","1","1","0","0","0","0","0","0","0","0","4","1","4","2","3","","2","3","2","4","3","781446825898151937","李","413","","","","","","","","","","","","","","","","","","","","","","","","","","","","","","","","","","","","","","","","","",""
"970","<p style=""color:white; font-size: 35px;"">拙笨</p>","i","categorize-html","102","308600","0.0-6.0-0.0-6.0-1.21","3","3","4","3","4","3","3","4","4","4","4","4","5","3","4","4","4","3","3","5","3","3","4","4","4","4","4","4","4","1","0","0","0","0","1","1","0","0","0","0","0","0","0","0","4","1","4","2","3","","2","3","2","4","3","781446825898151937","李","413","","","","","","","","","","","","","","","","","","","true","3","3","ability","970","negative","拙笨","","","","","","","","","","","","","","","","",""
"null","","null","html-keyboard-response","103","308852","0.0-6.0-0.0-6.0-0.22","3","3","4","3","4","3","3","4","4","4","4","4","5","3","4","4","4","3","3","5","3","3","4","4","4","4","4","4","4","1","0","0","0","0","1","1","0","0","0","0","0","0","0","0","4","1","4","2","3","","2","3","2","4","3","781446825898151937","李","413","","","","","","","","","","","","","","","","","","","","","","","","","","","","","","","","","","","","","","","","","",""
"831","<p style=""color:rgb(150, 250, 100); font-size: 35px;"">我的</p>","i","categorize-html","104","309686","0.0-6.0-0.0-6.0-1.22","3","3","4","3","4","3","3","4","4","4","4","4","5","3","4","4","4","3","3","5","3","3","4","4","4","4","4","4","4","1","0","0","0","0","1","1","0","0","0","0","0","0","0","0","4","1","4","2","3","","2","3","2","4","3","781446825898151937","李","413","","","","","","","","","","","","","","","","","","","true","3","3","ability","831","self","我的","","","","","","","","","","","","","","","","",""
"null","","null","html-keyboard-response","105","309937","0.0-6.0-0.0-6.0-0.23","3","3","4","3","4","3","3","4","4","4","4","4","5","3","4","4","4","3","3","5","3","3","4","4","4","4","4","4","4","1","0","0","0","0","1","1","0","0","0","0","0","0","0","0","4","1","4","2","3","","2","3","2","4","3","781446825898151937","李","413","","","","","","","","","","","","","","","","","","","","","","","","","","","","","","","","","","","","","","","","","",""
"1367","<p style=""color:white; font-size: 35px;"">能干</p>","e","categorize-html","106","311307","0.0-6.0-0.0-6.0-1.23","3","3","4","3","4","3","3","4","4","4","4","4","5","3","4","4","4","3","3","5","3","3","4","4","4","4","4","4","4","1","0","0","0","0","1","1","0","0","0","0","0","0","0","0","4","1","4","2","3","","2","3","2","4","3","781446825898151937","李","413","","","","","","","","","","","","","","","","","","","true","3","3","ability","1367","positive","能干","","","","","","","","","","","","","","","","",""
"17436","
    <div class=""tag-bottom""><p>
    —— 任务4：对“他人/积极”词和“自我/消极”词分类 ——<p/>
    <span style=""color:#78DCE8""><b>与刚才的任务完全相同，请再次对这四类词语分类</b></span><p/>
    <span style=""color:#FFD866""><b>请根据上方标签的提示，尽可能正确并且快速地做出按键反应</b></span><p/>
    当按键错误时屏幕中会出现<span style=""color:red""> X </span>，需要按另一个键纠正才能继续<br/><p/>
    请把双手食指分别放在键盘的“E”键和“I”键上<p/>
    按<空格键>开始
    </p></div>"," ","html-keyboard-response","107","328744","0.0-6.0-0.0-7.0","3","3","4","3","4","3","3","4","4","4","4","4","5","3","4","4","4","3","3","5","3","3","4","4","4","4","4","4","4","1","0","0","0","0","1","1","0","0","0","0","0","0","0","0","4","1","4","2","3","","2","3","2","4","3","781446825898151937","李","413","","","","","","","","","","","","","","","","","","","","","","","","","","","","","","","","","","","","","","","","","",""
"null","","null","html-keyboard-response","108","328995","0.0-6.0-0.0-8.0-0.0","3","3","4","3","4","3","3","4","4","4","4","4","5","3","4","4","4","3","3","5","3","3","4","4","4","4","4","4","4","1","0","0","0","0","1","1","0","0","0","0","0","0","0","0","4","1","4","2","3","","2","3","2","4","3","781446825898151937","李","413","","","","","","","","","","","","","","","","","","","","","","","","","","","","","","","","","","","","","","","","","",""
"981","<p style=""color:rgb(150, 250, 100); font-size: 35px;"">我</p>","i","categorize-html","109","329980","0.0-6.0-0.0-8.0-1.0","3","3","4","3","4","3","3","4","4","4","4","4","5","3","4","4","4","3","3","5","3","3","4","4","4","4","4","4","4","1","0","0","0","0","1","1","0","0","0","0","0","0","0","0","4","1","4","2","3","","2","3","2","4","3","781446825898151937","李","413","","","","","","","","","","","","","","","","","","","true","4","4","ability","981","self","我","","","","","","","","","","","","","","","","",""
"null","","null","html-keyboard-response","110","330240","0.0-6.0-0.0-8.0-0.1","3","3","4","3","4","3","3","4","4","4","4","4","5","3","4","4","4","3","3","5","3","3","4","4","4","4","4","4","4","1","0","0","0","0","1","1","0","0","0","0","0","0","0","0","4","1","4","2","3","","2","3","2","4","3","781446825898151937","李","413","","","","","","","","","","","","","","","","","","","","","","","","","","","","","","","","","","","","","","","","","",""
"1311","<p style=""color:white; font-size: 35px;"">全能</p>","e","categorize-html","111","331554","0.0-6.0-0.0-8.0-1.1","3","3","4","3","4","3","3","4","4","4","4","4","5","3","4","4","4","3","3","5","3","3","4","4","4","4","4","4","4","1","0","0","0","0","1","1","0","0","0","0","0","0","0","0","4","1","4","2","3","","2","3","2","4","3","781446825898151937","李","413","","","","","","","","","","","","","","","","","","","true","4","4","ability","1311","positive","全能","","","","","","","","","","","","","","","","",""
"null","","null","html-keyboard-response","112","331805","0.0-6.0-0.0-8.0-0.2","3","3","4","3","4","3","3","4","4","4","4","4","5","3","4","4","4","3","3","5","3","3","4","4","4","4","4","4","4","1","0","0","0","0","1","1","0","0","0","0","0","0","0","0","4","1","4","2","3","","2","3","2","4","3","781446825898151937","李","413","","","","","","","","","","","","","","","","","","","","","","","","","","","","","","","","","","","","","","","","","",""
"945","<p style=""color:rgb(150, 250, 100); font-size: 35px;"">他的</p>","e","categorize-html","113","332754","0.0-6.0-0.0-8.0-1.2","3","3","4","3","4","3","3","4","4","4","4","4","5","3","4","4","4","3","3","5","3","3","4","4","4","4","4","4","4","1","0","0","0","0","1","1","0","0","0","0","0","0","0","0","4","1","4","2","3","","2","3","2","4","3","781446825898151937","李","413","","","","","","","","","","","","","","","","","","","true","4","4","ability","945","other","他的","","","","","","","","","","","","","","","","",""
"null","","null","html-keyboard-response","114","333005","0.0-6.0-0.0-8.0-0.3","3","3","4","3","4","3","3","4","4","4","4","4","5","3","4","4","4","3","3","5","3","3","4","4","4","4","4","4","4","1","0","0","0","0","1","1","0","0","0","0","0","0","0","0","4","1","4","2","3","","2","3","2","4","3","781446825898151937","李","413","","","","","","","","","","","","","","","","","","","","","","","","","","","","","","","","","","","","","","","","","",""
"1151","<p style=""color:white; font-size: 35px;"">低能</p>","i","categorize-html","115","334159","0.0-6.0-0.0-8.0-1.3","3","3","4","3","4","3","3","4","4","4","4","4","5","3","4","4","4","3","3","5","3","3","4","4","4","4","4","4","4","1","0","0","0","0","1","1","0","0","0","0","0","0","0","0","4","1","4","2","3","","2","3","2","4","3","781446825898151937","李","413","","","","","","","","","","","","","","","","","","","true","4","4","ability","1151","negative","低能","","","","","","","","","","","","","","","","",""
"null","","null","html-keyboard-response","116","334410","0.0-6.0-0.0-8.0-0.4","3","3","4","3","4","3","3","4","4","4","4","4","5","3","4","4","4","3","3","5","3","3","4","4","4","4","4","4","4","1","0","0","0","0","1","1","0","0","0","0","0","0","0","0","4","1","4","2","3","","2","3","2","4","3","781446825898151937","李","413","","","","","","","","","","","","","","","","","","","","","","","","","","","","","","","","","","","","","","","","","",""
"702","<p style=""color:rgb(150, 250, 100); font-size: 35px;"">我的</p>","i","categorize-html","117","335115","0.0-6.0-0.0-8.0-1.4","3","3","4","3","4","3","3","4","4","4","4","4","5","3","4","4","4","3","3","5","3","3","4","4","4","4","4","4","4","1","0","0","0","0","1","1","0","0","0","0","0","0","0","0","4","1","4","2","3","","2","3","2","4","3","781446825898151937","李","413","","","","","","","","","","","","","","","","","","","true","4","4","ability","702","self","我的","","","","","","","","","","","","","","","","",""
"null","","null","html-keyboard-response","118","335367","0.0-6.0-0.0-8.0-0.5","3","3","4","3","4","3","3","4","4","4","4","4","5","3","4","4","4","3","3","5","3","3","4","4","4","4","4","4","4","1","0","0","0","0","1","1","0","0","0","0","0","0","0","0","4","1","4","2","3","","2","3","2","4","3","781446825898151937","李","413","","","","","","","","","","","","","","","","","","","","","","","","","","","","","","","","","","","","","","","","","",""
"726","<p style=""color:white; font-size: 35px;"">全才</p>","e","categorize-html","119","336096","0.0-6.0-0.0-8.0-1.5","3","3","4","3","4","3","3","4","4","4","4","4","5","3","4","4","4","3","3","5","3","3","4","4","4","4","4","4","4","1","0","0","0","0","1","1","0","0","0","0","0","0","0","0","4","1","4","2","3","","2","3","2","4","3","781446825898151937","李","413","","","","","","","","","","","","","","","","","","","true","4","4","ability","726","positive","全才","","","","","","","","","","","","","","","","",""
"null","","null","html-keyboard-response","120","336349","0.0-6.0-0.0-8.0-0.6","3","3","4","3","4","3","3","4","4","4","4","4","5","3","4","4","4","3","3","5","3","3","4","4","4","4","4","4","4","1","0","0","0","0","1","1","0","0","0","0","0","0","0","0","4","1","4","2","3","","2","3","2","4","3","781446825898151937","李","413","","","","","","","","","","","","","","","","","","","","","","","","","","","","","","","","","","","","","","","","","",""
"3165","<p style=""color:rgb(150, 250, 100); font-size: 35px;"">别人的</p>","e","categorize-html","121","339517","0.0-6.0-0.0-8.0-1.6","3","3","4","3","4","3","3","4","4","4","4","4","5","3","4","4","4","3","3","5","3","3","4","4","4","4","4","4","4","1","0","0","0","0","1","1","0","0","0","0","0","0","0","0","4","1","4","2","3","","2","3","2","4","3","781446825898151937","李","413","","","","","","","","","","","","","","","","","","","true","4","4","ability","3165","other","别人的","","","","","","","","","","","","","","","","",""
"null","","null","html-keyboard-response","122","339768","0.0-6.0-0.0-8.0-0.7","3","3","4","3","4","3","3","4","4","4","4","4","5","3","4","4","4","3","3","5","3","3","4","4","4","4","4","4","4","1","0","0","0","0","1","1","0","0","0","0","0","0","0","0","4","1","4","2","3","","2","3","2","4","3","781446825898151937","李","413","","","","","","","","","","","","","","","","","","","","","","","","","","","","","","","","","","","","","","","","","",""
"857","<p style=""color:white; font-size: 35px;"">无能</p>","i","categorize-html","123","340628","0.0-6.0-0.0-8.0-1.7","3","3","4","3","4","3","3","4","4","4","4","4","5","3","4","4","4","3","3","5","3","3","4","4","4","4","4","4","4","1","0","0","0","0","1","1","0","0","0","0","0","0","0","0","4","1","4","2","3","","2","3","2","4","3","781446825898151937","李","413","","","","","","","","","","","","","","","","","","","true","4","4","ability","857","negative","无能","","","","","","","","","","","","","","","","",""
"null","","null","html-keyboard-response","124","340879","0.0-6.0-0.0-8.0-0.8","3","3","4","3","4","3","3","4","4","4","4","4","5","3","4","4","4","3","3","5","3","3","4","4","4","4","4","4","4","1","0","0","0","0","1","1","0","0","0","0","0","0","0","0","4","1","4","2","3","","2","3","2","4","3","781446825898151937","李","413","","","","","","","","","","","","","","","","","","","","","","","","","","","","","","","","","","","","","","","","","",""
"850","<p style=""color:rgb(150, 250, 100); font-size: 35px;"">他人</p>","e","categorize-html","125","341732","0.0-6.0-0.0-8.0-1.8","3","3","4","3","4","3","3","4","4","4","4","4","5","3","4","4","4","3","3","5","3","3","4","4","4","4","4","4","4","1","0","0","0","0","1","1","0","0","0","0","0","0","0","0","4","1","4","2","3","","2","3","2","4","3","781446825898151937","李","413","","","","","","","","","","","","","","","","","","","true","4","4","ability","850","other","他人","","","","","","","","","","","","","","","","",""
"null","","null","html-keyboard-response","126","341984","0.0-6.0-0.0-8.0-0.9","3","3","4","3","4","3","3","4","4","4","4","4","5","3","4","4","4","3","3","5","3","3","4","4","4","4","4","4","4","1","0","0","0","0","1","1","0","0","0","0","0","0","0","0","4","1","4","2","3","","2","3","2","4","3","781446825898151937","李","413","","","","","","","","","","","","","","","","","","","","","","","","","","","","","","","","","","","","","","","","","",""
"1463","<p style=""color:white; font-size: 35px;"">全能</p>","e","categorize-html","127","343450","0.0-6.0-0.0-8.0-1.9","3","3","4","3","4","3","3","4","4","4","4","4","5","3","4","4","4","3","3","5","3","3","4","4","4","4","4","4","4","1","0","0","0","0","1","1","0","0","0","0","0","0","0","0","4","1","4","2","3","","2","3","2","4","3","781446825898151937","李","413","","","","","","","","","","","","","","","","","","","true","4","4","ability","1463","positive","全能","","","","","","","","","","","","","","","","",""
"null","","null","html-keyboard-response","128","343701","0.0-6.0-0.0-8.0-0.10","3","3","4","3","4","3","3","4","4","4","4","4","5","3","4","4","4","3","3","5","3","3","4","4","4","4","4","4","4","1","0","0","0","0","1","1","0","0","0","0","0","0","0","0","4","1","4","2","3","","2","3","2","4","3","781446825898151937","李","413","","","","","","","","","","","","","","","","","","","","","","","","","","","","","","","","","","","","","","","","","",""
"876","<p style=""color:rgb(150, 250, 100); font-size: 35px;"">本人</p>","i","categorize-html","129","344580","0.0-6.0-0.0-8.0-1.10","3","3","4","3","4","3","3","4","4","4","4","4","5","3","4","4","4","3","3","5","3","3","4","4","4","4","4","4","4","1","0","0","0","0","1","1","0","0","0","0","0","0","0","0","4","1","4","2","3","","2","3","2","4","3","781446825898151937","李","413","","","","","","","","","","","","","","","","","","","true","4","4","ability","876","self","本人","","","","","","","","","","","","","","","","",""
"null","","null","html-keyboard-response","130","344831","0.0-6.0-0.0-8.0-0.11","3","3","4","3","4","3","3","4","4","4","4","4","5","3","4","4","4","3","3","5","3","3","4","4","4","4","4","4","4","1","0","0","0","0","1","1","0","0","0","0","0","0","0","0","4","1","4","2","3","","2","3","2","4","3","781446825898151937","李","413","","","","","","","","","","","","","","","","","","","","","","","","","","","","","","","","","","","","","","","","","",""
"864","<p style=""color:white; font-size: 35px;"">愚钝</p>","i","categorize-html","131","345698","0.0-6.0-0.0-8.0-1.11","3","3","4","3","4","3","3","4","4","4","4","4","5","3","4","4","4","3","3","5","3","3","4","4","4","4","4","4","4","1","0","0","0","0","1","1","0","0","0","0","0","0","0","0","4","1","4","2","3","","2","3","2","4","3","781446825898151937","李","413","","","","","","","","","","","","","","","","","","","true","4","4","ability","864","negative","愚钝","","","","","","","","","","","","","","","","",""
"null","","null","html-keyboard-response","132","345949","0.0-6.0-0.0-8.0-0.12","3","3","4","3","4","3","3","4","4","4","4","4","5","3","4","4","4","3","3","5","3","3","4","4","4","4","4","4","4","1","0","0","0","0","1","1","0","0","0","0","0","0","0","0","4","1","4","2","3","","2","3","2","4","3","781446825898151937","李","413","","","","","","","","","","","","","","","","","","","","","","","","","","","","","","","","","","","","","","","","","",""
"704","<p style=""color:rgb(150, 250, 100); font-size: 35px;"">别人</p>","e","categorize-html","133","346656","0.0-6.0-0.0-8.0-1.12","3","3","4","3","4","3","3","4","4","4","4","4","5","3","4","4","4","3","3","5","3","3","4","4","4","4","4","4","4","1","0","0","0","0","1","1","0","0","0","0","0","0","0","0","4","1","4","2","3","","2","3","2","4","3","781446825898151937","李","413","","","","","","","","","","","","","","","","","","","true","4","4","ability","704","other","别人","","","","","","","","","","","","","","","","",""
"null","","null","html-keyboard-response","134","346908","0.0-6.0-0.0-8.0-0.13","3","3","4","3","4","3","3","4","4","4","4","4","5","3","4","4","4","3","3","5","3","3","4","4","4","4","4","4","4","1","0","0","0","0","1","1","0","0","0","0","0","0","0","0","4","1","4","2","3","","2","3","2","4","3","781446825898151937","李","413","","","","","","","","","","","","","","","","","","","","","","","","","","","","","","","","","","","","","","","","","",""
"846","<p style=""color:white; font-size: 35px;"">低能</p>","i","categorize-html","135","347756","0.0-6.0-0.0-8.0-1.13","3","3","4","3","4","3","3","4","4","4","4","4","5","3","4","4","4","3","3","5","3","3","4","4","4","4","4","4","4","1","0","0","0","0","1","1","0","0","0","0","0","0","0","0","4","1","4","2","3","","2","3","2","4","3","781446825898151937","李","413","","","","","","","","","","","","","","","","","","","true","4","4","ability","846","negative","低能","","","","","","","","","","","","","","","","",""
"null","","null","html-keyboard-response","136","348008","0.0-6.0-0.0-8.0-0.14","3","3","4","3","4","3","3","4","4","4","4","4","5","3","4","4","4","3","3","5","3","3","4","4","4","4","4","4","4","1","0","0","0","0","1","1","0","0","0","0","0","0","0","0","4","1","4","2","3","","2","3","2","4","3","781446825898151937","李","413","","","","","","","","","","","","","","","","","","","","","","","","","","","","","","","","","","","","","","","","","",""
"1140","<p style=""color:rgb(150, 250, 100); font-size: 35px;"">本人</p>","i","categorize-html","137","349151","0.0-6.0-0.0-8.0-1.14","3","3","4","3","4","3","3","4","4","4","4","4","5","3","4","4","4","3","3","5","3","3","4","4","4","4","4","4","4","1","0","0","0","0","1","1","0","0","0","0","0","0","0","0","4","1","4","2","3","","2","3","2","4","3","781446825898151937","李","413","","","","","","","","","","","","","","","","","","","true","4","4","ability","1140","self","本人","","","","","","","","","","","","","","","","",""
"null","","null","html-keyboard-response","138","349402","0.0-6.0-0.0-8.0-0.15","3","3","4","3","4","3","3","4","4","4","4","4","5","3","4","4","4","3","3","5","3","3","4","4","4","4","4","4","4","1","0","0","0","0","1","1","0","0","0","0","0","0","0","0","4","1","4","2","3","","2","3","2","4","3","781446825898151937","李","413","","","","","","","","","","","","","","","","","","","","","","","","","","","","","","","","","","","","","","","","","",""
"1062","<p style=""color:white; font-size: 35px;"">全才</p>","e","categorize-html","139","350468","0.0-6.0-0.0-8.0-1.15","3","3","4","3","4","3","3","4","4","4","4","4","5","3","4","4","4","3","3","5","3","3","4","4","4","4","4","4","4","1","0","0","0","0","1","1","0","0","0","0","0","0","0","0","4","1","4","2","3","","2","3","2","4","3","781446825898151937","李","413","","","","","","","","","","","","","","","","","","","true","4","4","ability","1062","positive","全才","","","","","","","","","","","","","","","","",""
"null","","null","html-keyboard-response","140","350720","0.0-6.0-0.0-8.0-0.16","3","3","4","3","4","3","3","4","4","4","4","4","5","3","4","4","4","3","3","5","3","3","4","4","4","4","4","4","4","1","0","0","0","0","1","1","0","0","0","0","0","0","0","0","4","1","4","2","3","","2","3","2","4","3","781446825898151937","李","413","","","","","","","","","","","","","","","","","","","","","","","","","","","","","","","","","","","","","","","","","",""
"2812","<p style=""color:rgb(150, 250, 100); font-size: 35px;"">别人的</p>","e","categorize-html","141","353536","0.0-6.0-0.0-8.0-1.16","3","3","4","3","4","3","3","4","4","4","4","4","5","3","4","4","4","3","3","5","3","3","4","4","4","4","4","4","4","1","0","0","0","0","1","1","0","0","0","0","0","0","0","0","4","1","4","2","3","","2","3","2","4","3","781446825898151937","李","413","","","","","","","","","","","","","","","","","","","true","4","4","ability","2812","other","别人的","","","","","","","","","","","","","","","","",""
"null","","null","html-keyboard-response","142","353786","0.0-6.0-0.0-8.0-0.17","3","3","4","3","4","3","3","4","4","4","4","4","5","3","4","4","4","3","3","5","3","3","4","4","4","4","4","4","4","1","0","0","0","0","1","1","0","0","0","0","0","0","0","0","4","1","4","2","3","","2","3","2","4","3","781446825898151937","李","413","","","","","","","","","","","","","","","","","","","","","","","","","","","","","","","","","","","","","","","","","",""
"1052","<p style=""color:white; font-size: 35px;"">拙笨</p>","i","categorize-html","143","354841","0.0-6.0-0.0-8.0-1.17","3","3","4","3","4","3","3","4","4","4","4","4","5","3","4","4","4","3","3","5","3","3","4","4","4","4","4","4","4","1","0","0","0","0","1","1","0","0","0","0","0","0","0","0","4","1","4","2","3","","2","3","2","4","3","781446825898151937","李","413","","","","","","","","","","","","","","","","","","","true","4","4","ability","1052","negative","拙笨","","","","","","","","","","","","","","","","",""
"null","","null","html-keyboard-response","144","355092","0.0-6.0-0.0-8.0-0.18","3","3","4","3","4","3","3","4","4","4","4","4","5","3","4","4","4","3","3","5","3","3","4","4","4","4","4","4","4","1","0","0","0","0","1","1","0","0","0","0","0","0","0","0","4","1","4","2","3","","2","3","2","4","3","781446825898151937","李","413","","","","","","","","","","","","","","","","","","","","","","","","","","","","","","","","","","","","","","","","","",""
"876","<p style=""color:rgb(150, 250, 100); font-size: 35px;"">自己的</p>","i","categorize-html","145","355972","0.0-6.0-0.0-8.0-1.18","3","3","4","3","4","3","3","4","4","4","4","4","5","3","4","4","4","3","3","5","3","3","4","4","4","4","4","4","4","1","0","0","0","0","1","1","0","0","0","0","0","0","0","0","4","1","4","2","3","","2","3","2","4","3","781446825898151937","李","413","","","","","","","","","","","","","","","","","","","true","4","4","ability","876","self","自己的","","","","","","","","","","","","","","","","",""
"null","","null","html-keyboard-response","146","356223","0.0-6.0-0.0-8.0-0.19","3","3","4","3","4","3","3","4","4","4","4","4","5","3","4","4","4","3","3","5","3","3","4","4","4","4","4","4","4","1","0","0","0","0","1","1","0","0","0","0","0","0","0","0","4","1","4","2","3","","2","3","2","4","3","781446825898151937","李","413","","","","","","","","","","","","","","","","","","","","","","","","","","","","","","","","","","","","","","","","","",""
"640","<p style=""color:white; font-size: 35px;"">精干</p>","e","categorize-html","147","356866","0.0-6.0-0.0-8.0-1.19","3","3","4","3","4","3","3","4","4","4","4","4","5","3","4","4","4","3","3","5","3","3","4","4","4","4","4","4","4","1","0","0","0","0","1","1","0","0","0","0","0","0","0","0","4","1","4","2","3","","2","3","2","4","3","781446825898151937","李","413","","","","","","","","","","","","","","","","","","","true","4","4","ability","640","positive","精干","","","","","","","","","","","","","","","","",""
"null","","null","html-keyboard-response","148","357118","0.0-6.0-0.0-8.0-0.20","3","3","4","3","4","3","3","4","4","4","4","4","5","3","4","4","4","3","3","5","3","3","4","4","4","4","4","4","4","1","0","0","0","0","1","1","0","0","0","0","0","0","0","0","4","1","4","2","3","","2","3","2","4","3","781446825898151937","李","413","","","","","","","","","","","","","","","","","","","","","","","","","","","","","","","","","","","","","","","","","",""
"805","<p style=""color:rgb(150, 250, 100); font-size: 35px;"">他人的</p>","e","categorize-html","149","357925","0.0-6.0-0.0-8.0-1.20","3","3","4","3","4","3","3","4","4","4","4","4","5","3","4","4","4","3","3","5","3","3","4","4","4","4","4","4","4","1","0","0","0","0","1","1","0","0","0","0","0","0","0","0","4","1","4","2","3","","2","3","2","4","3","781446825898151937","李","413","","","","","","","","","","","","","","","","","","","true","4","4","ability","805","other","他人的","","","","","","","","","","","","","","","","",""
"null","","null","html-keyboard-response","150","358177","0.0-6.0-0.0-8.0-0.21","3","3","4","3","4","3","3","4","4","4","4","4","5","3","4","4","4","3","3","5","3","3","4","4","4","4","4","4","4","1","0","0","0","0","1","1","0","0","0","0","0","0","0","0","4","1","4","2","3","","2","3","2","4","3","781446825898151937","李","413","","","","","","","","","","","","","","","","","","","","","","","","","","","","","","","","","","","","","","","","","",""
"1656","<p style=""color:white; font-size: 35px;"">愚钝</p>","i","categorize-html","151","359835","0.0-6.0-0.0-8.0-1.21","3","3","4","3","4","3","3","4","4","4","4","4","5","3","4","4","4","3","3","5","3","3","4","4","4","4","4","4","4","1","0","0","0","0","1","1","0","0","0","0","0","0","0","0","4","1","4","2","3","","2","3","2","4","3","781446825898151937","李","413","","","","","","","","","","","","","","","","","","","true","4","4","ability","1656","negative","愚钝","","","","","","","","","","","","","","","","",""
"null","","null","html-keyboard-response","152","360087","0.0-6.0-0.0-8.0-0.22","3","3","4","3","4","3","3","4","4","4","4","4","5","3","4","4","4","3","3","5","3","3","4","4","4","4","4","4","4","1","0","0","0","0","1","1","0","0","0","0","0","0","0","0","4","1","4","2","3","","2","3","2","4","3","781446825898151937","李","413","","","","","","","","","","","","","","","","","","","","","","","","","","","","","","","","","","","","","","","","","",""
"621","<p style=""color:rgb(150, 250, 100); font-size: 35px;"">自己</p>","i","categorize-html","153","360711","0.0-6.0-0.0-8.0-1.22","3","3","4","3","4","3","3","4","4","4","4","4","5","3","4","4","4","3","3","5","3","3","4","4","4","4","4","4","4","1","0","0","0","0","1","1","0","0","0","0","0","0","0","0","4","1","4","2","3","","2","3","2","4","3","781446825898151937","李","413","","","","","","","","","","","","","","","","","","","true","4","4","ability","621","self","自己","","","","","","","","","","","","","","","","",""
"null","","null","html-keyboard-response","154","360963","0.0-6.0-0.0-8.0-0.23","3","3","4","3","4","3","3","4","4","4","4","4","5","3","4","4","4","3","3","5","3","3","4","4","4","4","4","4","4","1","0","0","0","0","1","1","0","0","0","0","0","0","0","0","4","1","4","2","3","","2","3","2","4","3","781446825898151937","李","413","","","","","","","","","","","","","","","","","","","","","","","","","","","","","","","","","","","","","","","","","",""
"985","<p style=""color:white; font-size: 35px;"">天才</p>","e","categorize-html","155","361951","0.0-6.0-0.0-8.0-1.23","3","3","4","3","4","3","3","4","4","4","4","4","5","3","4","4","4","3","3","5","3","3","4","4","4","4","4","4","4","1","0","0","0","0","1","1","0","0","0","0","0","0","0","0","4","1","4","2","3","","2","3","2","4","3","781446825898151937","李","413","","","","","","","","","","","","","","","","","","","true","4","4","ability","985","positive","天才","","","","","","","","","","","","","","","","",""
"null","","null","html-keyboard-response","156","362202","0.0-6.0-0.0-8.0-0.24","3","3","4","3","4","3","3","4","4","4","4","4","5","3","4","4","4","3","3","5","3","3","4","4","4","4","4","4","4","1","0","0","0","0","1","1","0","0","0","0","0","0","0","0","4","1","4","2","3","","2","3","2","4","3","781446825898151937","李","413","","","","","","","","","","","","","","","","","","","","","","","","","","","","","","","","","","","","","","","","","",""
"696","<p style=""color:rgb(150, 250, 100); font-size: 35px;"">自己的</p>","i","categorize-html","157","362900","0.0-6.0-0.0-8.0-1.24","3","3","4","3","4","3","3","4","4","4","4","4","5","3","4","4","4","3","3","5","3","3","4","4","4","4","4","4","4","1","0","0","0","0","1","1","0","0","0","0","0","0","0","0","4","1","4","2","3","","2","3","2","4","3","781446825898151937","李","413","","","","","","","","","","","","","","","","","","","true","4","4","ability","696","self","自己的","","","","","","","","","","","","","","","","",""
"null","","null","html-keyboard-response","158","363152","0.0-6.0-0.0-8.0-0.25","3","3","4","3","4","3","3","4","4","4","4","4","5","3","4","4","4","3","3","5","3","3","4","4","4","4","4","4","4","1","0","0","0","0","1","1","0","0","0","0","0","0","0","0","4","1","4","2","3","","2","3","2","4","3","781446825898151937","李","413","","","","","","","","","","","","","","","","","","","","","","","","","","","","","","","","","","","","","","","","","",""
"3918","<p style=""color:white; font-size: 35px;"">蠢笨</p>","i","categorize-html","159","367073","0.0-6.0-0.0-8.0-1.25","3","3","4","3","4","3","3","4","4","4","4","4","5","3","4","4","4","3","3","5","3","3","4","4","4","4","4","4","4","1","0","0","0","0","1","1","0","0","0","0","0","0","0","0","4","1","4","2","3","","2","3","2","4","3","781446825898151937","李","413","","","","","","","","","","","","","","","","","","","true","4","4","ability","3918","negative","蠢笨","","","","","","","","","","","","","","","","",""
"null","","null","html-keyboard-response","160","367325","0.0-6.0-0.0-8.0-0.26","3","3","4","3","4","3","3","4","4","4","4","4","5","3","4","4","4","3","3","5","3","3","4","4","4","4","4","4","4","1","0","0","0","0","1","1","0","0","0","0","0","0","0","0","4","1","4","2","3","","2","3","2","4","3","781446825898151937","李","413","","","","","","","","","","","","","","","","","","","","","","","","","","","","","","","","","","","","","","","","","",""
"750","<p style=""color:rgb(150, 250, 100); font-size: 35px;"">他人</p>","e","categorize-html","161","368078","0.0-6.0-0.0-8.0-1.26","3","3","4","3","4","3","3","4","4","4","4","4","5","3","4","4","4","3","3","5","3","3","4","4","4","4","4","4","4","1","0","0","0","0","1","1","0","0","0","0","0","0","0","0","4","1","4","2","3","","2","3","2","4","3","781446825898151937","李","413","","","","","","","","","","","","","","","","","","","true","4","4","ability","750","other","他人","","","","","","","","","","","","","","","","",""
"null","","null","html-keyboard-response","162","368329","0.0-6.0-0.0-8.0-0.27","3","3","4","3","4","3","3","4","4","4","4","4","5","3","4","4","4","3","3","5","3","3","4","4","4","4","4","4","4","1","0","0","0","0","1","1","0","0","0","0","0","0","0","0","4","1","4","2","3","","2","3","2","4","3","781446825898151937","李","413","","","","","","","","","","","","","","","","","","","","","","","","","","","","","","","","","","","","","","","","","",""
"758","<p style=""color:white; font-size: 35px;"">能干</p>","e","categorize-html","163","369090","0.0-6.0-0.0-8.0-1.27","3","3","4","3","4","3","3","4","4","4","4","4","5","3","4","4","4","3","3","5","3","3","4","4","4","4","4","4","4","1","0","0","0","0","1","1","0","0","0","0","0","0","0","0","4","1","4","2","3","","2","3","2","4","3","781446825898151937","李","413","","","","","","","","","","","","","","","","","","","true","4","4","ability","758","positive","能干","","","","","","","","","","","","","","","","",""
"null","","null","html-keyboard-response","164","369341","0.0-6.0-0.0-8.0-0.28","3","3","4","3","4","3","3","4","4","4","4","4","5","3","4","4","4","3","3","5","3","3","4","4","4","4","4","4","4","1","0","0","0","0","1","1","0","0","0","0","0","0","0","0","4","1","4","2","3","","2","3","2","4","3","781446825898151937","李","413","","","","","","","","","","","","","","","","","","","","","","","","","","","","","","","","","","","","","","","","","",""
"628","<p style=""color:rgb(150, 250, 100); font-size: 35px;"">他人的</p>","e","categorize-html","165","369972","0.0-6.0-0.0-8.0-1.28","3","3","4","3","4","3","3","4","4","4","4","4","5","3","4","4","4","3","3","5","3","3","4","4","4","4","4","4","4","1","0","0","0","0","1","1","0","0","0","0","0","0","0","0","4","1","4","2","3","","2","3","2","4","3","781446825898151937","李","413","","","","","","","","","","","","","","","","","","","true","4","4","ability","628","other","他人的","","","","","","","","","","","","","","","","",""
"null","","null","html-keyboard-response","166","370223","0.0-6.0-0.0-8.0-0.29","3","3","4","3","4","3","3","4","4","4","4","4","5","3","4","4","4","3","3","5","3","3","4","4","4","4","4","4","4","1","0","0","0","0","1","1","0","0","0","0","0","0","0","0","4","1","4","2","3","","2","3","2","4","3","781446825898151937","李","413","","","","","","","","","","","","","","","","","","","","","","","","","","","","","","","","","","","","","","","","","",""
"782","<p style=""color:white; font-size: 35px;"">拙笨</p>","i","categorize-html","167","371008","0.0-6.0-0.0-8.0-1.29","3","3","4","3","4","3","3","4","4","4","4","4","5","3","4","4","4","3","3","5","3","3","4","4","4","4","4","4","4","1","0","0","0","0","1","1","0","0","0","0","0","0","0","0","4","1","4","2","3","","2","3","2","4","3","781446825898151937","李","413","","","","","","","","","","","","","","","","","","","true","4","4","ability","782","negative","拙笨","","","","","","","","","","","","","","","","",""
"null","","null","html-keyboard-response","168","371259","0.0-6.0-0.0-8.0-0.30","3","3","4","3","4","3","3","4","4","4","4","4","5","3","4","4","4","3","3","5","3","3","4","4","4","4","4","4","4","1","0","0","0","0","1","1","0","0","0","0","0","0","0","0","4","1","4","2","3","","2","3","2","4","3","781446825898151937","李","413","","","","","","","","","","","","","","","","","","","","","","","","","","","","","","","","","","","","","","","","","",""
"705","<p style=""color:rgb(150, 250, 100); font-size: 35px;"">我</p>","i","categorize-html","169","371967","0.0-6.0-0.0-8.0-1.30","3","3","4","3","4","3","3","4","4","4","4","4","5","3","4","4","4","3","3","5","3","3","4","4","4","4","4","4","4","1","0","0","0","0","1","1","0","0","0","0","0","0","0","0","4","1","4","2","3","","2","3","2","4","3","781446825898151937","李","413","","","","","","","","","","","","","","","","","","","true","4","4","ability","705","self","我","","","","","","","","","","","","","","","","",""
"null","","null","html-keyboard-response","170","372218","0.0-6.0-0.0-8.0-0.31","3","3","4","3","4","3","3","4","4","4","4","4","5","3","4","4","4","3","3","5","3","3","4","4","4","4","4","4","4","1","0","0","0","0","1","1","0","0","0","0","0","0","0","0","4","1","4","2","3","","2","3","2","4","3","781446825898151937","李","413","","","","","","","","","","","","","","","","","","","","","","","","","","","","","","","","","","","","","","","","","",""
"1420","<p style=""color:white; font-size: 35px;"">高效</p>","e","categorize-html","171","373641","0.0-6.0-0.0-8.0-1.31","3","3","4","3","4","3","3","4","4","4","4","4","5","3","4","4","4","3","3","5","3","3","4","4","4","4","4","4","4","1","0","0","0","0","1","1","0","0","0","0","0","0","0","0","4","1","4","2","3","","2","3","2","4","3","781446825898151937","李","413","","","","","","","","","","","","","","","","","","","true","4","4","ability","1420","positive","高效","","","","","","","","","","","","","","","","",""
"null","","null","html-keyboard-response","172","373893","0.0-6.0-0.0-8.0-0.32","3","3","4","3","4","3","3","4","4","4","4","4","5","3","4","4","4","3","3","5","3","3","4","4","4","4","4","4","4","1","0","0","0","0","1","1","0","0","0","0","0","0","0","0","4","1","4","2","3","","2","3","2","4","3","781446825898151937","李","413","","","","","","","","","","","","","","","","","","","","","","","","","","","","","","","","","","","","","","","","","",""
"699","<p style=""color:rgb(150, 250, 100); font-size: 35px;"">他</p>","e","categorize-html","173","374594","0.0-6.0-0.0-8.0-1.32","3","3","4","3","4","3","3","4","4","4","4","4","5","3","4","4","4","3","3","5","3","3","4","4","4","4","4","4","4","1","0","0","0","0","1","1","0","0","0","0","0","0","0","0","4","1","4","2","3","","2","3","2","4","3","781446825898151937","李","413","","","","","","","","","","","","","","","","","","","true","4","4","ability","699","other","他","","","","","","","","","","","","","","","","",""
"null","","null","html-keyboard-response","174","374846","0.0-6.0-0.0-8.0-0.33","3","3","4","3","4","3","3","4","4","4","4","4","5","3","4","4","4","3","3","5","3","3","4","4","4","4","4","4","4","1","0","0","0","0","1","1","0","0","0","0","0","0","0","0","4","1","4","2","3","","2","3","2","4","3","781446825898151937","李","413","","","","","","","","","","","","","","","","","","","","","","","","","","","","","","","","","","","","","","","","","",""
"624","<p style=""color:white; font-size: 35px;"">天才</p>","e","categorize-html","175","375472","0.0-6.0-0.0-8.0-1.33","3","3","4","3","4","3","3","4","4","4","4","4","5","3","4","4","4","3","3","5","3","3","4","4","4","4","4","4","4","1","0","0","0","0","1","1","0","0","0","0","0","0","0","0","4","1","4","2","3","","2","3","2","4","3","781446825898151937","李","413","","","","","","","","","","","","","","","","","","","true","4","4","ability","624","positive","天才","","","","","","","","","","","","","","","","",""
"null","","null","html-keyboard-response","176","375723","0.0-6.0-0.0-8.0-0.34","3","3","4","3","4","3","3","4","4","4","4","4","5","3","4","4","4","3","3","5","3","3","4","4","4","4","4","4","4","1","0","0","0","0","1","1","0","0","0","0","0","0","0","0","4","1","4","2","3","","2","3","2","4","3","781446825898151937","李","413","","","","","","","","","","","","","","","","","","","","","","","","","","","","","","","","","","","","","","","","","",""
"567","<p style=""color:rgb(150, 250, 100); font-size: 35px;"">自己</p>","i","categorize-html","177","376294","0.0-6.0-0.0-8.0-1.34","3","3","4","3","4","3","3","4","4","4","4","4","5","3","4","4","4","3","3","5","3","3","4","4","4","4","4","4","4","1","0","0","0","0","1","1","0","0","0","0","0","0","0","0","4","1","4","2","3","","2","3","2","4","3","781446825898151937","李","413","","","","","","","","","","","","","","","","","","","true","4","4","ability","567","self","自己","","","","","","","","","","","","","","","","",""
"null","","null","html-keyboard-response","178","376546","0.0-6.0-0.0-8.0-0.35","3","3","4","3","4","3","3","4","4","4","4","4","5","3","4","4","4","3","3","5","3","3","4","4","4","4","4","4","4","1","0","0","0","0","1","1","0","0","0","0","0","0","0","0","4","1","4","2","3","","2","3","2","4","3","781446825898151937","李","413","","","","","","","","","","","","","","","","","","","","","","","","","","","","","","","","","","","","","","","","","",""
"738","<p style=""color:white; font-size: 35px;"">废物</p>","i","categorize-html","179","377287","0.0-6.0-0.0-8.0-1.35","3","3","4","3","4","3","3","4","4","4","4","4","5","3","4","4","4","3","3","5","3","3","4","4","4","4","4","4","4","1","0","0","0","0","1","1","0","0","0","0","0","0","0","0","4","1","4","2","3","","2","3","2","4","3","781446825898151937","李","413","","","","","","","","","","","","","","","","","","","true","4","4","ability","738","negative","废物","","","","","","","","","","","","","","","","",""
"null","","null","html-keyboard-response","180","377539","0.0-6.0-0.0-8.0-0.36","3","3","4","3","4","3","3","4","4","4","4","4","5","3","4","4","4","3","3","5","3","3","4","4","4","4","4","4","4","1","0","0","0","0","1","1","0","0","0","0","0","0","0","0","4","1","4","2","3","","2","3","2","4","3","781446825898151937","李","413","","","","","","","","","","","","","","","","","","","","","","","","","","","","","","","","","","","","","","","","","",""
"653","<p style=""color:rgb(150, 250, 100); font-size: 35px;"">他</p>","e","categorize-html","181","378195","0.0-6.0-0.0-8.0-1.36","3","3","4","3","4","3","3","4","4","4","4","4","5","3","4","4","4","3","3","5","3","3","4","4","4","4","4","4","4","1","0","0","0","0","1","1","0","0","0","0","0","0","0","0","4","1","4","2","3","","2","3","2","4","3","781446825898151937","李","413","","","","","","","","","","","","","","","","","","","true","4","4","ability","653","other","他","","","","","","","","","","","","","","","","",""
"null","","null","html-keyboard-response","182","378447","0.0-6.0-0.0-8.0-0.37","3","3","4","3","4","3","3","4","4","4","4","4","5","3","4","4","4","3","3","5","3","3","4","4","4","4","4","4","4","1","0","0","0","0","1","1","0","0","0","0","0","0","0","0","4","1","4","2","3","","2","3","2","4","3","781446825898151937","李","413","","","","","","","","","","","","","","","","","","","","","","","","","","","","","","","","","","","","","","","","","",""
"2209","<p style=""color:white; font-size: 35px;"">高效</p>","e","categorize-html","183","380659","0.0-6.0-0.0-8.0-1.37","3","3","4","3","4","3","3","4","4","4","4","4","5","3","4","4","4","3","3","5","3","3","4","4","4","4","4","4","4","1","0","0","0","0","1","1","0","0","0","0","0","0","0","0","4","1","4","2","3","","2","3","2","4","3","781446825898151937","李","413","","","","","","","","","","","","","","","","","","","true","4","4","ability","2209","positive","高效","","","","","","","","","","","","","","","","",""
"null","","null","html-keyboard-response","184","380911","0.0-6.0-0.0-8.0-0.38","3","3","4","3","4","3","3","4","4","4","4","4","5","3","4","4","4","3","3","5","3","3","4","4","4","4","4","4","4","1","0","0","0","0","1","1","0","0","0","0","0","0","0","0","4","1","4","2","3","","2","3","2","4","3","781446825898151937","李","413","","","","","","","","","","","","","","","","","","","","","","","","","","","","","","","","","","","","","","","","","",""
"618","<p style=""color:rgb(150, 250, 100); font-size: 35px;"">本人的</p>","i","categorize-html","185","381532","0.0-6.0-0.0-8.0-1.38","3","3","4","3","4","3","3","4","4","4","4","4","5","3","4","4","4","3","3","5","3","3","4","4","4","4","4","4","4","1","0","0","0","0","1","1","0","0","0","0","0","0","0","0","4","1","4","2","3","","2","3","2","4","3","781446825898151937","李","413","","","","","","","","","","","","","","","","","","","true","4","4","ability","618","self","本人的","","","","","","","","","","","","","","","","",""
"null","","null","html-keyboard-response","186","381783","0.0-6.0-0.0-8.0-0.39","3","3","4","3","4","3","3","4","4","4","4","4","5","3","4","4","4","3","3","5","3","3","4","4","4","4","4","4","4","1","0","0","0","0","1","1","0","0","0","0","0","0","0","0","4","1","4","2","3","","2","3","2","4","3","781446825898151937","李","413","","","","","","","","","","","","","","","","","","","","","","","","","","","","","","","","","","","","","","","","","",""
"1536","<p style=""color:white; font-size: 35px;"">无能</p>","i","categorize-html","187","383321","0.0-6.0-0.0-8.0-1.39","3","3","4","3","4","3","3","4","4","4","4","4","5","3","4","4","4","3","3","5","3","3","4","4","4","4","4","4","4","1","0","0","0","0","1","1","0","0","0","0","0","0","0","0","4","1","4","2","3","","2","3","2","4","3","781446825898151937","李","413","","","","","","","","","","","","","","","","","","","true","4","4","ability","1536","negative","无能","","","","","","","","","","","","","","","","",""
"null","","null","html-keyboard-response","188","383573","0.0-6.0-0.0-8.0-0.40","3","3","4","3","4","3","3","4","4","4","4","4","5","3","4","4","4","3","3","5","3","3","4","4","4","4","4","4","4","1","0","0","0","0","1","1","0","0","0","0","0","0","0","0","4","1","4","2","3","","2","3","2","4","3","781446825898151937","李","413","","","","","","","","","","","","","","","","","","","","","","","","","","","","","","","","","","","","","","","","","",""
"845","<p style=""color:rgb(150, 250, 100); font-size: 35px;"">别人</p>","e","categorize-html","189","384421","0.0-6.0-0.0-8.0-1.40","3","3","4","3","4","3","3","4","4","4","4","4","5","3","4","4","4","3","3","5","3","3","4","4","4","4","4","4","4","1","0","0","0","0","1","1","0","0","0","0","0","0","0","0","4","1","4","2","3","","2","3","2","4","3","781446825898151937","李","413","","","","","","","","","","","","","","","","","","","true","4","4","ability","845","other","别人","","","","","","","","","","","","","","","","",""
"null","","null","html-keyboard-response","190","384673","0.0-6.0-0.0-8.0-0.41","3","3","4","3","4","3","3","4","4","4","4","4","5","3","4","4","4","3","3","5","3","3","4","4","4","4","4","4","4","1","0","0","0","0","1","1","0","0","0","0","0","0","0","0","4","1","4","2","3","","2","3","2","4","3","781446825898151937","李","413","","","","","","","","","","","","","","","","","","","","","","","","","","","","","","","","","","","","","","","","","",""
"707","<p style=""color:white; font-size: 35px;"">能干</p>","e","categorize-html","191","385384","0.0-6.0-0.0-8.0-1.41","3","3","4","3","4","3","3","4","4","4","4","4","5","3","4","4","4","3","3","5","3","3","4","4","4","4","4","4","4","1","0","0","0","0","1","1","0","0","0","0","0","0","0","0","4","1","4","2","3","","2","3","2","4","3","781446825898151937","李","413","","","","","","","","","","","","","","","","","","","true","4","4","ability","707","positive","能干","","","","","","","","","","","","","","","","",""
"null","","null","html-keyboard-response","192","385635","0.0-6.0-0.0-8.0-0.42","3","3","4","3","4","3","3","4","4","4","4","4","5","3","4","4","4","3","3","5","3","3","4","4","4","4","4","4","4","1","0","0","0","0","1","1","0","0","0","0","0","0","0","0","4","1","4","2","3","","2","3","2","4","3","781446825898151937","李","413","","","","","","","","","","","","","","","","","","","","","","","","","","","","","","","","","","","","","","","","","",""
"810","<p style=""color:rgb(150, 250, 100); font-size: 35px;"">本人的</p>","i","categorize-html","193","386448","0.0-6.0-0.0-8.0-1.42","3","3","4","3","4","3","3","4","4","4","4","4","5","3","4","4","4","3","3","5","3","3","4","4","4","4","4","4","4","1","0","0","0","0","1","1","0","0","0","0","0","0","0","0","4","1","4","2","3","","2","3","2","4","3","781446825898151937","李","413","","","","","","","","","","","","","","","","","","","true","4","4","ability","810","self","本人的","","","","","","","","","","","","","","","","",""
