"rt","stimulus","response","trial_type","trial_index","time_elapsed","internal_node_id","ses_1","ses_2","ses_3","ses_4","ses_5","ses_6","ses_7","ses_8","ses_9","ses_10","coreself_1","coreself_2","coreself_3","coreself_4","coreself_5","coreself_6","coreself_7","coreself_8","coreself_9","coreself_10","SGPS_1","SGPS_2","SGPS_3","SGPS_4","SGPS_5","SGPS_6","SGPS_7","SGPS_8","SGPS_9","NPI1","NPI2","NPI3","NPI4","NPI5","NPI6","NPI7","NPI8","NPI9","NPI10","NPI11","NPI12","NPI13","NPI14","NPI15","hsns_1","hsns_2","hsns_3","hsns_4","hsns_5","trap1","hsns_6","hsns_7","hsns_8","hsns_9","hsns_10","subj_idx","friend_name","ParticipantID","value","success","user_agent","responses","item_order","radio_event_ids","radio_event_times","key_event_times","mouse_event_times","straightlining","zigzagging","honeypot","timeout","failed_images","failed_audio","failed_video","version_attrib2","version_target2","correct","IAT","screen_id","task_id","RT","condition","word","varname","summary","version_attrib","version_target","time_stamp","view_history","response_type","key_press","avg_frame_time","center_x","center_y","correct_response","identity","Image","question_order","correct_answer","trap1_item"
"9726","
   <p><div style = ""color: white;font-size:25px;"">您好，欢迎参加本次实验。</div> </p>
   <p><div style = ""color: white;font-size:25px;"">为充分保障您的权利，请确保您已经知晓并同意《参与实验同意书》以及《数据公开知情同意书》。</div></p>
   <p><div style = ""color: white;font-size:25px;"">如果您未见过上述内容，请咨询实验员。</div></p>
   <p><div style = ""color: white;font-size:25px;"">如果您选择继续实验，则表示您已经清楚两份知情同意书的内容并同意。</div></p>
   <p><div style = ""color: pink;font-size:30px;"">请确保您记得day0的实验编号，您将在本次实验输入该编号，若您忘记，请咨询实验员后作答。</div></p>
   <p><div style = ""color: lightblue;font-size:25px;"">请您尽可能认真地作答，我们将依据您在各问卷和按键任务中的作答质量发放报酬。</div></p>
   <p> <div style = ""color: green;font-size:25px;""><按空格键至下页></div> </p>
   "," ","html-keyboard-response","0","9729","0.0-0.0","2","2","2","2","2","1","1","1","2","1","3","1","2","3","2","2","2","2","3","2","5","5","4","4","3","3","2","4","4","1","1","1","0","0","1","0","1","1","0","0","0","1","0","1","3","5","5","2","4","4","5","4","2","2","3","739241210526568449","张","666","","","","","","","","","","","","","","","","","","","","","","","","","","","","","","","","","","","","","","","","","",""
"","","","call-function","1","9730","0.0-1.0-0.0","2","2","2","2","2","1","1","1","2","1","3","1","2","3","2","2","2","2","3","2","5","5","4","4","3","3","2","4","4","1","1","1","0","0","1","0","1","1","0","0","0","1","0","1","3","5","5","2","4","4","5","4","2","2","3","739241210526568449","张","666","","","","","","","","","","","","","","","","","","","","","","","","","","","","","","","","","","","","","","","","","",""
"19899","","{""friend_name"":""张"",""ParticipantID"":""666""}","survey-html-form","2","29631","0.0-1.0-1.0","2","2","2","2","2","1","1","1","2","1","3","1","2","3","2","2","2","2","3","2","5","5","4","4","3","3","2","4","4","1","1","1","0","0","1","0","1","1","0","0","0","1","0","1","3","5","5","2","4","4","5","4","2","2","3","739241210526568449","张","666","","","","","","","","","","","","","","","","","","","","","","","","","","","","","","","","","","","","","","","","","",""
"","","","fullscreen","3","66552","0.0-2.0","2","2","2","2","2","1","1","1","2","1","3","1","2","3","2","2","2","2","3","2","5","5","4","4","3","3","2","4","4","1","1","1","0","0","1","0","1","1","0","0","0","1","0","1","3","5","5","2","4","4","5","4","2","2","3","739241210526568449","张","666","","true","{}","","","","","","","","","","","","","","","","","","","","","","","","","","","","","","","","","","","","","","",""
"33497.39999961853","","{""Q01"":""2"",""Q02"":""2"",""Q03"":""2"",""Q04"":""2"",""Q05"":""2"",""Q06"":""1"",""Q07"":""1"",""Q08"":""1"",""Q09"":""2"",""Q10"":""1""}","survey-template","4","100052","0.0-3.0","2","2","2","2","2","1","1","1","2","1","3","1","2","3","2","2","2","2","3","2","5","5","4","4","3","3","2","4","4","1","1","1","0","0","1","0","1","1","0","0","0","1","0","1","3","5","5","2","4","4","5","4","2","2","3","739241210526568449","张","666","","","","{""Q01"":""2"",""Q02"":""2"",""Q03"":""2"",""Q04"":""2"",""Q05"":""2"",""Q06"":""1"",""Q07"":""1"",""Q08"":""1"",""Q09"":""2"",""Q10"":""1""}","[0,1,2,3,4,5,6,7,8,9]","[""Q01"",""Q02"",""Q03"",""Q04"",""Q05"",""Q06"",""Q07"",""Q08"",""Q09"",""Q10""]","[7563.39999961853,10299.800000190735,12441.39999961853,15953.699999809265,17749.300000190735,20327.39999961853,22463.5,28485.5,30232.39999961853,32929]","[]","[7563.39999961853,10299.800000190735,12441.39999961853,15953.699999809265,17749.300000190735,20327.39999961853,22463.5,28485.5,30232.39999961853,32929,33496.300000190735]","0.3","0.6666666666666666","0","","","","","","","","","","","","","","","","","","","","","","","","","","","","","",""
"50762.599999427795","","{""Q01"":""3"",""Q02"":""1"",""Q03"":""2"",""Q04"":""3"",""Q05"":""2"",""Q06"":""2"",""Q07"":""2"",""Q08"":""2"",""Q09"":""3"",""Q10"":""2""}","survey-template","5","150819","0.0-4.0","2","2","2","2","2","1","1","1","2","1","3","1","2","3","2","2","2","2","3","2","5","5","4","4","3","3","2","4","4","1","1","1","0","0","1","0","1","1","0","0","0","1","0","1","3","5","5","2","4","4","5","4","2","2","3","739241210526568449","张","666","","","","{""Q01"":""3"",""Q02"":""1"",""Q03"":""2"",""Q04"":""3"",""Q05"":""2"",""Q06"":""2"",""Q07"":""2"",""Q08"":""2"",""Q09"":""3"",""Q10"":""2""}","[0,1,2,3,4,5,6,7,8,9]","[""Q01"",""Q02"",""Q03"",""Q04"",""Q05"",""Q06"",""Q07"",""Q08"",""Q06"",""Q08"",""Q09"",""Q10""]","[13655.300000190735,19005.800000190735,21069.800000190735,27747.599999427795,32549.599999427795,33880.699999809265,35681.39999961853,37829.89999961853,43715.599999427795,46163.39999961853,49057.39999961853,49957.300000190735]","[]","[11487.5,13655.300000190735,17877.699999809265,18545.300000190735,19005.800000190735,19853.39999961853,21069.800000190735,27747.599999427795,32549.599999427795,33880.699999809265,35681.39999961853,37829.89999961853,43715.599999427795,46163.39999961853,49057.39999961853,49957.300000190735,50761.699999809265]","0.5","0.5555555555555556","0","","","","","","","","","","","","","","","","","","","","","","","","","","","","","",""
"","","","preload","6","151305","0.0-5.0","2","2","2","2","2","1","1","1","2","1","3","1","2","3","2","2","2","2","3","2","5","5","4","4","3","3","2","4","4","1","1","1","0","0","1","0","1","1","0","0","0","1","0","1","3","5","5","2","4","4","5","4","2","2","3","739241210526568449","张","666","","true","","","","","","","","","","","false","[]","[]","[]","","","","","","","","","","","","","","","","","","","","","","","","","",""
"14471","
    <h3>词语分类任务</h3>
    <p>在接下来的任务中，你需要对一系列词语进行分类。<p/>
    请先熟悉这些词语，这有利于你完成接下来的任务。</p>
    <table align=""center"" border=1 cellpadding=3 cellspacing=0>
    <tr> <th>类别</th> <th>词语</th> </tr>
    <tr> <td>&emsp;积极&emsp;</td> <td>&emsp;高尚、诚信、善良、君子、廉正、正直&emsp;</td> </tr>
    <tr> <td>&emsp;消极&emsp;</td> <td>&emsp;缺德、卑鄙、不孝、不仁、小人、黑心&emsp;</td> </tr>
    <tr> <td>&emsp;自我&emsp;</td> <td>&emsp;我、我的、自己、自己的、本人、本人的&emsp;</td> </tr>
    <tr> <td>&emsp;他人&emsp;</td> <td>&emsp;他、他的、别人、别人的、他人、他人的&emsp;</td> </tr>
    </table><br/>","0","html-button-response","7","165777","0.0-6.0-1.0-0.0","2","2","2","2","2","1","1","1","2","1","3","1","2","3","2","2","2","2","3","2","5","5","4","4","3","3","2","4","4","1","1","1","0","0","1","0","1","1","0","0","0","1","0","1","3","5","5","2","4","4","5","4","2","2","3","739241210526568449","张","666","","","","","","","","","","","","","","","","","2","1","","","","","","","","","","","","","","","","","","","","","","","",""
"16634","
    <div class=""tag-bottom""><p>
    —— 任务1：对“自我”词和“他人”词分类 ——<p/>
    不同词语会出现在屏幕中央，类别标签将始终显示在屏幕上方<p/>   
    <span style=""color:#FFD866""><b>请根据上方标签的提示，尽可能正确并且快速地做出按键反应</b></span><p/>
    当按键错误时屏幕中会出现<span style=""color:red""> X </span>，需要按另一个键纠正才能继续<br/><p/>
    请把双手食指分别放在键盘的“E”键和“I”键上<p/>
    按<空格键>开始
    </p></div>"," ","html-keyboard-response","8","182413","0.0-6.0-1.0-1.0","2","2","2","2","2","1","1","1","2","1","3","1","2","3","2","2","2","2","3","2","5","5","4","4","3","3","2","4","4","1","1","1","0","0","1","0","1","1","0","0","0","1","0","1","3","5","5","2","4","4","5","4","2","2","3","739241210526568449","张","666","","","","","","","","","","","","","","","","","","","","","","","","","","","","","","","","","","","","","","","","","",""
"null","","null","html-keyboard-response","9","182664","0.0-6.0-1.0-2.0-0.0","2","2","2","2","2","1","1","1","2","1","3","1","2","3","2","2","2","2","3","2","5","5","4","4","3","3","2","4","4","1","1","1","0","0","1","0","1","1","0","0","0","1","0","1","3","5","5","2","4","4","5","4","2","2","3","739241210526568449","张","666","","","","","","","","","","","","","","","","","","","","","","","","","","","","","","","","","","","","","","","","","",""
"1174","<p style=""color:rgb(150, 250, 100); font-size: 35px;"">我</p>","e","categorize-html","10","183841","0.0-6.0-1.0-2.0-1.0","2","2","2","2","2","1","1","1","2","1","3","1","2","3","2","2","2","2","3","2","5","5","4","4","3","3","2","4","4","1","1","1","0","0","1","0","1","1","0","0","0","1","0","1","3","5","5","2","4","4","5","4","2","2","3","739241210526568449","张","666","","","","","","","","","","","","","","","","","","","true","11","1","moral","1174","self","我","","","","","","","","","","","","","","","","",""
"null","","null","html-keyboard-response","11","184092","0.0-6.0-1.0-2.0-0.1","2","2","2","2","2","1","1","1","2","1","3","1","2","3","2","2","2","2","3","2","5","5","4","4","3","3","2","4","4","1","1","1","0","0","1","0","1","1","0","0","0","1","0","1","3","5","5","2","4","4","5","4","2","2","3","739241210526568449","张","666","","","","","","","","","","","","","","","","","","","","","","","","","","","","","","","","","","","","","","","","","",""
"800","<p style=""color:rgb(150, 250, 100); font-size: 35px;"">自己的</p>","e","categorize-html","12","184893","0.0-6.0-1.0-2.0-1.1","2","2","2","2","2","1","1","1","2","1","3","1","2","3","2","2","2","2","3","2","5","5","4","4","3","3","2","4","4","1","1","1","0","0","1","0","1","1","0","0","0","1","0","1","3","5","5","2","4","4","5","4","2","2","3","739241210526568449","张","666","","","","","","","","","","","","","","","","","","","true","11","1","moral","800","self","自己的","","","","","","","","","","","","","","","","",""
"null","","null","html-keyboard-response","13","185145","0.0-6.0-1.0-2.0-0.2","2","2","2","2","2","1","1","1","2","1","3","1","2","3","2","2","2","2","3","2","5","5","4","4","3","3","2","4","4","1","1","1","0","0","1","0","1","1","0","0","0","1","0","1","3","5","5","2","4","4","5","4","2","2","3","739241210526568449","张","666","","","","","","","","","","","","","","","","","","","","","","","","","","","","","","","","","","","","","","","","","",""
"570","<p style=""color:rgb(150, 250, 100); font-size: 35px;"">自己</p>","e","categorize-html","14","185715","0.0-6.0-1.0-2.0-1.2","2","2","2","2","2","1","1","1","2","1","3","1","2","3","2","2","2","2","3","2","5","5","4","4","3","3","2","4","4","1","1","1","0","0","1","0","1","1","0","0","0","1","0","1","3","5","5","2","4","4","5","4","2","2","3","739241210526568449","张","666","","","","","","","","","","","","","","","","","","","true","11","1","moral","570","self","自己","","","","","","","","","","","","","","","","",""
"null","","null","html-keyboard-response","15","185966","0.0-6.0-1.0-2.0-0.3","2","2","2","2","2","1","1","1","2","1","3","1","2","3","2","2","2","2","3","2","5","5","4","4","3","3","2","4","4","1","1","1","0","0","1","0","1","1","0","0","0","1","0","1","3","5","5","2","4","4","5","4","2","2","3","739241210526568449","张","666","","","","","","","","","","","","","","","","","","","","","","","","","","","","","","","","","","","","","","","","","",""
"678","<p style=""color:rgb(150, 250, 100); font-size: 35px;"">他人</p>","i","categorize-html","16","186646","0.0-6.0-1.0-2.0-1.3","2","2","2","2","2","1","1","1","2","1","3","1","2","3","2","2","2","2","3","2","5","5","4","4","3","3","2","4","4","1","1","1","0","0","1","0","1","1","0","0","0","1","0","1","3","5","5","2","4","4","5","4","2","2","3","739241210526568449","张","666","","","","","","","","","","","","","","","","","","","true","11","1","moral","678","other","他人","","","","","","","","","","","","","","","","",""
"null","","null","html-keyboard-response","17","186901","0.0-6.0-1.0-2.0-0.4","2","2","2","2","2","1","1","1","2","1","3","1","2","3","2","2","2","2","3","2","5","5","4","4","3","3","2","4","4","1","1","1","0","0","1","0","1","1","0","0","0","1","0","1","3","5","5","2","4","4","5","4","2","2","3","739241210526568449","张","666","","","","","","","","","","","","","","","","","","","","","","","","","","","","","","","","","","","","","","","","","",""
"672","<p style=""color:rgb(150, 250, 100); font-size: 35px;"">别人</p>","i","categorize-html","18","187573","0.0-6.0-1.0-2.0-1.4","2","2","2","2","2","1","1","1","2","1","3","1","2","3","2","2","2","2","3","2","5","5","4","4","3","3","2","4","4","1","1","1","0","0","1","0","1","1","0","0","0","1","0","1","3","5","5","2","4","4","5","4","2","2","3","739241210526568449","张","666","","","","","","","","","","","","","","","","","","","true","11","1","moral","672","other","别人","","","","","","","","","","","","","","","","",""
"null","","null","html-keyboard-response","19","187825","0.0-6.0-1.0-2.0-0.5","2","2","2","2","2","1","1","1","2","1","3","1","2","3","2","2","2","2","3","2","5","5","4","4","3","3","2","4","4","1","1","1","0","0","1","0","1","1","0","0","0","1","0","1","3","5","5","2","4","4","5","4","2","2","3","739241210526568449","张","666","","","","","","","","","","","","","","","","","","","","","","","","","","","","","","","","","","","","","","","","","",""
"706","<p style=""color:rgb(150, 250, 100); font-size: 35px;"">他</p>","i","categorize-html","20","188532","0.0-6.0-1.0-2.0-1.5","2","2","2","2","2","1","1","1","2","1","3","1","2","3","2","2","2","2","3","2","5","5","4","4","3","3","2","4","4","1","1","1","0","0","1","0","1","1","0","0","0","1","0","1","3","5","5","2","4","4","5","4","2","2","3","739241210526568449","张","666","","","","","","","","","","","","","","","","","","","true","11","1","moral","706","other","他","","","","","","","","","","","","","","","","",""
"null","","null","html-keyboard-response","21","188784","0.0-6.0-1.0-2.0-0.6","2","2","2","2","2","1","1","1","2","1","3","1","2","3","2","2","2","2","3","2","5","5","4","4","3","3","2","4","4","1","1","1","0","0","1","0","1","1","0","0","0","1","0","1","3","5","5","2","4","4","5","4","2","2","3","739241210526568449","张","666","","","","","","","","","","","","","","","","","","","","","","","","","","","","","","","","","","","","","","","","","",""
"1094","<p style=""color:rgb(150, 250, 100); font-size: 35px;"">本人</p>","e","categorize-html","22","189879","0.0-6.0-1.0-2.0-1.6","2","2","2","2","2","1","1","1","2","1","3","1","2","3","2","2","2","2","3","2","5","5","4","4","3","3","2","4","4","1","1","1","0","0","1","0","1","1","0","0","0","1","0","1","3","5","5","2","4","4","5","4","2","2","3","739241210526568449","张","666","","","","","","","","","","","","","","","","","","","true","11","1","moral","1094","self","本人","","","","","","","","","","","","","","","","",""
"null","","null","html-keyboard-response","23","190131","0.0-6.0-1.0-2.0-0.7","2","2","2","2","2","1","1","1","2","1","3","1","2","3","2","2","2","2","3","2","5","5","4","4","3","3","2","4","4","1","1","1","0","0","1","0","1","1","0","0","0","1","0","1","3","5","5","2","4","4","5","4","2","2","3","739241210526568449","张","666","","","","","","","","","","","","","","","","","","","","","","","","","","","","","","","","","","","","","","","","","",""
"744","<p style=""color:rgb(150, 250, 100); font-size: 35px;"">他的</p>","i","categorize-html","24","190877","0.0-6.0-1.0-2.0-1.7","2","2","2","2","2","1","1","1","2","1","3","1","2","3","2","2","2","2","3","2","5","5","4","4","3","3","2","4","4","1","1","1","0","0","1","0","1","1","0","0","0","1","0","1","3","5","5","2","4","4","5","4","2","2","3","739241210526568449","张","666","","","","","","","","","","","","","","","","","","","true","11","1","moral","744","other","他的","","","","","","","","","","","","","","","","",""
"null","","null","html-keyboard-response","25","191128","0.0-6.0-1.0-2.0-0.8","2","2","2","2","2","1","1","1","2","1","3","1","2","3","2","2","2","2","3","2","5","5","4","4","3","3","2","4","4","1","1","1","0","0","1","0","1","1","0","0","0","1","0","1","3","5","5","2","4","4","5","4","2","2","3","739241210526568449","张","666","","","","","","","","","","","","","","","","","","","","","","","","","","","","","","","","","","","","","","","","","",""
"690","<p style=""color:rgb(150, 250, 100); font-size: 35px;"">他人的</p>","i","categorize-html","26","191818","0.0-6.0-1.0-2.0-1.8","2","2","2","2","2","1","1","1","2","1","3","1","2","3","2","2","2","2","3","2","5","5","4","4","3","3","2","4","4","1","1","1","0","0","1","0","1","1","0","0","0","1","0","1","3","5","5","2","4","4","5","4","2","2","3","739241210526568449","张","666","","","","","","","","","","","","","","","","","","","true","11","1","moral","690","other","他人的","","","","","","","","","","","","","","","","",""
"null","","null","html-keyboard-response","27","192070","0.0-6.0-1.0-2.0-0.9","2","2","2","2","2","1","1","1","2","1","3","1","2","3","2","2","2","2","3","2","5","5","4","4","3","3","2","4","4","1","1","1","0","0","1","0","1","1","0","0","0","1","0","1","3","5","5","2","4","4","5","4","2","2","3","739241210526568449","张","666","","","","","","","","","","","","","","","","","","","","","","","","","","","","","","","","","","","","","","","","","",""
"1039","<p style=""color:rgb(150, 250, 100); font-size: 35px;"">别人的</p>","i","categorize-html","28","193110","0.0-6.0-1.0-2.0-1.9","2","2","2","2","2","1","1","1","2","1","3","1","2","3","2","2","2","2","3","2","5","5","4","4","3","3","2","4","4","1","1","1","0","0","1","0","1","1","0","0","0","1","0","1","3","5","5","2","4","4","5","4","2","2","3","739241210526568449","张","666","","","","","","","","","","","","","","","","","","","true","11","1","moral","1039","other","别人的","","","","","","","","","","","","","","","","",""
"null","","null","html-keyboard-response","29","193362","0.0-6.0-1.0-2.0-0.10","2","2","2","2","2","1","1","1","2","1","3","1","2","3","2","2","2","2","3","2","5","5","4","4","3","3","2","4","4","1","1","1","0","0","1","0","1","1","0","0","0","1","0","1","3","5","5","2","4","4","5","4","2","2","3","739241210526568449","张","666","","","","","","","","","","","","","","","","","","","","","","","","","","","","","","","","","","","","","","","","","",""
"786","<p style=""color:rgb(150, 250, 100); font-size: 35px;"">本人的</p>","e","categorize-html","30","194149","0.0-6.0-1.0-2.0-1.10","2","2","2","2","2","1","1","1","2","1","3","1","2","3","2","2","2","2","3","2","5","5","4","4","3","3","2","4","4","1","1","1","0","0","1","0","1","1","0","0","0","1","0","1","3","5","5","2","4","4","5","4","2","2","3","739241210526568449","张","666","","","","","","","","","","","","","","","","","","","true","11","1","moral","786","self","本人的","","","","","","","","","","","","","","","","",""
"null","","null","html-keyboard-response","31","194401","0.0-6.0-1.0-2.0-0.11","2","2","2","2","2","1","1","1","2","1","3","1","2","3","2","2","2","2","3","2","5","5","4","4","3","3","2","4","4","1","1","1","0","0","1","0","1","1","0","0","0","1","0","1","3","5","5","2","4","4","5","4","2","2","3","739241210526568449","张","666","","","","","","","","","","","","","","","","","","","","","","","","","","","","","","","","","","","","","","","","","",""
"1107","<p style=""color:rgb(150, 250, 100); font-size: 35px;"">我的</p>","e","categorize-html","32","195509","0.0-6.0-1.0-2.0-1.11","2","2","2","2","2","1","1","1","2","1","3","1","2","3","2","2","2","2","3","2","5","5","4","4","3","3","2","4","4","1","1","1","0","0","1","0","1","1","0","0","0","1","0","1","3","5","5","2","4","4","5","4","2","2","3","739241210526568449","张","666","","","","","","","","","","","","","","","","","","","true","11","1","moral","1107","self","我的","","","","","","","","","","","","","","","","",""
"7156","
    <div class=""tag-bottom""><p>
    —— 任务2：对“消极”词和“积极”词分类 ——<p/>   
    <span style=""color:#78DCE8""><b>注意上方，类别标签和需要分类的词语都已经改变</b></span><p/>
    <span style=""color:#FFD866""><b>请根据上方标签的提示，尽可能正确并且快速地做出按键反应</b></span><p/>
    当按键错误时屏幕中会出现<span style=""color:red""> X </span>，需要按另一个键纠正才能继续<br/><p/>
    请把双手食指分别放在键盘的“E”键和“I”键上<p/>
    按<空格键>开始
    </p></div>"," ","html-keyboard-response","33","202665","0.0-6.0-1.0-3.0","2","2","2","2","2","1","1","1","2","1","3","1","2","3","2","2","2","2","3","2","5","5","4","4","3","3","2","4","4","1","1","1","0","0","1","0","1","1","0","0","0","1","0","1","3","5","5","2","4","4","5","4","2","2","3","739241210526568449","张","666","","","","","","","","","","","","","","","","","","","","","","","","","","","","","","","","","","","","","","","","","",""
"null","","null","html-keyboard-response","34","202917","0.0-6.0-1.0-4.0-0.0","2","2","2","2","2","1","1","1","2","1","3","1","2","3","2","2","2","2","3","2","5","5","4","4","3","3","2","4","4","1","1","1","0","0","1","0","1","1","0","0","0","1","0","1","3","5","5","2","4","4","5","4","2","2","3","739241210526568449","张","666","","","","","","","","","","","","","","","","","","","","","","","","","","","","","","","","","","","","","","","","","",""
"1050","<p style=""color:white; font-size: 35px;"">诚信</p>","e","categorize-html","35","205066","0.0-6.0-1.0-4.0-1.0","2","2","2","2","2","1","1","1","2","1","3","1","2","3","2","2","2","2","3","2","5","5","4","4","3","3","2","4","4","1","1","1","0","0","1","0","1","1","0","0","0","1","0","1","3","5","5","2","4","4","5","4","2","2","3","739241210526568449","张","666","","","","","","","","","","","","","","","","","","","false","12","2","moral","1050","positive","诚信","","","","","","","","","","","","","","","","",""
"null","","null","html-keyboard-response","36","205317","0.0-6.0-1.0-4.0-0.1","2","2","2","2","2","1","1","1","2","1","3","1","2","3","2","2","2","2","3","2","5","5","4","4","3","3","2","4","4","1","1","1","0","0","1","0","1","1","0","0","0","1","0","1","3","5","5","2","4","4","5","4","2","2","3","739241210526568449","张","666","","","","","","","","","","","","","","","","","","","","","","","","","","","","","","","","","","","","","","","","","",""
"943","<p style=""color:white; font-size: 35px;"">不仁</p>","e","categorize-html","37","206261","0.0-6.0-1.0-4.0-1.1","2","2","2","2","2","1","1","1","2","1","3","1","2","3","2","2","2","2","3","2","5","5","4","4","3","3","2","4","4","1","1","1","0","0","1","0","1","1","0","0","0","1","0","1","3","5","5","2","4","4","5","4","2","2","3","739241210526568449","张","666","","","","","","","","","","","","","","","","","","","true","12","2","moral","943","negative","不仁","","","","","","","","","","","","","","","","",""
"null","","null","html-keyboard-response","38","206513","0.0-6.0-1.0-4.0-0.2","2","2","2","2","2","1","1","1","2","1","3","1","2","3","2","2","2","2","3","2","5","5","4","4","3","3","2","4","4","1","1","1","0","0","1","0","1","1","0","0","0","1","0","1","3","5","5","2","4","4","5","4","2","2","3","739241210526568449","张","666","","","","","","","","","","","","","","","","","","","","","","","","","","","","","","","","","","","","","","","","","",""
"652","<p style=""color:white; font-size: 35px;"">缺德</p>","e","categorize-html","39","207166","0.0-6.0-1.0-4.0-1.2","2","2","2","2","2","1","1","1","2","1","3","1","2","3","2","2","2","2","3","2","5","5","4","4","3","3","2","4","4","1","1","1","0","0","1","0","1","1","0","0","0","1","0","1","3","5","5","2","4","4","5","4","2","2","3","739241210526568449","张","666","","","","","","","","","","","","","","","","","","","true","12","2","moral","652","negative","缺德","","","","","","","","","","","","","","","","",""
"null","","null","html-keyboard-response","40","207417","0.0-6.0-1.0-4.0-0.3","2","2","2","2","2","1","1","1","2","1","3","1","2","3","2","2","2","2","3","2","5","5","4","4","3","3","2","4","4","1","1","1","0","0","1","0","1","1","0","0","0","1","0","1","3","5","5","2","4","4","5","4","2","2","3","739241210526568449","张","666","","","","","","","","","","","","","","","","","","","","","","","","","","","","","","","","","","","","","","","","","",""
"836","<p style=""color:white; font-size: 35px;"">正直</p>","i","categorize-html","41","208253","0.0-6.0-1.0-4.0-1.3","2","2","2","2","2","1","1","1","2","1","3","1","2","3","2","2","2","2","3","2","5","5","4","4","3","3","2","4","4","1","1","1","0","0","1","0","1","1","0","0","0","1","0","1","3","5","5","2","4","4","5","4","2","2","3","739241210526568449","张","666","","","","","","","","","","","","","","","","","","","true","12","2","moral","836","positive","正直","","","","","","","","","","","","","","","","",""
"null","","null","html-keyboard-response","42","208504","0.0-6.0-1.0-4.0-0.4","2","2","2","2","2","1","1","1","2","1","3","1","2","3","2","2","2","2","3","2","5","5","4","4","3","3","2","4","4","1","1","1","0","0","1","0","1","1","0","0","0","1","0","1","3","5","5","2","4","4","5","4","2","2","3","739241210526568449","张","666","","","","","","","","","","","","","","","","","","","","","","","","","","","","","","","","","","","","","","","","","",""
"813","<p style=""color:white; font-size: 35px;"">黑心</p>","e","categorize-html","43","209319","0.0-6.0-1.0-4.0-1.4","2","2","2","2","2","1","1","1","2","1","3","1","2","3","2","2","2","2","3","2","5","5","4","4","3","3","2","4","4","1","1","1","0","0","1","0","1","1","0","0","0","1","0","1","3","5","5","2","4","4","5","4","2","2","3","739241210526568449","张","666","","","","","","","","","","","","","","","","","","","true","12","2","moral","813","negative","黑心","","","","","","","","","","","","","","","","",""
"null","","null","html-keyboard-response","44","209572","0.0-6.0-1.0-4.0-0.5","2","2","2","2","2","1","1","1","2","1","3","1","2","3","2","2","2","2","3","2","5","5","4","4","3","3","2","4","4","1","1","1","0","0","1","0","1","1","0","0","0","1","0","1","3","5","5","2","4","4","5","4","2","2","3","739241210526568449","张","666","","","","","","","","","","","","","","","","","","","","","","","","","","","","","","","","","","","","","","","","","",""
"680","<p style=""color:white; font-size: 35px;"">不孝</p>","e","categorize-html","45","210253","0.0-6.0-1.0-4.0-1.5","2","2","2","2","2","1","1","1","2","1","3","1","2","3","2","2","2","2","3","2","5","5","4","4","3","3","2","4","4","1","1","1","0","0","1","0","1","1","0","0","0","1","0","1","3","5","5","2","4","4","5","4","2","2","3","739241210526568449","张","666","","","","","","","","","","","","","","","","","","","true","12","2","moral","680","negative","不孝","","","","","","","","","","","","","","","","",""
"null","","null","html-keyboard-response","46","210505","0.0-6.0-1.0-4.0-0.6","2","2","2","2","2","1","1","1","2","1","3","1","2","3","2","2","2","2","3","2","5","5","4","4","3","3","2","4","4","1","1","1","0","0","1","0","1","1","0","0","0","1","0","1","3","5","5","2","4","4","5","4","2","2","3","739241210526568449","张","666","","","","","","","","","","","","","","","","","","","","","","","","","","","","","","","","","","","","","","","","","",""
"716","<p style=""color:white; font-size: 35px;"">善良</p>","i","categorize-html","47","211222","0.0-6.0-1.0-4.0-1.6","2","2","2","2","2","1","1","1","2","1","3","1","2","3","2","2","2","2","3","2","5","5","4","4","3","3","2","4","4","1","1","1","0","0","1","0","1","1","0","0","0","1","0","1","3","5","5","2","4","4","5","4","2","2","3","739241210526568449","张","666","","","","","","","","","","","","","","","","","","","true","12","2","moral","716","positive","善良","","","","","","","","","","","","","","","","",""
"null","","null","html-keyboard-response","48","211475","0.0-6.0-1.0-4.0-0.7","2","2","2","2","2","1","1","1","2","1","3","1","2","3","2","2","2","2","3","2","5","5","4","4","3","3","2","4","4","1","1","1","0","0","1","0","1","1","0","0","0","1","0","1","3","5","5","2","4","4","5","4","2","2","3","739241210526568449","张","666","","","","","","","","","","","","","","","","","","","","","","","","","","","","","","","","","","","","","","","","","",""
"577","<p style=""color:white; font-size: 35px;"">高尚</p>","i","categorize-html","49","212053","0.0-6.0-1.0-4.0-1.7","2","2","2","2","2","1","1","1","2","1","3","1","2","3","2","2","2","2","3","2","5","5","4","4","3","3","2","4","4","1","1","1","0","0","1","0","1","1","0","0","0","1","0","1","3","5","5","2","4","4","5","4","2","2","3","739241210526568449","张","666","","","","","","","","","","","","","","","","","","","true","12","2","moral","577","positive","高尚","","","","","","","","","","","","","","","","",""
"null","","null","html-keyboard-response","50","212304","0.0-6.0-1.0-4.0-0.8","2","2","2","2","2","1","1","1","2","1","3","1","2","3","2","2","2","2","3","2","5","5","4","4","3","3","2","4","4","1","1","1","0","0","1","0","1","1","0","0","0","1","0","1","3","5","5","2","4","4","5","4","2","2","3","739241210526568449","张","666","","","","","","","","","","","","","","","","","","","","","","","","","","","","","","","","","","","","","","","","","",""
"1377","<p style=""color:white; font-size: 35px;"">卑鄙</p>","e","categorize-html","51","213682","0.0-6.0-1.0-4.0-1.8","2","2","2","2","2","1","1","1","2","1","3","1","2","3","2","2","2","2","3","2","5","5","4","4","3","3","2","4","4","1","1","1","0","0","1","0","1","1","0","0","0","1","0","1","3","5","5","2","4","4","5","4","2","2","3","739241210526568449","张","666","","","","","","","","","","","","","","","","","","","true","12","2","moral","1377","negative","卑鄙","","","","","","","","","","","","","","","","",""
"null","","null","html-keyboard-response","52","213934","0.0-6.0-1.0-4.0-0.9","2","2","2","2","2","1","1","1","2","1","3","1","2","3","2","2","2","2","3","2","5","5","4","4","3","3","2","4","4","1","1","1","0","0","1","0","1","1","0","0","0","1","0","1","3","5","5","2","4","4","5","4","2","2","3","739241210526568449","张","666","","","","","","","","","","","","","","","","","","","","","","","","","","","","","","","","","","","","","","","","","",""
"681","<p style=""color:white; font-size: 35px;"">小人</p>","i","categorize-html","53","215510","0.0-6.0-1.0-4.0-1.9","2","2","2","2","2","1","1","1","2","1","3","1","2","3","2","2","2","2","3","2","5","5","4","4","3","3","2","4","4","1","1","1","0","0","1","0","1","1","0","0","0","1","0","1","3","5","5","2","4","4","5","4","2","2","3","739241210526568449","张","666","","","","","","","","","","","","","","","","","","","false","12","2","moral","681","negative","小人","","","","","","","","","","","","","","","","",""
"null","","null","html-keyboard-response","54","215762","0.0-6.0-1.0-4.0-0.10","2","2","2","2","2","1","1","1","2","1","3","1","2","3","2","2","2","2","3","2","5","5","4","4","3","3","2","4","4","1","1","1","0","0","1","0","1","1","0","0","0","1","0","1","3","5","5","2","4","4","5","4","2","2","3","739241210526568449","张","666","","","","","","","","","","","","","","","","","","","","","","","","","","","","","","","","","","","","","","","","","",""
"1016","<p style=""color:white; font-size: 35px;"">君子</p>","i","categorize-html","55","216779","0.0-6.0-1.0-4.0-1.10","2","2","2","2","2","1","1","1","2","1","3","1","2","3","2","2","2","2","3","2","5","5","4","4","3","3","2","4","4","1","1","1","0","0","1","0","1","1","0","0","0","1","0","1","3","5","5","2","4","4","5","4","2","2","3","739241210526568449","张","666","","","","","","","","","","","","","","","","","","","true","12","2","moral","1016","positive","君子","","","","","","","","","","","","","","","","",""
"null","","null","html-keyboard-response","56","217031","0.0-6.0-1.0-4.0-0.11","2","2","2","2","2","1","1","1","2","1","3","1","2","3","2","2","2","2","3","2","5","5","4","4","3","3","2","4","4","1","1","1","0","0","1","0","1","1","0","0","0","1","0","1","3","5","5","2","4","4","5","4","2","2","3","739241210526568449","张","666","","","","","","","","","","","","","","","","","","","","","","","","","","","","","","","","","","","","","","","","","",""
"605","<p style=""color:white; font-size: 35px;"">廉正</p>","i","categorize-html","57","217637","0.0-6.0-1.0-4.0-1.11","2","2","2","2","2","1","1","1","2","1","3","1","2","3","2","2","2","2","3","2","5","5","4","4","3","3","2","4","4","1","1","1","0","0","1","0","1","1","0","0","0","1","0","1","3","5","5","2","4","4","5","4","2","2","3","739241210526568449","张","666","","","","","","","","","","","","","","","","","","","true","12","2","moral","605","positive","廉正","","","","","","","","","","","","","","","","",""
"6630","
    <div class=""tag-bottom""><p>
    —— 任务3：对“自我/消极”词和“他人/积极”词分类 ——<p/>
    <span style=""color:#78DCE8""><b>注意上方，之前的四类词语将混合在一起交替呈现</b></span><p/>
    <span style=""color:#FFD866""><b>请根据上方标签的提示，尽可能正确并且快速地做出按键反应</b></span><p/>
    当按键错误时屏幕中会出现<span style=""color:red""> X </span>，需要按另一个键纠正才能继续<br/><p/>
    请把双手食指分别放在键盘的“E”键和“I”键上<p/>
    按<空格键>开始
    </p></div>"," ","html-keyboard-response","58","224267","0.0-6.0-1.0-5.0","2","2","2","2","2","1","1","1","2","1","3","1","2","3","2","2","2","2","3","2","5","5","4","4","3","3","2","4","4","1","1","1","0","0","1","0","1","1","0","0","0","1","0","1","3","5","5","2","4","4","5","4","2","2","3","739241210526568449","张","666","","","","","","","","","","","","","","","","","","","","","","","","","","","","","","","","","","","","","","","","","",""
"null","","null","html-keyboard-response","59","224519","0.0-6.0-1.0-6.0-0.0","2","2","2","2","2","1","1","1","2","1","3","1","2","3","2","2","2","2","3","2","5","5","4","4","3","3","2","4","4","1","1","1","0","0","1","0","1","1","0","0","0","1","0","1","3","5","5","2","4","4","5","4","2","2","3","739241210526568449","张","666","","","","","","","","","","","","","","","","","","","","","","","","","","","","","","","","","","","","","","","","","",""
"938","<p style=""color:rgb(150, 250, 100); font-size: 35px;"">本人的</p>","e","categorize-html","60","225458","0.0-6.0-1.0-6.0-1.0","2","2","2","2","2","1","1","1","2","1","3","1","2","3","2","2","2","2","3","2","5","5","4","4","3","3","2","4","4","1","1","1","0","0","1","0","1","1","0","0","0","1","0","1","3","5","5","2","4","4","5","4","2","2","3","739241210526568449","张","666","","","","","","","","","","","","","","","","","","","true","13","3","moral","938","self","本人的","","","","","","","","","","","","","","","","",""
"null","","null","html-keyboard-response","61","225710","0.0-6.0-1.0-6.0-0.1","2","2","2","2","2","1","1","1","2","1","3","1","2","3","2","2","2","2","3","2","5","5","4","4","3","3","2","4","4","1","1","1","0","0","1","0","1","1","0","0","0","1","0","1","3","5","5","2","4","4","5","4","2","2","3","739241210526568449","张","666","","","","","","","","","","","","","","","","","","","","","","","","","","","","","","","","","","","","","","","","","",""
"1155","<p style=""color:white; font-size: 35px;"">缺德</p>","i","categorize-html","62","227425","0.0-6.0-1.0-6.0-1.1","2","2","2","2","2","1","1","1","2","1","3","1","2","3","2","2","2","2","3","2","5","5","4","4","3","3","2","4","4","1","1","1","0","0","1","0","1","1","0","0","0","1","0","1","3","5","5","2","4","4","5","4","2","2","3","739241210526568449","张","666","","","","","","","","","","","","","","","","","","","false","13","3","moral","1869.8095238095239","negative","缺德","","","","","","","","","","","","","","","","",""
"null","","null","html-keyboard-response","63","227677","0.0-6.0-1.0-6.0-0.2","2","2","2","2","2","1","1","1","2","1","3","1","2","3","2","2","2","2","3","2","5","5","4","4","3","3","2","4","4","1","1","1","0","0","1","0","1","1","0","0","0","1","0","1","3","5","5","2","4","4","5","4","2","2","3","739241210526568449","张","666","","","","","","","","","","","","","","","","","","","","","","","","","","","","","","","","","","","","","","","","","",""
"1188","<p style=""color:rgb(150, 250, 100); font-size: 35px;"">别人的</p>","i","categorize-html","64","228866","0.0-6.0-1.0-6.0-1.2","2","2","2","2","2","1","1","1","2","1","3","1","2","3","2","2","2","2","3","2","5","5","4","4","3","3","2","4","4","1","1","1","0","0","1","0","1","1","0","0","0","1","0","1","3","5","5","2","4","4","5","4","2","2","3","739241210526568449","张","666","","","","","","","","","","","","","","","","","","","true","13","3","moral","1188","other","别人的","","","","","","","","","","","","","","","","",""
"null","","null","html-keyboard-response","65","229118","0.0-6.0-1.0-6.0-0.3","2","2","2","2","2","1","1","1","2","1","3","1","2","3","2","2","2","2","3","2","5","5","4","4","3","3","2","4","4","1","1","1","0","0","1","0","1","1","0","0","0","1","0","1","3","5","5","2","4","4","5","4","2","2","3","739241210526568449","张","666","","","","","","","","","","","","","","","","","","","","","","","","","","","","","","","","","","","","","","","","","",""
"688","<p style=""color:white; font-size: 35px;"">善良</p>","i","categorize-html","66","229807","0.0-6.0-1.0-6.0-1.3","2","2","2","2","2","1","1","1","2","1","3","1","2","3","2","2","2","2","3","2","5","5","4","4","3","3","2","4","4","1","1","1","0","0","1","0","1","1","0","0","0","1","0","1","3","5","5","2","4","4","5","4","2","2","3","739241210526568449","张","666","","","","","","","","","","","","","","","","","","","true","13","3","moral","688","positive","善良","","","","","","","","","","","","","","","","",""
"null","","null","html-keyboard-response","67","230058","0.0-6.0-1.0-6.0-0.4","2","2","2","2","2","1","1","1","2","1","3","1","2","3","2","2","2","2","3","2","5","5","4","4","3","3","2","4","4","1","1","1","0","0","1","0","1","1","0","0","0","1","0","1","3","5","5","2","4","4","5","4","2","2","3","739241210526568449","张","666","","","","","","","","","","","","","","","","","","","","","","","","","","","","","","","","","","","","","","","","","",""
"2141","<p style=""color:rgb(150, 250, 100); font-size: 35px;"">我</p>","e","categorize-html","68","232200","0.0-6.0-1.0-6.0-1.4","2","2","2","2","2","1","1","1","2","1","3","1","2","3","2","2","2","2","3","2","5","5","4","4","3","3","2","4","4","1","1","1","0","0","1","0","1","1","0","0","0","1","0","1","3","5","5","2","4","4","5","4","2","2","3","739241210526568449","张","666","","","","","","","","","","","","","","","","","","","true","13","3","moral","2141","self","我","","","","","","","","","","","","","","","","",""
"null","","null","html-keyboard-response","69","232452","0.0-6.0-1.0-6.0-0.5","2","2","2","2","2","1","1","1","2","1","3","1","2","3","2","2","2","2","3","2","5","5","4","4","3","3","2","4","4","1","1","1","0","0","1","0","1","1","0","0","0","1","0","1","3","5","5","2","4","4","5","4","2","2","3","739241210526568449","张","666","","","","","","","","","","","","","","","","","","","","","","","","","","","","","","","","","","","","","","","","","",""
"1253","<p style=""color:white; font-size: 35px;"">小人</p>","e","categorize-html","70","233706","0.0-6.0-1.0-6.0-1.5","2","2","2","2","2","1","1","1","2","1","3","1","2","3","2","2","2","2","3","2","5","5","4","4","3","3","2","4","4","1","1","1","0","0","1","0","1","1","0","0","0","1","0","1","3","5","5","2","4","4","5","4","2","2","3","739241210526568449","张","666","","","","","","","","","","","","","","","","","","","true","13","3","moral","1253","negative","小人","","","","","","","","","","","","","","","","",""
"null","","null","html-keyboard-response","71","233958","0.0-6.0-1.0-6.0-0.6","2","2","2","2","2","1","1","1","2","1","3","1","2","3","2","2","2","2","3","2","5","5","4","4","3","3","2","4","4","1","1","1","0","0","1","0","1","1","0","0","0","1","0","1","3","5","5","2","4","4","5","4","2","2","3","739241210526568449","张","666","","","","","","","","","","","","","","","","","","","","","","","","","","","","","","","","","","","","","","","","","",""
"925","<p style=""color:rgb(150, 250, 100); font-size: 35px;"">他人的</p>","i","categorize-html","72","234885","0.0-6.0-1.0-6.0-1.6","2","2","2","2","2","1","1","1","2","1","3","1","2","3","2","2","2","2","3","2","5","5","4","4","3","3","2","4","4","1","1","1","0","0","1","0","1","1","0","0","0","1","0","1","3","5","5","2","4","4","5","4","2","2","3","739241210526568449","张","666","","","","","","","","","","","","","","","","","","","true","13","3","moral","925","other","他人的","","","","","","","","","","","","","","","","",""
"null","","null","html-keyboard-response","73","235136","0.0-6.0-1.0-6.0-0.7","2","2","2","2","2","1","1","1","2","1","3","1","2","3","2","2","2","2","3","2","5","5","4","4","3","3","2","4","4","1","1","1","0","0","1","0","1","1","0","0","0","1","0","1","3","5","5","2","4","4","5","4","2","2","3","739241210526568449","张","666","","","","","","","","","","","","","","","","","","","","","","","","","","","","","","","","","","","","","","","","","",""
"1111","<p style=""color:white; font-size: 35px;"">君子</p>","i","categorize-html","74","236248","0.0-6.0-1.0-6.0-1.7","2","2","2","2","2","1","1","1","2","1","3","1","2","3","2","2","2","2","3","2","5","5","4","4","3","3","2","4","4","1","1","1","0","0","1","0","1","1","0","0","0","1","0","1","3","5","5","2","4","4","5","4","2","2","3","739241210526568449","张","666","","","","","","","","","","","","","","","","","","","true","13","3","moral","1111","positive","君子","","","","","","","","","","","","","","","","",""
"null","","null","html-keyboard-response","75","236500","0.0-6.0-1.0-6.0-0.8","2","2","2","2","2","1","1","1","2","1","3","1","2","3","2","2","2","2","3","2","5","5","4","4","3","3","2","4","4","1","1","1","0","0","1","0","1","1","0","0","0","1","0","1","3","5","5","2","4","4","5","4","2","2","3","739241210526568449","张","666","","","","","","","","","","","","","","","","","","","","","","","","","","","","","","","","","","","","","","","","","",""
"1056","<p style=""color:rgb(150, 250, 100); font-size: 35px;"">本人</p>","e","categorize-html","76","237557","0.0-6.0-1.0-6.0-1.8","2","2","2","2","2","1","1","1","2","1","3","1","2","3","2","2","2","2","3","2","5","5","4","4","3","3","2","4","4","1","1","1","0","0","1","0","1","1","0","0","0","1","0","1","3","5","5","2","4","4","5","4","2","2","3","739241210526568449","张","666","","","","","","","","","","","","","","","","","","","true","13","3","moral","1056","self","本人","","","","","","","","","","","","","","","","",""
"null","","null","html-keyboard-response","77","237809","0.0-6.0-1.0-6.0-0.9","2","2","2","2","2","1","1","1","2","1","3","1","2","3","2","2","2","2","3","2","5","5","4","4","3","3","2","4","4","1","1","1","0","0","1","0","1","1","0","0","0","1","0","1","3","5","5","2","4","4","5","4","2","2","3","739241210526568449","张","666","","","","","","","","","","","","","","","","","","","","","","","","","","","","","","","","","","","","","","","","","",""
"893","<p style=""color:white; font-size: 35px;"">廉正</p>","e","categorize-html","78","239303","0.0-6.0-1.0-6.0-1.9","2","2","2","2","2","1","1","1","2","1","3","1","2","3","2","2","2","2","3","2","5","5","4","4","3","3","2","4","4","1","1","1","0","0","1","0","1","1","0","0","0","1","0","1","3","5","5","2","4","4","5","4","2","2","3","739241210526568449","张","666","","","","","","","","","","","","","","","","","","","false","13","3","moral","1869.8095238095239","positive","廉正","","","","","","","","","","","","","","","","",""
"null","","null","html-keyboard-response","79","239554","0.0-6.0-1.0-6.0-0.10","2","2","2","2","2","1","1","1","2","1","3","1","2","3","2","2","2","2","3","2","5","5","4","4","3","3","2","4","4","1","1","1","0","0","1","0","1","1","0","0","0","1","0","1","3","5","5","2","4","4","5","4","2","2","3","739241210526568449","张","666","","","","","","","","","","","","","","","","","","","","","","","","","","","","","","","","","","","","","","","","","",""
"1788","<p style=""color:rgb(150, 250, 100); font-size: 35px;"">他人</p>","i","categorize-html","80","241344","0.0-6.0-1.0-6.0-1.10","2","2","2","2","2","1","1","1","2","1","3","1","2","3","2","2","2","2","3","2","5","5","4","4","3","3","2","4","4","1","1","1","0","0","1","0","1","1","0","0","0","1","0","1","3","5","5","2","4","4","5","4","2","2","3","739241210526568449","张","666","","","","","","","","","","","","","","","","","","","true","13","3","moral","1788","other","他人","","","","","","","","","","","","","","","","",""
"null","","null","html-keyboard-response","81","241597","0.0-6.0-1.0-6.0-0.11","2","2","2","2","2","1","1","1","2","1","3","1","2","3","2","2","2","2","3","2","5","5","4","4","3","3","2","4","4","1","1","1","0","0","1","0","1","1","0","0","0","1","0","1","3","5","5","2","4","4","5","4","2","2","3","739241210526568449","张","666","","","","","","","","","","","","","","","","","","","","","","","","","","","","","","","","","","","","","","","","","",""
"2228","<p style=""color:white; font-size: 35px;"">卑鄙</p>","e","categorize-html","82","243825","0.0-6.0-1.0-6.0-1.11","2","2","2","2","2","1","1","1","2","1","3","1","2","3","2","2","2","2","3","2","5","5","4","4","3","3","2","4","4","1","1","1","0","0","1","0","1","1","0","0","0","1","0","1","3","5","5","2","4","4","5","4","2","2","3","739241210526568449","张","666","","","","","","","","","","","","","","","","","","","true","13","3","moral","2228","negative","卑鄙","","","","","","","","","","","","","","","","",""
"null","","null","html-keyboard-response","83","244076","0.0-6.0-1.0-6.0-0.12","2","2","2","2","2","1","1","1","2","1","3","1","2","3","2","2","2","2","3","2","5","5","4","4","3","3","2","4","4","1","1","1","0","0","1","0","1","1","0","0","0","1","0","1","3","5","5","2","4","4","5","4","2","2","3","739241210526568449","张","666","","","","","","","","","","","","","","","","","","","","","","","","","","","","","","","","","","","","","","","","","",""
"1039","<p style=""color:rgb(150, 250, 100); font-size: 35px;"">自己</p>","e","categorize-html","84","245116","0.0-6.0-1.0-6.0-1.12","2","2","2","2","2","1","1","1","2","1","3","1","2","3","2","2","2","2","3","2","5","5","4","4","3","3","2","4","4","1","1","1","0","0","1","0","1","1","0","0","0","1","0","1","3","5","5","2","4","4","5","4","2","2","3","739241210526568449","张","666","","","","","","","","","","","","","","","","","","","true","13","3","moral","1039","self","自己","","","","","","","","","","","","","","","","",""
"null","","null","html-keyboard-response","85","245368","0.0-6.0-1.0-6.0-0.13","2","2","2","2","2","1","1","1","2","1","3","1","2","3","2","2","2","2","3","2","5","5","4","4","3","3","2","4","4","1","1","1","0","0","1","0","1","1","0","0","0","1","0","1","3","5","5","2","4","4","5","4","2","2","3","739241210526568449","张","666","","","","","","","","","","","","","","","","","","","","","","","","","","","","","","","","","","","","","","","","","",""
"1941","<p style=""color:white; font-size: 35px;"">诚信</p>","i","categorize-html","86","247309","0.0-6.0-1.0-6.0-1.13","2","2","2","2","2","1","1","1","2","1","3","1","2","3","2","2","2","2","3","2","5","5","4","4","3","3","2","4","4","1","1","1","0","0","1","0","1","1","0","0","0","1","0","1","3","5","5","2","4","4","5","4","2","2","3","739241210526568449","张","666","","","","","","","","","","","","","","","","","","","true","13","3","moral","1941","positive","诚信","","","","","","","","","","","","","","","","",""
"null","","null","html-keyboard-response","87","247561","0.0-6.0-1.0-6.0-0.14","2","2","2","2","2","1","1","1","2","1","3","1","2","3","2","2","2","2","3","2","5","5","4","4","3","3","2","4","4","1","1","1","0","0","1","0","1","1","0","0","0","1","0","1","3","5","5","2","4","4","5","4","2","2","3","739241210526568449","张","666","","","","","","","","","","","","","","","","","","","","","","","","","","","","","","","","","","","","","","","","","",""
"708","<p style=""color:rgb(150, 250, 100); font-size: 35px;"">别人</p>","i","categorize-html","88","248270","0.0-6.0-1.0-6.0-1.14","2","2","2","2","2","1","1","1","2","1","3","1","2","3","2","2","2","2","3","2","5","5","4","4","3","3","2","4","4","1","1","1","0","0","1","0","1","1","0","0","0","1","0","1","3","5","5","2","4","4","5","4","2","2","3","739241210526568449","张","666","","","","","","","","","","","","","","","","","","","true","13","3","moral","708","other","别人","","","","","","","","","","","","","","","","",""
"null","","null","html-keyboard-response","89","248522","0.0-6.0-1.0-6.0-0.15","2","2","2","2","2","1","1","1","2","1","3","1","2","3","2","2","2","2","3","2","5","5","4","4","3","3","2","4","4","1","1","1","0","0","1","0","1","1","0","0","0","1","0","1","3","5","5","2","4","4","5","4","2","2","3","739241210526568449","张","666","","","","","","","","","","","","","","","","","","","","","","","","","","","","","","","","","","","","","","","","","",""
"1357","<p style=""color:white; font-size: 35px;"">黑心</p>","e","categorize-html","90","249881","0.0-6.0-1.0-6.0-1.15","2","2","2","2","2","1","1","1","2","1","3","1","2","3","2","2","2","2","3","2","5","5","4","4","3","3","2","4","4","1","1","1","0","0","1","0","1","1","0","0","0","1","0","1","3","5","5","2","4","4","5","4","2","2","3","739241210526568449","张","666","","","","","","","","","","","","","","","","","","","true","13","3","moral","1357","negative","黑心","","","","","","","","","","","","","","","","",""
"null","","null","html-keyboard-response","91","250132","0.0-6.0-1.0-6.0-0.16","2","2","2","2","2","1","1","1","2","1","3","1","2","3","2","2","2","2","3","2","5","5","4","4","3","3","2","4","4","1","1","1","0","0","1","0","1","1","0","0","0","1","0","1","3","5","5","2","4","4","5","4","2","2","3","739241210526568449","张","666","","","","","","","","","","","","","","","","","","","","","","","","","","","","","","","","","","","","","","","","","",""
"1061","<p style=""color:rgb(150, 250, 100); font-size: 35px;"">他的</p>","i","categorize-html","92","251194","0.0-6.0-1.0-6.0-1.16","2","2","2","2","2","1","1","1","2","1","3","1","2","3","2","2","2","2","3","2","5","5","4","4","3","3","2","4","4","1","1","1","0","0","1","0","1","1","0","0","0","1","0","1","3","5","5","2","4","4","5","4","2","2","3","739241210526568449","张","666","","","","","","","","","","","","","","","","","","","true","13","3","moral","1061","other","他的","","","","","","","","","","","","","","","","",""
"null","","null","html-keyboard-response","93","251446","0.0-6.0-1.0-6.0-0.17","2","2","2","2","2","1","1","1","2","1","3","1","2","3","2","2","2","2","3","2","5","5","4","4","3","3","2","4","4","1","1","1","0","0","1","0","1","1","0","0","0","1","0","1","3","5","5","2","4","4","5","4","2","2","3","739241210526568449","张","666","","","","","","","","","","","","","","","","","","","","","","","","","","","","","","","","","","","","","","","","","",""
"1562","<p style=""color:white; font-size: 35px;"">不孝</p>","e","categorize-html","94","253009","0.0-6.0-1.0-6.0-1.17","2","2","2","2","2","1","1","1","2","1","3","1","2","3","2","2","2","2","3","2","5","5","4","4","3","3","2","4","4","1","1","1","0","0","1","0","1","1","0","0","0","1","0","1","3","5","5","2","4","4","5","4","2","2","3","739241210526568449","张","666","","","","","","","","","","","","","","","","","","","true","13","3","moral","1562","negative","不孝","","","","","","","","","","","","","","","","",""
"null","","null","html-keyboard-response","95","253260","0.0-6.0-1.0-6.0-0.18","2","2","2","2","2","1","1","1","2","1","3","1","2","3","2","2","2","2","3","2","5","5","4","4","3","3","2","4","4","1","1","1","0","0","1","0","1","1","0","0","0","1","0","1","3","5","5","2","4","4","5","4","2","2","3","739241210526568449","张","666","","","","","","","","","","","","","","","","","","","","","","","","","","","","","","","","","","","","","","","","","",""
"685","<p style=""color:rgb(150, 250, 100); font-size: 35px;"">我的</p>","e","categorize-html","96","253946","0.0-6.0-1.0-6.0-1.18","2","2","2","2","2","1","1","1","2","1","3","1","2","3","2","2","2","2","3","2","5","5","4","4","3","3","2","4","4","1","1","1","0","0","1","0","1","1","0","0","0","1","0","1","3","5","5","2","4","4","5","4","2","2","3","739241210526568449","张","666","","","","","","","","","","","","","","","","","","","true","13","3","moral","685","self","我的","","","","","","","","","","","","","","","","",""
"null","","null","html-keyboard-response","97","254197","0.0-6.0-1.0-6.0-0.19","2","2","2","2","2","1","1","1","2","1","3","1","2","3","2","2","2","2","3","2","5","5","4","4","3","3","2","4","4","1","1","1","0","0","1","0","1","1","0","0","0","1","0","1","3","5","5","2","4","4","5","4","2","2","3","739241210526568449","张","666","","","","","","","","","","","","","","","","","","","","","","","","","","","","","","","","","","","","","","","","","",""
"866","<p style=""color:white; font-size: 35px;"">高尚</p>","i","categorize-html","98","255065","0.0-6.0-1.0-6.0-1.19","2","2","2","2","2","1","1","1","2","1","3","1","2","3","2","2","2","2","3","2","5","5","4","4","3","3","2","4","4","1","1","1","0","0","1","0","1","1","0","0","0","1","0","1","3","5","5","2","4","4","5","4","2","2","3","739241210526568449","张","666","","","","","","","","","","","","","","","","","","","true","13","3","moral","866","positive","高尚","","","","","","","","","","","","","","","","",""
"null","","null","html-keyboard-response","99","255316","0.0-6.0-1.0-6.0-0.20","2","2","2","2","2","1","1","1","2","1","3","1","2","3","2","2","2","2","3","2","5","5","4","4","3","3","2","4","4","1","1","1","0","0","1","0","1","1","0","0","0","1","0","1","3","5","5","2","4","4","5","4","2","2","3","739241210526568449","张","666","","","","","","","","","","","","","","","","","","","","","","","","","","","","","","","","","","","","","","","","","",""
"1306","<p style=""color:rgb(150, 250, 100); font-size: 35px;"">自己的</p>","e","categorize-html","100","256623","0.0-6.0-1.0-6.0-1.20","2","2","2","2","2","1","1","1","2","1","3","1","2","3","2","2","2","2","3","2","5","5","4","4","3","3","2","4","4","1","1","1","0","0","1","0","1","1","0","0","0","1","0","1","3","5","5","2","4","4","5","4","2","2","3","739241210526568449","张","666","","","","","","","","","","","","","","","","","","","true","13","3","moral","1306","self","自己的","","","","","","","","","","","","","","","","",""
"null","","null","html-keyboard-response","101","256875","0.0-6.0-1.0-6.0-0.21","2","2","2","2","2","1","1","1","2","1","3","1","2","3","2","2","2","2","3","2","5","5","4","4","3","3","2","4","4","1","1","1","0","0","1","0","1","1","0","0","0","1","0","1","3","5","5","2","4","4","5","4","2","2","3","739241210526568449","张","666","","","","","","","","","","","","","","","","","","","","","","","","","","","","","","","","","","","","","","","","","",""
"1246","<p style=""color:white; font-size: 35px;"">不仁</p>","i","categorize-html","102","258941","0.0-6.0-1.0-6.0-1.21","2","2","2","2","2","1","1","1","2","1","3","1","2","3","2","2","2","2","3","2","5","5","4","4","3","3","2","4","4","1","1","1","0","0","1","0","1","1","0","0","0","1","0","1","3","5","5","2","4","4","5","4","2","2","3","739241210526568449","张","666","","","","","","","","","","","","","","","","","","","false","13","3","moral","1869.8095238095239","negative","不仁","","","","","","","","","","","","","","","","",""
"null","","null","html-keyboard-response","103","259192","0.0-6.0-1.0-6.0-0.22","2","2","2","2","2","1","1","1","2","1","3","1","2","3","2","2","2","2","3","2","5","5","4","4","3","3","2","4","4","1","1","1","0","0","1","0","1","1","0","0","0","1","0","1","3","5","5","2","4","4","5","4","2","2","3","739241210526568449","张","666","","","","","","","","","","","","","","","","","","","","","","","","","","","","","","","","","","","","","","","","","",""
"1358","<p style=""color:rgb(150, 250, 100); font-size: 35px;"">他</p>","i","categorize-html","104","260551","0.0-6.0-1.0-6.0-1.22","2","2","2","2","2","1","1","1","2","1","3","1","2","3","2","2","2","2","3","2","5","5","4","4","3","3","2","4","4","1","1","1","0","0","1","0","1","1","0","0","0","1","0","1","3","5","5","2","4","4","5","4","2","2","3","739241210526568449","张","666","","","","","","","","","","","","","","","","","","","true","13","3","moral","1358","other","他","","","","","","","","","","","","","","","","",""
"null","","null","html-keyboard-response","105","260802","0.0-6.0-1.0-6.0-0.23","2","2","2","2","2","1","1","1","2","1","3","1","2","3","2","2","2","2","3","2","5","5","4","4","3","3","2","4","4","1","1","1","0","0","1","0","1","1","0","0","0","1","0","1","3","5","5","2","4","4","5","4","2","2","3","739241210526568449","张","666","","","","","","","","","","","","","","","","","","","","","","","","","","","","","","","","","","","","","","","","","",""
"1467","<p style=""color:white; font-size: 35px;"">正直</p>","i","categorize-html","106","262270","0.0-6.0-1.0-6.0-1.23","2","2","2","2","2","1","1","1","2","1","3","1","2","3","2","2","2","2","3","2","5","5","4","4","3","3","2","4","4","1","1","1","0","0","1","0","1","1","0","0","0","1","0","1","3","5","5","2","4","4","5","4","2","2","3","739241210526568449","张","666","","","","","","","","","","","","","","","","","","","true","13","3","moral","1467","positive","正直","","","","","","","","","","","","","","","","",""
"3433","
    <div class=""tag-bottom""><p>
    —— 任务4：对“自我/消极”词和“他人/积极”词分类 ——<p/>
    <span style=""color:#78DCE8""><b>与刚才的任务完全相同，请再次对这四类词语分类</b></span><p/>
    <span style=""color:#FFD866""><b>请根据上方标签的提示，尽可能正确并且快速地做出按键反应</b></span><p/>
    当按键错误时屏幕中会出现<span style=""color:red""> X </span>，需要按另一个键纠正才能继续<br/><p/>
    请把双手食指分别放在键盘的“E”键和“I”键上<p/>
    按<空格键>开始
    </p></div>"," ","html-keyboard-response","107","265703","0.0-6.0-1.0-7.0","2","2","2","2","2","1","1","1","2","1","3","1","2","3","2","2","2","2","3","2","5","5","4","4","3","3","2","4","4","1","1","1","0","0","1","0","1","1","0","0","0","1","0","1","3","5","5","2","4","4","5","4","2","2","3","739241210526568449","张","666","","","","","","","","","","","","","","","","","","","","","","","","","","","","","","","","","","","","","","","","","",""
"null","","null","html-keyboard-response","108","265954","0.0-6.0-1.0-8.0-0.0","2","2","2","2","2","1","1","1","2","1","3","1","2","3","2","2","2","2","3","2","5","5","4","4","3","3","2","4","4","1","1","1","0","0","1","0","1","1","0","0","0","1","0","1","3","5","5","2","4","4","5","4","2","2","3","739241210526568449","张","666","","","","","","","","","","","","","","","","","","","","","","","","","","","","","","","","","","","","","","","","","",""
"1442","<p style=""color:rgb(150, 250, 100); font-size: 35px;"">本人的</p>","e","categorize-html","109","267397","0.0-6.0-1.0-8.0-1.0","2","2","2","2","2","1","1","1","2","1","3","1","2","3","2","2","2","2","3","2","5","5","4","4","3","3","2","4","4","1","1","1","0","0","1","0","1","1","0","0","0","1","0","1","3","5","5","2","4","4","5","4","2","2","3","739241210526568449","张","666","","","","","","","","","","","","","","","","","","","true","14","4","moral","1442","self","本人的","","","","","","","","","","","","","","","","",""
"null","","null","html-keyboard-response","110","267650","0.0-6.0-1.0-8.0-0.1","2","2","2","2","2","1","1","1","2","1","3","1","2","3","2","2","2","2","3","2","5","5","4","4","3","3","2","4","4","1","1","1","0","0","1","0","1","1","0","0","0","1","0","1","3","5","5","2","4","4","5","4","2","2","3","739241210526568449","张","666","","","","","","","","","","","","","","","","","","","","","","","","","","","","","","","","","","","","","","","","","",""
"2038","<p style=""color:white; font-size: 35px;"">不仁</p>","i","categorize-html","111","270453","0.0-6.0-1.0-8.0-1.1","2","2","2","2","2","1","1","1","2","1","3","1","2","3","2","2","2","2","3","2","5","5","4","4","3","3","2","4","4","1","1","1","0","0","1","0","1","1","0","0","0","1","0","1","3","5","5","2","4","4","5","4","2","2","3","739241210526568449","张","666","","","","","","","","","","","","","","","","","","","false","14","4","moral","1604.3478260869565","negative","不仁","","","","","","","","","","","","","","","","",""
"null","","null","html-keyboard-response","112","270705","0.0-6.0-1.0-8.0-0.2","2","2","2","2","2","1","1","1","2","1","3","1","2","3","2","2","2","2","3","2","5","5","4","4","3","3","2","4","4","1","1","1","0","0","1","0","1","1","0","0","0","1","0","1","3","5","5","2","4","4","5","4","2","2","3","739241210526568449","张","666","","","","","","","","","","","","","","","","","","","","","","","","","","","","","","","","","","","","","","","","","",""
"1083","<p style=""color:rgb(150, 250, 100); font-size: 35px;"">别人的</p>","i","categorize-html","113","271789","0.0-6.0-1.0-8.0-1.2","2","2","2","2","2","1","1","1","2","1","3","1","2","3","2","2","2","2","3","2","5","5","4","4","3","3","2","4","4","1","1","1","0","0","1","0","1","1","0","0","0","1","0","1","3","5","5","2","4","4","5","4","2","2","3","739241210526568449","张","666","","","","","","","","","","","","","","","","","","","true","14","4","moral","1083","other","别人的","","","","","","","","","","","","","","","","",""
"null","","null","html-keyboard-response","114","272041","0.0-6.0-1.0-8.0-0.3","2","2","2","2","2","1","1","1","2","1","3","1","2","3","2","2","2","2","3","2","5","5","4","4","3","3","2","4","4","1","1","1","0","0","1","0","1","1","0","0","0","1","0","1","3","5","5","2","4","4","5","4","2","2","3","739241210526568449","张","666","","","","","","","","","","","","","","","","","","","","","","","","","","","","","","","","","","","","","","","","","",""
"1686","<p style=""color:white; font-size: 35px;"">善良</p>","i","categorize-html","115","273728","0.0-6.0-1.0-8.0-1.3","2","2","2","2","2","1","1","1","2","1","3","1","2","3","2","2","2","2","3","2","5","5","4","4","3","3","2","4","4","1","1","1","0","0","1","0","1","1","0","0","0","1","0","1","3","5","5","2","4","4","5","4","2","2","3","739241210526568449","张","666","","","","","","","","","","","","","","","","","","","true","14","4","moral","1686","positive","善良","","","","","","","","","","","","","","","","",""
"null","","null","html-keyboard-response","116","273980","0.0-6.0-1.0-8.0-0.4","2","2","2","2","2","1","1","1","2","1","3","1","2","3","2","2","2","2","3","2","5","5","4","4","3","3","2","4","4","1","1","1","0","0","1","0","1","1","0","0","0","1","0","1","3","5","5","2","4","4","5","4","2","2","3","739241210526568449","张","666","","","","","","","","","","","","","","","","","","","","","","","","","","","","","","","","","","","","","","","","","",""
"1578","<p style=""color:rgb(150, 250, 100); font-size: 35px;"">本人</p>","e","categorize-html","117","275559","0.0-6.0-1.0-8.0-1.4","2","2","2","2","2","1","1","1","2","1","3","1","2","3","2","2","2","2","3","2","5","5","4","4","3","3","2","4","4","1","1","1","0","0","1","0","1","1","0","0","0","1","0","1","3","5","5","2","4","4","5","4","2","2","3","739241210526568449","张","666","","","","","","","","","","","","","","","","","","","true","14","4","moral","1578","self","本人","","","","","","","","","","","","","","","","",""
"null","","null","html-keyboard-response","118","275811","0.0-6.0-1.0-8.0-0.5","2","2","2","2","2","1","1","1","2","1","3","1","2","3","2","2","2","2","3","2","5","5","4","4","3","3","2","4","4","1","1","1","0","0","1","0","1","1","0","0","0","1","0","1","3","5","5","2","4","4","5","4","2","2","3","739241210526568449","张","666","","","","","","","","","","","","","","","","","","","","","","","","","","","","","","","","","","","","","","","","","",""
"1003","<p style=""color:white; font-size: 35px;"">黑心</p>","e","categorize-html","119","276815","0.0-6.0-1.0-8.0-1.5","2","2","2","2","2","1","1","1","2","1","3","1","2","3","2","2","2","2","3","2","5","5","4","4","3","3","2","4","4","1","1","1","0","0","1","0","1","1","0","0","0","1","0","1","3","5","5","2","4","4","5","4","2","2","3","739241210526568449","张","666","","","","","","","","","","","","","","","","","","","true","14","4","moral","1003","negative","黑心","","","","","","","","","","","","","","","","",""
"null","","null","html-keyboard-response","120","277067","0.0-6.0-1.0-8.0-0.6","2","2","2","2","2","1","1","1","2","1","3","1","2","3","2","2","2","2","3","2","5","5","4","4","3","3","2","4","4","1","1","1","0","0","1","0","1","1","0","0","0","1","0","1","3","5","5","2","4","4","5","4","2","2","3","739241210526568449","张","666","","","","","","","","","","","","","","","","","","","","","","","","","","","","","","","","","","","","","","","","","",""
"854","<p style=""color:rgb(150, 250, 100); font-size: 35px;"">他人的</p>","i","categorize-html","121","277927","0.0-6.0-1.0-8.0-1.6","2","2","2","2","2","1","1","1","2","1","3","1","2","3","2","2","2","2","3","2","5","5","4","4","3","3","2","4","4","1","1","1","0","0","1","0","1","1","0","0","0","1","0","1","3","5","5","2","4","4","5","4","2","2","3","739241210526568449","张","666","","","","","","","","","","","","","","","","","","","true","14","4","moral","854","other","他人的","","","","","","","","","","","","","","","","",""
"null","","null","html-keyboard-response","122","278178","0.0-6.0-1.0-8.0-0.7","2","2","2","2","2","1","1","1","2","1","3","1","2","3","2","2","2","2","3","2","5","5","4","4","3","3","2","4","4","1","1","1","0","0","1","0","1","1","0","0","0","1","0","1","3","5","5","2","4","4","5","4","2","2","3","739241210526568449","张","666","","","","","","","","","","","","","","","","","","","","","","","","","","","","","","","","","","","","","","","","","",""
"527","<p style=""color:white; font-size: 35px;"">诚信</p>","i","categorize-html","123","278706","0.0-6.0-1.0-8.0-1.7","2","2","2","2","2","1","1","1","2","1","3","1","2","3","2","2","2","2","3","2","5","5","4","4","3","3","2","4","4","1","1","1","0","0","1","0","1","1","0","0","0","1","0","1","3","5","5","2","4","4","5","4","2","2","3","739241210526568449","张","666","","","","","","","","","","","","","","","","","","","true","14","4","moral","527","positive","诚信","","","","","","","","","","","","","","","","",""
"null","","null","html-keyboard-response","124","278958","0.0-6.0-1.0-8.0-0.8","2","2","2","2","2","1","1","1","2","1","3","1","2","3","2","2","2","2","3","2","5","5","4","4","3","3","2","4","4","1","1","1","0","0","1","0","1","1","0","0","0","1","0","1","3","5","5","2","4","4","5","4","2","2","3","739241210526568449","张","666","","","","","","","","","","","","","","","","","","","","","","","","","","","","","","","","","","","","","","","","","",""
"1036","<p style=""color:rgb(150, 250, 100); font-size: 35px;"">我的</p>","e","categorize-html","125","279994","0.0-6.0-1.0-8.0-1.8","2","2","2","2","2","1","1","1","2","1","3","1","2","3","2","2","2","2","3","2","5","5","4","4","3","3","2","4","4","1","1","1","0","0","1","0","1","1","0","0","0","1","0","1","3","5","5","2","4","4","5","4","2","2","3","739241210526568449","张","666","","","","","","","","","","","","","","","","","","","true","14","4","moral","1036","self","我的","","","","","","","","","","","","","","","","",""
"null","","null","html-keyboard-response","126","280246","0.0-6.0-1.0-8.0-0.9","2","2","2","2","2","1","1","1","2","1","3","1","2","3","2","2","2","2","3","2","5","5","4","4","3","3","2","4","4","1","1","1","0","0","1","0","1","1","0","0","0","1","0","1","3","5","5","2","4","4","5","4","2","2","3","739241210526568449","张","666","","","","","","","","","","","","","","","","","","","","","","","","","","","","","","","","","","","","","","","","","",""
"774","<p style=""color:white; font-size: 35px;"">君子</p>","i","categorize-html","127","281021","0.0-6.0-1.0-8.0-1.9","2","2","2","2","2","1","1","1","2","1","3","1","2","3","2","2","2","2","3","2","5","5","4","4","3","3","2","4","4","1","1","1","0","0","1","0","1","1","0","0","0","1","0","1","3","5","5","2","4","4","5","4","2","2","3","739241210526568449","张","666","","","","","","","","","","","","","","","","","","","true","14","4","moral","774","positive","君子","","","","","","","","","","","","","","","","",""
"null","","null","html-keyboard-response","128","281272","0.0-6.0-1.0-8.0-0.10","2","2","2","2","2","1","1","1","2","1","3","1","2","3","2","2","2","2","3","2","5","5","4","4","3","3","2","4","4","1","1","1","0","0","1","0","1","1","0","0","0","1","0","1","3","5","5","2","4","4","5","4","2","2","3","739241210526568449","张","666","","","","","","","","","","","","","","","","","","","","","","","","","","","","","","","","","","","","","","","","","",""
"1247","<p style=""color:rgb(150, 250, 100); font-size: 35px;"">他</p>","i","categorize-html","129","282520","0.0-6.0-1.0-8.0-1.10","2","2","2","2","2","1","1","1","2","1","3","1","2","3","2","2","2","2","3","2","5","5","4","4","3","3","2","4","4","1","1","1","0","0","1","0","1","1","0","0","0","1","0","1","3","5","5","2","4","4","5","4","2","2","3","739241210526568449","张","666","","","","","","","","","","","","","","","","","","","true","14","4","moral","1247","other","他","","","","","","","","","","","","","","","","",""
"null","","null","html-keyboard-response","130","282772","0.0-6.0-1.0-8.0-0.11","2","2","2","2","2","1","1","1","2","1","3","1","2","3","2","2","2","2","3","2","5","5","4","4","3","3","2","4","4","1","1","1","0","0","1","0","1","1","0","0","0","1","0","1","3","5","5","2","4","4","5","4","2","2","3","739241210526568449","张","666","","","","","","","","","","","","","","","","","","","","","","","","","","","","","","","","","","","","","","","","","",""
"895","<p style=""color:white; font-size: 35px;"">黑心</p>","e","categorize-html","131","283667","0.0-6.0-1.0-8.0-1.11","2","2","2","2","2","1","1","1","2","1","3","1","2","3","2","2","2","2","3","2","5","5","4","4","3","3","2","4","4","1","1","1","0","0","1","0","1","1","0","0","0","1","0","1","3","5","5","2","4","4","5","4","2","2","3","739241210526568449","张","666","","","","","","","","","","","","","","","","","","","true","14","4","moral","895","negative","黑心","","","","","","","","","","","","","","","","",""
"null","","null","html-keyboard-response","132","283918","0.0-6.0-1.0-8.0-0.12","2","2","2","2","2","1","1","1","2","1","3","1","2","3","2","2","2","2","3","2","5","5","4","4","3","3","2","4","4","1","1","1","0","0","1","0","1","1","0","0","0","1","0","1","3","5","5","2","4","4","5","4","2","2","3","739241210526568449","张","666","","","","","","","","","","","","","","","","","","","","","","","","","","","","","","","","","","","","","","","","","",""
"983","<p style=""color:rgb(150, 250, 100); font-size: 35px;"">本人的</p>","i","categorize-html","133","285989","0.0-6.0-1.0-8.0-1.12","2","2","2","2","2","1","1","1","2","1","3","1","2","3","2","2","2","2","3","2","5","5","4","4","3","3","2","4","4","1","1","1","0","0","1","0","1","1","0","0","0","1","0","1","3","5","5","2","4","4","5","4","2","2","3","739241210526568449","张","666","","","","","","","","","","","","","","","","","","","false","14","4","moral","1604.3478260869565","self","本人的","","","","","","","","","","","","","","","","",""
"null","","null","html-keyboard-response","134","286240","0.0-6.0-1.0-8.0-0.13","2","2","2","2","2","1","1","1","2","1","3","1","2","3","2","2","2","2","3","2","5","5","4","4","3","3","2","4","4","1","1","1","0","0","1","0","1","1","0","0","0","1","0","1","3","5","5","2","4","4","5","4","2","2","3","739241210526568449","张","666","","","","","","","","","","","","","","","","","","","","","","","","","","","","","","","","","","","","","","","","","",""
"2067","<p style=""color:white; font-size: 35px;"">善良</p>","i","categorize-html","135","288308","0.0-6.0-1.0-8.0-1.13","2","2","2","2","2","1","1","1","2","1","3","1","2","3","2","2","2","2","3","2","5","5","4","4","3","3","2","4","4","1","1","1","0","0","1","0","1","1","0","0","0","1","0","1","3","5","5","2","4","4","5","4","2","2","3","739241210526568449","张","666","","","","","","","","","","","","","","","","","","","true","14","4","moral","2067","positive","善良","","","","","","","","","","","","","","","","",""
"null","","null","html-keyboard-response","136","288559","0.0-6.0-1.0-8.0-0.14","2","2","2","2","2","1","1","1","2","1","3","1","2","3","2","2","2","2","3","2","5","5","4","4","3","3","2","4","4","1","1","1","0","0","1","0","1","1","0","0","0","1","0","1","3","5","5","2","4","4","5","4","2","2","3","739241210526568449","张","666","","","","","","","","","","","","","","","","","","","","","","","","","","","","","","","","","","","","","","","","","",""
"766","<p style=""color:rgb(150, 250, 100); font-size: 35px;"">他</p>","i","categorize-html","137","289326","0.0-6.0-1.0-8.0-1.14","2","2","2","2","2","1","1","1","2","1","3","1","2","3","2","2","2","2","3","2","5","5","4","4","3","3","2","4","4","1","1","1","0","0","1","0","1","1","0","0","0","1","0","1","3","5","5","2","4","4","5","4","2","2","3","739241210526568449","张","666","","","","","","","","","","","","","","","","","","","true","14","4","moral","766","other","他","","","","","","","","","","","","","","","","",""
"null","","null","html-keyboard-response","138","289578","0.0-6.0-1.0-8.0-0.15","2","2","2","2","2","1","1","1","2","1","3","1","2","3","2","2","2","2","3","2","5","5","4","4","3","3","2","4","4","1","1","1","0","0","1","0","1","1","0","0","0","1","0","1","3","5","5","2","4","4","5","4","2","2","3","739241210526568449","张","666","","","","","","","","","","","","","","","","","","","","","","","","","","","","","","","","","","","","","","","","","",""
"776","<p style=""color:white; font-size: 35px;"">缺德</p>","e","categorize-html","139","290354","0.0-6.0-1.0-8.0-1.15","2","2","2","2","2","1","1","1","2","1","3","1","2","3","2","2","2","2","3","2","5","5","4","4","3","3","2","4","4","1","1","1","0","0","1","0","1","1","0","0","0","1","0","1","3","5","5","2","4","4","5","4","2","2","3","739241210526568449","张","666","","","","","","","","","","","","","","","","","","","true","14","4","moral","776","negative","缺德","","","","","","","","","","","","","","","","",""
"null","","null","html-keyboard-response","140","290606","0.0-6.0-1.0-8.0-0.16","2","2","2","2","2","1","1","1","2","1","3","1","2","3","2","2","2","2","3","2","5","5","4","4","3","3","2","4","4","1","1","1","0","0","1","0","1","1","0","0","0","1","0","1","3","5","5","2","4","4","5","4","2","2","3","739241210526568449","张","666","","","","","","","","","","","","","","","","","","","","","","","","","","","","","","","","","","","","","","","","","",""
"571","<p style=""color:rgb(150, 250, 100); font-size: 35px;"">自己</p>","e","categorize-html","141","291178","0.0-6.0-1.0-8.0-1.16","2","2","2","2","2","1","1","1","2","1","3","1","2","3","2","2","2","2","3","2","5","5","4","4","3","3","2","4","4","1","1","1","0","0","1","0","1","1","0","0","0","1","0","1","3","5","5","2","4","4","5","4","2","2","3","739241210526568449","张","666","","","","","","","","","","","","","","","","","","","true","14","4","moral","571","self","自己","","","","","","","","","","","","","","","","",""
"null","","null","html-keyboard-response","142","291429","0.0-6.0-1.0-8.0-0.17","2","2","2","2","2","1","1","1","2","1","3","1","2","3","2","2","2","2","3","2","5","5","4","4","3","3","2","4","4","1","1","1","0","0","1","0","1","1","0","0","0","1","0","1","3","5","5","2","4","4","5","4","2","2","3","739241210526568449","张","666","","","","","","","","","","","","","","","","","","","","","","","","","","","","","","","","","","","","","","","","","",""
"939","<p style=""color:white; font-size: 35px;"">不仁</p>","e","categorize-html","143","292369","0.0-6.0-1.0-8.0-1.17","2","2","2","2","2","1","1","1","2","1","3","1","2","3","2","2","2","2","3","2","5","5","4","4","3","3","2","4","4","1","1","1","0","0","1","0","1","1","0","0","0","1","0","1","3","5","5","2","4","4","5","4","2","2","3","739241210526568449","张","666","","","","","","","","","","","","","","","","","","","true","14","4","moral","939","negative","不仁","","","","","","","","","","","","","","","","",""
"null","","null","html-keyboard-response","144","292621","0.0-6.0-1.0-8.0-0.18","2","2","2","2","2","1","1","1","2","1","3","1","2","3","2","2","2","2","3","2","5","5","4","4","3","3","2","4","4","1","1","1","0","0","1","0","1","1","0","0","0","1","0","1","3","5","5","2","4","4","5","4","2","2","3","739241210526568449","张","666","","","","","","","","","","","","","","","","","","","","","","","","","","","","","","","","","","","","","","","","","",""
"815","<p style=""color:rgb(150, 250, 100); font-size: 35px;"">别人</p>","i","categorize-html","145","293437","0.0-6.0-1.0-8.0-1.18","2","2","2","2","2","1","1","1","2","1","3","1","2","3","2","2","2","2","3","2","5","5","4","4","3","3","2","4","4","1","1","1","0","0","1","0","1","1","0","0","0","1","0","1","3","5","5","2","4","4","5","4","2","2","3","739241210526568449","张","666","","","","","","","","","","","","","","","","","","","true","14","4","moral","815","other","别人","","","","","","","","","","","","","","","","",""
"null","","null","html-keyboard-response","146","293689","0.0-6.0-1.0-8.0-0.19","2","2","2","2","2","1","1","1","2","1","3","1","2","3","2","2","2","2","3","2","5","5","4","4","3","3","2","4","4","1","1","1","0","0","1","0","1","1","0","0","0","1","0","1","3","5","5","2","4","4","5","4","2","2","3","739241210526568449","张","666","","","","","","","","","","","","","","","","","","","","","","","","","","","","","","","","","","","","","","","","","",""
"510","<p style=""color:white; font-size: 35px;"">正直</p>","i","categorize-html","147","294201","0.0-6.0-1.0-8.0-1.19","2","2","2","2","2","1","1","1","2","1","3","1","2","3","2","2","2","2","3","2","5","5","4","4","3","3","2","4","4","1","1","1","0","0","1","0","1","1","0","0","0","1","0","1","3","5","5","2","4","4","5","4","2","2","3","739241210526568449","张","666","","","","","","","","","","","","","","","","","","","true","14","4","moral","510","positive","正直","","","","","","","","","","","","","","","","",""
"null","","null","html-keyboard-response","148","294453","0.0-6.0-1.0-8.0-0.20","2","2","2","2","2","1","1","1","2","1","3","1","2","3","2","2","2","2","3","2","5","5","4","4","3","3","2","4","4","1","1","1","0","0","1","0","1","1","0","0","0","1","0","1","3","5","5","2","4","4","5","4","2","2","3","739241210526568449","张","666","","","","","","","","","","","","","","","","","","","","","","","","","","","","","","","","","","","","","","","","","",""
"855","<p style=""color:rgb(150, 250, 100); font-size: 35px;"">他人</p>","i","categorize-html","149","295309","0.0-6.0-1.0-8.0-1.20","2","2","2","2","2","1","1","1","2","1","3","1","2","3","2","2","2","2","3","2","5","5","4","4","3","3","2","4","4","1","1","1","0","0","1","0","1","1","0","0","0","1","0","1","3","5","5","2","4","4","5","4","2","2","3","739241210526568449","张","666","","","","","","","","","","","","","","","","","","","true","14","4","moral","855","other","他人","","","","","","","","","","","","","","","","",""
"null","","null","html-keyboard-response","150","295560","0.0-6.0-1.0-8.0-0.21","2","2","2","2","2","1","1","1","2","1","3","1","2","3","2","2","2","2","3","2","5","5","4","4","3","3","2","4","4","1","1","1","0","0","1","0","1","1","0","0","0","1","0","1","3","5","5","2","4","4","5","4","2","2","3","739241210526568449","张","666","","","","","","","","","","","","","","","","","","","","","","","","","","","","","","","","","","","","","","","","","",""
"1003","<p style=""color:white; font-size: 35px;"">廉正</p>","i","categorize-html","151","296565","0.0-6.0-1.0-8.0-1.21","2","2","2","2","2","1","1","1","2","1","3","1","2","3","2","2","2","2","3","2","5","5","4","4","3","3","2","4","4","1","1","1","0","0","1","0","1","1","0","0","0","1","0","1","3","5","5","2","4","4","5","4","2","2","3","739241210526568449","张","666","","","","","","","","","","","","","","","","","","","true","14","4","moral","1003","positive","廉正","","","","","","","","","","","","","","","","",""
"null","","null","html-keyboard-response","152","296816","0.0-6.0-1.0-8.0-0.22","2","2","2","2","2","1","1","1","2","1","3","1","2","3","2","2","2","2","3","2","5","5","4","4","3","3","2","4","4","1","1","1","0","0","1","0","1","1","0","0","0","1","0","1","3","5","5","2","4","4","5","4","2","2","3","739241210526568449","张","666","","","","","","","","","","","","","","","","","","","","","","","","","","","","","","","","","","","","","","","","","",""
"837","<p style=""color:rgb(150, 250, 100); font-size: 35px;"">我</p>","e","categorize-html","153","297653","0.0-6.0-1.0-8.0-1.22","2","2","2","2","2","1","1","1","2","1","3","1","2","3","2","2","2","2","3","2","5","5","4","4","3","3","2","4","4","1","1","1","0","0","1","0","1","1","0","0","0","1","0","1","3","5","5","2","4","4","5","4","2","2","3","739241210526568449","张","666","","","","","","","","","","","","","","","","","","","true","14","4","moral","837","self","我","","","","","","","","","","","","","","","","",""
"null","","null","html-keyboard-response","154","297906","0.0-6.0-1.0-8.0-0.23","2","2","2","2","2","1","1","1","2","1","3","1","2","3","2","2","2","2","3","2","5","5","4","4","3","3","2","4","4","1","1","1","0","0","1","0","1","1","0","0","0","1","0","1","3","5","5","2","4","4","5","4","2","2","3","739241210526568449","张","666","","","","","","","","","","","","","","","","","","","","","","","","","","","","","","","","","","","","","","","","","",""
"740","<p style=""color:white; font-size: 35px;"">不孝</p>","e","categorize-html","155","298647","0.0-6.0-1.0-8.0-1.23","2","2","2","2","2","1","1","1","2","1","3","1","2","3","2","2","2","2","3","2","5","5","4","4","3","3","2","4","4","1","1","1","0","0","1","0","1","1","0","0","0","1","0","1","3","5","5","2","4","4","5","4","2","2","3","739241210526568449","张","666","","","","","","","","","","","","","","","","","","","true","14","4","moral","740","negative","不孝","","","","","","","","","","","","","","","","",""
"null","","null","html-keyboard-response","156","298898","0.0-6.0-1.0-8.0-0.24","2","2","2","2","2","1","1","1","2","1","3","1","2","3","2","2","2","2","3","2","5","5","4","4","3","3","2","4","4","1","1","1","0","0","1","0","1","1","0","0","0","1","0","1","3","5","5","2","4","4","5","4","2","2","3","739241210526568449","张","666","","","","","","","","","","","","","","","","","","","","","","","","","","","","","","","","","","","","","","","","","",""
"1404","<p style=""color:rgb(150, 250, 100); font-size: 35px;"">他的</p>","i","categorize-html","157","300303","0.0-6.0-1.0-8.0-1.24","2","2","2","2","2","1","1","1","2","1","3","1","2","3","2","2","2","2","3","2","5","5","4","4","3","3","2","4","4","1","1","1","0","0","1","0","1","1","0","0","0","1","0","1","3","5","5","2","4","4","5","4","2","2","3","739241210526568449","张","666","","","","","","","","","","","","","","","","","","","true","14","4","moral","1404","other","他的","","","","","","","","","","","","","","","","",""
"null","","null","html-keyboard-response","158","300554","0.0-6.0-1.0-8.0-0.25","2","2","2","2","2","1","1","1","2","1","3","1","2","3","2","2","2","2","3","2","5","5","4","4","3","3","2","4","4","1","1","1","0","0","1","0","1","1","0","0","0","1","0","1","3","5","5","2","4","4","5","4","2","2","3","739241210526568449","张","666","","","","","","","","","","","","","","","","","","","","","","","","","","","","","","","","","","","","","","","","","",""
"1142","<p style=""color:white; font-size: 35px;"">正直</p>","i","categorize-html","159","301697","0.0-6.0-1.0-8.0-1.25","2","2","2","2","2","1","1","1","2","1","3","1","2","3","2","2","2","2","3","2","5","5","4","4","3","3","2","4","4","1","1","1","0","0","1","0","1","1","0","0","0","1","0","1","3","5","5","2","4","4","5","4","2","2","3","739241210526568449","张","666","","","","","","","","","","","","","","","","","","","true","14","4","moral","1142","positive","正直","","","","","","","","","","","","","","","","",""
"null","","null","html-keyboard-response","160","301949","0.0-6.0-1.0-8.0-0.26","2","2","2","2","2","1","1","1","2","1","3","1","2","3","2","2","2","2","3","2","5","5","4","4","3","3","2","4","4","1","1","1","0","0","1","0","1","1","0","0","0","1","0","1","3","5","5","2","4","4","5","4","2","2","3","739241210526568449","张","666","","","","","","","","","","","","","","","","","","","","","","","","","","","","","","","","","","","","","","","","","",""
"930","<p style=""color:rgb(150, 250, 100); font-size: 35px;"">自己</p>","e","categorize-html","161","302880","0.0-6.0-1.0-8.0-1.26","2","2","2","2","2","1","1","1","2","1","3","1","2","3","2","2","2","2","3","2","5","5","4","4","3","3","2","4","4","1","1","1","0","0","1","0","1","1","0","0","0","1","0","1","3","5","5","2","4","4","5","4","2","2","3","739241210526568449","张","666","","","","","","","","","","","","","","","","","","","true","14","4","moral","930","self","自己","","","","","","","","","","","","","","","","",""
"null","","null","html-keyboard-response","162","303131","0.0-6.0-1.0-8.0-0.27","2","2","2","2","2","1","1","1","2","1","3","1","2","3","2","2","2","2","3","2","5","5","4","4","3","3","2","4","4","1","1","1","0","0","1","0","1","1","0","0","0","1","0","1","3","5","5","2","4","4","5","4","2","2","3","739241210526568449","张","666","","","","","","","","","","","","","","","","","","","","","","","","","","","","","","","","","","","","","","","","","",""
"1316","<p style=""color:white; font-size: 35px;"">不孝</p>","e","categorize-html","163","304448","0.0-6.0-1.0-8.0-1.27","2","2","2","2","2","1","1","1","2","1","3","1","2","3","2","2","2","2","3","2","5","5","4","4","3","3","2","4","4","1","1","1","0","0","1","0","1","1","0","0","0","1","0","1","3","5","5","2","4","4","5","4","2","2","3","739241210526568449","张","666","","","","","","","","","","","","","","","","","","","true","14","4","moral","1316","negative","不孝","","","","","","","","","","","","","","","","",""
"null","","null","html-keyboard-response","164","304700","0.0-6.0-1.0-8.0-0.28","2","2","2","2","2","1","1","1","2","1","3","1","2","3","2","2","2","2","3","2","5","5","4","4","3","3","2","4","4","1","1","1","0","0","1","0","1","1","0","0","0","1","0","1","3","5","5","2","4","4","5","4","2","2","3","739241210526568449","张","666","","","","","","","","","","","","","","","","","","","","","","","","","","","","","","","","","","","","","","","","","",""
"675","<p style=""color:rgb(150, 250, 100); font-size: 35px;"">自己的</p>","e","categorize-html","165","305376","0.0-6.0-1.0-8.0-1.28","2","2","2","2","2","1","1","1","2","1","3","1","2","3","2","2","2","2","3","2","5","5","4","4","3","3","2","4","4","1","1","1","0","0","1","0","1","1","0","0","0","1","0","1","3","5","5","2","4","4","5","4","2","2","3","739241210526568449","张","666","","","","","","","","","","","","","","","","","","","true","14","4","moral","675","self","自己的","","","","","","","","","","","","","","","","",""
"null","","null","html-keyboard-response","166","305628","0.0-6.0-1.0-8.0-0.29","2","2","2","2","2","1","1","1","2","1","3","1","2","3","2","2","2","2","3","2","5","5","4","4","3","3","2","4","4","1","1","1","0","0","1","0","1","1","0","0","0","1","0","1","3","5","5","2","4","4","5","4","2","2","3","739241210526568449","张","666","","","","","","","","","","","","","","","","","","","","","","","","","","","","","","","","","","","","","","","","","",""
"939","<p style=""color:white; font-size: 35px;"">小人</p>","e","categorize-html","167","306568","0.0-6.0-1.0-8.0-1.29","2","2","2","2","2","1","1","1","2","1","3","1","2","3","2","2","2","2","3","2","5","5","4","4","3","3","2","4","4","1","1","1","0","0","1","0","1","1","0","0","0","1","0","1","3","5","5","2","4","4","5","4","2","2","3","739241210526568449","张","666","","","","","","","","","","","","","","","","","","","true","14","4","moral","939","negative","小人","","","","","","","","","","","","","","","","",""
"null","","null","html-keyboard-response","168","306820","0.0-6.0-1.0-8.0-0.30","2","2","2","2","2","1","1","1","2","1","3","1","2","3","2","2","2","2","3","2","5","5","4","4","3","3","2","4","4","1","1","1","0","0","1","0","1","1","0","0","0","1","0","1","3","5","5","2","4","4","5","4","2","2","3","739241210526568449","张","666","","","","","","","","","","","","","","","","","","","","","","","","","","","","","","","","","","","","","","","","","",""
"746","<p style=""color:rgb(150, 250, 100); font-size: 35px;"">他人的</p>","i","categorize-html","169","307567","0.0-6.0-1.0-8.0-1.30","2","2","2","2","2","1","1","1","2","1","3","1","2","3","2","2","2","2","3","2","5","5","4","4","3","3","2","4","4","1","1","1","0","0","1","0","1","1","0","0","0","1","0","1","3","5","5","2","4","4","5","4","2","2","3","739241210526568449","张","666","","","","","","","","","","","","","","","","","","","true","14","4","moral","746","other","他人的","","","","","","","","","","","","","","","","",""
"null","","null","html-keyboard-response","170","307819","0.0-6.0-1.0-8.0-0.31","2","2","2","2","2","1","1","1","2","1","3","1","2","3","2","2","2","2","3","2","5","5","4","4","3","3","2","4","4","1","1","1","0","0","1","0","1","1","0","0","0","1","0","1","3","5","5","2","4","4","5","4","2","2","3","739241210526568449","张","666","","","","","","","","","","","","","","","","","","","","","","","","","","","","","","","","","","","","","","","","","",""
"453","<p style=""color:white; font-size: 35px;"">高尚</p>","i","categorize-html","171","308273","0.0-6.0-1.0-8.0-1.31","2","2","2","2","2","1","1","1","2","1","3","1","2","3","2","2","2","2","3","2","5","5","4","4","3","3","2","4","4","1","1","1","0","0","1","0","1","1","0","0","0","1","0","1","3","5","5","2","4","4","5","4","2","2","3","739241210526568449","张","666","","","","","","","","","","","","","","","","","","","true","14","4","moral","453","positive","高尚","","","","","","","","","","","","","","","","",""
"null","","null","html-keyboard-response","172","308524","0.0-6.0-1.0-8.0-0.32","2","2","2","2","2","1","1","1","2","1","3","1","2","3","2","2","2","2","3","2","5","5","4","4","3","3","2","4","4","1","1","1","0","0","1","0","1","1","0","0","0","1","0","1","3","5","5","2","4","4","5","4","2","2","3","739241210526568449","张","666","","","","","","","","","","","","","","","","","","","","","","","","","","","","","","","","","","","","","","","","","",""
"635","<p style=""color:rgb(150, 250, 100); font-size: 35px;"">他人</p>","i","categorize-html","173","309160","0.0-6.0-1.0-8.0-1.32","2","2","2","2","2","1","1","1","2","1","3","1","2","3","2","2","2","2","3","2","5","5","4","4","3","3","2","4","4","1","1","1","0","0","1","0","1","1","0","0","0","1","0","1","3","5","5","2","4","4","5","4","2","2","3","739241210526568449","张","666","","","","","","","","","","","","","","","","","","","true","14","4","moral","635","other","他人","","","","","","","","","","","","","","","","",""
"null","","null","html-keyboard-response","174","309411","0.0-6.0-1.0-8.0-0.33","2","2","2","2","2","1","1","1","2","1","3","1","2","3","2","2","2","2","3","2","5","5","4","4","3","3","2","4","4","1","1","1","0","0","1","0","1","1","0","0","0","1","0","1","3","5","5","2","4","4","5","4","2","2","3","739241210526568449","张","666","","","","","","","","","","","","","","","","","","","","","","","","","","","","","","","","","","","","","","","","","",""
"839","<p style=""color:white; font-size: 35px;"">小人</p>","e","categorize-html","175","310252","0.0-6.0-1.0-8.0-1.33","2","2","2","2","2","1","1","1","2","1","3","1","2","3","2","2","2","2","3","2","5","5","4","4","3","3","2","4","4","1","1","1","0","0","1","0","1","1","0","0","0","1","0","1","3","5","5","2","4","4","5","4","2","2","3","739241210526568449","张","666","","","","","","","","","","","","","","","","","","","true","14","4","moral","839","negative","小人","","","","","","","","","","","","","","","","",""
"null","","null","html-keyboard-response","176","310504","0.0-6.0-1.0-8.0-0.34","2","2","2","2","2","1","1","1","2","1","3","1","2","3","2","2","2","2","3","2","5","5","4","4","3","3","2","4","4","1","1","1","0","0","1","0","1","1","0","0","0","1","0","1","3","5","5","2","4","4","5","4","2","2","3","739241210526568449","张","666","","","","","","","","","","","","","","","","","","","","","","","","","","","","","","","","","","","","","","","","","",""
"796","<p style=""color:rgb(150, 250, 100); font-size: 35px;"">我的</p>","e","categorize-html","177","311301","0.0-6.0-1.0-8.0-1.34","2","2","2","2","2","1","1","1","2","1","3","1","2","3","2","2","2","2","3","2","5","5","4","4","3","3","2","4","4","1","1","1","0","0","1","0","1","1","0","0","0","1","0","1","3","5","5","2","4","4","5","4","2","2","3","739241210526568449","张","666","","","","","","","","","","","","","","","","","","","true","14","4","moral","796","self","我的","","","","","","","","","","","","","","","","",""
"null","","null","html-keyboard-response","178","311553","0.0-6.0-1.0-8.0-0.35","2","2","2","2","2","1","1","1","2","1","3","1","2","3","2","2","2","2","3","2","5","5","4","4","3","3","2","4","4","1","1","1","0","0","1","0","1","1","0","0","0","1","0","1","3","5","5","2","4","4","5","4","2","2","3","739241210526568449","张","666","","","","","","","","","","","","","","","","","","","","","","","","","","","","","","","","","","","","","","","","","",""
"1943","<p style=""color:white; font-size: 35px;"">廉正</p>","i","categorize-html","179","313497","0.0-6.0-1.0-8.0-1.35","2","2","2","2","2","1","1","1","2","1","3","1","2","3","2","2","2","2","3","2","5","5","4","4","3","3","2","4","4","1","1","1","0","0","1","0","1","1","0","0","0","1","0","1","3","5","5","2","4","4","5","4","2","2","3","739241210526568449","张","666","","","","","","","","","","","","","","","","","","","true","14","4","moral","1943","positive","廉正","","","","","","","","","","","","","","","","",""
"null","","null","html-keyboard-response","180","313748","0.0-6.0-1.0-8.0-0.36","2","2","2","2","2","1","1","1","2","1","3","1","2","3","2","2","2","2","3","2","5","5","4","4","3","3","2","4","4","1","1","1","0","0","1","0","1","1","0","0","0","1","0","1","3","5","5","2","4","4","5","4","2","2","3","739241210526568449","张","666","","","","","","","","","","","","","","","","","","","","","","","","","","","","","","","","","","","","","","","","","",""
"835","<p style=""color:rgb(150, 250, 100); font-size: 35px;"">自己的</p>","e","categorize-html","181","314584","0.0-6.0-1.0-8.0-1.36","2","2","2","2","2","1","1","1","2","1","3","1","2","3","2","2","2","2","3","2","5","5","4","4","3","3","2","4","4","1","1","1","0","0","1","0","1","1","0","0","0","1","0","1","3","5","5","2","4","4","5","4","2","2","3","739241210526568449","张","666","","","","","","","","","","","","","","","","","","","true","14","4","moral","835","self","自己的","","","","","","","","","","","","","","","","",""
"null","","null","html-keyboard-response","182","314835","0.0-6.0-1.0-8.0-0.37","2","2","2","2","2","1","1","1","2","1","3","1","2","3","2","2","2","2","3","2","5","5","4","4","3","3","2","4","4","1","1","1","0","0","1","0","1","1","0","0","0","1","0","1","3","5","5","2","4","4","5","4","2","2","3","739241210526568449","张","666","","","","","","","","","","","","","","","","","","","","","","","","","","","","","","","","","","","","","","","","","",""
"1521","<p style=""color:white; font-size: 35px;"">诚信</p>","i","categorize-html","183","316357","0.0-6.0-1.0-8.0-1.37","2","2","2","2","2","1","1","1","2","1","3","1","2","3","2","2","2","2","3","2","5","5","4","4","3","3","2","4","4","1","1","1","0","0","1","0","1","1","0","0","0","1","0","1","3","5","5","2","4","4","5","4","2","2","3","739241210526568449","张","666","","","","","","","","","","","","","","","","","","","true","14","4","moral","1521","positive","诚信","","","","","","","","","","","","","","","","",""
"null","","null","html-keyboard-response","184","316609","0.0-6.0-1.0-8.0-0.38","2","2","2","2","2","1","1","1","2","1","3","1","2","3","2","2","2","2","3","2","5","5","4","4","3","3","2","4","4","1","1","1","0","0","1","0","1","1","0","0","0","1","0","1","3","5","5","2","4","4","5","4","2","2","3","739241210526568449","张","666","","","","","","","","","","","","","","","","","","","","","","","","","","","","","","","","","","","","","","","","","",""
"535","<p style=""color:rgb(150, 250, 100); font-size: 35px;"">别人的</p>","i","categorize-html","185","317145","0.0-6.0-1.0-8.0-1.38","2","2","2","2","2","1","1","1","2","1","3","1","2","3","2","2","2","2","3","2","5","5","4","4","3","3","2","4","4","1","1","1","0","0","1","0","1","1","0","0","0","1","0","1","3","5","5","2","4","4","5","4","2","2","3","739241210526568449","张","666","","","","","","","","","","","","","","","","","","","true","14","4","moral","535","other","别人的","","","","","","","","","","","","","","","","",""
"null","","null","html-keyboard-response","186","317396","0.0-6.0-1.0-8.0-0.39","2","2","2","2","2","1","1","1","2","1","3","1","2","3","2","2","2","2","3","2","5","5","4","4","3","3","2","4","4","1","1","1","0","0","1","0","1","1","0","0","0","1","0","1","3","5","5","2","4","4","5","4","2","2","3","739241210526568449","张","666","","","","","","","","","","","","","","","","","","","","","","","","","","","","","","","","","","","","","","","","","",""
"960","<p style=""color:white; font-size: 35px;"">缺德</p>","e","categorize-html","187","318357","0.0-6.0-1.0-8.0-1.39","2","2","2","2","2","1","1","1","2","1","3","1","2","3","2","2","2","2","3","2","5","5","4","4","3","3","2","4","4","1","1","1","0","0","1","0","1","1","0","0","0","1","0","1","3","5","5","2","4","4","5","4","2","2","3","739241210526568449","张","666","","","","","","","","","","","","","","","","","","","true","14","4","moral","960","negative","缺德","","","","","","","","","","","","","","","","",""
"null","","null","html-keyboard-response","188","318610","0.0-6.0-1.0-8.0-0.40","2","2","2","2","2","1","1","1","2","1","3","1","2","3","2","2","2","2","3","2","5","5","4","4","3","3","2","4","4","1","1","1","0","0","1","0","1","1","0","0","0","1","0","1","3","5","5","2","4","4","5","4","2","2","3","739241210526568449","张","666","","","","","","","","","","","","","","","","","","","","","","","","","","","","","","","","","","","","","","","","","",""
"861","<p style=""color:rgb(150, 250, 100); font-size: 35px;"">本人</p>","e","categorize-html","189","319472","0.0-6.0-1.0-8.0-1.40","2","2","2","2","2","1","1","1","2","1","3","1","2","3","2","2","2","2","3","2","5","5","4","4","3","3","2","4","4","1","1","1","0","0","1","0","1","1","0","0","0","1","0","1","3","5","5","2","4","4","5","4","2","2","3","739241210526568449","张","666","","","","","","","","","","","","","","","","","","","true","14","4","moral","861","self","本人","","","","","","","","","","","","","","","","",""
"null","","null","html-keyboard-response","190","319725","0.0-6.0-1.0-8.0-0.41","2","2","2","2","2","1","1","1","2","1","3","1","2","3","2","2","2","2","3","2","5","5","4","4","3","3","2","4","4","1","1","1","0","0","1","0","1","1","0","0","0","1","0","1","3","5","5","2","4","4","5","4","2","2","3","739241210526568449","张","666","","","","","","","","","","","","","","","","","","","","","","","","","","","","","","","","","","","","","","","","","",""
"1364","<p style=""color:white; font-size: 35px;"">卑鄙</p>","e","categorize-html","191","321090","0.0-6.0-1.0-8.0-1.41","2","2","2","2","2","1","1","1","2","1","3","1","2","3","2","2","2","2","3","2","5","5","4","4","3","3","2","4","4","1","1","1","0","0","1","0","1","1","0","0","0","1","0","1","3","5","5","2","4","4","5","4","2","2","3","739241210526568449","张","666","","","","","","","","","","","","","","","","","","","true","14","4","moral","1364","negative","卑鄙","","","","","","","","","","","","","","","","",""
"null","","null","html-keyboard-response","192","321342","0.0-6.0-1.0-8.0-0.42","2","2","2","2","2","1","1","1","2","1","3","1","2","3","2","2","2","2","3","2","5","5","4","4","3","3","2","4","4","1","1","1","0","0","1","0","1","1","0","0","0","1","0","1","3","5","5","2","4","4","5","4","2","2","3","739241210526568449","张","666","","","","","","","","","","","","","","","","","","","","","","","","","","","","","","","","","","","","","","","","","",""
