"rt","stimulus","response","trial_type","trial_index","time_elapsed","internal_node_id","ses_1","ses_2","ses_3","ses_4","ses_5","ses_6","ses_7","ses_8","ses_9","ses_10","coreself_1","coreself_2","coreself_3","coreself_4","coreself_5","coreself_6","coreself_7","coreself_8","coreself_9","coreself_10","SGPS_1","SGPS_2","SGPS_3","SGPS_4","SGPS_5","SGPS_6","SGPS_7","SGPS_8","SGPS_9","NPI1","NPI2","NPI3","NPI4","NPI5","NPI6","NPI7","NPI8","NPI9","NPI10","NPI11","NPI12","NPI13","NPI14","NPI15","hsns_1","hsns_2","hsns_3","hsns_4","hsns_5","trap1","hsns_6","hsns_7","hsns_8","hsns_9","hsns_10","subj_idx","friend_name","ParticipantID","value","success","user_agent","responses","item_order","radio_event_ids","radio_event_times","key_event_times","mouse_event_times","straightlining","zigzagging","honeypot","timeout","failed_images","failed_audio","failed_video","view_history","response_type","key_press","avg_frame_time","center_x","center_y","correct_response","correct","identity","Image","word","condition","task_id","screen_id","time_stamp","version_attrib","version_target","IAT","RT","varname","summary","version_attrib2","version_target2","question_order","correct_answer","trap1_item"
"52792","
   <p><div style = ""color: white;font-size:25px;"">您好，欢迎参加本次实验。</div> </p>
   <p><div style = ""color: white;font-size:25px;"">为充分保障您的权利，请确保您已经知晓并同意《参与实验同意书》以及《数据公开知情同意书》。</div></p>
   <p><div style = ""color: white;font-size:25px;"">如果您未见过上述内容，请咨询实验员。</div></p>
   <p><div style = ""color: white;font-size:25px;"">如果您选择继续实验，则表示您已经清楚两份知情同意书的内容并同意。</div></p>
   <p><div style = ""color: pink;font-size:30px;"">请确保您记得day0的实验编号，您将在本次实验输入该编号，若您忘记，请咨询实验员后作答。</div></p>
   <p><div style = ""color: lightblue;font-size:25px;"">请您尽可能认真地作答，我们将依据您在各问卷和按键任务中的作答质量发放报酬。</div></p>
   <p> <div style = ""color: green;font-size:25px;""><按空格键至下页></div> </p>
   "," ","html-keyboard-response","0","52796","0.0-0.0","4","4","4","3","4","3","4","4","4","3","4","4","2","4","4","5","5","4","4","4","4","5","4","4","4","3","4","5","4","1","0","1","1","0","0","0","1","0","1","1","0","1","0","1","4","5","4","1","4","2","2","4","4","1","2","790906536061968385","张","460","","","","","","","","","","","","","","","","","","","","","","","","","","","","","","","","","","","","","","","","","",""
"","","","call-function","1","52799","0.0-1.0-0.0","4","4","4","3","4","3","4","4","4","3","4","4","2","4","4","5","5","4","4","4","4","5","4","4","4","3","4","5","4","1","0","1","1","0","0","0","1","0","1","1","0","1","0","1","4","5","4","1","4","2","2","4","4","1","2","790906536061968385","张","460","","","","","","","","","","","","","","","","","","","","","","","","","","","","","","","","","","","","","","","","","",""
"60852","","{""friend_name"":""张"",""ParticipantID"":""460""}","survey-html-form","2","113653","0.0-1.0-1.0","4","4","4","3","4","3","4","4","4","3","4","4","2","4","4","5","5","4","4","4","4","5","4","4","4","3","4","5","4","1","0","1","1","0","0","0","1","0","1","1","0","1","0","1","4","5","4","1","4","2","2","4","4","1","2","790906536061968385","张","460","","","","","","","","","","","","","","","","","","","","","","","","","","","","","","","","","","","","","","","","","",""
"","","","fullscreen","3","176442","0.0-2.0","4","4","4","3","4","3","4","4","4","3","4","4","2","4","4","5","5","4","4","4","4","5","4","4","4","3","4","5","4","1","0","1","1","0","0","0","1","0","1","1","0","1","0","1","4","5","4","1","4","2","2","4","4","1","2","790906536061968385","张","460","","true","{}","","","","","","","","","","","","","","","","","","","","","","","","","","","","","","","","","","","","","","",""
"156384.19999992847","","{""Q01"":""4"",""Q02"":""4"",""Q03"":""4"",""Q04"":""3"",""Q05"":""4"",""Q06"":""3"",""Q07"":""4"",""Q08"":""4"",""Q09"":""4"",""Q10"":""3""}","survey-template","4","332829","0.0-3.0","4","4","4","3","4","3","4","4","4","3","4","4","2","4","4","5","5","4","4","4","4","5","4","4","4","3","4","5","4","1","0","1","1","0","0","0","1","0","1","1","0","1","0","1","4","5","4","1","4","2","2","4","4","1","2","790906536061968385","张","460","","","","{""Q01"":""4"",""Q02"":""4"",""Q03"":""4"",""Q04"":""3"",""Q05"":""4"",""Q06"":""3"",""Q07"":""4"",""Q08"":""4"",""Q09"":""4"",""Q10"":""3""}","[0,1,2,3,4,5,6,7,8,9]","[""Q01"",""Q01"",""Q01"",""Q01"",""Q01"",""Q01"",""Q01"",""Q02"",""Q03"",""Q04"",""Q05"",""Q01"",""Q02"",""Q03"",""Q05"",""Q06"",""Q07"",""Q08"",""Q09"",""Q10"",""Q10""]","[15592.399999976158,16024,17360,18640,20040.199999928474,21055.699999928474,21888.199999928474,78639.19999992847,79503.59999990463,80432.59999990463,82158.89999997616,87207.89999997616,88294.69999992847,93006.89999997616,97824.69999992847,101671.89999997616,103160.5,106015.59999990463,108002.09999990463,114967.09999990463,126072.09999990463]","[]","[14135.5,14887.899999976158,15175.699999928474,15592.399999976158,16024,17360,18640,20040.199999928474,21055.699999928474,21888.199999928474,78335,78639.19999992847,79503.59999990463,80432.59999990463,82158.89999997616,87207.89999997616,88294.69999992847,93006.89999997616,97824.69999992847,101335.89999997616,101671.89999997616,103160.5,106015.59999990463,108002.09999990463,114967.09999990463,126072.09999990463,156382.89999997616]","0.4","0.4444444444444444","0","","","","","","","","","","","","","","","","","","","","","","","","","","","","","",""
"68761.29999995232","","{""Q01"":""4"",""Q02"":""4"",""Q03"":""2"",""Q04"":""4"",""Q05"":""4"",""Q06"":""5"",""Q07"":""5"",""Q08"":""4"",""Q09"":""4"",""Q10"":""4""}","survey-template","5","401599","0.0-4.0","4","4","4","3","4","3","4","4","4","3","4","4","2","4","4","5","5","4","4","4","4","5","4","4","4","3","4","5","4","1","0","1","1","0","0","0","1","0","1","1","0","1","0","1","4","5","4","1","4","2","2","4","4","1","2","790906536061968385","张","460","","","","{""Q01"":""4"",""Q02"":""4"",""Q03"":""2"",""Q04"":""4"",""Q05"":""4"",""Q06"":""5"",""Q07"":""5"",""Q08"":""4"",""Q09"":""4"",""Q10"":""4""}","[0,1,2,3,4,5,6,7,8,9]","[""Q01"",""Q02"",""Q02"",""Q02"",""Q03"",""Q04"",""Q05"",""Q06"",""Q07"",""Q08"",""Q09"",""Q10""]","[7791.899999976158,21496.799999952316,22751.700000047684,23600,29752.799999952316,32071.899999976158,34087.200000047684,39304.700000047684,40472.89999997616,43550.700000047684,47423.60000002384,49544]","[]","[7199.100000023842,7791.899999976158,21496.799999952316,22751.700000047684,23600,29752.799999952316,32071.899999976158,34087.200000047684,36936.60000002384,39304.700000047684,40472.89999997616,43550.700000047684,47423.60000002384,49544,68759.70000004768]","0.4","0.2222222222222222","0","","","","","","","","","","","","","","","","","","","","","","","","","","","","","",""
"","","","preload","6","402020","0.0-5.0","4","4","4","3","4","3","4","4","4","3","4","4","2","4","4","5","5","4","4","4","4","5","4","4","4","3","4","5","4","1","0","1","1","0","0","0","1","0","1","1","0","1","0","1","4","5","4","1","4","2","2","4","4","1","2","790906536061968385","张","460","","true","","","","","","","","","","","false","[]","[]","[]","","","","","","","","","","","","","","","","","","","","","","","","","",""
"27655","","","instructions","7","429676","0.0-6.0","4","4","4","3","4","3","4","4","4","3","4","4","2","4","4","5","5","4","4","4","4","5","4","4","4","3","4","5","4","1","0","1","1","0","0","0","1","0","1","1","0","1","0","1","4","5","4","1","4","2","2","4","4","1","2","790906536061968385","张","460","","","","","","","","","","","","","","","","","[{""page_index"":0,""viewing_time"":27654}]","","","","","","","","","","","","","","","","","","","","","","","","",""
"85878","","","instructions","8","515557","0.0-7.0-1.0-0.0","4","4","4","3","4","3","4","4","4","3","4","4","2","4","4","5","5","4","4","4","4","5","4","4","4","3","4","5","4","1","0","1","1","0","0","0","1","0","1","1","0","1","0","1","4","5","4","1","4","2","2","4","4","1","2","790906536061968385","张","460","","","","","","","","","","","","","","","","","[{""page_index"":0,""viewing_time"":29469},{""page_index"":1,""viewing_time"":12720},{""page_index"":2,""viewing_time"":4016},{""page_index"":1,""viewing_time"":1543},{""page_index"":2,""viewing_time"":978},{""page_index"":1,""viewing_time"":34938},{""page_index"":2,""viewing_time"":2214}]","","","","","","","","","","","","","","","","","","","","","","","","",""
"null","","null","psychophysics","9","517766","0.0-7.0-1.0-1.0-0.0-0.0","4","4","4","3","4","3","4","4","4","3","4","4","2","4","4","5","5","4","4","4","4","5","4","4","4","3","4","5","4","1","0","1","1","0","0","0","1","0","1","1","0","1","0","1","4","5","4","1","4","2","2","4","4","1","2","790906536061968385","张","460","","","","null","","","","","","","","","","","","","","key","null","16.66641221374037","768","428","f","false","match","img/diamond.png","菱形","菱形","ALT1_2","prac_ALT1_2","","","","","","","","","","","",""
"null","<span class='add_' style='color:yellow; font-size: 70px;'> 太慢! </span>","null","html-keyboard-response","10","518274","0.0-7.0-1.0-1.0-0.0-1.0","4","4","4","3","4","3","4","4","4","3","4","4","2","4","4","5","5","4","4","4","4","5","4","4","4","3","4","5","4","1","0","1","1","0","0","0","1","0","1","1","0","1","0","1","4","5","4","1","4","2","2","4","4","1","2","790906536061968385","张","460","","","","","","","","","","","","","","","","","","","","","","","","","","","","","","feedback_test","","","","","","","","","","","",""
"null","","null","psychophysics","11","520494","0.0-7.0-1.0-1.0-0.0-0.1","4","4","4","3","4","3","4","4","4","3","4","4","2","4","4","5","5","4","4","4","4","5","4","4","4","3","4","5","4","1","0","1","1","0","0","0","1","0","1","1","0","1","0","1","4","5","4","1","4","2","2","4","4","1","2","790906536061968385","张","460","","","","null","","","","","","","","","","","","","","key","null","16.666666666666668","768","428","j","false","nonmatch","img/diamond.png","圆形","菱形","ALT1_2","prac_ALT1_2","","","","","","","","","","","",""
"null","<span class='add_' style='color:yellow; font-size: 70px;'> 太慢! </span>","null","html-keyboard-response","12","521004","0.0-7.0-1.0-1.0-0.0-1.1","4","4","4","3","4","3","4","4","4","3","4","4","2","4","4","5","5","4","4","4","4","5","4","4","4","3","4","5","4","1","0","1","1","0","0","0","1","0","1","1","0","1","0","1","4","5","4","1","4","2","2","4","4","1","2","790906536061968385","张","460","","","","","","","","","","","","","","","","","","","","","","","","","","","","","","feedback_test","","","","","","","","","","","",""
"476","","f","psychophysics","13","522500","0.0-7.0-1.0-1.0-0.0-0.2","4","4","4","3","4","3","4","4","4","3","4","4","2","4","4","5","5","4","4","4","4","5","4","4","4","3","4","5","4","1","0","1","1","0","0","0","1","0","1","1","0","1","0","1","4","5","4","1","4","2","2","4","4","1","2","790906536061968385","张","460","","","","match","","","","","","","","","","","","","","key","f","16.665909090908826","768","428","j","false","nonmatch","img/circle.png","菱形","圆形","ALT1_2","prac_ALT1_2","","","","","","","","","","","",""
"null","<span style='color:red; font-size: 70px;'>错误! </span>","null","html-keyboard-response","14","523002","0.0-7.0-1.0-1.0-0.0-1.2","4","4","4","3","4","3","4","4","4","3","4","4","2","4","4","5","5","4","4","4","4","5","4","4","4","3","4","5","4","1","0","1","1","0","0","0","1","0","1","1","0","1","0","1","4","5","4","1","4","2","2","4","4","1","2","790906536061968385","张","460","","","","","","","","","","","","","","","","","","","","","","","","","","","","","","feedback_test","","","","","","","","","","","",""
"null","","null","psychophysics","15","525206","0.0-7.0-1.0-1.0-0.0-0.3","4","4","4","3","4","3","4","4","4","3","4","4","2","4","4","5","5","4","4","4","4","5","4","4","4","3","4","5","4","1","0","1","1","0","0","0","1","0","1","1","0","1","0","1","4","5","4","1","4","2","2","4","4","1","2","790906536061968385","张","460","","","","null","","","","","","","","","","","","","","key","null","16.665909090909267","768","428","f","false","match","img/diamond.png","菱形","菱形","ALT1_2","prac_ALT1_2","","","","","","","","","","","",""
"null","<span class='add_' style='color:yellow; font-size: 70px;'> 太慢! </span>","null","html-keyboard-response","16","525708","0.0-7.0-1.0-1.0-0.0-1.3","4","4","4","3","4","3","4","4","4","3","4","4","2","4","4","5","5","4","4","4","4","5","4","4","4","3","4","5","4","1","0","1","1","0","0","0","1","0","1","1","0","1","0","1","4","5","4","1","4","2","2","4","4","1","2","790906536061968385","张","460","","","","","","","","","","","","","","","","","","","","","","","","","","","","","","feedback_test","","","","","","","","","","","",""
"420","","f","psychophysics","17","527132","0.0-7.0-1.0-1.0-0.0-0.4","4","4","4","3","4","3","4","4","4","3","4","4","2","4","4","5","5","4","4","4","4","5","4","4","4","3","4","5","4","1","0","1","1","0","0","0","1","0","1","1","0","1","0","1","4","5","4","1","4","2","2","4","4","1","2","790906536061968385","张","460","","","","match","","","","","","","","","","","","","","key","f","16.666666666666668","768","428","f","true","match","img/diamond.png","菱形","菱形","ALT1_2","prac_ALT1_2","","","","","","","","","","","",""
"null","<span style='color:GreenYellow; font-size: 70px;'>正确! </span>","null","html-keyboard-response","18","527634","0.0-7.0-1.0-1.0-0.0-1.4","4","4","4","3","4","3","4","4","4","3","4","4","2","4","4","5","5","4","4","4","4","5","4","4","4","3","4","5","4","1","0","1","1","0","0","0","1","0","1","1","0","1","0","1","4","5","4","1","4","2","2","4","4","1","2","790906536061968385","张","460","","","","","","","","","","","","","","","","","","","","","","","","","","","","","","feedback_test","","","","","","","","","","","",""
"572","","f","psychophysics","19","529225","0.0-7.0-1.0-1.0-0.0-0.5","4","4","4","3","4","3","4","4","4","3","4","4","2","4","4","5","5","4","4","4","4","5","4","4","4","3","4","5","4","1","0","1","1","0","0","0","1","0","1","1","0","1","0","1","4","5","4","1","4","2","2","4","4","1","2","790906536061968385","张","460","","","","match","","","","","","","","","","","","","","key","f","16.66526315789425","768","428","f","true","match","img/circle.png","圆形","圆形","ALT1_2","prac_ALT1_2","","","","","","","","","","","",""
"null","<span style='color:GreenYellow; font-size: 70px;'>正确! </span>","null","html-keyboard-response","20","529727","0.0-7.0-1.0-1.0-0.0-1.5","4","4","4","3","4","3","4","4","4","3","4","4","2","4","4","5","5","4","4","4","4","5","4","4","4","3","4","5","4","1","0","1","1","0","0","0","1","0","1","1","0","1","0","1","4","5","4","1","4","2","2","4","4","1","2","790906536061968385","张","460","","","","","","","","","","","","","","","","","","","","","","","","","","","","","","feedback_test","","","","","","","","","","","",""
"604","","f","psychophysics","21","531333","0.0-7.0-1.0-1.0-0.0-0.6","4","4","4","3","4","3","4","4","4","3","4","4","2","4","4","5","5","4","4","4","4","5","4","4","4","3","4","5","4","1","0","1","1","0","0","0","1","0","1","1","0","1","0","1","4","5","4","1","4","2","2","4","4","1","2","790906536061968385","张","460","","","","match","","","","","","","","","","","","","","key","f","16.667368421052878","768","428","j","false","nonmatch","img/triangle.png","圆形","三角","ALT1_2","prac_ALT1_2","","","","","","","","","","","",""
"null","<span style='color:red; font-size: 70px;'>错误! </span>","null","html-keyboard-response","22","531835","0.0-7.0-1.0-1.0-0.0-1.6","4","4","4","3","4","3","4","4","4","3","4","4","2","4","4","5","5","4","4","4","4","5","4","4","4","3","4","5","4","1","0","1","1","0","0","0","1","0","1","1","0","1","0","1","4","5","4","1","4","2","2","4","4","1","2","790906536061968385","张","460","","","","","","","","","","","","","","","","","","","","","","","","","","","","","","feedback_test","","","","","","","","","","","",""
"null","","null","psychophysics","23","534039","0.0-7.0-1.0-1.0-0.0-0.7","4","4","4","3","4","3","4","4","4","3","4","4","2","4","4","5","5","4","4","4","4","5","4","4","4","3","4","5","4","1","0","1","1","0","0","0","1","0","1","1","0","1","0","1","4","5","4","1","4","2","2","4","4","1","2","790906536061968385","张","460","","","","null","","","","","","","","","","","","","","key","null","16.667424242424946","768","428","j","false","nonmatch","img/hexagon.png","三角","六边","ALT1_2","prac_ALT1_2","","","","","","","","","","","",""
"null","<span class='add_' style='color:yellow; font-size: 70px;'> 太慢! </span>","null","html-keyboard-response","24","534565","0.0-7.0-1.0-1.0-0.0-1.7","4","4","4","3","4","3","4","4","4","3","4","4","2","4","4","5","5","4","4","4","4","5","4","4","4","3","4","5","4","1","0","1","1","0","0","0","1","0","1","1","0","1","0","1","4","5","4","1","4","2","2","4","4","1","2","790906536061968385","张","460","","","","","","","","","","","","","","","","","","","","","","","","","","","","","","feedback_test","","","","","","","","","","","",""
"628","","j","psychophysics","25","536213","0.0-7.0-1.0-1.0-0.0-0.8","4","4","4","3","4","3","4","4","4","3","4","4","2","4","4","5","5","4","4","4","4","5","4","4","4","3","4","5","4","1","0","1","1","0","0","0","1","0","1","1","0","1","0","1","4","5","4","1","4","2","2","4","4","1","2","790906536061968385","张","460","","","","nonmatch","","","","","","","","","","","","","","key","j","16.667346938775747","768","428","j","true","nonmatch","img/triangle.png","六边","三角","ALT1_2","prac_ALT1_2","","","","","","","","","","","",""
"null","<span style='color:GreenYellow; font-size: 70px;'>正确! </span>","null","html-keyboard-response","26","536721","0.0-7.0-1.0-1.0-0.0-1.8","4","4","4","3","4","3","4","4","4","3","4","4","2","4","4","5","5","4","4","4","4","5","4","4","4","3","4","5","4","1","0","1","1","0","0","0","1","0","1","1","0","1","0","1","4","5","4","1","4","2","2","4","4","1","2","790906536061968385","张","460","","","","","","","","","","","","","","","","","","","","","","","","","","","","","","feedback_test","","","","","","","","","","","",""
"833","","j","psychophysics","27","538556","0.0-7.0-1.0-1.0-0.0-0.9","4","4","4","3","4","3","4","4","4","3","4","4","2","4","4","5","5","4","4","4","4","5","4","4","4","3","4","5","4","1","0","1","1","0","0","0","1","0","1","1","0","1","0","1","4","5","4","1","4","2","2","4","4","1","2","790906536061968385","张","460","","","","nonmatch","","","","","","","","","","","","","","key","j","16.666055045871346","768","428","j","true","nonmatch","img/circle.png","六边","圆形","ALT1_2","prac_ALT1_2","","","","","","","","","","","",""
"null","<span style='color:GreenYellow; font-size: 70px;'>正确! </span>","null","html-keyboard-response","28","539057","0.0-7.0-1.0-1.0-0.0-1.9","4","4","4","3","4","3","4","4","4","3","4","4","2","4","4","5","5","4","4","4","4","5","4","4","4","3","4","5","4","1","0","1","1","0","0","0","1","0","1","1","0","1","0","1","4","5","4","1","4","2","2","4","4","1","2","790906536061968385","张","460","","","","","","","","","","","","","","","","","","","","","","","","","","","","","","feedback_test","","","","","","","","","","","",""
"726","","f","psychophysics","29","540785","0.0-7.0-1.0-1.0-0.0-0.10","4","4","4","3","4","3","4","4","4","3","4","4","2","4","4","5","5","4","4","4","4","5","4","4","4","3","4","5","4","1","0","1","1","0","0","0","1","0","1","1","0","1","0","1","4","5","4","1","4","2","2","4","4","1","2","790906536061968385","张","460","","","","match","","","","","","","","","","","","","","key","f","16.670588235293206","768","428","f","true","match","img/triangle.png","三角","三角","ALT1_2","prac_ALT1_2","","","","","","","","","","","",""
"null","<span style='color:GreenYellow; font-size: 70px;'>正确! </span>","null","html-keyboard-response","30","541314","0.0-7.0-1.0-1.0-0.0-1.10","4","4","4","3","4","3","4","4","4","3","4","4","2","4","4","5","5","4","4","4","4","5","4","4","4","3","4","5","4","1","0","1","1","0","0","0","1","0","1","1","0","1","0","1","4","5","4","1","4","2","2","4","4","1","2","790906536061968385","张","460","","","","","","","","","","","","","","","","","","","","","","","","","","","","","","feedback_test","","","","","","","","","","","",""
"853","","j","psychophysics","31","543186","0.0-7.0-1.0-1.0-0.0-0.11","4","4","4","3","4","3","4","4","4","3","4","4","2","4","4","5","5","4","4","4","4","5","4","4","4","3","4","5","4","1","0","1","1","0","0","0","1","0","1","1","0","1","0","1","4","5","4","1","4","2","2","4","4","1","2","790906536061968385","张","460","","","","nonmatch","","","","","","","","","","","","","","key","j","16.666666666666668","768","428","f","false","match","img/hexagon.png","六边","六边","ALT1_2","prac_ALT1_2","","","","","","","","","","","",""
"null","<span style='color:red; font-size: 70px;'>错误! </span>","null","html-keyboard-response","32","543689","0.0-7.0-1.0-1.0-0.0-1.11","4","4","4","3","4","3","4","4","4","3","4","4","2","4","4","5","5","4","4","4","4","5","4","4","4","3","4","5","4","1","0","1","1","0","0","0","1","0","1","1","0","1","0","1","4","5","4","1","4","2","2","4","4","1","2","790906536061968385","张","460","","","","","","","","","","","","","","","","","","","","","","","","","","","","","","feedback_test","","","","","","","","","","","",""
"772","","f","psychophysics","33","545463","0.0-7.0-1.0-1.0-0.0-0.12","4","4","4","3","4","3","4","4","4","3","4","4","2","4","4","5","5","4","4","4","4","5","4","4","4","3","4","5","4","1","0","1","1","0","0","0","1","0","1","1","0","1","0","1","4","5","4","1","4","2","2","4","4","1","2","790906536061968385","张","460","","","","match","","","","","","","","","","","","","","key","f","16.665714285714508","768","428","f","true","match","img/hexagon.png","六边","六边","ALT1_2","prac_ALT1_2","","","","","","","","","","","",""
"null","<span style='color:GreenYellow; font-size: 70px;'>正确! </span>","null","html-keyboard-response","34","545966","0.0-7.0-1.0-1.0-0.0-1.12","4","4","4","3","4","3","4","4","4","3","4","4","2","4","4","5","5","4","4","4","4","5","4","4","4","3","4","5","4","1","0","1","1","0","0","0","1","0","1","1","0","1","0","1","4","5","4","1","4","2","2","4","4","1","2","790906536061968385","张","460","","","","","","","","","","","","","","","","","","","","","","","","","","","","","","feedback_test","","","","","","","","","","","",""
"915","","j","psychophysics","35","547883","0.0-7.0-1.0-1.0-0.0-0.13","4","4","4","3","4","3","4","4","4","3","4","4","2","4","4","5","5","4","4","4","4","5","4","4","4","3","4","5","4","1","0","1","1","0","0","0","1","0","1","1","0","1","0","1","4","5","4","1","4","2","2","4","4","1","2","790906536061968385","张","460","","","","nonmatch","","","","","","","","","","","","","","key","j","16.66754385964892","768","428","j","true","nonmatch","img/circle.png","三角","圆形","ALT1_2","prac_ALT1_2","","","","","","","","","","","",""
"null","<span style='color:GreenYellow; font-size: 70px;'>正确! </span>","null","html-keyboard-response","36","548394","0.0-7.0-1.0-1.0-0.0-1.13","4","4","4","3","4","3","4","4","4","3","4","4","2","4","4","5","5","4","4","4","4","5","4","4","4","3","4","5","4","1","0","1","1","0","0","0","1","0","1","1","0","1","0","1","4","5","4","1","4","2","2","4","4","1","2","790906536061968385","张","460","","","","","","","","","","","","","","","","","","","","","","","","","","","","","","feedback_test","","","","","","","","","","","",""
"null","","null","psychophysics","37","550614","0.0-7.0-1.0-1.0-0.0-0.14","4","4","4","3","4","3","4","4","4","3","4","4","2","4","4","5","5","4","4","4","4","5","4","4","4","3","4","5","4","1","0","1","1","0","0","0","1","0","1","1","0","1","0","1","4","5","4","1","4","2","2","4","4","1","2","790906536061968385","张","460","","","","null","","","","","","","","","","","","","","key","null","16.66893939393975","768","428","j","false","nonmatch","img/hexagon.png","菱形","六边","ALT1_2","prac_ALT1_2","","","","","","","","","","","",""
"null","<span class='add_' style='color:yellow; font-size: 70px;'> 太慢! </span>","null","html-keyboard-response","38","551116","0.0-7.0-1.0-1.0-0.0-1.14","4","4","4","3","4","3","4","4","4","3","4","4","2","4","4","5","5","4","4","4","4","5","4","4","4","3","4","5","4","1","0","1","1","0","0","0","1","0","1","1","0","1","0","1","4","5","4","1","4","2","2","4","4","1","2","790906536061968385","张","460","","","","","","","","","","","","","","","","","","","","","","","","","","","","","","feedback_test","","","","","","","","","","","",""
"1068","","j","psychophysics","39","553185","0.0-7.0-1.0-1.0-0.0-0.15","4","4","4","3","4","3","4","4","4","3","4","4","2","4","4","5","5","4","4","4","4","5","4","4","4","3","4","5","4","1","0","1","1","0","0","0","1","0","1","1","0","1","0","1","4","5","4","1","4","2","2","4","4","1","2","790906536061968385","张","460","","","","nonmatch","","","","","","","","","","","","","","key","j","16.671544715446966","768","428","f","false","match","img/circle.png","圆形","圆形","ALT1_2","prac_ALT1_2","","","","","","","","","","","",""
"null","<span style='color:red; font-size: 70px;'>错误! </span>","null","html-keyboard-response","40","553687","0.0-7.0-1.0-1.0-0.0-1.15","4","4","4","3","4","3","4","4","4","3","4","4","2","4","4","5","5","4","4","4","4","5","4","4","4","3","4","5","4","1","0","1","1","0","0","0","1","0","1","1","0","1","0","1","4","5","4","1","4","2","2","4","4","1","2","790906536061968385","张","460","","","","","","","","","","","","","","","","","","","","","","","","","","","","","","feedback_test","","","","","","","","","","","",""
"1014","","j","psychophysics","41","555703","0.0-7.0-1.0-1.0-0.0-0.16","4","4","4","3","4","3","4","4","4","3","4","4","2","4","4","5","5","4","4","4","4","5","4","4","4","3","4","5","4","1","0","1","1","0","0","0","1","0","1","1","0","1","0","1","4","5","4","1","4","2","2","4","4","1","2","790906536061968385","张","460","","","","nonmatch","","","","","","","","","","","","","","key","j","16.669747899159272","768","428","j","true","nonmatch","img/triangle.png","菱形","三角","ALT1_2","prac_ALT1_2","","","","","","","","","","","",""
"null","<span style='color:GreenYellow; font-size: 70px;'>正确! </span>","null","html-keyboard-response","42","556206","0.0-7.0-1.0-1.0-0.0-1.16","4","4","4","3","4","3","4","4","4","3","4","4","2","4","4","5","5","4","4","4","4","5","4","4","4","3","4","5","4","1","0","1","1","0","0","0","1","0","1","1","0","1","0","1","4","5","4","1","4","2","2","4","4","1","2","790906536061968385","张","460","","","","","","","","","","","","","","","","","","","","","","","","","","","","","","feedback_test","","","","","","","","","","","",""
"null","","null","psychophysics","43","558411","0.0-7.0-1.0-1.0-0.0-0.17","4","4","4","3","4","3","4","4","4","3","4","4","2","4","4","5","5","4","4","4","4","5","4","4","4","3","4","5","4","1","0","1","1","0","0","0","1","0","1","1","0","1","0","1","4","5","4","1","4","2","2","4","4","1","2","790906536061968385","张","460","","","","null","","","","","","","","","","","","","","key","null","16.666412213740813","768","428","f","false","match","img/triangle.png","三角","三角","ALT1_2","prac_ALT1_2","","","","","","","","","","","",""
"null","<span class='add_' style='color:yellow; font-size: 70px;'> 太慢! </span>","null","html-keyboard-response","44","558912","0.0-7.0-1.0-1.0-0.0-1.17","4","4","4","3","4","3","4","4","4","3","4","4","2","4","4","5","5","4","4","4","4","5","4","4","4","3","4","5","4","1","0","1","1","0","0","0","1","0","1","1","0","1","0","1","4","5","4","1","4","2","2","4","4","1","2","790906536061968385","张","460","","","","","","","","","","","","","","","","","","","","","","","","","","","","","","feedback_test","","","","","","","","","","","",""
"771","","f","psychophysics","45","560685","0.0-7.0-1.0-1.0-0.0-0.18","4","4","4","3","4","3","4","4","4","3","4","4","2","4","4","5","5","4","4","4","4","5","4","4","4","3","4","5","4","1","0","1","1","0","0","0","1","0","1","1","0","1","0","1","4","5","4","1","4","2","2","4","4","1","2","790906536061968385","张","460","","","","match","","","","","","","","","","","","","","key","f","16.669523809524254","768","428","f","true","match","img/triangle.png","三角","三角","ALT1_2","prac_ALT1_2","","","","","","","","","","","",""
"null","<span style='color:GreenYellow; font-size: 70px;'>正确! </span>","null","html-keyboard-response","46","561186","0.0-7.0-1.0-1.0-0.0-1.18","4","4","4","3","4","3","4","4","4","3","4","4","2","4","4","5","5","4","4","4","4","5","4","4","4","3","4","5","4","1","0","1","1","0","0","0","1","0","1","1","0","1","0","1","4","5","4","1","4","2","2","4","4","1","2","790906536061968385","张","460","","","","","","","","","","","","","","","","","","","","","","","","","","","","","","feedback_test","","","","","","","","","","","",""
"935","","j","psychophysics","47","563123","0.0-7.0-1.0-1.0-0.0-0.19","4","4","4","3","4","3","4","4","4","3","4","4","2","4","4","5","5","4","4","4","4","5","4","4","4","3","4","5","4","1","0","1","1","0","0","0","1","0","1","1","0","1","0","1","4","5","4","1","4","2","2","4","4","1","2","790906536061968385","张","460","","","","nonmatch","","","","","","","","","","","","","","key","j","16.667826086955916","768","428","j","true","nonmatch","img/diamond.png","六边","菱形","ALT1_2","prac_ALT1_2","","","","","","","","","","","",""
"null","<span style='color:GreenYellow; font-size: 70px;'>正确! </span>","null","html-keyboard-response","48","563626","0.0-7.0-1.0-1.0-0.0-1.19","4","4","4","3","4","3","4","4","4","3","4","4","2","4","4","5","5","4","4","4","4","5","4","4","4","3","4","5","4","1","0","1","1","0","0","0","1","0","1","1","0","1","0","1","4","5","4","1","4","2","2","4","4","1","2","790906536061968385","张","460","","","","","","","","","","","","","","","","","","","","","","","","","","","","","","feedback_test","","","","","","","","","","","",""
"648","","j","psychophysics","49","565276","0.0-7.0-1.0-1.0-0.0-0.20","4","4","4","3","4","3","4","4","4","3","4","4","2","4","4","5","5","4","4","4","4","5","4","4","4","3","4","5","4","1","0","1","1","0","0","0","1","0","1","1","0","1","0","1","4","5","4","1","4","2","2","4","4","1","2","790906536061968385","张","460","","","","nonmatch","","","","","","","","","","","","","","key","j","16.667346938775747","768","428","f","false","match","img/hexagon.png","六边","六边","ALT1_2","prac_ALT1_2","","","","","","","","","","","",""
"null","<span style='color:red; font-size: 70px;'>错误! </span>","null","html-keyboard-response","50","565777","0.0-7.0-1.0-1.0-0.0-1.20","4","4","4","3","4","3","4","4","4","3","4","4","2","4","4","5","5","4","4","4","4","5","4","4","4","3","4","5","4","1","0","1","1","0","0","0","1","0","1","1","0","1","0","1","4","5","4","1","4","2","2","4","4","1","2","790906536061968385","张","460","","","","","","","","","","","","","","","","","","","","","","","","","","","","","","feedback_test","","","","","","","","","","","",""
"841","","f","psychophysics","51","567625","0.0-7.0-1.0-1.0-0.0-0.21","4","4","4","3","4","3","4","4","4","3","4","4","2","4","4","5","5","4","4","4","4","5","4","4","4","3","4","5","4","1","0","1","1","0","0","0","1","0","1","1","0","1","0","1","4","5","4","1","4","2","2","4","4","1","2","790906536061968385","张","460","","","","match","","","","","","","","","","","","","","key","f","16.667272727272938","768","428","f","true","match","img/circle.png","圆形","圆形","ALT1_2","prac_ALT1_2","","","","","","","","","","","",""
"null","<span style='color:GreenYellow; font-size: 70px;'>正确! </span>","null","html-keyboard-response","52","568128","0.0-7.0-1.0-1.0-0.0-1.21","4","4","4","3","4","3","4","4","4","3","4","4","2","4","4","5","5","4","4","4","4","5","4","4","4","3","4","5","4","1","0","1","1","0","0","0","1","0","1","1","0","1","0","1","4","5","4","1","4","2","2","4","4","1","2","790906536061968385","张","460","","","","","","","","","","","","","","","","","","","","","","","","","","","","","","feedback_test","","","","","","","","","","","",""
"null","","null","psychophysics","53","570332","0.0-7.0-1.0-1.0-0.0-0.22","4","4","4","3","4","3","4","4","4","3","4","4","2","4","4","5","5","4","4","4","4","5","4","4","4","3","4","5","4","1","0","1","1","0","0","0","1","0","1","1","0","1","0","1","4","5","4","1","4","2","2","4","4","1","2","790906536061968385","张","460","","","","null","","","","","","","","","","","","","","key","null","16.667175572519263","768","428","j","false","nonmatch","img/diamond.png","三角","菱形","ALT1_2","prac_ALT1_2","","","","","","","","","","","",""
"null","<span class='add_' style='color:yellow; font-size: 70px;'> 太慢! </span>","null","html-keyboard-response","54","570833","0.0-7.0-1.0-1.0-0.0-1.22","4","4","4","3","4","3","4","4","4","3","4","4","2","4","4","5","5","4","4","4","4","5","4","4","4","3","4","5","4","1","0","1","1","0","0","0","1","0","1","1","0","1","0","1","4","5","4","1","4","2","2","4","4","1","2","790906536061968385","张","460","","","","","","","","","","","","","","","","","","","","","","","","","","","","","","feedback_test","","","","","","","","","","","",""
"null","","null","psychophysics","55","573054","0.0-7.0-1.0-1.0-0.0-0.23","4","4","4","3","4","3","4","4","4","3","4","4","2","4","4","5","5","4","4","4","4","5","4","4","4","3","4","5","4","1","0","1","1","0","0","0","1","0","1","1","0","1","0","1","4","5","4","1","4","2","2","4","4","1","2","790906536061968385","张","460","","","","null","","","","","","","","","","","","","","key","null","16.66616541353366","768","428","j","false","nonmatch","img/hexagon.png","圆形","六边","ALT1_2","prac_ALT1_2","","","","","","","","","","","",""
"null","<span class='add_' style='color:yellow; font-size: 70px;'> 太慢! </span>","null","html-keyboard-response","56","573565","0.0-7.0-1.0-1.0-0.0-1.23","4","4","4","3","4","3","4","4","4","3","4","4","2","4","4","5","5","4","4","4","4","5","4","4","4","3","4","5","4","1","0","1","1","0","0","0","1","0","1","1","0","1","0","1","4","5","4","1","4","2","2","4","4","1","2","790906536061968385","张","460","","","","","","","","","","","","","","","","","","","","","","","","","","","","","","feedback_test","","","","","","","","","","","",""
"1073","","f","psychophysics","57","575657","0.0-7.0-1.0-1.0-0.0-0.24","4","4","4","3","4","3","4","4","4","3","4","4","2","4","4","5","5","4","4","4","4","5","4","4","4","3","4","5","4","1","0","1","1","0","0","0","1","0","1","1","0","1","0","1","4","5","4","1","4","2","2","4","4","1","2","790906536061968385","张","460","","","","match","","","","","","","","","","","","","","key","f","16.664799999999815","768","428","f","true","match","img/hexagon.png","六边","六边","ALT1_2","prac_ALT1_2","","","","","","","","","","","",""
"null","<span style='color:GreenYellow; font-size: 70px;'>正确! </span>","null","html-keyboard-response","58","576159","0.0-7.0-1.0-1.0-0.0-1.24","4","4","4","3","4","3","4","4","4","3","4","4","2","4","4","5","5","4","4","4","4","5","4","4","4","3","4","5","4","1","0","1","1","0","0","0","1","0","1","1","0","1","0","1","4","5","4","1","4","2","2","4","4","1","2","790906536061968385","张","460","","","","","","","","","","","","","","","","","","","","","","","","","","","","","","feedback_test","","","","","","","","","","","",""
"883","","f","psychophysics","59","578043","0.0-7.0-1.0-1.0-0.0-0.25","4","4","4","3","4","3","4","4","4","3","4","4","2","4","4","5","5","4","4","4","4","5","4","4","4","3","4","5","4","1","0","1","1","0","0","0","1","0","1","1","0","1","0","1","4","5","4","1","4","2","2","4","4","1","2","790906536061968385","张","460","","","","match","","","","","","","","","","","","","","key","f","16.665178571428573","768","428","f","true","match","img/circle.png","圆形","圆形","ALT1_2","prac_ALT1_2","","","","","","","","","","","",""
"null","<span style='color:GreenYellow; font-size: 70px;'>正确! </span>","null","html-keyboard-response","60","578545","0.0-7.0-1.0-1.0-0.0-1.25","4","4","4","3","4","3","4","4","4","3","4","4","2","4","4","5","5","4","4","4","4","5","4","4","4","3","4","5","4","1","0","1","1","0","0","0","1","0","1","1","0","1","0","1","4","5","4","1","4","2","2","4","4","1","2","790906536061968385","张","460","","","","","","","","","","","","","","","","","","","","","","","","","","","","","","feedback_test","","","","","","","","","","","",""
"624","","f","psychophysics","61","580171","0.0-7.0-1.0-1.0-0.0-0.26","4","4","4","3","4","3","4","4","4","3","4","4","2","4","4","5","5","4","4","4","4","5","4","4","4","3","4","5","4","1","0","1","1","0","0","0","1","0","1","1","0","1","0","1","4","5","4","1","4","2","2","4","4","1","2","790906536061968385","张","460","","","","match","","","","","","","","","","","","","","key","f","16.66597938144306","768","428","f","true","match","img/triangle.png","三角","三角","ALT1_2","prac_ALT1_2","","","","","","","","","","","",""
"null","<span style='color:GreenYellow; font-size: 70px;'>正确! </span>","null","html-keyboard-response","62","580674","0.0-7.0-1.0-1.0-0.0-1.26","4","4","4","3","4","3","4","4","4","3","4","4","2","4","4","5","5","4","4","4","4","5","4","4","4","3","4","5","4","1","0","1","1","0","0","0","1","0","1","1","0","1","0","1","4","5","4","1","4","2","2","4","4","1","2","790906536061968385","张","460","","","","","","","","","","","","","","","","","","","","","","","","","","","","","","feedback_test","","","","","","","","","","","",""
"453","","f","psychophysics","63","582147","0.0-7.0-1.0-1.0-0.0-0.27","4","4","4","3","4","3","4","4","4","3","4","4","2","4","4","5","5","4","4","4","4","5","4","4","4","3","4","5","4","1","0","1","1","0","0","0","1","0","1","1","0","1","0","1","4","5","4","1","4","2","2","4","4","1","2","790906536061968385","张","460","","","","match","","","","","","","","","","","","","","key","f","16.667816091955093","768","428","j","false","nonmatch","img/circle.png","三角","圆形","ALT1_2","prac_ALT1_2","","","","","","","","","","","",""
"null","<span style='color:red; font-size: 70px;'>错误! </span>","null","html-keyboard-response","64","582659","0.0-7.0-1.0-1.0-0.0-1.27","4","4","4","3","4","3","4","4","4","3","4","4","2","4","4","5","5","4","4","4","4","5","4","4","4","3","4","5","4","1","0","1","1","0","0","0","1","0","1","1","0","1","0","1","4","5","4","1","4","2","2","4","4","1","2","790906536061968385","张","460","","","","","","","","","","","","","","","","","","","","","","","","","","","","","","feedback_test","","","","","","","","","","","",""
"879","","f","psychophysics","65","584541","0.0-7.0-1.0-1.0-0.0-0.28","4","4","4","3","4","3","4","4","4","3","4","4","2","4","4","5","5","4","4","4","4","5","4","4","4","3","4","5","4","1","0","1","1","0","0","0","1","0","1","1","0","1","0","1","4","5","4","1","4","2","2","4","4","1","2","790906536061968385","张","460","","","","match","","","","","","","","","","","","","","key","f","16.66785714285652","768","428","j","false","nonmatch","img/circle.png","六边","圆形","ALT1_2","prac_ALT1_2","","","","","","","","","","","",""
"null","<span style='color:red; font-size: 70px;'>错误! </span>","null","html-keyboard-response","66","585045","0.0-7.0-1.0-1.0-0.0-1.28","4","4","4","3","4","3","4","4","4","3","4","4","2","4","4","5","5","4","4","4","4","5","4","4","4","3","4","5","4","1","0","1","1","0","0","0","1","0","1","1","0","1","0","1","4","5","4","1","4","2","2","4","4","1","2","790906536061968385","张","460","","","","","","","","","","","","","","","","","","","","","","","","","","","","","","feedback_test","","","","","","","","","","","",""
"null","","null","psychophysics","67","587275","0.0-7.0-1.0-1.0-0.0-0.29","4","4","4","3","4","3","4","4","4","3","4","4","2","4","4","5","5","4","4","4","4","5","4","4","4","3","4","5","4","1","0","1","1","0","0","0","1","0","1","1","0","1","0","1","4","5","4","1","4","2","2","4","4","1","2","790906536061968385","张","460","","","","null","","","","","","","","","","","","","","key","null","16.66616541353366","768","428","f","false","match","img/diamond.png","菱形","菱形","ALT1_2","prac_ALT1_2","","","","","","","","","","","",""
"null","<span class='add_' style='color:yellow; font-size: 70px;'> 太慢! </span>","null","html-keyboard-response","68","587785","0.0-7.0-1.0-1.0-0.0-1.29","4","4","4","3","4","3","4","4","4","3","4","4","2","4","4","5","5","4","4","4","4","5","4","4","4","3","4","5","4","1","0","1","1","0","0","0","1","0","1","1","0","1","0","1","4","5","4","1","4","2","2","4","4","1","2","790906536061968385","张","460","","","","","","","","","","","","","","","","","","","","","","","","","","","","","","feedback_test","","","","","","","","","","","",""
"966","","j","psychophysics","69","589770","0.0-7.0-1.0-1.0-0.0-0.30","4","4","4","3","4","3","4","4","4","3","4","4","2","4","4","5","5","4","4","4","4","5","4","4","4","3","4","5","4","1","0","1","1","0","0","0","1","0","1","1","0","1","0","1","4","5","4","1","4","2","2","4","4","1","2","790906536061968385","张","460","","","","nonmatch","","","","","","","","","","","","","","key","j","16.665811965812164","768","428","j","true","nonmatch","img/triangle.png","圆形","三角","ALT1_2","prac_ALT1_2","","","","","","","","","","","",""
"null","<span style='color:GreenYellow; font-size: 70px;'>正确! </span>","null","html-keyboard-response","70","590273","0.0-7.0-1.0-1.0-0.0-1.30","4","4","4","3","4","3","4","4","4","3","4","4","2","4","4","5","5","4","4","4","4","5","4","4","4","3","4","5","4","1","0","1","1","0","0","0","1","0","1","1","0","1","0","1","4","5","4","1","4","2","2","4","4","1","2","790906536061968385","张","460","","","","","","","","","","","","","","","","","","","","","","","","","","","","","","feedback_test","","","","","","","","","","","",""
"null","","null","psychophysics","71","592475","0.0-7.0-1.0-1.0-0.0-0.31","4","4","4","3","4","3","4","4","4","3","4","4","2","4","4","5","5","4","4","4","4","5","4","4","4","3","4","5","4","1","0","1","1","0","0","0","1","0","1","1","0","1","0","1","4","5","4","1","4","2","2","4","4","1","2","790906536061968385","张","460","","","","null","","","","","","","","","","","","","","key","null","16.666412213740813","768","428","j","false","nonmatch","img/diamond.png","六边","菱形","ALT1_2","prac_ALT1_2","","","","","","","","","","","",""
"null","<span class='add_' style='color:yellow; font-size: 70px;'> 太慢! </span>","null","html-keyboard-response","72","592978","0.0-7.0-1.0-1.0-0.0-1.31","4","4","4","3","4","3","4","4","4","3","4","4","2","4","4","5","5","4","4","4","4","5","4","4","4","3","4","5","4","1","0","1","1","0","0","0","1","0","1","1","0","1","0","1","4","5","4","1","4","2","2","4","4","1","2","790906536061968385","张","460","","","","","","","","","","","","","","","","","","","","","","","","","","","","","","feedback_test","","","","","","","","","","","",""
"1047","","f","psychophysics","73","595028","0.0-7.0-1.0-1.0-0.0-0.32","4","4","4","3","4","3","4","4","4","3","4","4","2","4","4","5","5","4","4","4","4","5","4","4","4","3","4","5","4","1","0","1","1","0","0","0","1","0","1","1","0","1","0","1","4","5","4","1","4","2","2","4","4","1","2","790906536061968385","张","460","","","","match","","","","","","","","","","","","","","key","f","16.66721311475429","768","428","j","false","nonmatch","img/hexagon.png","菱形","六边","ALT1_2","prac_ALT1_2","","","","","","","","","","","",""
"null","<span style='color:red; font-size: 70px;'>错误! </span>","null","html-keyboard-response","74","595529","0.0-7.0-1.0-1.0-0.0-1.32","4","4","4","3","4","3","4","4","4","3","4","4","2","4","4","5","5","4","4","4","4","5","4","4","4","3","4","5","4","1","0","1","1","0","0","0","1","0","1","1","0","1","0","1","4","5","4","1","4","2","2","4","4","1","2","790906536061968385","张","460","","","","","","","","","","","","","","","","","","","","","","","","","","","","","","feedback_test","","","","","","","","","","","",""
"null","","null","psychophysics","75","597734","0.0-7.0-1.0-1.0-0.0-0.33","4","4","4","3","4","3","4","4","4","3","4","4","2","4","4","5","5","4","4","4","4","5","4","4","4","3","4","5","4","1","0","1","1","0","0","0","1","0","1","1","0","1","0","1","4","5","4","1","4","2","2","4","4","1","2","790906536061968385","张","460","","","","null","","","","","","","","","","","","","","key","null","16.665648854961475","768","428","f","false","match","img/hexagon.png","六边","六边","ALT1_2","prac_ALT1_2","","","","","","","","","","","",""
"null","<span class='add_' style='color:yellow; font-size: 70px;'> 太慢! </span>","null","html-keyboard-response","76","598235","0.0-7.0-1.0-1.0-0.0-1.33","4","4","4","3","4","3","4","4","4","3","4","4","2","4","4","5","5","4","4","4","4","5","4","4","4","3","4","5","4","1","0","1","1","0","0","0","1","0","1","1","0","1","0","1","4","5","4","1","4","2","2","4","4","1","2","790906536061968385","张","460","","","","","","","","","","","","","","","","","","","","","","","","","","","","","","feedback_test","","","","","","","","","","","",""
"null","","null","psychophysics","77","600443","0.0-7.0-1.0-1.0-0.0-0.34","4","4","4","3","4","3","4","4","4","3","4","4","2","4","4","5","5","4","4","4","4","5","4","4","4","3","4","5","4","1","0","1","1","0","0","0","1","0","1","1","0","1","0","1","4","5","4","1","4","2","2","4","4","1","2","790906536061968385","张","460","","","","null","","","","","","","","","","","","","","key","null","16.666412213740813","768","428","j","false","nonmatch","img/hexagon.png","圆形","六边","ALT1_2","prac_ALT1_2","","","","","","","","","","","",""
"null","<span class='add_' style='color:yellow; font-size: 70px;'> 太慢! </span>","null","html-keyboard-response","78","600945","0.0-7.0-1.0-1.0-0.0-1.34","4","4","4","3","4","3","4","4","4","3","4","4","2","4","4","5","5","4","4","4","4","5","4","4","4","3","4","5","4","1","0","1","1","0","0","0","1","0","1","1","0","1","0","1","4","5","4","1","4","2","2","4","4","1","2","790906536061968385","张","460","","","","","","","","","","","","","","","","","","","","","","","","","","","","","","feedback_test","","","","","","","","","","","",""
"1100","","f","psychophysics","79","603047","0.0-7.0-1.0-1.0-0.0-0.35","4","4","4","3","4","3","4","4","4","3","4","4","2","4","4","5","5","4","4","4","4","5","4","4","4","3","4","5","4","1","0","1","1","0","0","0","1","0","1","1","0","1","0","1","4","5","4","1","4","2","2","4","4","1","2","790906536061968385","张","460","","","","match","","","","","","","","","","","","","","key","f","16.668","768","428","f","true","match","img/hexagon.png","六边","六边","ALT1_2","prac_ALT1_2","","","","","","","","","","","",""
"null","<span style='color:GreenYellow; font-size: 70px;'>正确! </span>","null","html-keyboard-response","80","603549","0.0-7.0-1.0-1.0-0.0-1.35","4","4","4","3","4","3","4","4","4","3","4","4","2","4","4","5","5","4","4","4","4","5","4","4","4","3","4","5","4","1","0","1","1","0","0","0","1","0","1","1","0","1","0","1","4","5","4","1","4","2","2","4","4","1","2","790906536061968385","张","460","","","","","","","","","","","","","","","","","","","","","","","","","","","","","","feedback_test","","","","","","","","","","","",""
"918","","j","psychophysics","81","605470","0.0-7.0-1.0-1.0-0.0-0.36","4","4","4","3","4","3","4","4","4","3","4","4","2","4","4","5","5","4","4","4","4","5","4","4","4","3","4","5","4","1","0","1","1","0","0","0","1","0","1","1","0","1","0","1","4","5","4","1","4","2","2","4","4","1","2","790906536061968385","张","460","","","","nonmatch","","","","","","","","","","","","","","key","j","16.666086956521536","768","428","j","true","nonmatch","img/triangle.png","六边","三角","ALT1_2","prac_ALT1_2","","","","","","","","","","","",""
"null","<span style='color:GreenYellow; font-size: 70px;'>正确! </span>","null","html-keyboard-response","82","605994","0.0-7.0-1.0-1.0-0.0-1.36","4","4","4","3","4","3","4","4","4","3","4","4","2","4","4","5","5","4","4","4","4","5","4","4","4","3","4","5","4","1","0","1","1","0","0","0","1","0","1","1","0","1","0","1","4","5","4","1","4","2","2","4","4","1","2","790906536061968385","张","460","","","","","","","","","","","","","","","","","","","","","","","","","","","","","","feedback_test","","","","","","","","","","","",""
"null","","null","psychophysics","83","608214","0.0-7.0-1.0-1.0-0.0-0.37","4","4","4","3","4","3","4","4","4","3","4","4","2","4","4","5","5","4","4","4","4","5","4","4","4","3","4","5","4","1","0","1","1","0","0","0","1","0","1","1","0","1","0","1","4","5","4","1","4","2","2","4","4","1","2","790906536061968385","张","460","","","","null","","","","","","","","","","","","","","key","null","16.665909090909267","768","428","j","false","nonmatch","img/circle.png","菱形","圆形","ALT1_2","prac_ALT1_2","","","","","","","","","","","",""
"null","<span class='add_' style='color:yellow; font-size: 70px;'> 太慢! </span>","null","html-keyboard-response","84","608717","0.0-7.0-1.0-1.0-0.0-1.37","4","4","4","3","4","3","4","4","4","3","4","4","2","4","4","5","5","4","4","4","4","5","4","4","4","3","4","5","4","1","0","1","1","0","0","0","1","0","1","1","0","1","0","1","4","5","4","1","4","2","2","4","4","1","2","790906536061968385","张","460","","","","","","","","","","","","","","","","","","","","","","","","","","","","","","feedback_test","","","","","","","","","","","",""
"801","","j","psychophysics","85","610520","0.0-7.0-1.0-1.0-0.0-0.38","4","4","4","3","4","3","4","4","4","3","4","4","2","4","4","5","5","4","4","4","4","5","4","4","4","3","4","5","4","1","0","1","1","0","0","0","1","0","1","1","0","1","0","1","4","5","4","1","4","2","2","4","4","1","2","790906536061968385","张","460","","","","nonmatch","","","","","","","","","","","","","","key","j","16.666355140187353","768","428","j","true","nonmatch","img/triangle.png","菱形","三角","ALT1_2","prac_ALT1_2","","","","","","","","","","","",""
"null","<span style='color:GreenYellow; font-size: 70px;'>正确! </span>","null","html-keyboard-response","86","611026","0.0-7.0-1.0-1.0-0.0-1.38","4","4","4","3","4","3","4","4","4","3","4","4","2","4","4","5","5","4","4","4","4","5","4","4","4","3","4","5","4","1","0","1","1","0","0","0","1","0","1","1","0","1","0","1","4","5","4","1","4","2","2","4","4","1","2","790906536061968385","张","460","","","","","","","","","","","","","","","","","","","","","","","","","","","","","","feedback_test","","","","","","","","","","","",""
"805","","j","psychophysics","87","612833","0.0-7.0-1.0-1.0-0.0-0.39","4","4","4","3","4","3","4","4","4","3","4","4","2","4","4","5","5","4","4","4","4","5","4","4","4","3","4","5","4","1","0","1","1","0","0","0","1","0","1","1","0","1","0","1","4","5","4","1","4","2","2","4","4","1","2","790906536061968385","张","460","","","","nonmatch","","","","","","","","","","","","","","key","j","16.667289719626385","768","428","j","true","nonmatch","img/hexagon.png","三角","六边","ALT1_2","prac_ALT1_2","","","","","","","","","","","",""
"null","<span style='color:GreenYellow; font-size: 70px;'>正确! </span>","null","html-keyboard-response","88","613345","0.0-7.0-1.0-1.0-0.0-1.39","4","4","4","3","4","3","4","4","4","3","4","4","2","4","4","5","5","4","4","4","4","5","4","4","4","3","4","5","4","1","0","1","1","0","0","0","1","0","1","1","0","1","0","1","4","5","4","1","4","2","2","4","4","1","2","790906536061968385","张","460","","","","","","","","","","","","","","","","","","","","","","","","","","","","","","feedback_test","","","","","","","","","","","",""
"409","","f","psychophysics","89","614773","0.0-7.0-1.0-1.0-0.0-0.40","4","4","4","3","4","3","4","4","4","3","4","4","2","4","4","5","5","4","4","4","4","5","4","4","4","3","4","5","4","1","0","1","1","0","0","0","1","0","1","1","0","1","0","1","4","5","4","1","4","2","2","4","4","1","2","790906536061968385","张","460","","","","match","","","","","","","","","","","","","","key","f","16.6658823529409","768","428","f","true","match","img/circle.png","圆形","圆形","ALT1_2","prac_ALT1_2","","","","","","","","","","","",""
"null","<span style='color:GreenYellow; font-size: 70px;'>正确! </span>","null","html-keyboard-response","90","615277","0.0-7.0-1.0-1.0-0.0-1.40","4","4","4","3","4","3","4","4","4","3","4","4","2","4","4","5","5","4","4","4","4","5","4","4","4","3","4","5","4","1","0","1","1","0","0","0","1","0","1","1","0","1","0","1","4","5","4","1","4","2","2","4","4","1","2","790906536061968385","张","460","","","","","","","","","","","","","","","","","","","","","","","","","","","","","","feedback_test","","","","","","","","","","","",""
"812","","f","psychophysics","91","617092","0.0-7.0-1.0-1.0-0.0-0.41","4","4","4","3","4","3","4","4","4","3","4","4","2","4","4","5","5","4","4","4","4","5","4","4","4","3","4","5","4","1","0","1","1","0","0","0","1","0","1","1","0","1","0","1","4","5","4","1","4","2","2","4","4","1","2","790906536061968385","张","460","","","","match","","","","","","","","","","","","","","key","f","16.667592592592378","768","428","f","true","match","img/circle.png","圆形","圆形","ALT1_2","prac_ALT1_2","","","","","","","","","","","",""
"null","<span style='color:GreenYellow; font-size: 70px;'>正确! </span>","null","html-keyboard-response","92","617599","0.0-7.0-1.0-1.0-0.0-1.41","4","4","4","3","4","3","4","4","4","3","4","4","2","4","4","5","5","4","4","4","4","5","4","4","4","3","4","5","4","1","0","1","1","0","0","0","1","0","1","1","0","1","0","1","4","5","4","1","4","2","2","4","4","1","2","790906536061968385","张","460","","","","","","","","","","","","","","","","","","","","","","","","","","","","","","feedback_test","","","","","","","","","","","",""
"null","","null","psychophysics","93","619825","0.0-7.0-1.0-1.0-0.0-0.42","4","4","4","3","4","3","4","4","4","3","4","4","2","4","4","5","5","4","4","4","4","5","4","4","4","3","4","5","4","1","0","1","1","0","0","0","1","0","1","1","0","1","0","1","4","5","4","1","4","2","2","4","4","1","2","790906536061968385","张","460","","","","null","","","","","","","","","","","","","","key","null","16.664661654135514","768","428","f","false","match","img/triangle.png","三角","三角","ALT1_2","prac_ALT1_2","","","","","","","","","","","",""
"null","<span class='add_' style='color:yellow; font-size: 70px;'> 太慢! </span>","null","html-keyboard-response","94","620327","0.0-7.0-1.0-1.0-0.0-1.42","4","4","4","3","4","3","4","4","4","3","4","4","2","4","4","5","5","4","4","4","4","5","4","4","4","3","4","5","4","1","0","1","1","0","0","0","1","0","1","1","0","1","0","1","4","5","4","1","4","2","2","4","4","1","2","790906536061968385","张","460","","","","","","","","","","","","","","","","","","","","","","","","","","","","","","feedback_test","","","","","","","","","","","",""
"894","","j","psychophysics","95","622225","0.0-7.0-1.0-1.0-0.0-0.43","4","4","4","3","4","3","4","4","4","3","4","4","2","4","4","5","5","4","4","4","4","5","4","4","4","3","4","5","4","1","0","1","1","0","0","0","1","0","1","1","0","1","0","1","4","5","4","1","4","2","2","4","4","1","2","790906536061968385","张","460","","","","nonmatch","","","","","","","","","","","","","","key","j","16.66637168141634","768","428","j","true","nonmatch","img/diamond.png","三角","菱形","ALT1_2","prac_ALT1_2","","","","","","","","","","","",""
"null","<span style='color:GreenYellow; font-size: 70px;'>正确! </span>","null","html-keyboard-response","96","622726","0.0-7.0-1.0-1.0-0.0-1.43","4","4","4","3","4","3","4","4","4","3","4","4","2","4","4","5","5","4","4","4","4","5","4","4","4","3","4","5","4","1","0","1","1","0","0","0","1","0","1","1","0","1","0","1","4","5","4","1","4","2","2","4","4","1","2","790906536061968385","张","460","","","","","","","","","","","","","","","","","","","","","","","","","","","","","","feedback_test","","","","","","","","","","","",""
"947","","f","psychophysics","97","624676","0.0-7.0-1.0-1.0-0.0-0.44","4","4","4","3","4","3","4","4","4","3","4","4","2","4","4","5","5","4","4","4","4","5","4","4","4","3","4","5","4","1","0","1","1","0","0","0","1","0","1","1","0","1","0","1","4","5","4","1","4","2","2","4","4","1","2","790906536061968385","张","460","","","","match","","","","","","","","","","","","","","key","f","16.666379310344226","768","428","f","true","match","img/triangle.png","三角","三角","ALT1_2","prac_ALT1_2","","","","","","","","","","","",""
"null","<span style='color:GreenYellow; font-size: 70px;'>正确! </span>","null","html-keyboard-response","98","625195","0.0-7.0-1.0-1.0-0.0-1.44","4","4","4","3","4","3","4","4","4","3","4","4","2","4","4","5","5","4","4","4","4","5","4","4","4","3","4","5","4","1","0","1","1","0","0","0","1","0","1","1","0","1","0","1","4","5","4","1","4","2","2","4","4","1","2","790906536061968385","张","460","","","","","","","","","","","","","","","","","","","","","","","","","","","","","","feedback_test","","","","","","","","","","","",""
"1065","","f","psychophysics","99","627279","0.0-7.0-1.0-1.0-0.0-0.45","4","4","4","3","4","3","4","4","4","3","4","4","2","4","4","5","5","4","4","4","4","5","4","4","4","3","4","5","4","1","0","1","1","0","0","0","1","0","1","1","0","1","0","1","4","5","4","1","4","2","2","4","4","1","2","790906536061968385","张","460","","","","match","","","","","","","","","","","","","","key","f","16.670967741935108","768","428","j","false","nonmatch","img/diamond.png","圆形","菱形","ALT1_2","prac_ALT1_2","","","","","","","","","","","",""
"null","<span style='color:red; font-size: 70px;'>错误! </span>","null","html-keyboard-response","100","627780","0.0-7.0-1.0-1.0-0.0-1.45","4","4","4","3","4","3","4","4","4","3","4","4","2","4","4","5","5","4","4","4","4","5","4","4","4","3","4","5","4","1","0","1","1","0","0","0","1","0","1","1","0","1","0","1","4","5","4","1","4","2","2","4","4","1","2","790906536061968385","张","460","","","","","","","","","","","","","","","","","","","","","","","","","","","","","","feedback_test","","","","","","","","","","","",""
"783","","f","psychophysics","101","629566","0.0-7.0-1.0-1.0-0.0-0.46","4","4","4","3","4","3","4","4","4","3","4","4","2","4","4","5","5","4","4","4","4","5","4","4","4","3","4","5","4","1","0","1","1","0","0","0","1","0","1","1","0","1","0","1","4","5","4","1","4","2","2","4","4","1","2","790906536061968385","张","460","","","","match","","","","","","","","","","","","","","key","f","16.666981132075033","768","428","f","true","match","img/diamond.png","菱形","菱形","ALT1_2","prac_ALT1_2","","","","","","","","","","","",""
"null","<span style='color:GreenYellow; font-size: 70px;'>正确! </span>","null","html-keyboard-response","102","630069","0.0-7.0-1.0-1.0-0.0-1.46","4","4","4","3","4","3","4","4","4","3","4","4","2","4","4","5","5","4","4","4","4","5","4","4","4","3","4","5","4","1","0","1","1","0","0","0","1","0","1","1","0","1","0","1","4","5","4","1","4","2","2","4","4","1","2","790906536061968385","张","460","","","","","","","","","","","","","","","","","","","","","","","","","","","","","","feedback_test","","","","","","","","","","","",""
"778","","f","psychophysics","103","631849","0.0-7.0-1.0-1.0-0.0-0.47","4","4","4","3","4","3","4","4","4","3","4","4","2","4","4","5","5","4","4","4","4","5","4","4","4","3","4","5","4","1","0","1","1","0","0","0","1","0","1","1","0","1","0","1","4","5","4","1","4","2","2","4","4","1","2","790906536061968385","张","460","","","","match","","","","","","","","","","","","","","key","f","16.669523809524254","768","428","f","true","match","img/diamond.png","菱形","菱形","ALT1_2","prac_ALT1_2","","","","","","","","","","","",""
"null","<span style='color:GreenYellow; font-size: 70px;'>正确! </span>","null","html-keyboard-response","104","632364","0.0-7.0-1.0-1.0-0.0-1.47","4","4","4","3","4","3","4","4","4","3","4","4","2","4","4","5","5","4","4","4","4","5","4","4","4","3","4","5","4","1","0","1","1","0","0","0","1","0","1","1","0","1","0","1","4","5","4","1","4","2","2","4","4","1","2","790906536061968385","张","460","","","","","","","","","","","","","","","","","","","","","","","","","","","","","","feedback_test","","","","","","","","","","","",""
"4969","<style>.context{color:white; font-size: 35px; line-height:40px}</style>                          <div><p class='context'>您正确回答了52% 的试次。</p><p class='context'>您的平均反应时为809毫秒。</p><p class='context'>恭喜您完成练习。按空格键继续。</p></div>"," ","html-keyboard-response","105","637337","0.0-7.0-1.0-1.0-1.0-0.0","4","4","4","3","4","3","4","4","4","3","4","4","2","4","4","5","5","4","4","4","4","5","4","4","4","3","4","5","4","1","0","1","1","0","0","0","1","0","1","1","0","1","0","1","4","5","4","1","4","2","2","4","4","1","2","790906536061968385","张","460","","","","","","","","","","","","","","","","","","","","","","","","","","","","","","","","","","","","","","","","","",""
"15191","","","instructions","106","652532","0.0-7.0-1.0-1.0-1.0-1.0","4","4","4","3","4","3","4","4","4","3","4","4","2","4","4","5","5","4","4","4","4","5","4","4","4","3","4","5","4","1","0","1","1","0","0","0","1","0","1","1","0","1","0","1","4","5","4","1","4","2","2","4","4","1","2","790906536061968385","张","460","","","","","","","","","","","","","","","","","[{""page_index"":0,""viewing_time"":6568},{""page_index"":1,""viewing_time"":5648},{""page_index"":2,""viewing_time"":2975}]","","","","","","","","","","","","","","","","","","","","","","","","",""
"1146","","f","psychophysics","107","654681","0.0-7.0-1.0-1.1-0.1-0.48","4","4","4","3","4","3","4","4","4","3","4","4","2","4","4","5","5","4","4","4","4","5","4","4","4","3","4","5","4","1","0","1","1","0","0","0","1","0","1","1","0","1","0","1","4","5","4","1","4","2","2","4","4","1","2","790906536061968385","张","460","","","","match","","","","","","","","","","","","","","key","f","16.669531249999636","768","428","j","false","nonmatch","img/diamond.png","三角","菱形","ALT1_2","prac_ALT1_2","","","","","","","","","","","",""
"null","<span style='color:red; font-size: 70px;'>错误! </span>","null","html-keyboard-response","108","655188","0.0-7.0-1.0-1.1-0.1-1.48","4","4","4","3","4","3","4","4","4","3","4","4","2","4","4","5","5","4","4","4","4","5","4","4","4","3","4","5","4","1","0","1","1","0","0","0","1","0","1","1","0","1","0","1","4","5","4","1","4","2","2","4","4","1","2","790906536061968385","张","460","","","","","","","","","","","","","","","","","","","","","","","","","","","","","","feedback_test","","","","","","","","","","","",""
"823","","j","psychophysics","109","657013","0.0-7.0-1.0-1.1-0.1-0.49","4","4","4","3","4","3","4","4","4","3","4","4","2","4","4","5","5","4","4","4","4","5","4","4","4","3","4","5","4","1","0","1","1","0","0","0","1","0","1","1","0","1","0","1","4","5","4","1","4","2","2","4","4","1","2","790906536061968385","张","460","","","","nonmatch","","","","","","","","","","","","","","key","j","16.666666666666668","768","428","j","true","nonmatch","img/triangle.png","圆形","三角","ALT1_2","prac_ALT1_2","","","","","","","","","","","",""
"null","<span style='color:GreenYellow; font-size: 70px;'>正确! </span>","null","html-keyboard-response","110","657515","0.0-7.0-1.0-1.1-0.1-1.49","4","4","4","3","4","3","4","4","4","3","4","4","2","4","4","5","5","4","4","4","4","5","4","4","4","3","4","5","4","1","0","1","1","0","0","0","1","0","1","1","0","1","0","1","4","5","4","1","4","2","2","4","4","1","2","790906536061968385","张","460","","","","","","","","","","","","","","","","","","","","","","","","","","","","","","feedback_test","","","","","","","","","","","",""
"733","","j","psychophysics","111","659249","0.0-7.0-1.0-1.1-0.1-0.50","4","4","4","3","4","3","4","4","4","3","4","4","2","4","4","5","5","4","4","4","4","5","4","4","4","3","4","5","4","1","0","1","1","0","0","0","1","0","1","1","0","1","0","1","4","5","4","1","4","2","2","4","4","1","2","790906536061968385","张","460","","","","nonmatch","","","","","","","","","","","","","","key","j","16.666990291262813","768","428","j","true","nonmatch","img/circle.png","菱形","圆形","ALT1_2","prac_ALT1_2","","","","","","","","","","","",""
"null","<span style='color:GreenYellow; font-size: 70px;'>正确! </span>","null","html-keyboard-response","112","659764","0.0-7.0-1.0-1.1-0.1-1.50","4","4","4","3","4","3","4","4","4","3","4","4","2","4","4","5","5","4","4","4","4","5","4","4","4","3","4","5","4","1","0","1","1","0","0","0","1","0","1","1","0","1","0","1","4","5","4","1","4","2","2","4","4","1","2","790906536061968385","张","460","","","","","","","","","","","","","","","","","","","","","","","","","","","","","","feedback_test","","","","","","","","","","","",""
"null","","null","psychophysics","113","661974","0.0-7.0-1.0-1.1-0.1-0.51","4","4","4","3","4","3","4","4","4","3","4","4","2","4","4","5","5","4","4","4","4","5","4","4","4","3","4","5","4","1","0","1","1","0","0","0","1","0","1","1","0","1","0","1","4","5","4","1","4","2","2","4","4","1","2","790906536061968385","张","460","","","","null","","","","","","","","","","","","","","key","null","16.667424242424065","768","428","j","false","nonmatch","img/hexagon.png","菱形","六边","ALT1_2","prac_ALT1_2","","","","","","","","","","","",""
"null","<span class='add_' style='color:yellow; font-size: 70px;'> 太慢! </span>","null","html-keyboard-response","114","662484","0.0-7.0-1.0-1.1-0.1-1.51","4","4","4","3","4","3","4","4","4","3","4","4","2","4","4","5","5","4","4","4","4","5","4","4","4","3","4","5","4","1","0","1","1","0","0","0","1","0","1","1","0","1","0","1","4","5","4","1","4","2","2","4","4","1","2","790906536061968385","张","460","","","","","","","","","","","","","","","","","","","","","","","","","","","","","","feedback_test","","","","","","","","","","","",""
"961","","j","psychophysics","115","664466","0.0-7.0-1.0-1.1-0.1-0.52","4","4","4","3","4","3","4","4","4","3","4","4","2","4","4","5","5","4","4","4","4","5","4","4","4","3","4","5","4","1","0","1","1","0","0","0","1","0","1","1","0","1","0","1","4","5","4","1","4","2","2","4","4","1","2","790906536061968385","张","460","","","","nonmatch","","","","","","","","","","","","","","key","j","16.66324786324866","768","428","j","true","nonmatch","img/hexagon.png","三角","六边","ALT1_2","prac_ALT1_2","","","","","","","","","","","",""
"null","<span style='color:GreenYellow; font-size: 70px;'>正确! </span>","null","html-keyboard-response","116","664968","0.0-7.0-1.0-1.1-0.1-1.52","4","4","4","3","4","3","4","4","4","3","4","4","2","4","4","5","5","4","4","4","4","5","4","4","4","3","4","5","4","1","0","1","1","0","0","0","1","0","1","1","0","1","0","1","4","5","4","1","4","2","2","4","4","1","2","790906536061968385","张","460","","","","","","","","","","","","","","","","","","","","","","","","","","","","","","feedback_test","","","","","","","","","","","",""
"912","","f","psychophysics","117","666882","0.0-7.0-1.0-1.1-0.1-0.53","4","4","4","3","4","3","4","4","4","3","4","4","2","4","4","5","5","4","4","4","4","5","4","4","4","3","4","5","4","1","0","1","1","0","0","0","1","0","1","1","0","1","0","1","4","5","4","1","4","2","2","4","4","1","2","790906536061968385","张","460","","","","match","","","","","","","","","","","","","","key","f","16.66902654867236","768","428","f","true","match","img/circle.png","圆形","圆形","ALT1_2","prac_ALT1_2","","","","","","","","","","","",""
"null","<span style='color:GreenYellow; font-size: 70px;'>正确! </span>","null","html-keyboard-response","118","667385","0.0-7.0-1.0-1.1-0.1-1.53","4","4","4","3","4","3","4","4","4","3","4","4","2","4","4","5","5","4","4","4","4","5","4","4","4","3","4","5","4","1","0","1","1","0","0","0","1","0","1","1","0","1","0","1","4","5","4","1","4","2","2","4","4","1","2","790906536061968385","张","460","","","","","","","","","","","","","","","","","","","","","","","","","","","","","","feedback_test","","","","","","","","","","","",""
"886","","f","psychophysics","119","669272","0.0-7.0-1.0-1.1-0.1-0.54","4","4","4","3","4","3","4","4","4","3","4","4","2","4","4","5","5","4","4","4","4","5","4","4","4","3","4","5","4","1","0","1","1","0","0","0","1","0","1","1","0","1","0","1","4","5","4","1","4","2","2","4","4","1","2","790906536061968385","张","460","","","","match","","","","","","","","","","","","","","key","f","16.66607142857226","768","428","f","true","match","img/diamond.png","菱形","菱形","ALT1_2","prac_ALT1_2","","","","","","","","","","","",""
"null","<span style='color:GreenYellow; font-size: 70px;'>正确! </span>","null","html-keyboard-response","120","669783","0.0-7.0-1.0-1.1-0.1-1.54","4","4","4","3","4","3","4","4","4","3","4","4","2","4","4","5","5","4","4","4","4","5","4","4","4","3","4","5","4","1","0","1","1","0","0","0","1","0","1","1","0","1","0","1","4","5","4","1","4","2","2","4","4","1","2","790906536061968385","张","460","","","","","","","","","","","","","","","","","","","","","","","","","","","","","","feedback_test","","","","","","","","","","","",""
"754","","j","psychophysics","121","671548","0.0-7.0-1.0-1.1-0.1-0.55","4","4","4","3","4","3","4","4","4","3","4","4","2","4","4","5","5","4","4","4","4","5","4","4","4","3","4","5","4","1","0","1","1","0","0","0","1","0","1","1","0","1","0","1","4","5","4","1","4","2","2","4","4","1","2","790906536061968385","张","460","","","","nonmatch","","","","","","","","","","","","","","key","j","16.667307692307915","768","428","j","true","nonmatch","img/circle.png","六边","圆形","ALT1_2","prac_ALT1_2","","","","","","","","","","","",""
"null","<span style='color:GreenYellow; font-size: 70px;'>正确! </span>","null","html-keyboard-response","122","672050","0.0-7.0-1.0-1.1-0.1-1.55","4","4","4","3","4","3","4","4","4","3","4","4","2","4","4","5","5","4","4","4","4","5","4","4","4","3","4","5","4","1","0","1","1","0","0","0","1","0","1","1","0","1","0","1","4","5","4","1","4","2","2","4","4","1","2","790906536061968385","张","460","","","","","","","","","","","","","","","","","","","","","","","","","","","","","","feedback_test","","","","","","","","","","","",""
"665","","f","psychophysics","123","673716","0.0-7.0-1.0-1.1-0.1-0.56","4","4","4","3","4","3","4","4","4","3","4","4","2","4","4","5","5","4","4","4","4","5","4","4","4","3","4","5","4","1","0","1","1","0","0","0","1","0","1","1","0","1","0","1","4","5","4","1","4","2","2","4","4","1","2","790906536061968385","张","460","","","","match","","","","","","","","","","","","","","key","f","16.655102040817038","768","428","f","true","match","img/triangle.png","三角","三角","ALT1_2","prac_ALT1_2","","","","","","","","","","","",""
"null","<span style='color:GreenYellow; font-size: 70px;'>正确! </span>","null","html-keyboard-response","124","674218","0.0-7.0-1.0-1.1-0.1-1.56","4","4","4","3","4","3","4","4","4","3","4","4","2","4","4","5","5","4","4","4","4","5","4","4","4","3","4","5","4","1","0","1","1","0","0","0","1","0","1","1","0","1","0","1","4","5","4","1","4","2","2","4","4","1","2","790906536061968385","张","460","","","","","","","","","","","","","","","","","","","","","","","","","","","","","","feedback_test","","","","","","","","","","","",""
"1177","","j","psychophysics","125","676398","0.0-7.0-1.0-1.1-0.1-0.57","4","4","4","3","4","3","4","4","4","3","4","4","2","4","4","5","5","4","4","4","4","5","4","4","4","3","4","5","4","1","0","1","1","0","0","0","1","0","1","1","0","1","0","1","4","5","4","1","4","2","2","4","4","1","2","790906536061968385","张","460","","","","nonmatch","","","","","","","","","","","","","","key","j","16.666666666666668","768","428","j","true","nonmatch","img/diamond.png","六边","菱形","ALT1_2","prac_ALT1_2","","","","","","","","","","","",""
"null","<span style='color:GreenYellow; font-size: 70px;'>正确! </span>","null","html-keyboard-response","126","676914","0.0-7.0-1.0-1.1-0.1-1.57","4","4","4","3","4","3","4","4","4","3","4","4","2","4","4","5","5","4","4","4","4","5","4","4","4","3","4","5","4","1","0","1","1","0","0","0","1","0","1","1","0","1","0","1","4","5","4","1","4","2","2","4","4","1","2","790906536061968385","张","460","","","","","","","","","","","","","","","","","","","","","","","","","","","","","","feedback_test","","","","","","","","","","","",""
"791","","f","psychophysics","127","678725","0.0-7.0-1.0-1.1-0.1-0.58","4","4","4","3","4","3","4","4","4","3","4","4","2","4","4","5","5","4","4","4","4","5","4","4","4","3","4","5","4","1","0","1","1","0","0","0","1","0","1","1","0","1","0","1","4","5","4","1","4","2","2","4","4","1","2","790906536061968385","张","460","","","","match","","","","","","","","","","","","","","key","f","16.665740740740958","768","428","f","true","match","img/hexagon.png","六边","六边","ALT1_2","prac_ALT1_2","","","","","","","","","","","",""
"null","<span style='color:GreenYellow; font-size: 70px;'>正确! </span>","null","html-keyboard-response","128","679226","0.0-7.0-1.0-1.1-0.1-1.58","4","4","4","3","4","3","4","4","4","3","4","4","2","4","4","5","5","4","4","4","4","5","4","4","4","3","4","5","4","1","0","1","1","0","0","0","1","0","1","1","0","1","0","1","4","5","4","1","4","2","2","4","4","1","2","790906536061968385","张","460","","","","","","","","","","","","","","","","","","","","","","","","","","","","","","feedback_test","","","","","","","","","","","",""
"938","","j","psychophysics","129","681166","0.0-7.0-1.0-1.1-0.1-0.59","4","4","4","3","4","3","4","4","4","3","4","4","2","4","4","5","5","4","4","4","4","5","4","4","4","3","4","5","4","1","0","1","1","0","0","0","1","0","1","1","0","1","0","1","4","5","4","1","4","2","2","4","4","1","2","790906536061968385","张","460","","","","nonmatch","","","","","","","","","","","","","","key","j","16.667826086955916","768","428","j","true","nonmatch","img/circle.png","三角","圆形","ALT1_2","prac_ALT1_2","","","","","","","","","","","",""
"null","<span style='color:GreenYellow; font-size: 70px;'>正确! </span>","null","html-keyboard-response","130","681669","0.0-7.0-1.0-1.1-0.1-1.59","4","4","4","3","4","3","4","4","4","3","4","4","2","4","4","5","5","4","4","4","4","5","4","4","4","3","4","5","4","1","0","1","1","0","0","0","1","0","1","1","0","1","0","1","4","5","4","1","4","2","2","4","4","1","2","790906536061968385","张","460","","","","","","","","","","","","","","","","","","","","","","","","","","","","","","feedback_test","","","","","","","","","","","",""
"1013","","f","psychophysics","131","683684","0.0-7.0-1.0-1.1-0.1-0.60","4","4","4","3","4","3","4","4","4","3","4","4","2","4","4","5","5","4","4","4","4","5","4","4","4","3","4","5","4","1","0","1","1","0","0","0","1","0","1","1","0","1","0","1","4","5","4","1","4","2","2","4","4","1","2","790906536061968385","张","460","","","","match","","","","","","","","","","","","","","key","f","16.6672268907565","768","428","j","false","nonmatch","img/triangle.png","六边","三角","ALT1_2","prac_ALT1_2","","","","","","","","","","","",""
"null","<span style='color:red; font-size: 70px;'>错误! </span>","null","html-keyboard-response","132","684186","0.0-7.0-1.0-1.1-0.1-1.60","4","4","4","3","4","3","4","4","4","3","4","4","2","4","4","5","5","4","4","4","4","5","4","4","4","3","4","5","4","1","0","1","1","0","0","0","1","0","1","1","0","1","0","1","4","5","4","1","4","2","2","4","4","1","2","790906536061968385","张","460","","","","","","","","","","","","","","","","","","","","","","","","","","","","","","feedback_test","","","","","","","","","","","",""
"860","","j","psychophysics","133","686048","0.0-7.0-1.0-1.1-0.1-0.61","4","4","4","3","4","3","4","4","4","3","4","4","2","4","4","5","5","4","4","4","4","5","4","4","4","3","4","5","4","1","0","1","1","0","0","0","1","0","1","1","0","1","0","1","4","5","4","1","4","2","2","4","4","1","2","790906536061968385","张","460","","","","nonmatch","","","","","","","","","","","","","","key","j","16.666363636363002","768","428","j","true","nonmatch","img/hexagon.png","圆形","六边","ALT1_2","prac_ALT1_2","","","","","","","","","","","",""
"null","<span style='color:GreenYellow; font-size: 70px;'>正确! </span>","null","html-keyboard-response","134","686551","0.0-7.0-1.0-1.1-0.1-1.61","4","4","4","3","4","3","4","4","4","3","4","4","2","4","4","5","5","4","4","4","4","5","4","4","4","3","4","5","4","1","0","1","1","0","0","0","1","0","1","1","0","1","0","1","4","5","4","1","4","2","2","4","4","1","2","790906536061968385","张","460","","","","","","","","","","","","","","","","","","","","","","","","","","","","","","feedback_test","","","","","","","","","","","",""
"776","","j","psychophysics","135","688329","0.0-7.0-1.0-1.1-0.1-0.62","4","4","4","3","4","3","4","4","4","3","4","4","2","4","4","5","5","4","4","4","4","5","4","4","4","3","4","5","4","1","0","1","1","0","0","0","1","0","1","1","0","1","0","1","4","5","4","1","4","2","2","4","4","1","2","790906536061968385","张","460","","","","nonmatch","","","","","","","","","","","","","","key","j","16.67142857142857","768","428","j","true","nonmatch","img/triangle.png","菱形","三角","ALT1_2","prac_ALT1_2","","","","","","","","","","","",""
"null","<span style='color:GreenYellow; font-size: 70px;'>正确! </span>","null","html-keyboard-response","136","688854","0.0-7.0-1.0-1.1-0.1-1.62","4","4","4","3","4","3","4","4","4","3","4","4","2","4","4","5","5","4","4","4","4","5","4","4","4","3","4","5","4","1","0","1","1","0","0","0","1","0","1","1","0","1","0","1","4","5","4","1","4","2","2","4","4","1","2","790906536061968385","张","460","","","","","","","","","","","","","","","","","","","","","","","","","","","","","","feedback_test","","","","","","","","","","","",""
"650","","f","psychophysics","137","690524","0.0-7.0-1.0-1.1-0.1-0.63","4","4","4","3","4","3","4","4","4","3","4","4","2","4","4","5","5","4","4","4","4","5","4","4","4","3","4","5","4","1","0","1","1","0","0","0","1","0","1","1","0","1","0","1","4","5","4","1","4","2","2","4","4","1","2","790906536061968385","张","460","","","","match","","","","","","","","","","","","","","key","f","16.666666666666668","768","428","f","true","match","img/circle.png","圆形","圆形","ALT1_2","prac_ALT1_2","","","","","","","","","","","",""
"null","<span style='color:GreenYellow; font-size: 70px;'>正确! </span>","null","html-keyboard-response","138","691025","0.0-7.0-1.0-1.1-0.1-1.63","4","4","4","3","4","3","4","4","4","3","4","4","2","4","4","5","5","4","4","4","4","5","4","4","4","3","4","5","4","1","0","1","1","0","0","0","1","0","1","1","0","1","0","1","4","5","4","1","4","2","2","4","4","1","2","790906536061968385","张","460","","","","","","","","","","","","","","","","","","","","","","","","","","","","","","feedback_test","","","","","","","","","","","",""
"931","","j","psychophysics","139","692958","0.0-7.0-1.0-1.1-0.1-0.64","4","4","4","3","4","3","4","4","4","3","4","4","2","4","4","5","5","4","4","4","4","5","4","4","4","3","4","5","4","1","0","1","1","0","0","0","1","0","1","1","0","1","0","1","4","5","4","1","4","2","2","4","4","1","2","790906536061968385","张","460","","","","nonmatch","","","","","","","","","","","","","","key","j","16.666956521738726","768","428","j","true","nonmatch","img/diamond.png","圆形","菱形","ALT1_2","prac_ALT1_2","","","","","","","","","","","",""
"null","<span style='color:GreenYellow; font-size: 70px;'>正确! </span>","null","html-keyboard-response","140","693459","0.0-7.0-1.0-1.1-0.1-1.64","4","4","4","3","4","3","4","4","4","3","4","4","2","4","4","5","5","4","4","4","4","5","4","4","4","3","4","5","4","1","0","1","1","0","0","0","1","0","1","1","0","1","0","1","4","5","4","1","4","2","2","4","4","1","2","790906536061968385","张","460","","","","","","","","","","","","","","","","","","","","","","","","","","","","","","feedback_test","","","","","","","","","","","",""
"553","","f","psychophysics","141","695014","0.0-7.0-1.0-1.1-0.1-0.65","4","4","4","3","4","3","4","4","4","3","4","4","2","4","4","5","5","4","4","4","4","5","4","4","4","3","4","5","4","1","0","1","1","0","0","0","1","0","1","1","0","1","0","1","4","5","4","1","4","2","2","4","4","1","2","790906536061968385","张","460","","","","match","","","","","","","","","","","","","","key","f","16.669565217392318","768","428","f","true","match","img/circle.png","圆形","圆形","ALT1_2","prac_ALT1_2","","","","","","","","","","","",""
"null","<span style='color:GreenYellow; font-size: 70px;'>正确! </span>","null","html-keyboard-response","142","695516","0.0-7.0-1.0-1.1-0.1-1.65","4","4","4","3","4","3","4","4","4","3","4","4","2","4","4","5","5","4","4","4","4","5","4","4","4","3","4","5","4","1","0","1","1","0","0","0","1","0","1","1","0","1","0","1","4","5","4","1","4","2","2","4","4","1","2","790906536061968385","张","460","","","","","","","","","","","","","","","","","","","","","","","","","","","","","","feedback_test","","","","","","","","","","","",""
"1000","","f","psychophysics","143","697535","0.0-7.0-1.0-1.1-0.1-0.66","4","4","4","3","4","3","4","4","4","3","4","4","2","4","4","5","5","4","4","4","4","5","4","4","4","3","4","5","4","1","0","1","1","0","0","0","1","0","1","1","0","1","0","1","4","5","4","1","4","2","2","4","4","1","2","790906536061968385","张","460","","","","match","","","","","","","","","","","","","","key","f","16.66386554621849","768","428","f","true","match","img/hexagon.png","六边","六边","ALT1_2","prac_ALT1_2","","","","","","","","","","","",""
"null","<span style='color:GreenYellow; font-size: 70px;'>正确! </span>","null","html-keyboard-response","144","698037","0.0-7.0-1.0-1.1-0.1-1.66","4","4","4","3","4","3","4","4","4","3","4","4","2","4","4","5","5","4","4","4","4","5","4","4","4","3","4","5","4","1","0","1","1","0","0","0","1","0","1","1","0","1","0","1","4","5","4","1","4","2","2","4","4","1","2","790906536061968385","张","460","","","","","","","","","","","","","","","","","","","","","","","","","","","","","","feedback_test","","","","","","","","","","","",""
"596","","j","psychophysics","145","699634","0.0-7.0-1.0-1.1-0.1-0.67","4","4","4","3","4","3","4","4","4","3","4","4","2","4","4","5","5","4","4","4","4","5","4","4","4","3","4","5","4","1","0","1","1","0","0","0","1","0","1","1","0","1","0","1","4","5","4","1","4","2","2","4","4","1","2","790906536061968385","张","460","","","","nonmatch","","","","","","","","","","","","","","key","j","16.671276595744434","768","428","f","false","match","img/hexagon.png","六边","六边","ALT1_2","prac_ALT1_2","","","","","","","","","","","",""
"null","<span style='color:red; font-size: 70px;'>错误! </span>","null","html-keyboard-response","146","700136","0.0-7.0-1.0-1.1-0.1-1.67","4","4","4","3","4","3","4","4","4","3","4","4","2","4","4","5","5","4","4","4","4","5","4","4","4","3","4","5","4","1","0","1","1","0","0","0","1","0","1","1","0","1","0","1","4","5","4","1","4","2","2","4","4","1","2","790906536061968385","张","460","","","","","","","","","","","","","","","","","","","","","","","","","","","","","","feedback_test","","","","","","","","","","","",""
"960","","f","psychophysics","147","702097","0.0-7.0-1.0-1.1-0.1-0.68","4","4","4","3","4","3","4","4","4","3","4","4","2","4","4","5","5","4","4","4","4","5","4","4","4","3","4","5","4","1","0","1","1","0","0","0","1","0","1","1","0","1","0","1","4","5","4","1","4","2","2","4","4","1","2","790906536061968385","张","460","","","","match","","","","","","","","","","","","","","key","f","16.666379310345228","768","428","f","true","match","img/diamond.png","菱形","菱形","ALT1_2","prac_ALT1_2","","","","","","","","","","","",""
"null","<span style='color:GreenYellow; font-size: 70px;'>正确! </span>","null","html-keyboard-response","148","702623","0.0-7.0-1.0-1.1-0.1-1.68","4","4","4","3","4","3","4","4","4","3","4","4","2","4","4","5","5","4","4","4","4","5","4","4","4","3","4","5","4","1","0","1","1","0","0","0","1","0","1","1","0","1","0","1","4","5","4","1","4","2","2","4","4","1","2","790906536061968385","张","460","","","","","","","","","","","","","","","","","","","","","","","","","","","","","","feedback_test","","","","","","","","","","","",""
"637","","f","psychophysics","149","704281","0.0-7.0-1.0-1.1-0.1-0.69","4","4","4","3","4","3","4","4","4","3","4","4","2","4","4","5","5","4","4","4","4","5","4","4","4","3","4","5","4","1","0","1","1","0","0","0","1","0","1","1","0","1","0","1","4","5","4","1","4","2","2","4","4","1","2","790906536061968385","张","460","","","","match","","","","","","","","","","","","","","key","f","16.669387755102992","768","428","f","true","match","img/triangle.png","三角","三角","ALT1_2","prac_ALT1_2","","","","","","","","","","","",""
"null","<span style='color:GreenYellow; font-size: 70px;'>正确! </span>","null","html-keyboard-response","150","704783","0.0-7.0-1.0-1.1-0.1-1.69","4","4","4","3","4","3","4","4","4","3","4","4","2","4","4","5","5","4","4","4","4","5","4","4","4","3","4","5","4","1","0","1","1","0","0","0","1","0","1","1","0","1","0","1","4","5","4","1","4","2","2","4","4","1","2","790906536061968385","张","460","","","","","","","","","","","","","","","","","","","","","","","","","","","","","","feedback_test","","","","","","","","","","","",""
"910","","f","psychophysics","151","706694","0.0-7.0-1.0-1.1-0.1-0.70","4","4","4","3","4","3","4","4","4","3","4","4","2","4","4","5","5","4","4","4","4","5","4","4","4","3","4","5","4","1","0","1","1","0","0","0","1","0","1","1","0","1","0","1","4","5","4","1","4","2","2","4","4","1","2","790906536061968385","张","460","","","","match","","","","","","","","","","","","","","key","f","16.667256637168347","768","428","f","true","match","img/triangle.png","三角","三角","ALT1_2","prac_ALT1_2","","","","","","","","","","","",""
"null","<span style='color:GreenYellow; font-size: 70px;'>正确! </span>","null","html-keyboard-response","152","707196","0.0-7.0-1.0-1.1-0.1-1.70","4","4","4","3","4","3","4","4","4","3","4","4","2","4","4","5","5","4","4","4","4","5","4","4","4","3","4","5","4","1","0","1","1","0","0","0","1","0","1","1","0","1","0","1","4","5","4","1","4","2","2","4","4","1","2","790906536061968385","张","460","","","","","","","","","","","","","","","","","","","","","","","","","","","","","","feedback_test","","","","","","","","","","","",""
"999","","f","psychophysics","153","709198","0.0-7.0-1.0-1.1-0.1-0.71","4","4","4","3","4","3","4","4","4","3","4","4","2","4","4","5","5","4","4","4","4","5","4","4","4","3","4","5","4","1","0","1","1","0","0","0","1","0","1","1","0","1","0","1","4","5","4","1","4","2","2","4","4","1","2","790906536061968385","张","460","","","","match","","","","","","","","","","","","","","key","f","16.66638655462224","768","428","f","true","match","img/diamond.png","菱形","菱形","ALT1_2","prac_ALT1_2","","","","","","","","","","","",""
"null","<span style='color:GreenYellow; font-size: 70px;'>正确! </span>","null","html-keyboard-response","154","709700","0.0-7.0-1.0-1.1-0.1-1.71","4","4","4","3","4","3","4","4","4","3","4","4","2","4","4","5","5","4","4","4","4","5","4","4","4","3","4","5","4","1","0","1","1","0","0","0","1","0","1","1","0","1","0","1","4","5","4","1","4","2","2","4","4","1","2","790906536061968385","张","460","","","","","","","","","","","","","","","","","","","","","","","","","","","","","","feedback_test","","","","","","","","","","","",""
"647","","f","psychophysics","155","711353","0.0-7.0-1.0-1.1-0.1-0.72","4","4","4","3","4","3","4","4","4","3","4","4","2","4","4","5","5","4","4","4","4","5","4","4","4","3","4","5","4","1","0","1","1","0","0","0","1","0","1","1","0","1","0","1","4","5","4","1","4","2","2","4","4","1","2","790906536061968385","张","460","","","","match","","","","","","","","","","","","","","key","f","16.66632653061272","768","428","f","true","match","img/circle.png","圆形","圆形","ALT1_2","prac_ALT1_2","","","","","","","","","","","",""
"null","<span style='color:GreenYellow; font-size: 70px;'>正确! </span>","null","html-keyboard-response","156","711854","0.0-7.0-1.0-1.1-0.1-1.72","4","4","4","3","4","3","4","4","4","3","4","4","2","4","4","5","5","4","4","4","4","5","4","4","4","3","4","5","4","1","0","1","1","0","0","0","1","0","1","1","0","1","0","1","4","5","4","1","4","2","2","4","4","1","2","790906536061968385","张","460","","","","","","","","","","","","","","","","","","","","","","","","","","","","","","feedback_test","","","","","","","","","","","",""
"521","","f","psychophysics","157","713378","0.0-7.0-1.0-1.1-0.1-0.73","4","4","4","3","4","3","4","4","4","3","4","4","2","4","4","5","5","4","4","4","4","5","4","4","4","3","4","5","4","1","0","1","1","0","0","0","1","0","1","1","0","1","0","1","4","5","4","1","4","2","2","4","4","1","2","790906536061968385","张","460","","","","match","","","","","","","","","","","","","","key","f","16.66777777777752","768","428","f","true","match","img/circle.png","圆形","圆形","ALT1_2","prac_ALT1_2","","","","","","","","","","","",""
"null","<span style='color:GreenYellow; font-size: 70px;'>正确! </span>","null","html-keyboard-response","158","713881","0.0-7.0-1.0-1.1-0.1-1.73","4","4","4","3","4","3","4","4","4","3","4","4","2","4","4","5","5","4","4","4","4","5","4","4","4","3","4","5","4","1","0","1","1","0","0","0","1","0","1","1","0","1","0","1","4","5","4","1","4","2","2","4","4","1","2","790906536061968385","张","460","","","","","","","","","","","","","","","","","","","","","","","","","","","","","","feedback_test","","","","","","","","","","","",""
"725","","f","psychophysics","159","715618","0.0-7.0-1.0-1.1-0.1-0.74","4","4","4","3","4","3","4","4","4","3","4","4","2","4","4","5","5","4","4","4","4","5","4","4","4","3","4","5","4","1","0","1","1","0","0","0","1","0","1","1","0","1","0","1","4","5","4","1","4","2","2","4","4","1","2","790906536061968385","张","460","","","","match","","","","","","","","","","","","","","key","f","16.66442307692285","768","428","f","true","match","img/triangle.png","三角","三角","ALT1_2","prac_ALT1_2","","","","","","","","","","","",""
"null","<span style='color:GreenYellow; font-size: 70px;'>正确! </span>","null","html-keyboard-response","160","716119","0.0-7.0-1.0-1.1-0.1-1.74","4","4","4","3","4","3","4","4","4","3","4","4","2","4","4","5","5","4","4","4","4","5","4","4","4","3","4","5","4","1","0","1","1","0","0","0","1","0","1","1","0","1","0","1","4","5","4","1","4","2","2","4","4","1","2","790906536061968385","张","460","","","","","","","","","","","","","","","","","","","","","","","","","","","","","","feedback_test","","","","","","","","","","","",""
"678","","f","psychophysics","161","717801","0.0-7.0-1.0-1.1-0.1-0.75","4","4","4","3","4","3","4","4","4","3","4","4","2","4","4","5","5","4","4","4","4","5","4","4","4","3","4","5","4","1","0","1","1","0","0","0","1","0","1","1","0","1","0","1","4","5","4","1","4","2","2","4","4","1","2","790906536061968385","张","460","","","","match","","","","","","","","","","","","","","key","f","16.665999999999766","768","428","f","true","match","img/circle.png","圆形","圆形","ALT1_2","prac_ALT1_2","","","","","","","","","","","",""
"null","<span style='color:GreenYellow; font-size: 70px;'>正确! </span>","null","html-keyboard-response","162","718303","0.0-7.0-1.0-1.1-0.1-1.75","4","4","4","3","4","3","4","4","4","3","4","4","2","4","4","5","5","4","4","4","4","5","4","4","4","3","4","5","4","1","0","1","1","0","0","0","1","0","1","1","0","1","0","1","4","5","4","1","4","2","2","4","4","1","2","790906536061968385","张","460","","","","","","","","","","","","","","","","","","","","","","","","","","","","","","feedback_test","","","","","","","","","","","",""
"860","","j","psychophysics","163","720166","0.0-7.0-1.0-1.1-0.1-0.76","4","4","4","3","4","3","4","4","4","3","4","4","2","4","4","5","5","4","4","4","4","5","4","4","4","3","4","5","4","1","0","1","1","0","0","0","1","0","1","1","0","1","0","1","4","5","4","1","4","2","2","4","4","1","2","790906536061968385","张","460","","","","nonmatch","","","","","","","","","","","","","","key","j","16.666363636363002","768","428","j","true","nonmatch","img/hexagon.png","圆形","六边","ALT1_2","prac_ALT1_2","","","","","","","","","","","",""
"null","<span style='color:GreenYellow; font-size: 70px;'>正确! </span>","null","html-keyboard-response","164","720684","0.0-7.0-1.0-1.1-0.1-1.76","4","4","4","3","4","3","4","4","4","3","4","4","2","4","4","5","5","4","4","4","4","5","4","4","4","3","4","5","4","1","0","1","1","0","0","0","1","0","1","1","0","1","0","1","4","5","4","1","4","2","2","4","4","1","2","790906536061968385","张","460","","","","","","","","","","","","","","","","","","","","","","","","","","","","","","feedback_test","","","","","","","","","","","",""
"593","","f","psychophysics","165","722297","0.0-7.0-1.0-1.1-0.1-0.77","4","4","4","3","4","3","4","4","4","3","4","4","2","4","4","5","5","4","4","4","4","5","4","4","4","3","4","5","4","1","0","1","1","0","0","0","1","0","1","1","0","1","0","1","4","5","4","1","4","2","2","4","4","1","2","790906536061968385","张","460","","","","match","","","","","","","","","","","","","","key","f","16.67052631579021","768","428","f","true","match","img/diamond.png","菱形","菱形","ALT1_2","prac_ALT1_2","","","","","","","","","","","",""
"null","<span style='color:GreenYellow; font-size: 70px;'>正确! </span>","null","html-keyboard-response","166","722798","0.0-7.0-1.0-1.1-0.1-1.77","4","4","4","3","4","3","4","4","4","3","4","4","2","4","4","5","5","4","4","4","4","5","4","4","4","3","4","5","4","1","0","1","1","0","0","0","1","0","1","1","0","1","0","1","4","5","4","1","4","2","2","4","4","1","2","790906536061968385","张","460","","","","","","","","","","","","","","","","","","","","","","","","","","","","","","feedback_test","","","","","","","","","","","",""
"976","","f","psychophysics","167","724777","0.0-7.0-1.0-1.1-0.1-0.78","4","4","4","3","4","3","4","4","4","3","4","4","2","4","4","5","5","4","4","4","4","5","4","4","4","3","4","5","4","1","0","1","1","0","0","0","1","0","1","1","0","1","0","1","4","5","4","1","4","2","2","4","4","1","2","790906536061968385","张","460","","","","match","","","","","","","","","","","","","","key","f","16.66153846153866","768","428","j","false","nonmatch","img/diamond.png","六边","菱形","ALT1_2","prac_ALT1_2","","","","","","","","","","","",""
"null","<span style='color:red; font-size: 70px;'>错误! </span>","null","html-keyboard-response","168","725279","0.0-7.0-1.0-1.1-0.1-1.78","4","4","4","3","4","3","4","4","4","3","4","4","2","4","4","5","5","4","4","4","4","5","4","4","4","3","4","5","4","1","0","1","1","0","0","0","1","0","1","1","0","1","0","1","4","5","4","1","4","2","2","4","4","1","2","790906536061968385","张","460","","","","","","","","","","","","","","","","","","","","","","","","","","","","","","feedback_test","","","","","","","","","","","",""
"906","","f","psychophysics","169","727186","0.0-7.0-1.0-1.1-0.1-0.79","4","4","4","3","4","3","4","4","4","3","4","4","2","4","4","5","5","4","4","4","4","5","4","4","4","3","4","5","4","1","0","1","1","0","0","0","1","0","1","1","0","1","0","1","4","5","4","1","4","2","2","4","4","1","2","790906536061968385","张","460","","","","match","","","","","","","","","","","","","","key","f","16.66491228070114","768","428","j","false","nonmatch","img/hexagon.png","菱形","六边","ALT1_2","prac_ALT1_2","","","","","","","","","","","",""
"null","<span style='color:red; font-size: 70px;'>错误! </span>","null","html-keyboard-response","170","727687","0.0-7.0-1.0-1.1-0.1-1.79","4","4","4","3","4","3","4","4","4","3","4","4","2","4","4","5","5","4","4","4","4","5","4","4","4","3","4","5","4","1","0","1","1","0","0","0","1","0","1","1","0","1","0","1","4","5","4","1","4","2","2","4","4","1","2","790906536061968385","张","460","","","","","","","","","","","","","","","","","","","","","","","","","","","","","","feedback_test","","","","","","","","","","","",""
"692","","f","psychophysics","171","729381","0.0-7.0-1.0-1.1-0.1-0.80","4","4","4","3","4","3","4","4","4","3","4","4","2","4","4","5","5","4","4","4","4","5","4","4","4","3","4","5","4","1","0","1","1","0","0","0","1","0","1","1","0","1","0","1","4","5","4","1","4","2","2","4","4","1","2","790906536061968385","张","460","","","","match","","","","","","","","","","","","","","key","f","16.66900000000023","768","428","f","true","match","img/diamond.png","菱形","菱形","ALT1_2","prac_ALT1_2","","","","","","","","","","","",""
"null","<span style='color:GreenYellow; font-size: 70px;'>正确! </span>","null","html-keyboard-response","172","729882","0.0-7.0-1.0-1.1-0.1-1.80","4","4","4","3","4","3","4","4","4","3","4","4","2","4","4","5","5","4","4","4","4","5","4","4","4","3","4","5","4","1","0","1","1","0","0","0","1","0","1","1","0","1","0","1","4","5","4","1","4","2","2","4","4","1","2","790906536061968385","张","460","","","","","","","","","","","","","","","","","","","","","","","","","","","","","","feedback_test","","","","","","","","","","","",""
"1157","","f","psychophysics","173","732041","0.0-7.0-1.0-1.1-0.1-0.81","4","4","4","3","4","3","4","4","4","3","4","4","2","4","4","5","5","4","4","4","4","5","4","4","4","3","4","5","4","1","0","1","1","0","0","0","1","0","1","1","0","1","0","1","4","5","4","1","4","2","2","4","4","1","2","790906536061968385","张","460","","","","match","","","","","","","","","","","","","","key","f","16.665625000000546","768","428","j","false","nonmatch","img/diamond.png","三角","菱形","ALT1_2","prac_ALT1_2","","","","","","","","","","","",""
"null","<span style='color:red; font-size: 70px;'>错误! </span>","null","html-keyboard-response","174","732563","0.0-7.0-1.0-1.1-0.1-1.81","4","4","4","3","4","3","4","4","4","3","4","4","2","4","4","5","5","4","4","4","4","5","4","4","4","3","4","5","4","1","0","1","1","0","0","0","1","0","1","1","0","1","0","1","4","5","4","1","4","2","2","4","4","1","2","790906536061968385","张","460","","","","","","","","","","","","","","","","","","","","","","","","","","","","","","feedback_test","","","","","","","","","","","",""
"589","","f","psychophysics","175","734172","0.0-7.0-1.0-1.1-0.1-0.82","4","4","4","3","4","3","4","4","4","3","4","4","2","4","4","5","5","4","4","4","4","5","4","4","4","3","4","5","4","1","0","1","1","0","0","0","1","0","1","1","0","1","0","1","4","5","4","1","4","2","2","4","4","1","2","790906536061968385","张","460","","","","match","","","","","","","","","","","","","","key","f","16.665625000000244","768","428","f","true","match","img/triangle.png","三角","三角","ALT1_2","prac_ALT1_2","","","","","","","","","","","",""
"null","<span style='color:GreenYellow; font-size: 70px;'>正确! </span>","null","html-keyboard-response","176","734674","0.0-7.0-1.0-1.1-0.1-1.82","4","4","4","3","4","3","4","4","4","3","4","4","2","4","4","5","5","4","4","4","4","5","4","4","4","3","4","5","4","1","0","1","1","0","0","0","1","0","1","1","0","1","0","1","4","5","4","1","4","2","2","4","4","1","2","790906536061968385","张","460","","","","","","","","","","","","","","","","","","","","","","","","","","","","","","feedback_test","","","","","","","","","","","",""
"1021","","j","psychophysics","177","736697","0.0-7.0-1.0-1.1-0.1-0.83","4","4","4","3","4","3","4","4","4","3","4","4","2","4","4","5","5","4","4","4","4","5","4","4","4","3","4","5","4","1","0","1","1","0","0","0","1","0","1","1","0","1","0","1","4","5","4","1","4","2","2","4","4","1","2","790906536061968385","张","460","","","","nonmatch","","","","","","","","","","","","","","key","j","16.668333333333916","768","428","j","true","nonmatch","img/diamond.png","圆形","菱形","ALT1_2","prac_ALT1_2","","","","","","","","","","","",""
"null","<span style='color:GreenYellow; font-size: 70px;'>正确! </span>","null","html-keyboard-response","178","737205","0.0-7.0-1.0-1.1-0.1-1.83","4","4","4","3","4","3","4","4","4","3","4","4","2","4","4","5","5","4","4","4","4","5","4","4","4","3","4","5","4","1","0","1","1","0","0","0","1","0","1","1","0","1","0","1","4","5","4","1","4","2","2","4","4","1","2","790906536061968385","张","460","","","","","","","","","","","","","","","","","","","","","","","","","","","","","","feedback_test","","","","","","","","","","","",""
"835","","j","psychophysics","179","739044","0.0-7.0-1.0-1.1-0.1-0.84","4","4","4","3","4","3","4","4","4","3","4","4","2","4","4","5","5","4","4","4","4","5","4","4","4","3","4","5","4","1","0","1","1","0","0","0","1","0","1","1","0","1","0","1","4","5","4","1","4","2","2","4","4","1","2","790906536061968385","张","460","","","","nonmatch","","","","","","","","","","","","","","key","j","16.666055045871346","768","428","j","true","nonmatch","img/hexagon.png","三角","六边","ALT1_2","prac_ALT1_2","","","","","","","","","","","",""
