"rt","stimulus","response","trial_type","trial_index","time_elapsed","internal_node_id","ses_1","ses_2","ses_3","ses_4","ses_5","ses_6","ses_7","ses_8","ses_9","ses_10","coreself_1","coreself_2","coreself_3","coreself_4","coreself_5","coreself_6","coreself_7","coreself_8","coreself_9","coreself_10","SGPS_1","SGPS_2","SGPS_3","SGPS_4","SGPS_5","SGPS_6","SGPS_7","SGPS_8","SGPS_9","NPI1","NPI2","NPI3","NPI4","NPI5","NPI6","NPI7","NPI8","NPI9","NPI10","NPI11","NPI12","NPI13","NPI14","NPI15","hsns_1","hsns_2","hsns_3","hsns_4","hsns_5","trap1","hsns_6","hsns_7","hsns_8","hsns_9","hsns_10","subj_idx","friend_name","ParticipantID","value","success","user_agent","responses","item_order","radio_event_ids","radio_event_times","key_event_times","mouse_event_times","straightlining","zigzagging","honeypot","timeout","failed_images","failed_audio","failed_video","version_attrib2","version_target2","correct","IAT","screen_id","task_id","RT","condition","word","varname","summary","version_attrib","version_target","time_stamp","view_history","response_type","key_press","avg_frame_time","center_x","center_y","correct_response","identity","Image","question_order","correct_answer","trap1_item"
"13698","
   <p><div style = ""color: white;font-size:25px;"">您好，欢迎参加本次实验。</div> </p>
   <p><div style = ""color: white;font-size:25px;"">为充分保障您的权利，请确保您已经知晓并同意《参与实验同意书》以及《数据公开知情同意书》。</div></p>
   <p><div style = ""color: white;font-size:25px;"">如果您未见过上述内容，请咨询实验员。</div></p>
   <p><div style = ""color: white;font-size:25px;"">如果您选择继续实验，则表示您已经清楚两份知情同意书的内容并同意。</div></p>
   <p><div style = ""color: pink;font-size:30px;"">请确保您记得day0的实验编号，您将在本次实验输入该编号，若您忘记，请咨询实验员后作答。</div></p>
   <p><div style = ""color: lightblue;font-size:25px;"">请您尽可能认真地作答，我们将依据您在各问卷和按键任务中的作答质量发放报酬。</div></p>
   <p> <div style = ""color: green;font-size:25px;""><按空格键至下页></div> </p>
   "," ","html-keyboard-response","0","13700","0.0-0.0","2","2","2","2","1","2","2","2","1","2","2","2","1","2","1","2","2","2","2","2","4","5","5","4","4","4","4","2","5","1","0","1","1","0","1","1","1","1","1","1","0","1","0","1","2","5","4","2","4","2","3","4","4","2","2","682883457575026688","徐","83","","","","","","","","","","","","","","","","","","","","","","","","","","","","","","","","","","","","","","","","","",""
"","","","call-function","1","13702","0.0-1.0-0.0","2","2","2","2","1","2","2","2","1","2","2","2","1","2","1","2","2","2","2","2","4","5","5","4","4","4","4","2","5","1","0","1","1","0","1","1","1","1","1","1","0","1","0","1","2","5","4","2","4","2","3","4","4","2","2","682883457575026688","徐","83","","","","","","","","","","","","","","","","","","","","","","","","","","","","","","","","","","","","","","","","","",""
"31350","","{""friend_name"":""徐"",""ParticipantID"":""83""}","survey-html-form","2","45052","0.0-1.0-1.0","2","2","2","2","1","2","2","2","1","2","2","2","1","2","1","2","2","2","2","2","4","5","5","4","4","4","4","2","5","1","0","1","1","0","1","1","1","1","1","1","0","1","0","1","2","5","4","2","4","2","3","4","4","2","2","682883457575026688","徐","83","","","","","","","","","","","","","","","","","","","","","","","","","","","","","","","","","","","","","","","","","",""
"","","","fullscreen","3","63409","0.0-2.0","2","2","2","2","1","2","2","2","1","2","2","2","1","2","1","2","2","2","2","2","4","5","5","4","4","4","4","2","5","1","0","1","1","0","1","1","1","1","1","1","0","1","0","1","2","5","4","2","4","2","3","4","4","2","2","682883457575026688","徐","83","","true","{}","","","","","","","","","","","","","","","","","","","","","","","","","","","","","","","","","","","","","","",""
"42646.89999997616","","{""Q01"":""2"",""Q02"":""2"",""Q03"":""2"",""Q04"":""2"",""Q05"":""1"",""Q06"":""2"",""Q07"":""2"",""Q08"":""2"",""Q09"":""1"",""Q10"":""2""}","survey-template","4","106058","0.0-3.0","2","2","2","2","1","2","2","2","1","2","2","2","1","2","1","2","2","2","2","2","4","5","5","4","4","4","4","2","5","1","0","1","1","0","1","1","1","1","1","1","0","1","0","1","2","5","4","2","4","2","3","4","4","2","2","682883457575026688","徐","83","","","","{""Q01"":""2"",""Q02"":""2"",""Q03"":""2"",""Q04"":""2"",""Q05"":""1"",""Q06"":""2"",""Q07"":""2"",""Q08"":""2"",""Q09"":""1"",""Q10"":""2""}","[0,1,2,3,4,5,6,7,8,9]","[""Q01"",""Q01"",""Q01"",""Q02"",""Q03"",""Q04"",""Q05"",""Q06"",""Q07"",""Q08"",""Q09"",""Q10""]","[3449.399999976158,11060.399999976158,15113.699999988079,17490.599999964237,19125.69999998808,20650.30000001192,24365.30000001192,31705.599999964237,36305,37925,39685,40933.69999998808]","[]","[3449.399999976158,11060.399999976158,12385.599999964237,13270.399999976158,14097.300000011921,15113.699999988079,16521.399999976158,17490.599999964237,19125.69999998808,20650.30000001192,22871.599999964237,24365.30000001192,30752.19999998808,31705.599999964237,35268.09999996424,36305,37925,39685,40933.69999998808,42646]","0.5","0.5555555555555556","0","","","","","","","","","","","","","","","","","","","","","","","","","","","","","",""
"24426.30000001192","","{""Q01"":""2"",""Q02"":""2"",""Q03"":""1"",""Q04"":""2"",""Q05"":""1"",""Q06"":""2"",""Q07"":""2"",""Q08"":""2"",""Q09"":""2"",""Q10"":""2""}","survey-template","5","130488","0.0-4.0","2","2","2","2","1","2","2","2","1","2","2","2","1","2","1","2","2","2","2","2","4","5","5","4","4","4","4","2","5","1","0","1","1","0","1","1","1","1","1","1","0","1","0","1","2","5","4","2","4","2","3","4","4","2","2","682883457575026688","徐","83","","","","{""Q01"":""2"",""Q02"":""2"",""Q03"":""1"",""Q04"":""2"",""Q05"":""1"",""Q06"":""2"",""Q07"":""2"",""Q08"":""2"",""Q09"":""2"",""Q10"":""2""}","[0,1,2,3,4,5,6,7,8,9]","[""Q01"",""Q02"",""Q03"",""Q04"",""Q05"",""Q06"",""Q07"",""Q08"",""Q08"",""Q09"",""Q10""]","[2707.2000000476837,6048.900000035763,8926.5,10792.900000035763,12625.700000047684,14769.400000035763,16495.400000035763,17637.200000047684,18979.400000035763,20320.400000035763,21988.700000047684]","[]","[2707.2000000476837,4154,6048.900000035763,8926.5,10792.900000035763,12625.700000047684,14769.400000035763,16495.400000035763,17637.200000047684,18979.400000035763,20320.400000035763,21988.700000047684,24425.30000001192]","0.4","0.1111111111111111","0","","","","","","","","","","","","","","","","","","","","","","","","","","","","","",""
"","","","preload","6","132587","0.0-5.0","2","2","2","2","1","2","2","2","1","2","2","2","1","2","1","2","2","2","2","2","4","5","5","4","4","4","4","2","5","1","0","1","1","0","1","1","1","1","1","1","0","1","0","1","2","5","4","2","4","2","3","4","4","2","2","682883457575026688","徐","83","","true","","","","","","","","","","","false","[]","[]","[]","","","","","","","","","","","","","","","","","","","","","","","","","",""
"54965","
    <h3>词语分类任务</h3>
    <p>在接下来的任务中，你需要对一系列词语进行分类。<p/>
    请先熟悉这些词语，这有利于你完成接下来的任务。</p>
    <table align=""center"" border=1 cellpadding=3 cellspacing=0>
    <tr> <th>类别</th> <th>词语</th> </tr>
    <tr> <td>&emsp;积极&emsp;</td> <td>&emsp;高尚、诚信、善良、君子、廉正、正直&emsp;</td> </tr>
    <tr> <td>&emsp;消极&emsp;</td> <td>&emsp;缺德、卑鄙、不孝、不仁、小人、黑心&emsp;</td> </tr>
    <tr> <td>&emsp;自我&emsp;</td> <td>&emsp;我、我的、自己、自己的、本人、本人的&emsp;</td> </tr>
    <tr> <td>&emsp;他人&emsp;</td> <td>&emsp;他、他的、别人、别人的、他人、他人的&emsp;</td> </tr>
    </table><br/>","0","html-button-response","7","187553","0.0-6.0-1.0-0.0","2","2","2","2","1","2","2","2","1","2","2","2","1","2","1","2","2","2","2","2","4","5","5","4","4","4","4","2","5","1","0","1","1","0","1","1","1","1","1","1","0","1","0","1","2","5","4","2","4","2","3","4","4","2","2","682883457575026688","徐","83","","","","","","","","","","","","","","","","","2","2","","","","","","","","","","","","","","","","","","","","","","","",""
"35922","
    <div class=""tag-bottom""><p>
    —— 任务1：对“他人”词和“自我”词分类 ——<p/>
    不同词语会出现在屏幕中央，类别标签将始终显示在屏幕上方<p/>   
    <span style=""color:#FFD866""><b>请根据上方标签的提示，尽可能正确并且快速地做出按键反应</b></span><p/>
    当按键错误时屏幕中会出现<span style=""color:red""> X </span>，需要按另一个键纠正才能继续<br/><p/>
    请把双手食指分别放在键盘的“E”键和“I”键上<p/>
    按<空格键>开始
    </p></div>"," ","html-keyboard-response","8","223476","0.0-6.0-1.0-1.0","2","2","2","2","1","2","2","2","1","2","2","2","1","2","1","2","2","2","2","2","4","5","5","4","4","4","4","2","5","1","0","1","1","0","1","1","1","1","1","1","0","1","0","1","2","5","4","2","4","2","3","4","4","2","2","682883457575026688","徐","83","","","","","","","","","","","","","","","","","","","","","","","","","","","","","","","","","","","","","","","","","",""
"null","","null","html-keyboard-response","9","223729","0.0-6.0-1.0-2.0-0.0","2","2","2","2","1","2","2","2","1","2","2","2","1","2","1","2","2","2","2","2","4","5","5","4","4","4","4","2","5","1","0","1","1","0","1","1","1","1","1","1","0","1","0","1","2","5","4","2","4","2","3","4","4","2","2","682883457575026688","徐","83","","","","","","","","","","","","","","","","","","","","","","","","","","","","","","","","","","","","","","","","","",""
"863","<p style=""color:rgb(150, 250, 100); font-size: 35px;"">他</p>","e","categorize-html","10","224594","0.0-6.0-1.0-2.0-1.0","2","2","2","2","1","2","2","2","1","2","2","2","1","2","1","2","2","2","2","2","4","5","5","4","4","4","4","2","5","1","0","1","1","0","1","1","1","1","1","1","0","1","0","1","2","5","4","2","4","2","3","4","4","2","2","682883457575026688","徐","83","","","","","","","","","","","","","","","","","","","true","11","1","moral","863","other","他","","","","","","","","","","","","","","","","",""
"null","","null","html-keyboard-response","11","224845","0.0-6.0-1.0-2.0-0.1","2","2","2","2","1","2","2","2","1","2","2","2","1","2","1","2","2","2","2","2","4","5","5","4","4","4","4","2","5","1","0","1","1","0","1","1","1","1","1","1","0","1","0","1","2","5","4","2","4","2","3","4","4","2","2","682883457575026688","徐","83","","","","","","","","","","","","","","","","","","","","","","","","","","","","","","","","","","","","","","","","","",""
"631","<p style=""color:rgb(150, 250, 100); font-size: 35px;"">本人</p>","i","categorize-html","12","225479","0.0-6.0-1.0-2.0-1.1","2","2","2","2","1","2","2","2","1","2","2","2","1","2","1","2","2","2","2","2","4","5","5","4","4","4","4","2","5","1","0","1","1","0","1","1","1","1","1","1","0","1","0","1","2","5","4","2","4","2","3","4","4","2","2","682883457575026688","徐","83","","","","","","","","","","","","","","","","","","","true","11","1","moral","631","self","本人","","","","","","","","","","","","","","","","",""
"null","","null","html-keyboard-response","13","225731","0.0-6.0-1.0-2.0-0.2","2","2","2","2","1","2","2","2","1","2","2","2","1","2","1","2","2","2","2","2","4","5","5","4","4","4","4","2","5","1","0","1","1","0","1","1","1","1","1","1","0","1","0","1","2","5","4","2","4","2","3","4","4","2","2","682883457575026688","徐","83","","","","","","","","","","","","","","","","","","","","","","","","","","","","","","","","","","","","","","","","","",""
"657","<p style=""color:rgb(150, 250, 100); font-size: 35px;"">别人的</p>","e","categorize-html","14","226393","0.0-6.0-1.0-2.0-1.2","2","2","2","2","1","2","2","2","1","2","2","2","1","2","1","2","2","2","2","2","4","5","5","4","4","4","4","2","5","1","0","1","1","0","1","1","1","1","1","1","0","1","0","1","2","5","4","2","4","2","3","4","4","2","2","682883457575026688","徐","83","","","","","","","","","","","","","","","","","","","true","11","1","moral","657","other","别人的","","","","","","","","","","","","","","","","",""
"null","","null","html-keyboard-response","15","226645","0.0-6.0-1.0-2.0-0.3","2","2","2","2","1","2","2","2","1","2","2","2","1","2","1","2","2","2","2","2","4","5","5","4","4","4","4","2","5","1","0","1","1","0","1","1","1","1","1","1","0","1","0","1","2","5","4","2","4","2","3","4","4","2","2","682883457575026688","徐","83","","","","","","","","","","","","","","","","","","","","","","","","","","","","","","","","","","","","","","","","","",""
"431","<p style=""color:rgb(150, 250, 100); font-size: 35px;"">我</p>","i","categorize-html","16","227078","0.0-6.0-1.0-2.0-1.3","2","2","2","2","1","2","2","2","1","2","2","2","1","2","1","2","2","2","2","2","4","5","5","4","4","4","4","2","5","1","0","1","1","0","1","1","1","1","1","1","0","1","0","1","2","5","4","2","4","2","3","4","4","2","2","682883457575026688","徐","83","","","","","","","","","","","","","","","","","","","true","11","1","moral","431","self","我","","","","","","","","","","","","","","","","",""
"null","","null","html-keyboard-response","17","227330","0.0-6.0-1.0-2.0-0.4","2","2","2","2","1","2","2","2","1","2","2","2","1","2","1","2","2","2","2","2","4","5","5","4","4","4","4","2","5","1","0","1","1","0","1","1","1","1","1","1","0","1","0","1","2","5","4","2","4","2","3","4","4","2","2","682883457575026688","徐","83","","","","","","","","","","","","","","","","","","","","","","","","","","","","","","","","","","","","","","","","","",""
"467","<p style=""color:rgb(150, 250, 100); font-size: 35px;"">他的</p>","e","categorize-html","18","227798","0.0-6.0-1.0-2.0-1.4","2","2","2","2","1","2","2","2","1","2","2","2","1","2","1","2","2","2","2","2","4","5","5","4","4","4","4","2","5","1","0","1","1","0","1","1","1","1","1","1","0","1","0","1","2","5","4","2","4","2","3","4","4","2","2","682883457575026688","徐","83","","","","","","","","","","","","","","","","","","","true","11","1","moral","467","other","他的","","","","","","","","","","","","","","","","",""
"null","","null","html-keyboard-response","19","228050","0.0-6.0-1.0-2.0-0.5","2","2","2","2","1","2","2","2","1","2","2","2","1","2","1","2","2","2","2","2","4","5","5","4","4","4","4","2","5","1","0","1","1","0","1","1","1","1","1","1","0","1","0","1","2","5","4","2","4","2","3","4","4","2","2","682883457575026688","徐","83","","","","","","","","","","","","","","","","","","","","","","","","","","","","","","","","","","","","","","","","","",""
"467","<p style=""color:rgb(150, 250, 100); font-size: 35px;"">他人</p>","e","categorize-html","20","228522","0.0-6.0-1.0-2.0-1.5","2","2","2","2","1","2","2","2","1","2","2","2","1","2","1","2","2","2","2","2","4","5","5","4","4","4","4","2","5","1","0","1","1","0","1","1","1","1","1","1","0","1","0","1","2","5","4","2","4","2","3","4","4","2","2","682883457575026688","徐","83","","","","","","","","","","","","","","","","","","","true","11","1","moral","467","other","他人","","","","","","","","","","","","","","","","",""
"null","","null","html-keyboard-response","21","228774","0.0-6.0-1.0-2.0-0.6","2","2","2","2","1","2","2","2","1","2","2","2","1","2","1","2","2","2","2","2","4","5","5","4","4","4","4","2","5","1","0","1","1","0","1","1","1","1","1","1","0","1","0","1","2","5","4","2","4","2","3","4","4","2","2","682883457575026688","徐","83","","","","","","","","","","","","","","","","","","","","","","","","","","","","","","","","","","","","","","","","","",""
"452","<p style=""color:rgb(150, 250, 100); font-size: 35px;"">自己</p>","i","categorize-html","22","229228","0.0-6.0-1.0-2.0-1.6","2","2","2","2","1","2","2","2","1","2","2","2","1","2","1","2","2","2","2","2","4","5","5","4","4","4","4","2","5","1","0","1","1","0","1","1","1","1","1","1","0","1","0","1","2","5","4","2","4","2","3","4","4","2","2","682883457575026688","徐","83","","","","","","","","","","","","","","","","","","","true","11","1","moral","452","self","自己","","","","","","","","","","","","","","","","",""
"null","","null","html-keyboard-response","23","229479","0.0-6.0-1.0-2.0-0.7","2","2","2","2","1","2","2","2","1","2","2","2","1","2","1","2","2","2","2","2","4","5","5","4","4","4","4","2","5","1","0","1","1","0","1","1","1","1","1","1","0","1","0","1","2","5","4","2","4","2","3","4","4","2","2","682883457575026688","徐","83","","","","","","","","","","","","","","","","","","","","","","","","","","","","","","","","","","","","","","","","","",""
"566","<p style=""color:rgb(150, 250, 100); font-size: 35px;"">自己的</p>","i","categorize-html","24","230048","0.0-6.0-1.0-2.0-1.7","2","2","2","2","1","2","2","2","1","2","2","2","1","2","1","2","2","2","2","2","4","5","5","4","4","4","4","2","5","1","0","1","1","0","1","1","1","1","1","1","0","1","0","1","2","5","4","2","4","2","3","4","4","2","2","682883457575026688","徐","83","","","","","","","","","","","","","","","","","","","true","11","1","moral","566","self","自己的","","","","","","","","","","","","","","","","",""
"null","","null","html-keyboard-response","25","230300","0.0-6.0-1.0-2.0-0.8","2","2","2","2","1","2","2","2","1","2","2","2","1","2","1","2","2","2","2","2","4","5","5","4","4","4","4","2","5","1","0","1","1","0","1","1","1","1","1","1","0","1","0","1","2","5","4","2","4","2","3","4","4","2","2","682883457575026688","徐","83","","","","","","","","","","","","","","","","","","","","","","","","","","","","","","","","","","","","","","","","","",""
"578","<p style=""color:rgb(150, 250, 100); font-size: 35px;"">他人的</p>","e","categorize-html","26","230881","0.0-6.0-1.0-2.0-1.8","2","2","2","2","1","2","2","2","1","2","2","2","1","2","1","2","2","2","2","2","4","5","5","4","4","4","4","2","5","1","0","1","1","0","1","1","1","1","1","1","0","1","0","1","2","5","4","2","4","2","3","4","4","2","2","682883457575026688","徐","83","","","","","","","","","","","","","","","","","","","true","11","1","moral","578","other","他人的","","","","","","","","","","","","","","","","",""
"null","","null","html-keyboard-response","27","231132","0.0-6.0-1.0-2.0-0.9","2","2","2","2","1","2","2","2","1","2","2","2","1","2","1","2","2","2","2","2","4","5","5","4","4","4","4","2","5","1","0","1","1","0","1","1","1","1","1","1","0","1","0","1","2","5","4","2","4","2","3","4","4","2","2","682883457575026688","徐","83","","","","","","","","","","","","","","","","","","","","","","","","","","","","","","","","","","","","","","","","","",""
"583","<p style=""color:rgb(150, 250, 100); font-size: 35px;"">别人</p>","i","categorize-html","28","233663","0.0-6.0-1.0-2.0-1.9","2","2","2","2","1","2","2","2","1","2","2","2","1","2","1","2","2","2","2","2","4","5","5","4","4","4","4","2","5","1","0","1","1","0","1","1","1","1","1","1","0","1","0","1","2","5","4","2","4","2","3","4","4","2","2","682883457575026688","徐","83","","","","","","","","","","","","","","","","","","","false","11","1","moral","583","other","别人","","","","","","","","","","","","","","","","",""
"null","","null","html-keyboard-response","29","233915","0.0-6.0-1.0-2.0-0.10","2","2","2","2","1","2","2","2","1","2","2","2","1","2","1","2","2","2","2","2","4","5","5","4","4","4","4","2","5","1","0","1","1","0","1","1","1","1","1","1","0","1","0","1","2","5","4","2","4","2","3","4","4","2","2","682883457575026688","徐","83","","","","","","","","","","","","","","","","","","","","","","","","","","","","","","","","","","","","","","","","","",""
"914","<p style=""color:rgb(150, 250, 100); font-size: 35px;"">我的</p>","i","categorize-html","30","234829","0.0-6.0-1.0-2.0-1.10","2","2","2","2","1","2","2","2","1","2","2","2","1","2","1","2","2","2","2","2","4","5","5","4","4","4","4","2","5","1","0","1","1","0","1","1","1","1","1","1","0","1","0","1","2","5","4","2","4","2","3","4","4","2","2","682883457575026688","徐","83","","","","","","","","","","","","","","","","","","","true","11","1","moral","914","self","我的","","","","","","","","","","","","","","","","",""
"null","","null","html-keyboard-response","31","235081","0.0-6.0-1.0-2.0-0.11","2","2","2","2","1","2","2","2","1","2","2","2","1","2","1","2","2","2","2","2","4","5","5","4","4","4","4","2","5","1","0","1","1","0","1","1","1","1","1","1","0","1","0","1","2","5","4","2","4","2","3","4","4","2","2","682883457575026688","徐","83","","","","","","","","","","","","","","","","","","","","","","","","","","","","","","","","","","","","","","","","","",""
"496","<p style=""color:rgb(150, 250, 100); font-size: 35px;"">本人的</p>","i","categorize-html","32","235579","0.0-6.0-1.0-2.0-1.11","2","2","2","2","1","2","2","2","1","2","2","2","1","2","1","2","2","2","2","2","4","5","5","4","4","4","4","2","5","1","0","1","1","0","1","1","1","1","1","1","0","1","0","1","2","5","4","2","4","2","3","4","4","2","2","682883457575026688","徐","83","","","","","","","","","","","","","","","","","","","true","11","1","moral","496","self","本人的","","","","","","","","","","","","","","","","",""
"11272","
    <div class=""tag-bottom""><p>
    —— 任务2：对“消极”词和“积极”词分类 ——<p/>   
    <span style=""color:#78DCE8""><b>注意上方，类别标签和需要分类的词语都已经改变</b></span><p/>
    <span style=""color:#FFD866""><b>请根据上方标签的提示，尽可能正确并且快速地做出按键反应</b></span><p/>
    当按键错误时屏幕中会出现<span style=""color:red""> X </span>，需要按另一个键纠正才能继续<br/><p/>
    请把双手食指分别放在键盘的“E”键和“I”键上<p/>
    按<空格键>开始
    </p></div>"," ","html-keyboard-response","33","246851","0.0-6.0-1.0-3.0","2","2","2","2","1","2","2","2","1","2","2","2","1","2","1","2","2","2","2","2","4","5","5","4","4","4","4","2","5","1","0","1","1","0","1","1","1","1","1","1","0","1","0","1","2","5","4","2","4","2","3","4","4","2","2","682883457575026688","徐","83","","","","","","","","","","","","","","","","","","","","","","","","","","","","","","","","","","","","","","","","","",""
"null","","null","html-keyboard-response","34","247102","0.0-6.0-1.0-4.0-0.0","2","2","2","2","1","2","2","2","1","2","2","2","1","2","1","2","2","2","2","2","4","5","5","4","4","4","4","2","5","1","0","1","1","0","1","1","1","1","1","1","0","1","0","1","2","5","4","2","4","2","3","4","4","2","2","682883457575026688","徐","83","","","","","","","","","","","","","","","","","","","","","","","","","","","","","","","","","","","","","","","","","",""
"805","<p style=""color:white; font-size: 35px;"">缺德</p>","e","categorize-html","35","247909","0.0-6.0-1.0-4.0-1.0","2","2","2","2","1","2","2","2","1","2","2","2","1","2","1","2","2","2","2","2","4","5","5","4","4","4","4","2","5","1","0","1","1","0","1","1","1","1","1","1","0","1","0","1","2","5","4","2","4","2","3","4","4","2","2","682883457575026688","徐","83","","","","","","","","","","","","","","","","","","","true","12","2","moral","805","negative","缺德","","","","","","","","","","","","","","","","",""
"null","","null","html-keyboard-response","36","248161","0.0-6.0-1.0-4.0-0.1","2","2","2","2","1","2","2","2","1","2","2","2","1","2","1","2","2","2","2","2","4","5","5","4","4","4","4","2","5","1","0","1","1","0","1","1","1","1","1","1","0","1","0","1","2","5","4","2","4","2","3","4","4","2","2","682883457575026688","徐","83","","","","","","","","","","","","","","","","","","","","","","","","","","","","","","","","","","","","","","","","","",""
"835","<p style=""color:white; font-size: 35px;"">君子</p>","i","categorize-html","37","248997","0.0-6.0-1.0-4.0-1.1","2","2","2","2","1","2","2","2","1","2","2","2","1","2","1","2","2","2","2","2","4","5","5","4","4","4","4","2","5","1","0","1","1","0","1","1","1","1","1","1","0","1","0","1","2","5","4","2","4","2","3","4","4","2","2","682883457575026688","徐","83","","","","","","","","","","","","","","","","","","","true","12","2","moral","835","positive","君子","","","","","","","","","","","","","","","","",""
"null","","null","html-keyboard-response","38","249248","0.0-6.0-1.0-4.0-0.2","2","2","2","2","1","2","2","2","1","2","2","2","1","2","1","2","2","2","2","2","4","5","5","4","4","4","4","2","5","1","0","1","1","0","1","1","1","1","1","1","0","1","0","1","2","5","4","2","4","2","3","4","4","2","2","682883457575026688","徐","83","","","","","","","","","","","","","","","","","","","","","","","","","","","","","","","","","","","","","","","","","",""
"660","<p style=""color:white; font-size: 35px;"">高尚</p>","i","categorize-html","39","249910","0.0-6.0-1.0-4.0-1.2","2","2","2","2","1","2","2","2","1","2","2","2","1","2","1","2","2","2","2","2","4","5","5","4","4","4","4","2","5","1","0","1","1","0","1","1","1","1","1","1","0","1","0","1","2","5","4","2","4","2","3","4","4","2","2","682883457575026688","徐","83","","","","","","","","","","","","","","","","","","","true","12","2","moral","660","positive","高尚","","","","","","","","","","","","","","","","",""
"null","","null","html-keyboard-response","40","250162","0.0-6.0-1.0-4.0-0.3","2","2","2","2","1","2","2","2","1","2","2","2","1","2","1","2","2","2","2","2","4","5","5","4","4","4","4","2","5","1","0","1","1","0","1","1","1","1","1","1","0","1","0","1","2","5","4","2","4","2","3","4","4","2","2","682883457575026688","徐","83","","","","","","","","","","","","","","","","","","","","","","","","","","","","","","","","","","","","","","","","","",""
"602","<p style=""color:white; font-size: 35px;"">不仁</p>","e","categorize-html","41","250769","0.0-6.0-1.0-4.0-1.3","2","2","2","2","1","2","2","2","1","2","2","2","1","2","1","2","2","2","2","2","4","5","5","4","4","4","4","2","5","1","0","1","1","0","1","1","1","1","1","1","0","1","0","1","2","5","4","2","4","2","3","4","4","2","2","682883457575026688","徐","83","","","","","","","","","","","","","","","","","","","true","12","2","moral","602","negative","不仁","","","","","","","","","","","","","","","","",""
"null","","null","html-keyboard-response","42","251021","0.0-6.0-1.0-4.0-0.4","2","2","2","2","1","2","2","2","1","2","2","2","1","2","1","2","2","2","2","2","4","5","5","4","4","4","4","2","5","1","0","1","1","0","1","1","1","1","1","1","0","1","0","1","2","5","4","2","4","2","3","4","4","2","2","682883457575026688","徐","83","","","","","","","","","","","","","","","","","","","","","","","","","","","","","","","","","","","","","","","","","",""
"596","<p style=""color:white; font-size: 35px;"">卑鄙</p>","e","categorize-html","43","251618","0.0-6.0-1.0-4.0-1.4","2","2","2","2","1","2","2","2","1","2","2","2","1","2","1","2","2","2","2","2","4","5","5","4","4","4","4","2","5","1","0","1","1","0","1","1","1","1","1","1","0","1","0","1","2","5","4","2","4","2","3","4","4","2","2","682883457575026688","徐","83","","","","","","","","","","","","","","","","","","","true","12","2","moral","596","negative","卑鄙","","","","","","","","","","","","","","","","",""
"null","","null","html-keyboard-response","44","251869","0.0-6.0-1.0-4.0-0.5","2","2","2","2","1","2","2","2","1","2","2","2","1","2","1","2","2","2","2","2","4","5","5","4","4","4","4","2","5","1","0","1","1","0","1","1","1","1","1","1","0","1","0","1","2","5","4","2","4","2","3","4","4","2","2","682883457575026688","徐","83","","","","","","","","","","","","","","","","","","","","","","","","","","","","","","","","","","","","","","","","","",""
"575","<p style=""color:white; font-size: 35px;"">黑心</p>","e","categorize-html","45","252446","0.0-6.0-1.0-4.0-1.5","2","2","2","2","1","2","2","2","1","2","2","2","1","2","1","2","2","2","2","2","4","5","5","4","4","4","4","2","5","1","0","1","1","0","1","1","1","1","1","1","0","1","0","1","2","5","4","2","4","2","3","4","4","2","2","682883457575026688","徐","83","","","","","","","","","","","","","","","","","","","true","12","2","moral","575","negative","黑心","","","","","","","","","","","","","","","","",""
"null","","null","html-keyboard-response","46","252697","0.0-6.0-1.0-4.0-0.6","2","2","2","2","1","2","2","2","1","2","2","2","1","2","1","2","2","2","2","2","4","5","5","4","4","4","4","2","5","1","0","1","1","0","1","1","1","1","1","1","0","1","0","1","2","5","4","2","4","2","3","4","4","2","2","682883457575026688","徐","83","","","","","","","","","","","","","","","","","","","","","","","","","","","","","","","","","","","","","","","","","",""
"753","<p style=""color:white; font-size: 35px;"">小人</p>","i","categorize-html","47","254039","0.0-6.0-1.0-4.0-1.6","2","2","2","2","1","2","2","2","1","2","2","2","1","2","1","2","2","2","2","2","4","5","5","4","4","4","4","2","5","1","0","1","1","0","1","1","1","1","1","1","0","1","0","1","2","5","4","2","4","2","3","4","4","2","2","682883457575026688","徐","83","","","","","","","","","","","","","","","","","","","false","12","2","moral","753","negative","小人","","","","","","","","","","","","","","","","",""
"null","","null","html-keyboard-response","48","254292","0.0-6.0-1.0-4.0-0.7","2","2","2","2","1","2","2","2","1","2","2","2","1","2","1","2","2","2","2","2","4","5","5","4","4","4","4","2","5","1","0","1","1","0","1","1","1","1","1","1","0","1","0","1","2","5","4","2","4","2","3","4","4","2","2","682883457575026688","徐","83","","","","","","","","","","","","","","","","","","","","","","","","","","","","","","","","","","","","","","","","","",""
"856","<p style=""color:white; font-size: 35px;"">诚信</p>","i","categorize-html","49","255149","0.0-6.0-1.0-4.0-1.7","2","2","2","2","1","2","2","2","1","2","2","2","1","2","1","2","2","2","2","2","4","5","5","4","4","4","4","2","5","1","0","1","1","0","1","1","1","1","1","1","0","1","0","1","2","5","4","2","4","2","3","4","4","2","2","682883457575026688","徐","83","","","","","","","","","","","","","","","","","","","true","12","2","moral","856","positive","诚信","","","","","","","","","","","","","","","","",""
"null","","null","html-keyboard-response","50","255401","0.0-6.0-1.0-4.0-0.8","2","2","2","2","1","2","2","2","1","2","2","2","1","2","1","2","2","2","2","2","4","5","5","4","4","4","4","2","5","1","0","1","1","0","1","1","1","1","1","1","0","1","0","1","2","5","4","2","4","2","3","4","4","2","2","682883457575026688","徐","83","","","","","","","","","","","","","","","","","","","","","","","","","","","","","","","","","","","","","","","","","",""
"658","<p style=""color:white; font-size: 35px;"">不孝</p>","e","categorize-html","51","256060","0.0-6.0-1.0-4.0-1.8","2","2","2","2","1","2","2","2","1","2","2","2","1","2","1","2","2","2","2","2","4","5","5","4","4","4","4","2","5","1","0","1","1","0","1","1","1","1","1","1","0","1","0","1","2","5","4","2","4","2","3","4","4","2","2","682883457575026688","徐","83","","","","","","","","","","","","","","","","","","","true","12","2","moral","658","negative","不孝","","","","","","","","","","","","","","","","",""
"null","","null","html-keyboard-response","52","256311","0.0-6.0-1.0-4.0-0.9","2","2","2","2","1","2","2","2","1","2","2","2","1","2","1","2","2","2","2","2","4","5","5","4","4","4","4","2","5","1","0","1","1","0","1","1","1","1","1","1","0","1","0","1","2","5","4","2","4","2","3","4","4","2","2","682883457575026688","徐","83","","","","","","","","","","","","","","","","","","","","","","","","","","","","","","","","","","","","","","","","","",""
"572","<p style=""color:white; font-size: 35px;"">正直</p>","i","categorize-html","53","256884","0.0-6.0-1.0-4.0-1.9","2","2","2","2","1","2","2","2","1","2","2","2","1","2","1","2","2","2","2","2","4","5","5","4","4","4","4","2","5","1","0","1","1","0","1","1","1","1","1","1","0","1","0","1","2","5","4","2","4","2","3","4","4","2","2","682883457575026688","徐","83","","","","","","","","","","","","","","","","","","","true","12","2","moral","572","positive","正直","","","","","","","","","","","","","","","","",""
"null","","null","html-keyboard-response","54","257136","0.0-6.0-1.0-4.0-0.10","2","2","2","2","1","2","2","2","1","2","2","2","1","2","1","2","2","2","2","2","4","5","5","4","4","4","4","2","5","1","0","1","1","0","1","1","1","1","1","1","0","1","0","1","2","5","4","2","4","2","3","4","4","2","2","682883457575026688","徐","83","","","","","","","","","","","","","","","","","","","","","","","","","","","","","","","","","","","","","","","","","",""
"567","<p style=""color:white; font-size: 35px;"">善良</p>","i","categorize-html","55","257704","0.0-6.0-1.0-4.0-1.10","2","2","2","2","1","2","2","2","1","2","2","2","1","2","1","2","2","2","2","2","4","5","5","4","4","4","4","2","5","1","0","1","1","0","1","1","1","1","1","1","0","1","0","1","2","5","4","2","4","2","3","4","4","2","2","682883457575026688","徐","83","","","","","","","","","","","","","","","","","","","true","12","2","moral","567","positive","善良","","","","","","","","","","","","","","","","",""
"null","","null","html-keyboard-response","56","257964","0.0-6.0-1.0-4.0-0.11","2","2","2","2","1","2","2","2","1","2","2","2","1","2","1","2","2","2","2","2","4","5","5","4","4","4","4","2","5","1","0","1","1","0","1","1","1","1","1","1","0","1","0","1","2","5","4","2","4","2","3","4","4","2","2","682883457575026688","徐","83","","","","","","","","","","","","","","","","","","","","","","","","","","","","","","","","","","","","","","","","","",""
"518","<p style=""color:white; font-size: 35px;"">廉正</p>","i","categorize-html","57","258483","0.0-6.0-1.0-4.0-1.11","2","2","2","2","1","2","2","2","1","2","2","2","1","2","1","2","2","2","2","2","4","5","5","4","4","4","4","2","5","1","0","1","1","0","1","1","1","1","1","1","0","1","0","1","2","5","4","2","4","2","3","4","4","2","2","682883457575026688","徐","83","","","","","","","","","","","","","","","","","","","true","12","2","moral","518","positive","廉正","","","","","","","","","","","","","","","","",""
"9394","
    <div class=""tag-bottom""><p>
    —— 任务3：对“他人/消极”词和“自我/积极”词分类 ——<p/>
    <span style=""color:#78DCE8""><b>注意上方，之前的四类词语将混合在一起交替呈现</b></span><p/>
    <span style=""color:#FFD866""><b>请根据上方标签的提示，尽可能正确并且快速地做出按键反应</b></span><p/>
    当按键错误时屏幕中会出现<span style=""color:red""> X </span>，需要按另一个键纠正才能继续<br/><p/>
    请把双手食指分别放在键盘的“E”键和“I”键上<p/>
    按<空格键>开始
    </p></div>"," ","html-keyboard-response","58","267879","0.0-6.0-1.0-5.0","2","2","2","2","1","2","2","2","1","2","2","2","1","2","1","2","2","2","2","2","4","5","5","4","4","4","4","2","5","1","0","1","1","0","1","1","1","1","1","1","0","1","0","1","2","5","4","2","4","2","3","4","4","2","2","682883457575026688","徐","83","","","","","","","","","","","","","","","","","","","","","","","","","","","","","","","","","","","","","","","","","",""
"null","","null","html-keyboard-response","59","268130","0.0-6.0-1.0-6.0-0.0","2","2","2","2","1","2","2","2","1","2","2","2","1","2","1","2","2","2","2","2","4","5","5","4","4","4","4","2","5","1","0","1","1","0","1","1","1","1","1","1","0","1","0","1","2","5","4","2","4","2","3","4","4","2","2","682883457575026688","徐","83","","","","","","","","","","","","","","","","","","","","","","","","","","","","","","","","","","","","","","","","","",""
"708","<p style=""color:rgb(150, 250, 100); font-size: 35px;"">别人的</p>","e","categorize-html","60","268843","0.0-6.0-1.0-6.0-1.0","2","2","2","2","1","2","2","2","1","2","2","2","1","2","1","2","2","2","2","2","4","5","5","4","4","4","4","2","5","1","0","1","1","0","1","1","1","1","1","1","0","1","0","1","2","5","4","2","4","2","3","4","4","2","2","682883457575026688","徐","83","","","","","","","","","","","","","","","","","","","true","13","3","moral","708","other","别人的","","","","","","","","","","","","","","","","",""
"null","","null","html-keyboard-response","61","269097","0.0-6.0-1.0-6.0-0.1","2","2","2","2","1","2","2","2","1","2","2","2","1","2","1","2","2","2","2","2","4","5","5","4","4","4","4","2","5","1","0","1","1","0","1","1","1","1","1","1","0","1","0","1","2","5","4","2","4","2","3","4","4","2","2","682883457575026688","徐","83","","","","","","","","","","","","","","","","","","","","","","","","","","","","","","","","","","","","","","","","","",""
"593","<p style=""color:white; font-size: 35px;"">黑心</p>","e","categorize-html","62","269694","0.0-6.0-1.0-6.0-1.1","2","2","2","2","1","2","2","2","1","2","2","2","1","2","1","2","2","2","2","2","4","5","5","4","4","4","4","2","5","1","0","1","1","0","1","1","1","1","1","1","0","1","0","1","2","5","4","2","4","2","3","4","4","2","2","682883457575026688","徐","83","","","","","","","","","","","","","","","","","","","true","13","3","moral","593","negative","黑心","","","","","","","","","","","","","","","","",""
"null","","null","html-keyboard-response","63","269947","0.0-6.0-1.0-6.0-0.2","2","2","2","2","1","2","2","2","1","2","2","2","1","2","1","2","2","2","2","2","4","5","5","4","4","4","4","2","5","1","0","1","1","0","1","1","1","1","1","1","0","1","0","1","2","5","4","2","4","2","3","4","4","2","2","682883457575026688","徐","83","","","","","","","","","","","","","","","","","","","","","","","","","","","","","","","","","","","","","","","","","",""
"581","<p style=""color:rgb(150, 250, 100); font-size: 35px;"">自己</p>","i","categorize-html","64","270531","0.0-6.0-1.0-6.0-1.2","2","2","2","2","1","2","2","2","1","2","2","2","1","2","1","2","2","2","2","2","4","5","5","4","4","4","4","2","5","1","0","1","1","0","1","1","1","1","1","1","0","1","0","1","2","5","4","2","4","2","3","4","4","2","2","682883457575026688","徐","83","","","","","","","","","","","","","","","","","","","true","13","3","moral","581","self","自己","","","","","","","","","","","","","","","","",""
"null","","null","html-keyboard-response","65","270784","0.0-6.0-1.0-6.0-0.3","2","2","2","2","1","2","2","2","1","2","2","2","1","2","1","2","2","2","2","2","4","5","5","4","4","4","4","2","5","1","0","1","1","0","1","1","1","1","1","1","0","1","0","1","2","5","4","2","4","2","3","4","4","2","2","682883457575026688","徐","83","","","","","","","","","","","","","","","","","","","","","","","","","","","","","","","","","","","","","","","","","",""
"1440","<p style=""color:white; font-size: 35px;"">廉正</p>","i","categorize-html","66","272230","0.0-6.0-1.0-6.0-1.3","2","2","2","2","1","2","2","2","1","2","2","2","1","2","1","2","2","2","2","2","4","5","5","4","4","4","4","2","5","1","0","1","1","0","1","1","1","1","1","1","0","1","0","1","2","5","4","2","4","2","3","4","4","2","2","682883457575026688","徐","83","","","","","","","","","","","","","","","","","","","true","13","3","moral","1440","positive","廉正","","","","","","","","","","","","","","","","",""
"null","","null","html-keyboard-response","67","272481","0.0-6.0-1.0-6.0-0.4","2","2","2","2","1","2","2","2","1","2","2","2","1","2","1","2","2","2","2","2","4","5","5","4","4","4","4","2","5","1","0","1","1","0","1","1","1","1","1","1","0","1","0","1","2","5","4","2","4","2","3","4","4","2","2","682883457575026688","徐","83","","","","","","","","","","","","","","","","","","","","","","","","","","","","","","","","","","","","","","","","","",""
"533","<p style=""color:rgb(150, 250, 100); font-size: 35px;"">我的</p>","i","categorize-html","68","273020","0.0-6.0-1.0-6.0-1.4","2","2","2","2","1","2","2","2","1","2","2","2","1","2","1","2","2","2","2","2","4","5","5","4","4","4","4","2","5","1","0","1","1","0","1","1","1","1","1","1","0","1","0","1","2","5","4","2","4","2","3","4","4","2","2","682883457575026688","徐","83","","","","","","","","","","","","","","","","","","","true","13","3","moral","533","self","我的","","","","","","","","","","","","","","","","",""
"null","","null","html-keyboard-response","69","273271","0.0-6.0-1.0-6.0-0.5","2","2","2","2","1","2","2","2","1","2","2","2","1","2","1","2","2","2","2","2","4","5","5","4","4","4","4","2","5","1","0","1","1","0","1","1","1","1","1","1","0","1","0","1","2","5","4","2","4","2","3","4","4","2","2","682883457575026688","徐","83","","","","","","","","","","","","","","","","","","","","","","","","","","","","","","","","","","","","","","","","","",""
"983","<p style=""color:white; font-size: 35px;"">小人</p>","i","categorize-html","70","274706","0.0-6.0-1.0-6.0-1.5","2","2","2","2","1","2","2","2","1","2","2","2","1","2","1","2","2","2","2","2","4","5","5","4","4","4","4","2","5","1","0","1","1","0","1","1","1","1","1","1","0","1","0","1","2","5","4","2","4","2","3","4","4","2","2","682883457575026688","徐","83","","","","","","","","","","","","","","","","","","","false","13","3","moral","1310.5217391304348","negative","小人","","","","","","","","","","","","","","","","",""
"null","","null","html-keyboard-response","71","274958","0.0-6.0-1.0-6.0-0.6","2","2","2","2","1","2","2","2","1","2","2","2","1","2","1","2","2","2","2","2","4","5","5","4","4","4","4","2","5","1","0","1","1","0","1","1","1","1","1","1","0","1","0","1","2","5","4","2","4","2","3","4","4","2","2","682883457575026688","徐","83","","","","","","","","","","","","","","","","","","","","","","","","","","","","","","","","","","","","","","","","","",""
"550","<p style=""color:rgb(150, 250, 100); font-size: 35px;"">他人</p>","e","categorize-html","72","275510","0.0-6.0-1.0-6.0-1.6","2","2","2","2","1","2","2","2","1","2","2","2","1","2","1","2","2","2","2","2","4","5","5","4","4","4","4","2","5","1","0","1","1","0","1","1","1","1","1","1","0","1","0","1","2","5","4","2","4","2","3","4","4","2","2","682883457575026688","徐","83","","","","","","","","","","","","","","","","","","","true","13","3","moral","550","other","他人","","","","","","","","","","","","","","","","",""
"null","","null","html-keyboard-response","73","275761","0.0-6.0-1.0-6.0-0.7","2","2","2","2","1","2","2","2","1","2","2","2","1","2","1","2","2","2","2","2","4","5","5","4","4","4","4","2","5","1","0","1","1","0","1","1","1","1","1","1","0","1","0","1","2","5","4","2","4","2","3","4","4","2","2","682883457575026688","徐","83","","","","","","","","","","","","","","","","","","","","","","","","","","","","","","","","","","","","","","","","","",""
"576","<p style=""color:white; font-size: 35px;"">诚信</p>","i","categorize-html","74","276341","0.0-6.0-1.0-6.0-1.7","2","2","2","2","1","2","2","2","1","2","2","2","1","2","1","2","2","2","2","2","4","5","5","4","4","4","4","2","5","1","0","1","1","0","1","1","1","1","1","1","0","1","0","1","2","5","4","2","4","2","3","4","4","2","2","682883457575026688","徐","83","","","","","","","","","","","","","","","","","","","true","13","3","moral","576","positive","诚信","","","","","","","","","","","","","","","","",""
"null","","null","html-keyboard-response","75","276594","0.0-6.0-1.0-6.0-0.8","2","2","2","2","1","2","2","2","1","2","2","2","1","2","1","2","2","2","2","2","4","5","5","4","4","4","4","2","5","1","0","1","1","0","1","1","1","1","1","1","0","1","0","1","2","5","4","2","4","2","3","4","4","2","2","682883457575026688","徐","83","","","","","","","","","","","","","","","","","","","","","","","","","","","","","","","","","","","","","","","","","",""
"721","<p style=""color:rgb(150, 250, 100); font-size: 35px;"">他人的</p>","e","categorize-html","76","277316","0.0-6.0-1.0-6.0-1.8","2","2","2","2","1","2","2","2","1","2","2","2","1","2","1","2","2","2","2","2","4","5","5","4","4","4","4","2","5","1","0","1","1","0","1","1","1","1","1","1","0","1","0","1","2","5","4","2","4","2","3","4","4","2","2","682883457575026688","徐","83","","","","","","","","","","","","","","","","","","","true","13","3","moral","721","other","他人的","","","","","","","","","","","","","","","","",""
"null","","null","html-keyboard-response","77","277567","0.0-6.0-1.0-6.0-0.9","2","2","2","2","1","2","2","2","1","2","2","2","1","2","1","2","2","2","2","2","4","5","5","4","4","4","4","2","5","1","0","1","1","0","1","1","1","1","1","1","0","1","0","1","2","5","4","2","4","2","3","4","4","2","2","682883457575026688","徐","83","","","","","","","","","","","","","","","","","","","","","","","","","","","","","","","","","","","","","","","","","",""
"645","<p style=""color:white; font-size: 35px;"">君子</p>","i","categorize-html","78","278214","0.0-6.0-1.0-6.0-1.9","2","2","2","2","1","2","2","2","1","2","2","2","1","2","1","2","2","2","2","2","4","5","5","4","4","4","4","2","5","1","0","1","1","0","1","1","1","1","1","1","0","1","0","1","2","5","4","2","4","2","3","4","4","2","2","682883457575026688","徐","83","","","","","","","","","","","","","","","","","","","true","13","3","moral","645","positive","君子","","","","","","","","","","","","","","","","",""
"null","","null","html-keyboard-response","79","278465","0.0-6.0-1.0-6.0-0.10","2","2","2","2","1","2","2","2","1","2","2","2","1","2","1","2","2","2","2","2","4","5","5","4","4","4","4","2","5","1","0","1","1","0","1","1","1","1","1","1","0","1","0","1","2","5","4","2","4","2","3","4","4","2","2","682883457575026688","徐","83","","","","","","","","","","","","","","","","","","","","","","","","","","","","","","","","","","","","","","","","","",""
"535","<p style=""color:rgb(150, 250, 100); font-size: 35px;"">我</p>","i","categorize-html","80","279002","0.0-6.0-1.0-6.0-1.10","2","2","2","2","1","2","2","2","1","2","2","2","1","2","1","2","2","2","2","2","4","5","5","4","4","4","4","2","5","1","0","1","1","0","1","1","1","1","1","1","0","1","0","1","2","5","4","2","4","2","3","4","4","2","2","682883457575026688","徐","83","","","","","","","","","","","","","","","","","","","true","13","3","moral","535","self","我","","","","","","","","","","","","","","","","",""
"null","","null","html-keyboard-response","81","279254","0.0-6.0-1.0-6.0-0.11","2","2","2","2","1","2","2","2","1","2","2","2","1","2","1","2","2","2","2","2","4","5","5","4","4","4","4","2","5","1","0","1","1","0","1","1","1","1","1","1","0","1","0","1","2","5","4","2","4","2","3","4","4","2","2","682883457575026688","徐","83","","","","","","","","","","","","","","","","","","","","","","","","","","","","","","","","","","","","","","","","","",""
"557","<p style=""color:white; font-size: 35px;"">不孝</p>","e","categorize-html","82","279812","0.0-6.0-1.0-6.0-1.11","2","2","2","2","1","2","2","2","1","2","2","2","1","2","1","2","2","2","2","2","4","5","5","4","4","4","4","2","5","1","0","1","1","0","1","1","1","1","1","1","0","1","0","1","2","5","4","2","4","2","3","4","4","2","2","682883457575026688","徐","83","","","","","","","","","","","","","","","","","","","true","13","3","moral","557","negative","不孝","","","","","","","","","","","","","","","","",""
"null","","null","html-keyboard-response","83","280064","0.0-6.0-1.0-6.0-0.12","2","2","2","2","1","2","2","2","1","2","2","2","1","2","1","2","2","2","2","2","4","5","5","4","4","4","4","2","5","1","0","1","1","0","1","1","1","1","1","1","0","1","0","1","2","5","4","2","4","2","3","4","4","2","2","682883457575026688","徐","83","","","","","","","","","","","","","","","","","","","","","","","","","","","","","","","","","","","","","","","","","",""
"571","<p style=""color:rgb(150, 250, 100); font-size: 35px;"">他</p>","e","categorize-html","84","280638","0.0-6.0-1.0-6.0-1.12","2","2","2","2","1","2","2","2","1","2","2","2","1","2","1","2","2","2","2","2","4","5","5","4","4","4","4","2","5","1","0","1","1","0","1","1","1","1","1","1","0","1","0","1","2","5","4","2","4","2","3","4","4","2","2","682883457575026688","徐","83","","","","","","","","","","","","","","","","","","","true","13","3","moral","571","other","他","","","","","","","","","","","","","","","","",""
"null","","null","html-keyboard-response","85","280890","0.0-6.0-1.0-6.0-0.13","2","2","2","2","1","2","2","2","1","2","2","2","1","2","1","2","2","2","2","2","4","5","5","4","4","4","4","2","5","1","0","1","1","0","1","1","1","1","1","1","0","1","0","1","2","5","4","2","4","2","3","4","4","2","2","682883457575026688","徐","83","","","","","","","","","","","","","","","","","","","","","","","","","","","","","","","","","","","","","","","","","",""
"815","<p style=""color:white; font-size: 35px;"">缺德</p>","e","categorize-html","86","281707","0.0-6.0-1.0-6.0-1.13","2","2","2","2","1","2","2","2","1","2","2","2","1","2","1","2","2","2","2","2","4","5","5","4","4","4","4","2","5","1","0","1","1","0","1","1","1","1","1","1","0","1","0","1","2","5","4","2","4","2","3","4","4","2","2","682883457575026688","徐","83","","","","","","","","","","","","","","","","","","","true","13","3","moral","815","negative","缺德","","","","","","","","","","","","","","","","",""
"null","","null","html-keyboard-response","87","281959","0.0-6.0-1.0-6.0-0.14","2","2","2","2","1","2","2","2","1","2","2","2","1","2","1","2","2","2","2","2","4","5","5","4","4","4","4","2","5","1","0","1","1","0","1","1","1","1","1","1","0","1","0","1","2","5","4","2","4","2","3","4","4","2","2","682883457575026688","徐","83","","","","","","","","","","","","","","","","","","","","","","","","","","","","","","","","","","","","","","","","","",""
"559","<p style=""color:rgb(150, 250, 100); font-size: 35px;"">本人的</p>","i","categorize-html","88","282521","0.0-6.0-1.0-6.0-1.14","2","2","2","2","1","2","2","2","1","2","2","2","1","2","1","2","2","2","2","2","4","5","5","4","4","4","4","2","5","1","0","1","1","0","1","1","1","1","1","1","0","1","0","1","2","5","4","2","4","2","3","4","4","2","2","682883457575026688","徐","83","","","","","","","","","","","","","","","","","","","true","13","3","moral","559","self","本人的","","","","","","","","","","","","","","","","",""
"null","","null","html-keyboard-response","89","282772","0.0-6.0-1.0-6.0-0.15","2","2","2","2","1","2","2","2","1","2","2","2","1","2","1","2","2","2","2","2","4","5","5","4","4","4","4","2","5","1","0","1","1","0","1","1","1","1","1","1","0","1","0","1","2","5","4","2","4","2","3","4","4","2","2","682883457575026688","徐","83","","","","","","","","","","","","","","","","","","","","","","","","","","","","","","","","","","","","","","","","","",""
"732","<p style=""color:white; font-size: 35px;"">高尚</p>","i","categorize-html","90","283505","0.0-6.0-1.0-6.0-1.15","2","2","2","2","1","2","2","2","1","2","2","2","1","2","1","2","2","2","2","2","4","5","5","4","4","4","4","2","5","1","0","1","1","0","1","1","1","1","1","1","0","1","0","1","2","5","4","2","4","2","3","4","4","2","2","682883457575026688","徐","83","","","","","","","","","","","","","","","","","","","true","13","3","moral","732","positive","高尚","","","","","","","","","","","","","","","","",""
"null","","null","html-keyboard-response","91","283757","0.0-6.0-1.0-6.0-0.16","2","2","2","2","1","2","2","2","1","2","2","2","1","2","1","2","2","2","2","2","4","5","5","4","4","4","4","2","5","1","0","1","1","0","1","1","1","1","1","1","0","1","0","1","2","5","4","2","4","2","3","4","4","2","2","682883457575026688","徐","83","","","","","","","","","","","","","","","","","","","","","","","","","","","","","","","","","","","","","","","","","",""
"718","<p style=""color:rgb(150, 250, 100); font-size: 35px;"">别人</p>","e","categorize-html","92","284480","0.0-6.0-1.0-6.0-1.16","2","2","2","2","1","2","2","2","1","2","2","2","1","2","1","2","2","2","2","2","4","5","5","4","4","4","4","2","5","1","0","1","1","0","1","1","1","1","1","1","0","1","0","1","2","5","4","2","4","2","3","4","4","2","2","682883457575026688","徐","83","","","","","","","","","","","","","","","","","","","true","13","3","moral","718","other","别人","","","","","","","","","","","","","","","","",""
"null","","null","html-keyboard-response","93","284731","0.0-6.0-1.0-6.0-0.17","2","2","2","2","1","2","2","2","1","2","2","2","1","2","1","2","2","2","2","2","4","5","5","4","4","4","4","2","5","1","0","1","1","0","1","1","1","1","1","1","0","1","0","1","2","5","4","2","4","2","3","4","4","2","2","682883457575026688","徐","83","","","","","","","","","","","","","","","","","","","","","","","","","","","","","","","","","","","","","","","","","",""
"596","<p style=""color:white; font-size: 35px;"">不仁</p>","e","categorize-html","94","285329","0.0-6.0-1.0-6.0-1.17","2","2","2","2","1","2","2","2","1","2","2","2","1","2","1","2","2","2","2","2","4","5","5","4","4","4","4","2","5","1","0","1","1","0","1","1","1","1","1","1","0","1","0","1","2","5","4","2","4","2","3","4","4","2","2","682883457575026688","徐","83","","","","","","","","","","","","","","","","","","","true","13","3","moral","596","negative","不仁","","","","","","","","","","","","","","","","",""
"null","","null","html-keyboard-response","95","285582","0.0-6.0-1.0-6.0-0.18","2","2","2","2","1","2","2","2","1","2","2","2","1","2","1","2","2","2","2","2","4","5","5","4","4","4","4","2","5","1","0","1","1","0","1","1","1","1","1","1","0","1","0","1","2","5","4","2","4","2","3","4","4","2","2","682883457575026688","徐","83","","","","","","","","","","","","","","","","","","","","","","","","","","","","","","","","","","","","","","","","","",""
"599","<p style=""color:rgb(150, 250, 100); font-size: 35px;"">本人</p>","i","categorize-html","96","286182","0.0-6.0-1.0-6.0-1.18","2","2","2","2","1","2","2","2","1","2","2","2","1","2","1","2","2","2","2","2","4","5","5","4","4","4","4","2","5","1","0","1","1","0","1","1","1","1","1","1","0","1","0","1","2","5","4","2","4","2","3","4","4","2","2","682883457575026688","徐","83","","","","","","","","","","","","","","","","","","","true","13","3","moral","599","self","本人","","","","","","","","","","","","","","","","",""
"null","","null","html-keyboard-response","97","286433","0.0-6.0-1.0-6.0-0.19","2","2","2","2","1","2","2","2","1","2","2","2","1","2","1","2","2","2","2","2","4","5","5","4","4","4","4","2","5","1","0","1","1","0","1","1","1","1","1","1","0","1","0","1","2","5","4","2","4","2","3","4","4","2","2","682883457575026688","徐","83","","","","","","","","","","","","","","","","","","","","","","","","","","","","","","","","","","","","","","","","","",""
"535","<p style=""color:white; font-size: 35px;"">正直</p>","i","categorize-html","98","286970","0.0-6.0-1.0-6.0-1.19","2","2","2","2","1","2","2","2","1","2","2","2","1","2","1","2","2","2","2","2","4","5","5","4","4","4","4","2","5","1","0","1","1","0","1","1","1","1","1","1","0","1","0","1","2","5","4","2","4","2","3","4","4","2","2","682883457575026688","徐","83","","","","","","","","","","","","","","","","","","","true","13","3","moral","535","positive","正直","","","","","","","","","","","","","","","","",""
"null","","null","html-keyboard-response","99","287221","0.0-6.0-1.0-6.0-0.20","2","2","2","2","1","2","2","2","1","2","2","2","1","2","1","2","2","2","2","2","4","5","5","4","4","4","4","2","5","1","0","1","1","0","1","1","1","1","1","1","0","1","0","1","2","5","4","2","4","2","3","4","4","2","2","682883457575026688","徐","83","","","","","","","","","","","","","","","","","","","","","","","","","","","","","","","","","","","","","","","","","",""
"588","<p style=""color:rgb(150, 250, 100); font-size: 35px;"">他的</p>","e","categorize-html","100","287813","0.0-6.0-1.0-6.0-1.20","2","2","2","2","1","2","2","2","1","2","2","2","1","2","1","2","2","2","2","2","4","5","5","4","4","4","4","2","5","1","0","1","1","0","1","1","1","1","1","1","0","1","0","1","2","5","4","2","4","2","3","4","4","2","2","682883457575026688","徐","83","","","","","","","","","","","","","","","","","","","true","13","3","moral","588","other","他的","","","","","","","","","","","","","","","","",""
"null","","null","html-keyboard-response","101","288066","0.0-6.0-1.0-6.0-0.21","2","2","2","2","1","2","2","2","1","2","2","2","1","2","1","2","2","2","2","2","4","5","5","4","4","4","4","2","5","1","0","1","1","0","1","1","1","1","1","1","0","1","0","1","2","5","4","2","4","2","3","4","4","2","2","682883457575026688","徐","83","","","","","","","","","","","","","","","","","","","","","","","","","","","","","","","","","","","","","","","","","",""
"1060","<p style=""color:white; font-size: 35px;"">善良</p>","i","categorize-html","102","289128","0.0-6.0-1.0-6.0-1.21","2","2","2","2","1","2","2","2","1","2","2","2","1","2","1","2","2","2","2","2","4","5","5","4","4","4","4","2","5","1","0","1","1","0","1","1","1","1","1","1","0","1","0","1","2","5","4","2","4","2","3","4","4","2","2","682883457575026688","徐","83","","","","","","","","","","","","","","","","","","","true","13","3","moral","1060","positive","善良","","","","","","","","","","","","","","","","",""
"null","","null","html-keyboard-response","103","289380","0.0-6.0-1.0-6.0-0.22","2","2","2","2","1","2","2","2","1","2","2","2","1","2","1","2","2","2","2","2","4","5","5","4","4","4","4","2","5","1","0","1","1","0","1","1","1","1","1","1","0","1","0","1","2","5","4","2","4","2","3","4","4","2","2","682883457575026688","徐","83","","","","","","","","","","","","","","","","","","","","","","","","","","","","","","","","","","","","","","","","","",""
"1139","<p style=""color:rgb(150, 250, 100); font-size: 35px;"">自己的</p>","i","categorize-html","104","290520","0.0-6.0-1.0-6.0-1.22","2","2","2","2","1","2","2","2","1","2","2","2","1","2","1","2","2","2","2","2","4","5","5","4","4","4","4","2","5","1","0","1","1","0","1","1","1","1","1","1","0","1","0","1","2","5","4","2","4","2","3","4","4","2","2","682883457575026688","徐","83","","","","","","","","","","","","","","","","","","","true","13","3","moral","1139","self","自己的","","","","","","","","","","","","","","","","",""
"null","","null","html-keyboard-response","105","290773","0.0-6.0-1.0-6.0-0.23","2","2","2","2","1","2","2","2","1","2","2","2","1","2","1","2","2","2","2","2","4","5","5","4","4","4","4","2","5","1","0","1","1","0","1","1","1","1","1","1","0","1","0","1","2","5","4","2","4","2","3","4","4","2","2","682883457575026688","徐","83","","","","","","","","","","","","","","","","","","","","","","","","","","","","","","","","","","","","","","","","","",""
"991","<p style=""color:white; font-size: 35px;"">卑鄙</p>","e","categorize-html","106","291768","0.0-6.0-1.0-6.0-1.23","2","2","2","2","1","2","2","2","1","2","2","2","1","2","1","2","2","2","2","2","4","5","5","4","4","4","4","2","5","1","0","1","1","0","1","1","1","1","1","1","0","1","0","1","2","5","4","2","4","2","3","4","4","2","2","682883457575026688","徐","83","","","","","","","","","","","","","","","","","","","true","13","3","moral","991","negative","卑鄙","","","","","","","","","","","","","","","","",""
"8722","
    <div class=""tag-bottom""><p>
    —— 任务4：对“他人/消极”词和“自我/积极”词分类 ——<p/>
    <span style=""color:#78DCE8""><b>与刚才的任务完全相同，请再次对这四类词语分类</b></span><p/>
    <span style=""color:#FFD866""><b>请根据上方标签的提示，尽可能正确并且快速地做出按键反应</b></span><p/>
    当按键错误时屏幕中会出现<span style=""color:red""> X </span>，需要按另一个键纠正才能继续<br/><p/>
    请把双手食指分别放在键盘的“E”键和“I”键上<p/>
    按<空格键>开始
    </p></div>"," ","html-keyboard-response","107","300492","0.0-6.0-1.0-7.0","2","2","2","2","1","2","2","2","1","2","2","2","1","2","1","2","2","2","2","2","4","5","5","4","4","4","4","2","5","1","0","1","1","0","1","1","1","1","1","1","0","1","0","1","2","5","4","2","4","2","3","4","4","2","2","682883457575026688","徐","83","","","","","","","","","","","","","","","","","","","","","","","","","","","","","","","","","","","","","","","","","",""
"null","","null","html-keyboard-response","108","300748","0.0-6.0-1.0-8.0-0.0","2","2","2","2","1","2","2","2","1","2","2","2","1","2","1","2","2","2","2","2","4","5","5","4","4","4","4","2","5","1","0","1","1","0","1","1","1","1","1","1","0","1","0","1","2","5","4","2","4","2","3","4","4","2","2","682883457575026688","徐","83","","","","","","","","","","","","","","","","","","","","","","","","","","","","","","","","","","","","","","","","","",""
"637","<p style=""color:rgb(150, 250, 100); font-size: 35px;"">本人</p>","i","categorize-html","109","301389","0.0-6.0-1.0-8.0-1.0","2","2","2","2","1","2","2","2","1","2","2","2","1","2","1","2","2","2","2","2","4","5","5","4","4","4","4","2","5","1","0","1","1","0","1","1","1","1","1","1","0","1","0","1","2","5","4","2","4","2","3","4","4","2","2","682883457575026688","徐","83","","","","","","","","","","","","","","","","","","","true","14","4","moral","637","self","本人","","","","","","","","","","","","","","","","",""
"null","","null","html-keyboard-response","110","301641","0.0-6.0-1.0-8.0-0.1","2","2","2","2","1","2","2","2","1","2","2","2","1","2","1","2","2","2","2","2","4","5","5","4","4","4","4","2","5","1","0","1","1","0","1","1","1","1","1","1","0","1","0","1","2","5","4","2","4","2","3","4","4","2","2","682883457575026688","徐","83","","","","","","","","","","","","","","","","","","","","","","","","","","","","","","","","","","","","","","","","","",""
"592","<p style=""color:white; font-size: 35px;"">缺德</p>","e","categorize-html","111","302234","0.0-6.0-1.0-8.0-1.1","2","2","2","2","1","2","2","2","1","2","2","2","1","2","1","2","2","2","2","2","4","5","5","4","4","4","4","2","5","1","0","1","1","0","1","1","1","1","1","1","0","1","0","1","2","5","4","2","4","2","3","4","4","2","2","682883457575026688","徐","83","","","","","","","","","","","","","","","","","","","true","14","4","moral","592","negative","缺德","","","","","","","","","","","","","","","","",""
"null","","null","html-keyboard-response","112","302485","0.0-6.0-1.0-8.0-0.2","2","2","2","2","1","2","2","2","1","2","2","2","1","2","1","2","2","2","2","2","4","5","5","4","4","4","4","2","5","1","0","1","1","0","1","1","1","1","1","1","0","1","0","1","2","5","4","2","4","2","3","4","4","2","2","682883457575026688","徐","83","","","","","","","","","","","","","","","","","","","","","","","","","","","","","","","","","","","","","","","","","",""
"595","<p style=""color:rgb(150, 250, 100); font-size: 35px;"">他的</p>","e","categorize-html","113","303081","0.0-6.0-1.0-8.0-1.2","2","2","2","2","1","2","2","2","1","2","2","2","1","2","1","2","2","2","2","2","4","5","5","4","4","4","4","2","5","1","0","1","1","0","1","1","1","1","1","1","0","1","0","1","2","5","4","2","4","2","3","4","4","2","2","682883457575026688","徐","83","","","","","","","","","","","","","","","","","","","true","14","4","moral","595","other","他的","","","","","","","","","","","","","","","","",""
"null","","null","html-keyboard-response","114","303333","0.0-6.0-1.0-8.0-0.3","2","2","2","2","1","2","2","2","1","2","2","2","1","2","1","2","2","2","2","2","4","5","5","4","4","4","4","2","5","1","0","1","1","0","1","1","1","1","1","1","0","1","0","1","2","5","4","2","4","2","3","4","4","2","2","682883457575026688","徐","83","","","","","","","","","","","","","","","","","","","","","","","","","","","","","","","","","","","","","","","","","",""
"487","<p style=""color:white; font-size: 35px;"">善良</p>","e","categorize-html","115","304226","0.0-6.0-1.0-8.0-1.3","2","2","2","2","1","2","2","2","1","2","2","2","1","2","1","2","2","2","2","2","4","5","5","4","4","4","4","2","5","1","0","1","1","0","1","1","1","1","1","1","0","1","0","1","2","5","4","2","4","2","3","4","4","2","2","682883457575026688","徐","83","","","","","","","","","","","","","","","","","","","false","14","4","moral","1205.409090909091","positive","善良","","","","","","","","","","","","","","","","",""
"null","","null","html-keyboard-response","116","304479","0.0-6.0-1.0-8.0-0.4","2","2","2","2","1","2","2","2","1","2","2","2","1","2","1","2","2","2","2","2","4","5","5","4","4","4","4","2","5","1","0","1","1","0","1","1","1","1","1","1","0","1","0","1","2","5","4","2","4","2","3","4","4","2","2","682883457575026688","徐","83","","","","","","","","","","","","","","","","","","","","","","","","","","","","","","","","","","","","","","","","","",""
"634","<p style=""color:rgb(150, 250, 100); font-size: 35px;"">他</p>","e","categorize-html","117","305116","0.0-6.0-1.0-8.0-1.4","2","2","2","2","1","2","2","2","1","2","2","2","1","2","1","2","2","2","2","2","4","5","5","4","4","4","4","2","5","1","0","1","1","0","1","1","1","1","1","1","0","1","0","1","2","5","4","2","4","2","3","4","4","2","2","682883457575026688","徐","83","","","","","","","","","","","","","","","","","","","true","14","4","moral","634","other","他","","","","","","","","","","","","","","","","",""
"null","","null","html-keyboard-response","118","305369","0.0-6.0-1.0-8.0-0.5","2","2","2","2","1","2","2","2","1","2","2","2","1","2","1","2","2","2","2","2","4","5","5","4","4","4","4","2","5","1","0","1","1","0","1","1","1","1","1","1","0","1","0","1","2","5","4","2","4","2","3","4","4","2","2","682883457575026688","徐","83","","","","","","","","","","","","","","","","","","","","","","","","","","","","","","","","","","","","","","","","","",""
"583","<p style=""color:white; font-size: 35px;"">缺德</p>","e","categorize-html","119","305955","0.0-6.0-1.0-8.0-1.5","2","2","2","2","1","2","2","2","1","2","2","2","1","2","1","2","2","2","2","2","4","5","5","4","4","4","4","2","5","1","0","1","1","0","1","1","1","1","1","1","0","1","0","1","2","5","4","2","4","2","3","4","4","2","2","682883457575026688","徐","83","","","","","","","","","","","","","","","","","","","true","14","4","moral","583","negative","缺德","","","","","","","","","","","","","","","","",""
"null","","null","html-keyboard-response","120","306206","0.0-6.0-1.0-8.0-0.6","2","2","2","2","1","2","2","2","1","2","2","2","1","2","1","2","2","2","2","2","4","5","5","4","4","4","4","2","5","1","0","1","1","0","1","1","1","1","1","1","0","1","0","1","2","5","4","2","4","2","3","4","4","2","2","682883457575026688","徐","83","","","","","","","","","","","","","","","","","","","","","","","","","","","","","","","","","","","","","","","","","",""
"498","<p style=""color:rgb(150, 250, 100); font-size: 35px;"">我的</p>","i","categorize-html","121","306706","0.0-6.0-1.0-8.0-1.6","2","2","2","2","1","2","2","2","1","2","2","2","1","2","1","2","2","2","2","2","4","5","5","4","4","4","4","2","5","1","0","1","1","0","1","1","1","1","1","1","0","1","0","1","2","5","4","2","4","2","3","4","4","2","2","682883457575026688","徐","83","","","","","","","","","","","","","","","","","","","true","14","4","moral","498","self","我的","","","","","","","","","","","","","","","","",""
"null","","null","html-keyboard-response","122","306962","0.0-6.0-1.0-8.0-0.7","2","2","2","2","1","2","2","2","1","2","2","2","1","2","1","2","2","2","2","2","4","5","5","4","4","4","4","2","5","1","0","1","1","0","1","1","1","1","1","1","0","1","0","1","2","5","4","2","4","2","3","4","4","2","2","682883457575026688","徐","83","","","","","","","","","","","","","","","","","","","","","","","","","","","","","","","","","","","","","","","","","",""
"686","<p style=""color:white; font-size: 35px;"">高尚</p>","i","categorize-html","123","307652","0.0-6.0-1.0-8.0-1.7","2","2","2","2","1","2","2","2","1","2","2","2","1","2","1","2","2","2","2","2","4","5","5","4","4","4","4","2","5","1","0","1","1","0","1","1","1","1","1","1","0","1","0","1","2","5","4","2","4","2","3","4","4","2","2","682883457575026688","徐","83","","","","","","","","","","","","","","","","","","","true","14","4","moral","686","positive","高尚","","","","","","","","","","","","","","","","",""
"null","","null","html-keyboard-response","124","307903","0.0-6.0-1.0-8.0-0.8","2","2","2","2","1","2","2","2","1","2","2","2","1","2","1","2","2","2","2","2","4","5","5","4","4","4","4","2","5","1","0","1","1","0","1","1","1","1","1","1","0","1","0","1","2","5","4","2","4","2","3","4","4","2","2","682883457575026688","徐","83","","","","","","","","","","","","","","","","","","","","","","","","","","","","","","","","","","","","","","","","","",""
"642","<p style=""color:rgb(150, 250, 100); font-size: 35px;"">他</p>","e","categorize-html","125","308549","0.0-6.0-1.0-8.0-1.8","2","2","2","2","1","2","2","2","1","2","2","2","1","2","1","2","2","2","2","2","4","5","5","4","4","4","4","2","5","1","0","1","1","0","1","1","1","1","1","1","0","1","0","1","2","5","4","2","4","2","3","4","4","2","2","682883457575026688","徐","83","","","","","","","","","","","","","","","","","","","true","14","4","moral","642","other","他","","","","","","","","","","","","","","","","",""
"null","","null","html-keyboard-response","126","308801","0.0-6.0-1.0-8.0-0.9","2","2","2","2","1","2","2","2","1","2","2","2","1","2","1","2","2","2","2","2","4","5","5","4","4","4","4","2","5","1","0","1","1","0","1","1","1","1","1","1","0","1","0","1","2","5","4","2","4","2","3","4","4","2","2","682883457575026688","徐","83","","","","","","","","","","","","","","","","","","","","","","","","","","","","","","","","","","","","","","","","","",""
"638","<p style=""color:white; font-size: 35px;"">卑鄙</p>","e","categorize-html","127","309443","0.0-6.0-1.0-8.0-1.9","2","2","2","2","1","2","2","2","1","2","2","2","1","2","1","2","2","2","2","2","4","5","5","4","4","4","4","2","5","1","0","1","1","0","1","1","1","1","1","1","0","1","0","1","2","5","4","2","4","2","3","4","4","2","2","682883457575026688","徐","83","","","","","","","","","","","","","","","","","","","true","14","4","moral","638","negative","卑鄙","","","","","","","","","","","","","","","","",""
"null","","null","html-keyboard-response","128","309694","0.0-6.0-1.0-8.0-0.10","2","2","2","2","1","2","2","2","1","2","2","2","1","2","1","2","2","2","2","2","4","5","5","4","4","4","4","2","5","1","0","1","1","0","1","1","1","1","1","1","0","1","0","1","2","5","4","2","4","2","3","4","4","2","2","682883457575026688","徐","83","","","","","","","","","","","","","","","","","","","","","","","","","","","","","","","","","","","","","","","","","",""
"593","<p style=""color:rgb(150, 250, 100); font-size: 35px;"">本人的</p>","i","categorize-html","129","310291","0.0-6.0-1.0-8.0-1.10","2","2","2","2","1","2","2","2","1","2","2","2","1","2","1","2","2","2","2","2","4","5","5","4","4","4","4","2","5","1","0","1","1","0","1","1","1","1","1","1","0","1","0","1","2","5","4","2","4","2","3","4","4","2","2","682883457575026688","徐","83","","","","","","","","","","","","","","","","","","","true","14","4","moral","593","self","本人的","","","","","","","","","","","","","","","","",""
"null","","null","html-keyboard-response","130","310542","0.0-6.0-1.0-8.0-0.11","2","2","2","2","1","2","2","2","1","2","2","2","1","2","1","2","2","2","2","2","4","5","5","4","4","4","4","2","5","1","0","1","1","0","1","1","1","1","1","1","0","1","0","1","2","5","4","2","4","2","3","4","4","2","2","682883457575026688","徐","83","","","","","","","","","","","","","","","","","","","","","","","","","","","","","","","","","","","","","","","","","",""
"474","<p style=""color:white; font-size: 35px;"">善良</p>","i","categorize-html","131","311021","0.0-6.0-1.0-8.0-1.11","2","2","2","2","1","2","2","2","1","2","2","2","1","2","1","2","2","2","2","2","4","5","5","4","4","4","4","2","5","1","0","1","1","0","1","1","1","1","1","1","0","1","0","1","2","5","4","2","4","2","3","4","4","2","2","682883457575026688","徐","83","","","","","","","","","","","","","","","","","","","true","14","4","moral","474","positive","善良","","","","","","","","","","","","","","","","",""
"null","","null","html-keyboard-response","132","311273","0.0-6.0-1.0-8.0-0.12","2","2","2","2","1","2","2","2","1","2","2","2","1","2","1","2","2","2","2","2","4","5","5","4","4","4","4","2","5","1","0","1","1","0","1","1","1","1","1","1","0","1","0","1","2","5","4","2","4","2","3","4","4","2","2","682883457575026688","徐","83","","","","","","","","","","","","","","","","","","","","","","","","","","","","","","","","","","","","","","","","","",""
"787","<p style=""color:rgb(150, 250, 100); font-size: 35px;"">别人的</p>","e","categorize-html","133","312061","0.0-6.0-1.0-8.0-1.12","2","2","2","2","1","2","2","2","1","2","2","2","1","2","1","2","2","2","2","2","4","5","5","4","4","4","4","2","5","1","0","1","1","0","1","1","1","1","1","1","0","1","0","1","2","5","4","2","4","2","3","4","4","2","2","682883457575026688","徐","83","","","","","","","","","","","","","","","","","","","true","14","4","moral","787","other","别人的","","","","","","","","","","","","","","","","",""
"null","","null","html-keyboard-response","134","312313","0.0-6.0-1.0-8.0-0.13","2","2","2","2","1","2","2","2","1","2","2","2","1","2","1","2","2","2","2","2","4","5","5","4","4","4","4","2","5","1","0","1","1","0","1","1","1","1","1","1","0","1","0","1","2","5","4","2","4","2","3","4","4","2","2","682883457575026688","徐","83","","","","","","","","","","","","","","","","","","","","","","","","","","","","","","","","","","","","","","","","","",""
"458","<p style=""color:white; font-size: 35px;"">高尚</p>","i","categorize-html","135","312775","0.0-6.0-1.0-8.0-1.13","2","2","2","2","1","2","2","2","1","2","2","2","1","2","1","2","2","2","2","2","4","5","5","4","4","4","4","2","5","1","0","1","1","0","1","1","1","1","1","1","0","1","0","1","2","5","4","2","4","2","3","4","4","2","2","682883457575026688","徐","83","","","","","","","","","","","","","","","","","","","true","14","4","moral","458","positive","高尚","","","","","","","","","","","","","","","","",""
"null","","null","html-keyboard-response","136","313026","0.0-6.0-1.0-8.0-0.14","2","2","2","2","1","2","2","2","1","2","2","2","1","2","1","2","2","2","2","2","4","5","5","4","4","4","4","2","5","1","0","1","1","0","1","1","1","1","1","1","0","1","0","1","2","5","4","2","4","2","3","4","4","2","2","682883457575026688","徐","83","","","","","","","","","","","","","","","","","","","","","","","","","","","","","","","","","","","","","","","","","",""
"525","<p style=""color:rgb(150, 250, 100); font-size: 35px;"">自己的</p>","i","categorize-html","137","313553","0.0-6.0-1.0-8.0-1.14","2","2","2","2","1","2","2","2","1","2","2","2","1","2","1","2","2","2","2","2","4","5","5","4","4","4","4","2","5","1","0","1","1","0","1","1","1","1","1","1","0","1","0","1","2","5","4","2","4","2","3","4","4","2","2","682883457575026688","徐","83","","","","","","","","","","","","","","","","","","","true","14","4","moral","525","self","自己的","","","","","","","","","","","","","","","","",""
"null","","null","html-keyboard-response","138","313806","0.0-6.0-1.0-8.0-0.15","2","2","2","2","1","2","2","2","1","2","2","2","1","2","1","2","2","2","2","2","4","5","5","4","4","4","4","2","5","1","0","1","1","0","1","1","1","1","1","1","0","1","0","1","2","5","4","2","4","2","3","4","4","2","2","682883457575026688","徐","83","","","","","","","","","","","","","","","","","","","","","","","","","","","","","","","","","","","","","","","","","",""
"801","<p style=""color:white; font-size: 35px;"">不孝</p>","e","categorize-html","139","314608","0.0-6.0-1.0-8.0-1.15","2","2","2","2","1","2","2","2","1","2","2","2","1","2","1","2","2","2","2","2","4","5","5","4","4","4","4","2","5","1","0","1","1","0","1","1","1","1","1","1","0","1","0","1","2","5","4","2","4","2","3","4","4","2","2","682883457575026688","徐","83","","","","","","","","","","","","","","","","","","","true","14","4","moral","801","negative","不孝","","","","","","","","","","","","","","","","",""
"null","","null","html-keyboard-response","140","314860","0.0-6.0-1.0-8.0-0.16","2","2","2","2","1","2","2","2","1","2","2","2","1","2","1","2","2","2","2","2","4","5","5","4","4","4","4","2","5","1","0","1","1","0","1","1","1","1","1","1","0","1","0","1","2","5","4","2","4","2","3","4","4","2","2","682883457575026688","徐","83","","","","","","","","","","","","","","","","","","","","","","","","","","","","","","","","","","","","","","","","","",""
"466","<p style=""color:rgb(150, 250, 100); font-size: 35px;"">我</p>","i","categorize-html","141","315327","0.0-6.0-1.0-8.0-1.16","2","2","2","2","1","2","2","2","1","2","2","2","1","2","1","2","2","2","2","2","4","5","5","4","4","4","4","2","5","1","0","1","1","0","1","1","1","1","1","1","0","1","0","1","2","5","4","2","4","2","3","4","4","2","2","682883457575026688","徐","83","","","","","","","","","","","","","","","","","","","true","14","4","moral","466","self","我","","","","","","","","","","","","","","","","",""
"null","","null","html-keyboard-response","142","315580","0.0-6.0-1.0-8.0-0.17","2","2","2","2","1","2","2","2","1","2","2","2","1","2","1","2","2","2","2","2","4","5","5","4","4","4","4","2","5","1","0","1","1","0","1","1","1","1","1","1","0","1","0","1","2","5","4","2","4","2","3","4","4","2","2","682883457575026688","徐","83","","","","","","","","","","","","","","","","","","","","","","","","","","","","","","","","","","","","","","","","","",""
"497","<p style=""color:white; font-size: 35px;"">正直</p>","i","categorize-html","143","316081","0.0-6.0-1.0-8.0-1.17","2","2","2","2","1","2","2","2","1","2","2","2","1","2","1","2","2","2","2","2","4","5","5","4","4","4","4","2","5","1","0","1","1","0","1","1","1","1","1","1","0","1","0","1","2","5","4","2","4","2","3","4","4","2","2","682883457575026688","徐","83","","","","","","","","","","","","","","","","","","","true","14","4","moral","497","positive","正直","","","","","","","","","","","","","","","","",""
"null","","null","html-keyboard-response","144","316333","0.0-6.0-1.0-8.0-0.18","2","2","2","2","1","2","2","2","1","2","2","2","1","2","1","2","2","2","2","2","4","5","5","4","4","4","4","2","5","1","0","1","1","0","1","1","1","1","1","1","0","1","0","1","2","5","4","2","4","2","3","4","4","2","2","682883457575026688","徐","83","","","","","","","","","","","","","","","","","","","","","","","","","","","","","","","","","","","","","","","","","",""
"575","<p style=""color:rgb(150, 250, 100); font-size: 35px;"">他人</p>","e","categorize-html","145","316910","0.0-6.0-1.0-8.0-1.18","2","2","2","2","1","2","2","2","1","2","2","2","1","2","1","2","2","2","2","2","4","5","5","4","4","4","4","2","5","1","0","1","1","0","1","1","1","1","1","1","0","1","0","1","2","5","4","2","4","2","3","4","4","2","2","682883457575026688","徐","83","","","","","","","","","","","","","","","","","","","true","14","4","moral","575","other","他人","","","","","","","","","","","","","","","","",""
"null","","null","html-keyboard-response","146","317161","0.0-6.0-1.0-8.0-0.19","2","2","2","2","1","2","2","2","1","2","2","2","1","2","1","2","2","2","2","2","4","5","5","4","4","4","4","2","5","1","0","1","1","0","1","1","1","1","1","1","0","1","0","1","2","5","4","2","4","2","3","4","4","2","2","682883457575026688","徐","83","","","","","","","","","","","","","","","","","","","","","","","","","","","","","","","","","","","","","","","","","",""
"571","<p style=""color:white; font-size: 35px;"">黑心</p>","e","categorize-html","147","317734","0.0-6.0-1.0-8.0-1.19","2","2","2","2","1","2","2","2","1","2","2","2","1","2","1","2","2","2","2","2","4","5","5","4","4","4","4","2","5","1","0","1","1","0","1","1","1","1","1","1","0","1","0","1","2","5","4","2","4","2","3","4","4","2","2","682883457575026688","徐","83","","","","","","","","","","","","","","","","","","","true","14","4","moral","571","negative","黑心","","","","","","","","","","","","","","","","",""
"null","","null","html-keyboard-response","148","317985","0.0-6.0-1.0-8.0-0.20","2","2","2","2","1","2","2","2","1","2","2","2","1","2","1","2","2","2","2","2","4","5","5","4","4","4","4","2","5","1","0","1","1","0","1","1","1","1","1","1","0","1","0","1","2","5","4","2","4","2","3","4","4","2","2","682883457575026688","徐","83","","","","","","","","","","","","","","","","","","","","","","","","","","","","","","","","","","","","","","","","","",""
"436","<p style=""color:rgb(150, 250, 100); font-size: 35px;"">他人</p>","e","categorize-html","149","318423","0.0-6.0-1.0-8.0-1.20","2","2","2","2","1","2","2","2","1","2","2","2","1","2","1","2","2","2","2","2","4","5","5","4","4","4","4","2","5","1","0","1","1","0","1","1","1","1","1","1","0","1","0","1","2","5","4","2","4","2","3","4","4","2","2","682883457575026688","徐","83","","","","","","","","","","","","","","","","","","","true","14","4","moral","436","other","他人","","","","","","","","","","","","","","","","",""
"null","","null","html-keyboard-response","150","318674","0.0-6.0-1.0-8.0-0.21","2","2","2","2","1","2","2","2","1","2","2","2","1","2","1","2","2","2","2","2","4","5","5","4","4","4","4","2","5","1","0","1","1","0","1","1","1","1","1","1","0","1","0","1","2","5","4","2","4","2","3","4","4","2","2","682883457575026688","徐","83","","","","","","","","","","","","","","","","","","","","","","","","","","","","","","","","","","","","","","","","","",""
"469","<p style=""color:white; font-size: 35px;"">不仁</p>","e","categorize-html","151","319145","0.0-6.0-1.0-8.0-1.21","2","2","2","2","1","2","2","2","1","2","2","2","1","2","1","2","2","2","2","2","4","5","5","4","4","4","4","2","5","1","0","1","1","0","1","1","1","1","1","1","0","1","0","1","2","5","4","2","4","2","3","4","4","2","2","682883457575026688","徐","83","","","","","","","","","","","","","","","","","","","true","14","4","moral","469","negative","不仁","","","","","","","","","","","","","","","","",""
"null","","null","html-keyboard-response","152","319396","0.0-6.0-1.0-8.0-0.22","2","2","2","2","1","2","2","2","1","2","2","2","1","2","1","2","2","2","2","2","4","5","5","4","4","4","4","2","5","1","0","1","1","0","1","1","1","1","1","1","0","1","0","1","2","5","4","2","4","2","3","4","4","2","2","682883457575026688","徐","83","","","","","","","","","","","","","","","","","","","","","","","","","","","","","","","","","","","","","","","","","",""
"539","<p style=""color:rgb(150, 250, 100); font-size: 35px;"">自己</p>","i","categorize-html","153","319940","0.0-6.0-1.0-8.0-1.22","2","2","2","2","1","2","2","2","1","2","2","2","1","2","1","2","2","2","2","2","4","5","5","4","4","4","4","2","5","1","0","1","1","0","1","1","1","1","1","1","0","1","0","1","2","5","4","2","4","2","3","4","4","2","2","682883457575026688","徐","83","","","","","","","","","","","","","","","","","","","true","14","4","moral","539","self","自己","","","","","","","","","","","","","","","","",""
"null","","null","html-keyboard-response","154","320191","0.0-6.0-1.0-8.0-0.23","2","2","2","2","1","2","2","2","1","2","2","2","1","2","1","2","2","2","2","2","4","5","5","4","4","4","4","2","5","1","0","1","1","0","1","1","1","1","1","1","0","1","0","1","2","5","4","2","4","2","3","4","4","2","2","682883457575026688","徐","83","","","","","","","","","","","","","","","","","","","","","","","","","","","","","","","","","","","","","","","","","",""
"549","<p style=""color:white; font-size: 35px;"">诚信</p>","i","categorize-html","155","320742","0.0-6.0-1.0-8.0-1.23","2","2","2","2","1","2","2","2","1","2","2","2","1","2","1","2","2","2","2","2","4","5","5","4","4","4","4","2","5","1","0","1","1","0","1","1","1","1","1","1","0","1","0","1","2","5","4","2","4","2","3","4","4","2","2","682883457575026688","徐","83","","","","","","","","","","","","","","","","","","","true","14","4","moral","549","positive","诚信","","","","","","","","","","","","","","","","",""
"null","","null","html-keyboard-response","156","320994","0.0-6.0-1.0-8.0-0.24","2","2","2","2","1","2","2","2","1","2","2","2","1","2","1","2","2","2","2","2","4","5","5","4","4","4","4","2","5","1","0","1","1","0","1","1","1","1","1","1","0","1","0","1","2","5","4","2","4","2","3","4","4","2","2","682883457575026688","徐","83","","","","","","","","","","","","","","","","","","","","","","","","","","","","","","","","","","","","","","","","","",""
"1047","<p style=""color:rgb(150, 250, 100); font-size: 35px;"">别人</p>","e","categorize-html","157","322041","0.0-6.0-1.0-8.0-1.24","2","2","2","2","1","2","2","2","1","2","2","2","1","2","1","2","2","2","2","2","4","5","5","4","4","4","4","2","5","1","0","1","1","0","1","1","1","1","1","1","0","1","0","1","2","5","4","2","4","2","3","4","4","2","2","682883457575026688","徐","83","","","","","","","","","","","","","","","","","","","true","14","4","moral","1047","other","别人","","","","","","","","","","","","","","","","",""
"null","","null","html-keyboard-response","158","322293","0.0-6.0-1.0-8.0-0.25","2","2","2","2","1","2","2","2","1","2","2","2","1","2","1","2","2","2","2","2","4","5","5","4","4","4","4","2","5","1","0","1","1","0","1","1","1","1","1","1","0","1","0","1","2","5","4","2","4","2","3","4","4","2","2","682883457575026688","徐","83","","","","","","","","","","","","","","","","","","","","","","","","","","","","","","","","","","","","","","","","","",""
"683","<p style=""color:white; font-size: 35px;"">不孝</p>","e","categorize-html","159","322979","0.0-6.0-1.0-8.0-1.25","2","2","2","2","1","2","2","2","1","2","2","2","1","2","1","2","2","2","2","2","4","5","5","4","4","4","4","2","5","1","0","1","1","0","1","1","1","1","1","1","0","1","0","1","2","5","4","2","4","2","3","4","4","2","2","682883457575026688","徐","83","","","","","","","","","","","","","","","","","","","true","14","4","moral","683","negative","不孝","","","","","","","","","","","","","","","","",""
"null","","null","html-keyboard-response","160","323231","0.0-6.0-1.0-8.0-0.26","2","2","2","2","1","2","2","2","1","2","2","2","1","2","1","2","2","2","2","2","4","5","5","4","4","4","4","2","5","1","0","1","1","0","1","1","1","1","1","1","0","1","0","1","2","5","4","2","4","2","3","4","4","2","2","682883457575026688","徐","83","","","","","","","","","","","","","","","","","","","","","","","","","","","","","","","","","","","","","","","","","",""
"558","<p style=""color:rgb(150, 250, 100); font-size: 35px;"">本人的</p>","i","categorize-html","161","323793","0.0-6.0-1.0-8.0-1.26","2","2","2","2","1","2","2","2","1","2","2","2","1","2","1","2","2","2","2","2","4","5","5","4","4","4","4","2","5","1","0","1","1","0","1","1","1","1","1","1","0","1","0","1","2","5","4","2","4","2","3","4","4","2","2","682883457575026688","徐","83","","","","","","","","","","","","","","","","","","","true","14","4","moral","558","self","本人的","","","","","","","","","","","","","","","","",""
"null","","null","html-keyboard-response","162","324044","0.0-6.0-1.0-8.0-0.27","2","2","2","2","1","2","2","2","1","2","2","2","1","2","1","2","2","2","2","2","4","5","5","4","4","4","4","2","5","1","0","1","1","0","1","1","1","1","1","1","0","1","0","1","2","5","4","2","4","2","3","4","4","2","2","682883457575026688","徐","83","","","","","","","","","","","","","","","","","","","","","","","","","","","","","","","","","","","","","","","","","",""
"559","<p style=""color:white; font-size: 35px;"">廉正</p>","i","categorize-html","163","324609","0.0-6.0-1.0-8.0-1.27","2","2","2","2","1","2","2","2","1","2","2","2","1","2","1","2","2","2","2","2","4","5","5","4","4","4","4","2","5","1","0","1","1","0","1","1","1","1","1","1","0","1","0","1","2","5","4","2","4","2","3","4","4","2","2","682883457575026688","徐","83","","","","","","","","","","","","","","","","","","","true","14","4","moral","559","positive","廉正","","","","","","","","","","","","","","","","",""
"null","","null","html-keyboard-response","164","324860","0.0-6.0-1.0-8.0-0.28","2","2","2","2","1","2","2","2","1","2","2","2","1","2","1","2","2","2","2","2","4","5","5","4","4","4","4","2","5","1","0","1","1","0","1","1","1","1","1","1","0","1","0","1","2","5","4","2","4","2","3","4","4","2","2","682883457575026688","徐","83","","","","","","","","","","","","","","","","","","","","","","","","","","","","","","","","","","","","","","","","","",""
"585","<p style=""color:rgb(150, 250, 100); font-size: 35px;"">我</p>","i","categorize-html","165","325447","0.0-6.0-1.0-8.0-1.28","2","2","2","2","1","2","2","2","1","2","2","2","1","2","1","2","2","2","2","2","4","5","5","4","4","4","4","2","5","1","0","1","1","0","1","1","1","1","1","1","0","1","0","1","2","5","4","2","4","2","3","4","4","2","2","682883457575026688","徐","83","","","","","","","","","","","","","","","","","","","true","14","4","moral","585","self","我","","","","","","","","","","","","","","","","",""
"null","","null","html-keyboard-response","166","325698","0.0-6.0-1.0-8.0-0.29","2","2","2","2","1","2","2","2","1","2","2","2","1","2","1","2","2","2","2","2","4","5","5","4","4","4","4","2","5","1","0","1","1","0","1","1","1","1","1","1","0","1","0","1","2","5","4","2","4","2","3","4","4","2","2","682883457575026688","徐","83","","","","","","","","","","","","","","","","","","","","","","","","","","","","","","","","","","","","","","","","","",""
"863","<p style=""color:white; font-size: 35px;"">正直</p>","i","categorize-html","167","326564","0.0-6.0-1.0-8.0-1.29","2","2","2","2","1","2","2","2","1","2","2","2","1","2","1","2","2","2","2","2","4","5","5","4","4","4","4","2","5","1","0","1","1","0","1","1","1","1","1","1","0","1","0","1","2","5","4","2","4","2","3","4","4","2","2","682883457575026688","徐","83","","","","","","","","","","","","","","","","","","","true","14","4","moral","863","positive","正直","","","","","","","","","","","","","","","","",""
"null","","null","html-keyboard-response","168","326815","0.0-6.0-1.0-8.0-0.30","2","2","2","2","1","2","2","2","1","2","2","2","1","2","1","2","2","2","2","2","4","5","5","4","4","4","4","2","5","1","0","1","1","0","1","1","1","1","1","1","0","1","0","1","2","5","4","2","4","2","3","4","4","2","2","682883457575026688","徐","83","","","","","","","","","","","","","","","","","","","","","","","","","","","","","","","","","","","","","","","","","",""
"803","<p style=""color:rgb(150, 250, 100); font-size: 35px;"">他人的</p>","e","categorize-html","169","327619","0.0-6.0-1.0-8.0-1.30","2","2","2","2","1","2","2","2","1","2","2","2","1","2","1","2","2","2","2","2","4","5","5","4","4","4","4","2","5","1","0","1","1","0","1","1","1","1","1","1","0","1","0","1","2","5","4","2","4","2","3","4","4","2","2","682883457575026688","徐","83","","","","","","","","","","","","","","","","","","","true","14","4","moral","803","other","他人的","","","","","","","","","","","","","","","","",""
"null","","null","html-keyboard-response","170","327871","0.0-6.0-1.0-8.0-0.31","2","2","2","2","1","2","2","2","1","2","2","2","1","2","1","2","2","2","2","2","4","5","5","4","4","4","4","2","5","1","0","1","1","0","1","1","1","1","1","1","0","1","0","1","2","5","4","2","4","2","3","4","4","2","2","682883457575026688","徐","83","","","","","","","","","","","","","","","","","","","","","","","","","","","","","","","","","","","","","","","","","",""
"687","<p style=""color:white; font-size: 35px;"">不仁</p>","e","categorize-html","171","328560","0.0-6.0-1.0-8.0-1.31","2","2","2","2","1","2","2","2","1","2","2","2","1","2","1","2","2","2","2","2","4","5","5","4","4","4","4","2","5","1","0","1","1","0","1","1","1","1","1","1","0","1","0","1","2","5","4","2","4","2","3","4","4","2","2","682883457575026688","徐","83","","","","","","","","","","","","","","","","","","","true","14","4","moral","687","negative","不仁","","","","","","","","","","","","","","","","",""
"null","","null","html-keyboard-response","172","328811","0.0-6.0-1.0-8.0-0.32","2","2","2","2","1","2","2","2","1","2","2","2","1","2","1","2","2","2","2","2","4","5","5","4","4","4","4","2","5","1","0","1","1","0","1","1","1","1","1","1","0","1","0","1","2","5","4","2","4","2","3","4","4","2","2","682883457575026688","徐","83","","","","","","","","","","","","","","","","","","","","","","","","","","","","","","","","","","","","","","","","","",""
"484","<p style=""color:rgb(150, 250, 100); font-size: 35px;"">他人的</p>","e","categorize-html","173","329297","0.0-6.0-1.0-8.0-1.32","2","2","2","2","1","2","2","2","1","2","2","2","1","2","1","2","2","2","2","2","4","5","5","4","4","4","4","2","5","1","0","1","1","0","1","1","1","1","1","1","0","1","0","1","2","5","4","2","4","2","3","4","4","2","2","682883457575026688","徐","83","","","","","","","","","","","","","","","","","","","true","14","4","moral","484","other","他人的","","","","","","","","","","","","","","","","",""
"null","","null","html-keyboard-response","174","329548","0.0-6.0-1.0-8.0-0.33","2","2","2","2","1","2","2","2","1","2","2","2","1","2","1","2","2","2","2","2","4","5","5","4","4","4","4","2","5","1","0","1","1","0","1","1","1","1","1","1","0","1","0","1","2","5","4","2","4","2","3","4","4","2","2","682883457575026688","徐","83","","","","","","","","","","","","","","","","","","","","","","","","","","","","","","","","","","","","","","","","","",""
"521","<p style=""color:white; font-size: 35px;"">黑心</p>","e","categorize-html","175","330071","0.0-6.0-1.0-8.0-1.33","2","2","2","2","1","2","2","2","1","2","2","2","1","2","1","2","2","2","2","2","4","5","5","4","4","4","4","2","5","1","0","1","1","0","1","1","1","1","1","1","0","1","0","1","2","5","4","2","4","2","3","4","4","2","2","682883457575026688","徐","83","","","","","","","","","","","","","","","","","","","true","14","4","moral","521","negative","黑心","","","","","","","","","","","","","","","","",""
"null","","null","html-keyboard-response","176","330323","0.0-6.0-1.0-8.0-0.34","2","2","2","2","1","2","2","2","1","2","2","2","1","2","1","2","2","2","2","2","4","5","5","4","4","4","4","2","5","1","0","1","1","0","1","1","1","1","1","1","0","1","0","1","2","5","4","2","4","2","3","4","4","2","2","682883457575026688","徐","83","","","","","","","","","","","","","","","","","","","","","","","","","","","","","","","","","","","","","","","","","",""
"542","<p style=""color:rgb(150, 250, 100); font-size: 35px;"">本人</p>","i","categorize-html","177","330869","0.0-6.0-1.0-8.0-1.34","2","2","2","2","1","2","2","2","1","2","2","2","1","2","1","2","2","2","2","2","4","5","5","4","4","4","4","2","5","1","0","1","1","0","1","1","1","1","1","1","0","1","0","1","2","5","4","2","4","2","3","4","4","2","2","682883457575026688","徐","83","","","","","","","","","","","","","","","","","","","true","14","4","moral","542","self","本人","","","","","","","","","","","","","","","","",""
"null","","null","html-keyboard-response","178","331121","0.0-6.0-1.0-8.0-0.35","2","2","2","2","1","2","2","2","1","2","2","2","1","2","1","2","2","2","2","2","4","5","5","4","4","4","4","2","5","1","0","1","1","0","1","1","1","1","1","1","0","1","0","1","2","5","4","2","4","2","3","4","4","2","2","682883457575026688","徐","83","","","","","","","","","","","","","","","","","","","","","","","","","","","","","","","","","","","","","","","","","",""
"645","<p style=""color:white; font-size: 35px;"">廉正</p>","e","categorize-html","179","332208","0.0-6.0-1.0-8.0-1.35","2","2","2","2","1","2","2","2","1","2","2","2","1","2","1","2","2","2","2","2","4","5","5","4","4","4","4","2","5","1","0","1","1","0","1","1","1","1","1","1","0","1","0","1","2","5","4","2","4","2","3","4","4","2","2","682883457575026688","徐","83","","","","","","","","","","","","","","","","","","","false","14","4","moral","1205.409090909091","positive","廉正","","","","","","","","","","","","","","","","",""
"null","","null","html-keyboard-response","180","332460","0.0-6.0-1.0-8.0-0.36","2","2","2","2","1","2","2","2","1","2","2","2","1","2","1","2","2","2","2","2","4","5","5","4","4","4","4","2","5","1","0","1","1","0","1","1","1","1","1","1","0","1","0","1","2","5","4","2","4","2","3","4","4","2","2","682883457575026688","徐","83","","","","","","","","","","","","","","","","","","","","","","","","","","","","","","","","","","","","","","","","","",""
"526","<p style=""color:rgb(150, 250, 100); font-size: 35px;"">自己的</p>","i","categorize-html","181","332989","0.0-6.0-1.0-8.0-1.36","2","2","2","2","1","2","2","2","1","2","2","2","1","2","1","2","2","2","2","2","4","5","5","4","4","4","4","2","5","1","0","1","1","0","1","1","1","1","1","1","0","1","0","1","2","5","4","2","4","2","3","4","4","2","2","682883457575026688","徐","83","","","","","","","","","","","","","","","","","","","true","14","4","moral","526","self","自己的","","","","","","","","","","","","","","","","",""
"null","","null","html-keyboard-response","182","333241","0.0-6.0-1.0-8.0-0.37","2","2","2","2","1","2","2","2","1","2","2","2","1","2","1","2","2","2","2","2","4","5","5","4","4","4","4","2","5","1","0","1","1","0","1","1","1","1","1","1","0","1","0","1","2","5","4","2","4","2","3","4","4","2","2","682883457575026688","徐","83","","","","","","","","","","","","","","","","","","","","","","","","","","","","","","","","","","","","","","","","","",""
"498","<p style=""color:white; font-size: 35px;"">君子</p>","i","categorize-html","183","333740","0.0-6.0-1.0-8.0-1.37","2","2","2","2","1","2","2","2","1","2","2","2","1","2","1","2","2","2","2","2","4","5","5","4","4","4","4","2","5","1","0","1","1","0","1","1","1","1","1","1","0","1","0","1","2","5","4","2","4","2","3","4","4","2","2","682883457575026688","徐","83","","","","","","","","","","","","","","","","","","","true","14","4","moral","498","positive","君子","","","","","","","","","","","","","","","","",""
"null","","null","html-keyboard-response","184","333992","0.0-6.0-1.0-8.0-0.38","2","2","2","2","1","2","2","2","1","2","2","2","1","2","1","2","2","2","2","2","4","5","5","4","4","4","4","2","5","1","0","1","1","0","1","1","1","1","1","1","0","1","0","1","2","5","4","2","4","2","3","4","4","2","2","682883457575026688","徐","83","","","","","","","","","","","","","","","","","","","","","","","","","","","","","","","","","","","","","","","","","",""
"577","<p style=""color:rgb(150, 250, 100); font-size: 35px;"">别人的</p>","e","categorize-html","185","334573","0.0-6.0-1.0-8.0-1.38","2","2","2","2","1","2","2","2","1","2","2","2","1","2","1","2","2","2","2","2","4","5","5","4","4","4","4","2","5","1","0","1","1","0","1","1","1","1","1","1","0","1","0","1","2","5","4","2","4","2","3","4","4","2","2","682883457575026688","徐","83","","","","","","","","","","","","","","","","","","","true","14","4","moral","577","other","别人的","","","","","","","","","","","","","","","","",""
"null","","null","html-keyboard-response","186","334824","0.0-6.0-1.0-8.0-0.39","2","2","2","2","1","2","2","2","1","2","2","2","1","2","1","2","2","2","2","2","4","5","5","4","4","4","4","2","5","1","0","1","1","0","1","1","1","1","1","1","0","1","0","1","2","5","4","2","4","2","3","4","4","2","2","682883457575026688","徐","83","","","","","","","","","","","","","","","","","","","","","","","","","","","","","","","","","","","","","","","","","",""
"473","<p style=""color:white; font-size: 35px;"">小人</p>","i","categorize-html","187","335725","0.0-6.0-1.0-8.0-1.39","2","2","2","2","1","2","2","2","1","2","2","2","1","2","1","2","2","2","2","2","4","5","5","4","4","4","4","2","5","1","0","1","1","0","1","1","1","1","1","1","0","1","0","1","2","5","4","2","4","2","3","4","4","2","2","682883457575026688","徐","83","","","","","","","","","","","","","","","","","","","false","14","4","moral","1205.409090909091","negative","小人","","","","","","","","","","","","","","","","",""
"null","","null","html-keyboard-response","188","335976","0.0-6.0-1.0-8.0-0.40","2","2","2","2","1","2","2","2","1","2","2","2","1","2","1","2","2","2","2","2","4","5","5","4","4","4","4","2","5","1","0","1","1","0","1","1","1","1","1","1","0","1","0","1","2","5","4","2","4","2","3","4","4","2","2","682883457575026688","徐","83","","","","","","","","","","","","","","","","","","","","","","","","","","","","","","","","","","","","","","","","","",""
"565","<p style=""color:rgb(150, 250, 100); font-size: 35px;"">他的</p>","e","categorize-html","189","336546","0.0-6.0-1.0-8.0-1.40","2","2","2","2","1","2","2","2","1","2","2","2","1","2","1","2","2","2","2","2","4","5","5","4","4","4","4","2","5","1","0","1","1","0","1","1","1","1","1","1","0","1","0","1","2","5","4","2","4","2","3","4","4","2","2","682883457575026688","徐","83","","","","","","","","","","","","","","","","","","","true","14","4","moral","565","other","他的","","","","","","","","","","","","","","","","",""
"null","","null","html-keyboard-response","190","336797","0.0-6.0-1.0-8.0-0.41","2","2","2","2","1","2","2","2","1","2","2","2","1","2","1","2","2","2","2","2","4","5","5","4","4","4","4","2","5","1","0","1","1","0","1","1","1","1","1","1","0","1","0","1","2","5","4","2","4","2","3","4","4","2","2","682883457575026688","徐","83","","","","","","","","","","","","","","","","","","","","","","","","","","","","","","","","","","","","","","","","","",""
"521","<p style=""color:white; font-size: 35px;"">诚信</p>","i","categorize-html","191","337324","0.0-6.0-1.0-8.0-1.41","2","2","2","2","1","2","2","2","1","2","2","2","1","2","1","2","2","2","2","2","4","5","5","4","4","4","4","2","5","1","0","1","1","0","1","1","1","1","1","1","0","1","0","1","2","5","4","2","4","2","3","4","4","2","2","682883457575026688","徐","83","","","","","","","","","","","","","","","","","","","true","14","4","moral","521","positive","诚信","","","","","","","","","","","","","","","","",""
"null","","null","html-keyboard-response","192","337576","0.0-6.0-1.0-8.0-0.42","2","2","2","2","1","2","2","2","1","2","2","2","1","2","1","2","2","2","2","2","4","5","5","4","4","4","4","2","5","1","0","1","1","0","1","1","1","1","1","1","0","1","0","1","2","5","4","2","4","2","3","4","4","2","2","682883457575026688","徐","83","","","","","","","","","","","","","","","","","","","","","","","","","","","","","","","","","","","","","","","","","",""
"570","<p style=""color:rgb(150, 250, 100); font-size: 35px;"">自己</p>","i","categorize-html","193","338149","0.0-6.0-1.0-8.0-1.42","2","2","2","2","1","2","2","2","1","2","2","2","1","2","1","2","2","2","2","2","4","5","5","4","4","4","4","2","5","1","0","1","1","0","1","1","1","1","1","1","0","1","0","1","2","5","4","2","4","2","3","4","4","2","2","682883457575026688","徐","83","","","","","","","","","","","","","","","","","","","true","14","4","moral","570","self","自己","","","","","","","","","","","","","","","","",""
