"rt","stimulus","response","trial_type","trial_index","time_elapsed","internal_node_id","ses_1","ses_2","ses_3","ses_4","ses_5","ses_6","ses_7","ses_8","ses_9","ses_10","coreself_1","coreself_2","coreself_3","coreself_4","coreself_5","coreself_6","coreself_7","coreself_8","coreself_9","coreself_10","SGPS_1","SGPS_2","SGPS_3","SGPS_4","SGPS_5","SGPS_6","SGPS_7","SGPS_8","SGPS_9","NPI1","NPI2","NPI3","NPI4","NPI5","NPI6","NPI7","NPI8","NPI9","NPI10","NPI11","NPI12","NPI13","NPI14","NPI15","hsns_1","hsns_2","hsns_3","hsns_4","hsns_5","trap1","hsns_6","hsns_7","hsns_8","hsns_9","hsns_10","subj_idx","friend_name","ParticipantID","value","success","user_agent","responses","item_order","radio_event_ids","radio_event_times","key_event_times","mouse_event_times","straightlining","zigzagging","honeypot","timeout","failed_images","failed_audio","failed_video","version_attrib","version_target","correct","IAT","screen_id","task_id","RT","condition","word","varname","summary","version_attrib2","version_target2","time_stamp","view_history","response_type","key_press","avg_frame_time","center_x","center_y","correct_response","identity","Image","question_order","correct_answer","trap1_item"
"30654","
   <p><div style = ""color: white;font-size:25px;"">您好，欢迎参加本次实验。</div> </p>
   <p><div style = ""color: white;font-size:25px;"">为充分保障您的权利，请确保您已经知晓并同意《参与实验同意书》以及《数据公开知情同意书》。</div></p>
   <p><div style = ""color: white;font-size:25px;"">如果您未见过上述内容，请咨询实验员。</div></p>
   <p><div style = ""color: white;font-size:25px;"">如果您选择继续实验，则表示您已经清楚两份知情同意书的内容并同意。</div></p>
   <p><div style = ""color: pink;font-size:30px;"">请确保您记得day0的实验编号，您将在本次实验输入该编号，若您忘记，请咨询实验员后作答。</div></p>
   <p><div style = ""color: lightblue;font-size:25px;"">请您尽可能认真地作答，我们将依据您在各问卷和按键任务中的作答质量发放报酬。</div></p>
   <p> <div style = ""color: green;font-size:25px;""><按空格键至下页></div> </p>
   "," ","html-keyboard-response","0","30658","0.0-0.0","4","4","4","4","4","4","4","4","4","4","4","4","4","4","3","5","4","4","5","4","4","4","4","3","4","4","4","4","4","1","1","0","0","0","1","1","1","0","0","1","0","1","0","1","5","4","4","2","5","1","3","4","4","2","2","701209824037175296","潘","159","","","","","","","","","","","","","","","","","","","","","","","","","","","","","","","","","","","","","","","","","",""
"","","","call-function","1","30662","0.0-1.0-0.0","4","4","4","4","4","4","4","4","4","4","4","4","4","4","3","5","4","4","5","4","4","4","4","3","4","4","4","4","4","1","1","0","0","0","1","1","1","0","0","1","0","1","0","1","5","4","4","2","5","1","3","4","4","2","2","701209824037175296","潘","159","","","","","","","","","","","","","","","","","","","","","","","","","","","","","","","","","","","","","","","","","",""
"40054","","{""friend_name"":""潘"",""ParticipantID"":""159""}","survey-html-form","2","70721","0.0-1.0-1.0","4","4","4","4","4","4","4","4","4","4","4","4","4","4","3","5","4","4","5","4","4","4","4","3","4","4","4","4","4","1","1","0","0","0","1","1","1","0","0","1","0","1","0","1","5","4","4","2","5","1","3","4","4","2","2","701209824037175296","潘","159","","","","","","","","","","","","","","","","","","","","","","","","","","","","","","","","","","","","","","","","","",""
"","","","fullscreen","3","94839","0.0-2.0","4","4","4","4","4","4","4","4","4","4","4","4","4","4","3","5","4","4","5","4","4","4","4","3","4","4","4","4","4","1","1","0","0","0","1","1","1","0","0","1","0","1","0","1","5","4","4","2","5","1","3","4","4","2","2","701209824037175296","潘","159","","true","{}","","","","","","","","","","","","","","","","","","","","","","","","","","","","","","","","","","","","","","",""
"29858.70000000007","","{""Q01"":""4"",""Q02"":""4"",""Q03"":""4"",""Q04"":""4"",""Q05"":""4"",""Q06"":""4"",""Q07"":""4"",""Q08"":""4"",""Q09"":""4"",""Q10"":""4""}","survey-template","4","124703","0.0-3.0","4","4","4","4","4","4","4","4","4","4","4","4","4","4","3","5","4","4","5","4","4","4","4","3","4","4","4","4","4","1","1","0","0","0","1","1","1","0","0","1","0","1","0","1","5","4","4","2","5","1","3","4","4","2","2","701209824037175296","潘","159","","","","{""Q01"":""4"",""Q02"":""4"",""Q03"":""4"",""Q04"":""4"",""Q05"":""4"",""Q06"":""4"",""Q07"":""4"",""Q08"":""4"",""Q09"":""4"",""Q10"":""4""}","[0,1,2,3,4,5,6,7,8,9]","[""Q01"",""Q02"",""Q03"",""Q04"",""Q05"",""Q06"",""Q07"",""Q08"",""Q09"",""Q10""]","[3657.70000000007,5178.300000000047,6233.100000000093,7657.100000000093,9330.400000000023,10657.300000000047,12217.100000000093,14456.900000000023,15297.70000000007,16161.100000000093]","[]","[3657.70000000007,5178.300000000047,6233.100000000093,7657.100000000093,9330.400000000023,10657.300000000047,12217.100000000093,14456.900000000023,15297.70000000007,16161.100000000093,29857]","0.5","0.5555555555555556","0","","","","","","","","","","","","","","","","","","","","","","","","","","","","","",""
"28497","","{""Q01"":""4"",""Q02"":""4"",""Q03"":""4"",""Q04"":""4"",""Q05"":""3"",""Q06"":""5"",""Q07"":""4"",""Q08"":""4"",""Q09"":""5"",""Q10"":""4""}","survey-template","5","153209","0.0-4.0","4","4","4","4","4","4","4","4","4","4","4","4","4","4","3","5","4","4","5","4","4","4","4","3","4","4","4","4","4","1","1","0","0","0","1","1","1","0","0","1","0","1","0","1","5","4","4","2","5","1","3","4","4","2","2","701209824037175296","潘","159","","","","{""Q01"":""4"",""Q02"":""4"",""Q03"":""4"",""Q04"":""4"",""Q05"":""3"",""Q06"":""5"",""Q07"":""4"",""Q08"":""4"",""Q09"":""5"",""Q10"":""4""}","[0,1,2,3,4,5,6,7,8,9]","[""Q01"",""Q02"",""Q01"",""Q03"",""Q04"",""Q05"",""Q06"",""Q07"",""Q08"",""Q09"",""Q09"",""Q10""]","[11870.100000000093,12950,13990.5,15302.400000000023,16966.800000000047,18030.5,19697,21190,22381.900000000023,23597.900000000023,25390.600000000093,27390.5]","[]","[9918.400000000023,11870.100000000093,12950,13990.5,15302.400000000023,16966.800000000047,18030.5,19697,21190,22381.900000000023,23597.900000000023,25390.600000000093,26270.100000000093,27390.5,28494.400000000023]","0.5","0.1111111111111111","0","","","","","","","","","","","","","","","","","","","","","","","","","","","","","",""
"","","","preload","6","153580","0.0-5.0","4","4","4","4","4","4","4","4","4","4","4","4","4","4","3","5","4","4","5","4","4","4","4","3","4","4","4","4","4","1","1","0","0","0","1","1","1","0","0","1","0","1","0","1","5","4","4","2","5","1","3","4","4","2","2","701209824037175296","潘","159","","true","","","","","","","","","","","false","[]","[]","[]","","","","","","","","","","","","","","","","","","","","","","","","","",""
"20286","
    <h3>词语分类任务</h3>
    <p>在接下来的任务中，你需要对一系列词语进行分类。</p>
    <p>请先熟悉这些词语，这有利于你完成接下来的任务。</p>
    <table align=""center"" border=1 cellpadding=3 cellspacing=0>
    <tr> <th>类别</th> <th>词语</th> </tr>
    <tr> <td>&emsp;积极&emsp;</td> <td>&emsp;能干、全能、全才、高效、精干、天才&emsp;</td> </tr>
    <tr> <td>&emsp;消极&emsp;</td> <td>&emsp;无能、低能、废物、拙笨、愚钝、蠢笨&emsp;</td> </tr>
    <tr> <td>&emsp;自我&emsp;</td> <td>&emsp;我、我的、自己、自己的、本人、本人的&emsp;</td> </tr>
    <tr> <td>&emsp;他人&emsp;</td> <td>&emsp;他、他的、别人、别人的、他人、他人的&emsp;</td> </tr>
    </table><br/>","0","html-button-response","7","173871","0.0-6.0-0.0-0.0","4","4","4","4","4","4","4","4","4","4","4","4","4","4","3","5","4","4","5","4","4","4","4","3","4","4","4","4","4","1","1","0","0","0","1","1","1","0","0","1","0","1","0","1","5","4","4","2","5","1","3","4","4","2","2","701209824037175296","潘","159","","","","","","","","","","","","","","","","","1","1","","","","","","","","","","","","","","","","","","","","","","","",""
"57599","
    <div class=""tag-bottom"">
    <p> —— 任务1：对“自我”词和“他人”词分类 ——<p/>
    不同词语会出现在屏幕中央，类别标签将始终显示在屏幕上方<p/>   
    <span style=""color:#FFD866""><b>请根据上方标签的提示，尽可能正确并且快速地做出按键反应</b></span><p/>
    当按键错误时屏幕中会出现<span style=""color:red""> X </span>，需要按另一个键纠正才能继续<br/><p/>
    请把双手食指分别放在键盘的“E”键和“I”键上<p/>
    按<空格键>开始
    </p></div>"," ","html-keyboard-response","8","231479","0.0-6.0-0.0-1.0","4","4","4","4","4","4","4","4","4","4","4","4","4","4","3","5","4","4","5","4","4","4","4","3","4","4","4","4","4","1","1","0","0","0","1","1","1","0","0","1","0","1","0","1","5","4","4","2","5","1","3","4","4","2","2","701209824037175296","潘","159","","","","","","","","","","","","","","","","","","","","","","","","","","","","","","","","","","","","","","","","","",""
"null","","null","html-keyboard-response","9","231733","0.0-6.0-0.0-2.0-0.0","4","4","4","4","4","4","4","4","4","4","4","4","4","4","3","5","4","4","5","4","4","4","4","3","4","4","4","4","4","1","1","0","0","0","1","1","1","0","0","1","0","1","0","1","5","4","4","2","5","1","3","4","4","2","2","701209824037175296","潘","159","","","","","","","","","","","","","","","","","","","","","","","","","","","","","","","","","","","","","","","","","",""
"1160","<p style=""color:rgb(150, 250, 100); font-size: 35px;"">别人的</p>","i","categorize-html","10","232907","0.0-6.0-0.0-2.0-1.0","4","4","4","4","4","4","4","4","4","4","4","4","4","4","3","5","4","4","5","4","4","4","4","3","4","4","4","4","4","1","1","0","0","0","1","1","1","0","0","1","0","1","0","1","5","4","4","2","5","1","3","4","4","2","2","701209824037175296","潘","159","","","","","","","","","","","","","","","","","","","true","1","1","ability","1160","other","别人的","","","","","","","","","","","","","","","","",""
"null","","null","html-keyboard-response","11","233160","0.0-6.0-0.0-2.0-0.1","4","4","4","4","4","4","4","4","4","4","4","4","4","4","3","5","4","4","5","4","4","4","4","3","4","4","4","4","4","1","1","0","0","0","1","1","1","0","0","1","0","1","0","1","5","4","4","2","5","1","3","4","4","2","2","701209824037175296","潘","159","","","","","","","","","","","","","","","","","","","","","","","","","","","","","","","","","","","","","","","","","",""
"689","<p style=""color:rgb(150, 250, 100); font-size: 35px;"">他人的</p>","i","categorize-html","12","233856","0.0-6.0-0.0-2.0-1.1","4","4","4","4","4","4","4","4","4","4","4","4","4","4","3","5","4","4","5","4","4","4","4","3","4","4","4","4","4","1","1","0","0","0","1","1","1","0","0","1","0","1","0","1","5","4","4","2","5","1","3","4","4","2","2","701209824037175296","潘","159","","","","","","","","","","","","","","","","","","","true","1","1","ability","689","other","他人的","","","","","","","","","","","","","","","","",""
"null","","null","html-keyboard-response","13","234109","0.0-6.0-0.0-2.0-0.2","4","4","4","4","4","4","4","4","4","4","4","4","4","4","3","5","4","4","5","4","4","4","4","3","4","4","4","4","4","1","1","0","0","0","1","1","1","0","0","1","0","1","0","1","5","4","4","2","5","1","3","4","4","2","2","701209824037175296","潘","159","","","","","","","","","","","","","","","","","","","","","","","","","","","","","","","","","","","","","","","","","",""
"549","<p style=""color:rgb(150, 250, 100); font-size: 35px;"">他的</p>","i","categorize-html","14","234665","0.0-6.0-0.0-2.0-1.2","4","4","4","4","4","4","4","4","4","4","4","4","4","4","3","5","4","4","5","4","4","4","4","3","4","4","4","4","4","1","1","0","0","0","1","1","1","0","0","1","0","1","0","1","5","4","4","2","5","1","3","4","4","2","2","701209824037175296","潘","159","","","","","","","","","","","","","","","","","","","true","1","1","ability","549","other","他的","","","","","","","","","","","","","","","","",""
"null","","null","html-keyboard-response","15","234918","0.0-6.0-0.0-2.0-0.3","4","4","4","4","4","4","4","4","4","4","4","4","4","4","3","5","4","4","5","4","4","4","4","3","4","4","4","4","4","1","1","0","0","0","1","1","1","0","0","1","0","1","0","1","5","4","4","2","5","1","3","4","4","2","2","701209824037175296","潘","159","","","","","","","","","","","","","","","","","","","","","","","","","","","","","","","","","","","","","","","","","",""
"546","<p style=""color:rgb(150, 250, 100); font-size: 35px;"">本人</p>","e","categorize-html","16","235473","0.0-6.0-0.0-2.0-1.3","4","4","4","4","4","4","4","4","4","4","4","4","4","4","3","5","4","4","5","4","4","4","4","3","4","4","4","4","4","1","1","0","0","0","1","1","1","0","0","1","0","1","0","1","5","4","4","2","5","1","3","4","4","2","2","701209824037175296","潘","159","","","","","","","","","","","","","","","","","","","true","1","1","ability","546","self","本人","","","","","","","","","","","","","","","","",""
"null","","null","html-keyboard-response","17","235726","0.0-6.0-0.0-2.0-0.4","4","4","4","4","4","4","4","4","4","4","4","4","4","4","3","5","4","4","5","4","4","4","4","3","4","4","4","4","4","1","1","0","0","0","1","1","1","0","0","1","0","1","0","1","5","4","4","2","5","1","3","4","4","2","2","701209824037175296","潘","159","","","","","","","","","","","","","","","","","","","","","","","","","","","","","","","","","","","","","","","","","",""
"493","<p style=""color:rgb(150, 250, 100); font-size: 35px;"">他人</p>","i","categorize-html","18","236227","0.0-6.0-0.0-2.0-1.4","4","4","4","4","4","4","4","4","4","4","4","4","4","4","3","5","4","4","5","4","4","4","4","3","4","4","4","4","4","1","1","0","0","0","1","1","1","0","0","1","0","1","0","1","5","4","4","2","5","1","3","4","4","2","2","701209824037175296","潘","159","","","","","","","","","","","","","","","","","","","true","1","1","ability","493","other","他人","","","","","","","","","","","","","","","","",""
"null","","null","html-keyboard-response","19","236479","0.0-6.0-0.0-2.0-0.5","4","4","4","4","4","4","4","4","4","4","4","4","4","4","3","5","4","4","5","4","4","4","4","3","4","4","4","4","4","1","1","0","0","0","1","1","1","0","0","1","0","1","0","1","5","4","4","2","5","1","3","4","4","2","2","701209824037175296","潘","159","","","","","","","","","","","","","","","","","","","","","","","","","","","","","","","","","","","","","","","","","",""
"460","<p style=""color:rgb(150, 250, 100); font-size: 35px;"">本人的</p>","e","categorize-html","20","236948","0.0-6.0-0.0-2.0-1.5","4","4","4","4","4","4","4","4","4","4","4","4","4","4","3","5","4","4","5","4","4","4","4","3","4","4","4","4","4","1","1","0","0","0","1","1","1","0","0","1","0","1","0","1","5","4","4","2","5","1","3","4","4","2","2","701209824037175296","潘","159","","","","","","","","","","","","","","","","","","","true","1","1","ability","460","self","本人的","","","","","","","","","","","","","","","","",""
"null","","null","html-keyboard-response","21","237200","0.0-6.0-0.0-2.0-0.6","4","4","4","4","4","4","4","4","4","4","4","4","4","4","3","5","4","4","5","4","4","4","4","3","4","4","4","4","4","1","1","0","0","0","1","1","1","0","0","1","0","1","0","1","5","4","4","2","5","1","3","4","4","2","2","701209824037175296","潘","159","","","","","","","","","","","","","","","","","","","","","","","","","","","","","","","","","","","","","","","","","",""
"414","<p style=""color:rgb(150, 250, 100); font-size: 35px;"">我的</p>","e","categorize-html","22","237622","0.0-6.0-0.0-2.0-1.6","4","4","4","4","4","4","4","4","4","4","4","4","4","4","3","5","4","4","5","4","4","4","4","3","4","4","4","4","4","1","1","0","0","0","1","1","1","0","0","1","0","1","0","1","5","4","4","2","5","1","3","4","4","2","2","701209824037175296","潘","159","","","","","","","","","","","","","","","","","","","true","1","1","ability","414","self","我的","","","","","","","","","","","","","","","","",""
"null","","null","html-keyboard-response","23","237874","0.0-6.0-0.0-2.0-0.7","4","4","4","4","4","4","4","4","4","4","4","4","4","4","3","5","4","4","5","4","4","4","4","3","4","4","4","4","4","1","1","0","0","0","1","1","1","0","0","1","0","1","0","1","5","4","4","2","5","1","3","4","4","2","2","701209824037175296","潘","159","","","","","","","","","","","","","","","","","","","","","","","","","","","","","","","","","","","","","","","","","",""
"452","<p style=""color:rgb(150, 250, 100); font-size: 35px;"">我</p>","e","categorize-html","24","238331","0.0-6.0-0.0-2.0-1.7","4","4","4","4","4","4","4","4","4","4","4","4","4","4","3","5","4","4","5","4","4","4","4","3","4","4","4","4","4","1","1","0","0","0","1","1","1","0","0","1","0","1","0","1","5","4","4","2","5","1","3","4","4","2","2","701209824037175296","潘","159","","","","","","","","","","","","","","","","","","","true","1","1","ability","452","self","我","","","","","","","","","","","","","","","","",""
"null","","null","html-keyboard-response","25","238583","0.0-6.0-0.0-2.0-0.8","4","4","4","4","4","4","4","4","4","4","4","4","4","4","3","5","4","4","5","4","4","4","4","3","4","4","4","4","4","1","1","0","0","0","1","1","1","0","0","1","0","1","0","1","5","4","4","2","5","1","3","4","4","2","2","701209824037175296","潘","159","","","","","","","","","","","","","","","","","","","","","","","","","","","","","","","","","","","","","","","","","",""
"560","<p style=""color:rgb(150, 250, 100); font-size: 35px;"">自己的</p>","e","categorize-html","26","239147","0.0-6.0-0.0-2.0-1.8","4","4","4","4","4","4","4","4","4","4","4","4","4","4","3","5","4","4","5","4","4","4","4","3","4","4","4","4","4","1","1","0","0","0","1","1","1","0","0","1","0","1","0","1","5","4","4","2","5","1","3","4","4","2","2","701209824037175296","潘","159","","","","","","","","","","","","","","","","","","","true","1","1","ability","560","self","自己的","","","","","","","","","","","","","","","","",""
"null","","null","html-keyboard-response","27","239399","0.0-6.0-0.0-2.0-0.9","4","4","4","4","4","4","4","4","4","4","4","4","4","4","3","5","4","4","5","4","4","4","4","3","4","4","4","4","4","1","1","0","0","0","1","1","1","0","0","1","0","1","0","1","5","4","4","2","5","1","3","4","4","2","2","701209824037175296","潘","159","","","","","","","","","","","","","","","","","","","","","","","","","","","","","","","","","","","","","","","","","",""
"432","<p style=""color:rgb(150, 250, 100); font-size: 35px;"">他</p>","i","categorize-html","28","239836","0.0-6.0-0.0-2.0-1.9","4","4","4","4","4","4","4","4","4","4","4","4","4","4","3","5","4","4","5","4","4","4","4","3","4","4","4","4","4","1","1","0","0","0","1","1","1","0","0","1","0","1","0","1","5","4","4","2","5","1","3","4","4","2","2","701209824037175296","潘","159","","","","","","","","","","","","","","","","","","","true","1","1","ability","432","other","他","","","","","","","","","","","","","","","","",""
"null","","null","html-keyboard-response","29","240088","0.0-6.0-0.0-2.0-0.10","4","4","4","4","4","4","4","4","4","4","4","4","4","4","3","5","4","4","5","4","4","4","4","3","4","4","4","4","4","1","1","0","0","0","1","1","1","0","0","1","0","1","0","1","5","4","4","2","5","1","3","4","4","2","2","701209824037175296","潘","159","","","","","","","","","","","","","","","","","","","","","","","","","","","","","","","","","","","","","","","","","",""
"529","<p style=""color:rgb(150, 250, 100); font-size: 35px;"">别人</p>","i","categorize-html","30","240625","0.0-6.0-0.0-2.0-1.10","4","4","4","4","4","4","4","4","4","4","4","4","4","4","3","5","4","4","5","4","4","4","4","3","4","4","4","4","4","1","1","0","0","0","1","1","1","0","0","1","0","1","0","1","5","4","4","2","5","1","3","4","4","2","2","701209824037175296","潘","159","","","","","","","","","","","","","","","","","","","true","1","1","ability","529","other","别人","","","","","","","","","","","","","","","","",""
"null","","null","html-keyboard-response","31","240878","0.0-6.0-0.0-2.0-0.11","4","4","4","4","4","4","4","4","4","4","4","4","4","4","3","5","4","4","5","4","4","4","4","3","4","4","4","4","4","1","1","0","0","0","1","1","1","0","0","1","0","1","0","1","5","4","4","2","5","1","3","4","4","2","2","701209824037175296","潘","159","","","","","","","","","","","","","","","","","","","","","","","","","","","","","","","","","","","","","","","","","",""
"501","<p style=""color:rgb(150, 250, 100); font-size: 35px;"">自己</p>","e","categorize-html","32","241384","0.0-6.0-0.0-2.0-1.11","4","4","4","4","4","4","4","4","4","4","4","4","4","4","3","5","4","4","5","4","4","4","4","3","4","4","4","4","4","1","1","0","0","0","1","1","1","0","0","1","0","1","0","1","5","4","4","2","5","1","3","4","4","2","2","701209824037175296","潘","159","","","","","","","","","","","","","","","","","","","true","1","1","ability","501","self","自己","","","","","","","","","","","","","","","","",""
"24143","
    <div class=""tag-bottom""><p>
    —— 任务2：对“积极”词和“消极”词分类 ——<p/>   
    <span style=""color:#78DCE8""><b>注意上方，类别标签和需要分类的词语都已经改变</b></span><p/>
    <span style=""color:#FFD866""><b>请根据上方标签的提示，尽可能正确并且快速地做出按键反应</b></span><p/>
    当按键错误时屏幕中会出现<span style=""color:red""> X </span>，需要按另一个键纠正才能继续<br/><p/>
    请把双手食指分别放在键盘的“E”键和“I”键上<p/>
    按<空格键>开始
    </p></div>"," ","html-keyboard-response","33","265528","0.0-6.0-0.0-3.0","4","4","4","4","4","4","4","4","4","4","4","4","4","4","3","5","4","4","5","4","4","4","4","3","4","4","4","4","4","1","1","0","0","0","1","1","1","0","0","1","0","1","0","1","5","4","4","2","5","1","3","4","4","2","2","701209824037175296","潘","159","","","","","","","","","","","","","","","","","","","","","","","","","","","","","","","","","","","","","","","","","",""
"null","","null","html-keyboard-response","34","265781","0.0-6.0-0.0-4.0-0.0","4","4","4","4","4","4","4","4","4","4","4","4","4","4","3","5","4","4","5","4","4","4","4","3","4","4","4","4","4","1","1","0","0","0","1","1","1","0","0","1","0","1","0","1","5","4","4","2","5","1","3","4","4","2","2","701209824037175296","潘","159","","","","","","","","","","","","","","","","","","","","","","","","","","","","","","","","","","","","","","","","","",""
"880","<p style=""color:white; font-size: 35px;"">高效</p>","e","categorize-html","35","266667","0.0-6.0-0.0-4.0-1.0","4","4","4","4","4","4","4","4","4","4","4","4","4","4","3","5","4","4","5","4","4","4","4","3","4","4","4","4","4","1","1","0","0","0","1","1","1","0","0","1","0","1","0","1","5","4","4","2","5","1","3","4","4","2","2","701209824037175296","潘","159","","","","","","","","","","","","","","","","","","","true","2","2","ability","880","positive","高效","","","","","","","","","","","","","","","","",""
"null","","null","html-keyboard-response","36","266919","0.0-6.0-0.0-4.0-0.1","4","4","4","4","4","4","4","4","4","4","4","4","4","4","3","5","4","4","5","4","4","4","4","3","4","4","4","4","4","1","1","0","0","0","1","1","1","0","0","1","0","1","0","1","5","4","4","2","5","1","3","4","4","2","2","701209824037175296","潘","159","","","","","","","","","","","","","","","","","","","","","","","","","","","","","","","","","","","","","","","","","",""
"567","<p style=""color:white; font-size: 35px;"">拙笨</p>","i","categorize-html","37","267494","0.0-6.0-0.0-4.0-1.1","4","4","4","4","4","4","4","4","4","4","4","4","4","4","3","5","4","4","5","4","4","4","4","3","4","4","4","4","4","1","1","0","0","0","1","1","1","0","0","1","0","1","0","1","5","4","4","2","5","1","3","4","4","2","2","701209824037175296","潘","159","","","","","","","","","","","","","","","","","","","true","2","2","ability","567","negative","拙笨","","","","","","","","","","","","","","","","",""
"null","","null","html-keyboard-response","38","267746","0.0-6.0-0.0-4.0-0.2","4","4","4","4","4","4","4","4","4","4","4","4","4","4","3","5","4","4","5","4","4","4","4","3","4","4","4","4","4","1","1","0","0","0","1","1","1","0","0","1","0","1","0","1","5","4","4","2","5","1","3","4","4","2","2","701209824037175296","潘","159","","","","","","","","","","","","","","","","","","","","","","","","","","","","","","","","","","","","","","","","","",""
"492","<p style=""color:white; font-size: 35px;"">废物</p>","i","categorize-html","39","268246","0.0-6.0-0.0-4.0-1.2","4","4","4","4","4","4","4","4","4","4","4","4","4","4","3","5","4","4","5","4","4","4","4","3","4","4","4","4","4","1","1","0","0","0","1","1","1","0","0","1","0","1","0","1","5","4","4","2","5","1","3","4","4","2","2","701209824037175296","潘","159","","","","","","","","","","","","","","","","","","","true","2","2","ability","492","negative","废物","","","","","","","","","","","","","","","","",""
"null","","null","html-keyboard-response","40","268498","0.0-6.0-0.0-4.0-0.3","4","4","4","4","4","4","4","4","4","4","4","4","4","4","3","5","4","4","5","4","4","4","4","3","4","4","4","4","4","1","1","0","0","0","1","1","1","0","0","1","0","1","0","1","5","4","4","2","5","1","3","4","4","2","2","701209824037175296","潘","159","","","","","","","","","","","","","","","","","","","","","","","","","","","","","","","","","","","","","","","","","",""
"424","<p style=""color:white; font-size: 35px;"">全才</p>","e","categorize-html","41","268930","0.0-6.0-0.0-4.0-1.3","4","4","4","4","4","4","4","4","4","4","4","4","4","4","3","5","4","4","5","4","4","4","4","3","4","4","4","4","4","1","1","0","0","0","1","1","1","0","0","1","0","1","0","1","5","4","4","2","5","1","3","4","4","2","2","701209824037175296","潘","159","","","","","","","","","","","","","","","","","","","true","2","2","ability","424","positive","全才","","","","","","","","","","","","","","","","",""
"null","","null","html-keyboard-response","42","269182","0.0-6.0-0.0-4.0-0.4","4","4","4","4","4","4","4","4","4","4","4","4","4","4","3","5","4","4","5","4","4","4","4","3","4","4","4","4","4","1","1","0","0","0","1","1","1","0","0","1","0","1","0","1","5","4","4","2","5","1","3","4","4","2","2","701209824037175296","潘","159","","","","","","","","","","","","","","","","","","","","","","","","","","","","","","","","","","","","","","","","","",""
"505","<p style=""color:white; font-size: 35px;"">蠢笨</p>","i","categorize-html","43","269692","0.0-6.0-0.0-4.0-1.4","4","4","4","4","4","4","4","4","4","4","4","4","4","4","3","5","4","4","5","4","4","4","4","3","4","4","4","4","4","1","1","0","0","0","1","1","1","0","0","1","0","1","0","1","5","4","4","2","5","1","3","4","4","2","2","701209824037175296","潘","159","","","","","","","","","","","","","","","","","","","true","2","2","ability","505","negative","蠢笨","","","","","","","","","","","","","","","","",""
"null","","null","html-keyboard-response","44","269944","0.0-6.0-0.0-4.0-0.5","4","4","4","4","4","4","4","4","4","4","4","4","4","4","3","5","4","4","5","4","4","4","4","3","4","4","4","4","4","1","1","0","0","0","1","1","1","0","0","1","0","1","0","1","5","4","4","2","5","1","3","4","4","2","2","701209824037175296","潘","159","","","","","","","","","","","","","","","","","","","","","","","","","","","","","","","","","","","","","","","","","",""
"574","<p style=""color:white; font-size: 35px;"">精干</p>","e","categorize-html","45","270523","0.0-6.0-0.0-4.0-1.5","4","4","4","4","4","4","4","4","4","4","4","4","4","4","3","5","4","4","5","4","4","4","4","3","4","4","4","4","4","1","1","0","0","0","1","1","1","0","0","1","0","1","0","1","5","4","4","2","5","1","3","4","4","2","2","701209824037175296","潘","159","","","","","","","","","","","","","","","","","","","true","2","2","ability","574","positive","精干","","","","","","","","","","","","","","","","",""
"null","","null","html-keyboard-response","46","270775","0.0-6.0-0.0-4.0-0.6","4","4","4","4","4","4","4","4","4","4","4","4","4","4","3","5","4","4","5","4","4","4","4","3","4","4","4","4","4","1","1","0","0","0","1","1","1","0","0","1","0","1","0","1","5","4","4","2","5","1","3","4","4","2","2","701209824037175296","潘","159","","","","","","","","","","","","","","","","","","","","","","","","","","","","","","","","","","","","","","","","","",""
"656","<p style=""color:white; font-size: 35px;"">愚钝</p>","i","categorize-html","47","271440","0.0-6.0-0.0-4.0-1.6","4","4","4","4","4","4","4","4","4","4","4","4","4","4","3","5","4","4","5","4","4","4","4","3","4","4","4","4","4","1","1","0","0","0","1","1","1","0","0","1","0","1","0","1","5","4","4","2","5","1","3","4","4","2","2","701209824037175296","潘","159","","","","","","","","","","","","","","","","","","","true","2","2","ability","656","negative","愚钝","","","","","","","","","","","","","","","","",""
"null","","null","html-keyboard-response","48","271693","0.0-6.0-0.0-4.0-0.7","4","4","4","4","4","4","4","4","4","4","4","4","4","4","3","5","4","4","5","4","4","4","4","3","4","4","4","4","4","1","1","0","0","0","1","1","1","0","0","1","0","1","0","1","5","4","4","2","5","1","3","4","4","2","2","701209824037175296","潘","159","","","","","","","","","","","","","","","","","","","","","","","","","","","","","","","","","","","","","","","","","",""
"711","<p style=""color:white; font-size: 35px;"">无能</p>","i","categorize-html","49","272412","0.0-6.0-0.0-4.0-1.7","4","4","4","4","4","4","4","4","4","4","4","4","4","4","3","5","4","4","5","4","4","4","4","3","4","4","4","4","4","1","1","0","0","0","1","1","1","0","0","1","0","1","0","1","5","4","4","2","5","1","3","4","4","2","2","701209824037175296","潘","159","","","","","","","","","","","","","","","","","","","true","2","2","ability","711","negative","无能","","","","","","","","","","","","","","","","",""
"null","","null","html-keyboard-response","50","272665","0.0-6.0-0.0-4.0-0.8","4","4","4","4","4","4","4","4","4","4","4","4","4","4","3","5","4","4","5","4","4","4","4","3","4","4","4","4","4","1","1","0","0","0","1","1","1","0","0","1","0","1","0","1","5","4","4","2","5","1","3","4","4","2","2","701209824037175296","潘","159","","","","","","","","","","","","","","","","","","","","","","","","","","","","","","","","","","","","","","","","","",""
"471","<p style=""color:white; font-size: 35px;"">低能</p>","i","categorize-html","51","273144","0.0-6.0-0.0-4.0-1.8","4","4","4","4","4","4","4","4","4","4","4","4","4","4","3","5","4","4","5","4","4","4","4","3","4","4","4","4","4","1","1","0","0","0","1","1","1","0","0","1","0","1","0","1","5","4","4","2","5","1","3","4","4","2","2","701209824037175296","潘","159","","","","","","","","","","","","","","","","","","","true","2","2","ability","471","negative","低能","","","","","","","","","","","","","","","","",""
"null","","null","html-keyboard-response","52","273397","0.0-6.0-0.0-4.0-0.9","4","4","4","4","4","4","4","4","4","4","4","4","4","4","3","5","4","4","5","4","4","4","4","3","4","4","4","4","4","1","1","0","0","0","1","1","1","0","0","1","0","1","0","1","5","4","4","2","5","1","3","4","4","2","2","701209824037175296","潘","159","","","","","","","","","","","","","","","","","","","","","","","","","","","","","","","","","","","","","","","","","",""
"432","<p style=""color:white; font-size: 35px;"">天才</p>","e","categorize-html","53","273838","0.0-6.0-0.0-4.0-1.9","4","4","4","4","4","4","4","4","4","4","4","4","4","4","3","5","4","4","5","4","4","4","4","3","4","4","4","4","4","1","1","0","0","0","1","1","1","0","0","1","0","1","0","1","5","4","4","2","5","1","3","4","4","2","2","701209824037175296","潘","159","","","","","","","","","","","","","","","","","","","true","2","2","ability","432","positive","天才","","","","","","","","","","","","","","","","",""
"null","","null","html-keyboard-response","54","274091","0.0-6.0-0.0-4.0-0.10","4","4","4","4","4","4","4","4","4","4","4","4","4","4","3","5","4","4","5","4","4","4","4","3","4","4","4","4","4","1","1","0","0","0","1","1","1","0","0","1","0","1","0","1","5","4","4","2","5","1","3","4","4","2","2","701209824037175296","潘","159","","","","","","","","","","","","","","","","","","","","","","","","","","","","","","","","","","","","","","","","","",""
"442","<p style=""color:white; font-size: 35px;"">能干</p>","e","categorize-html","55","274540","0.0-6.0-0.0-4.0-1.10","4","4","4","4","4","4","4","4","4","4","4","4","4","4","3","5","4","4","5","4","4","4","4","3","4","4","4","4","4","1","1","0","0","0","1","1","1","0","0","1","0","1","0","1","5","4","4","2","5","1","3","4","4","2","2","701209824037175296","潘","159","","","","","","","","","","","","","","","","","","","true","2","2","ability","442","positive","能干","","","","","","","","","","","","","","","","",""
"null","","null","html-keyboard-response","56","274793","0.0-6.0-0.0-4.0-0.11","4","4","4","4","4","4","4","4","4","4","4","4","4","4","3","5","4","4","5","4","4","4","4","3","4","4","4","4","4","1","1","0","0","0","1","1","1","0","0","1","0","1","0","1","5","4","4","2","5","1","3","4","4","2","2","701209824037175296","潘","159","","","","","","","","","","","","","","","","","","","","","","","","","","","","","","","","","","","","","","","","","",""
"373","<p style=""color:white; font-size: 35px;"">全能</p>","e","categorize-html","57","275175","0.0-6.0-0.0-4.0-1.11","4","4","4","4","4","4","4","4","4","4","4","4","4","4","3","5","4","4","5","4","4","4","4","3","4","4","4","4","4","1","1","0","0","0","1","1","1","0","0","1","0","1","0","1","5","4","4","2","5","1","3","4","4","2","2","701209824037175296","潘","159","","","","","","","","","","","","","","","","","","","true","2","2","ability","373","positive","全能","","","","","","","","","","","","","","","","",""
"8274","
    <div class=""tag-bottom""><p>
    —— 任务3：对“自我/积极”词和“他人/消极”词分类 ——<p/>
    <span style=""color:#78DCE8""><b>注意上方，之前的四类词语将混合在一起交替呈现</b></span><p/>
    <span style=""color:#FFD866""><b>请根据上方标签的提示，尽可能正确并且快速地做出按键反应</b></span><p/>
    当按键错误时屏幕中会出现<span style=""color:red""> X </span>，需要按另一个键纠正才能继续<br/><p/>
    请把双手食指分别放在键盘的“E”键和“I”键上<p/>
    按<空格键>开始
    </p></div>"," ","html-keyboard-response","58","283451","0.0-6.0-0.0-5.0","4","4","4","4","4","4","4","4","4","4","4","4","4","4","3","5","4","4","5","4","4","4","4","3","4","4","4","4","4","1","1","0","0","0","1","1","1","0","0","1","0","1","0","1","5","4","4","2","5","1","3","4","4","2","2","701209824037175296","潘","159","","","","","","","","","","","","","","","","","","","","","","","","","","","","","","","","","","","","","","","","","",""
"null","","null","html-keyboard-response","59","283703","0.0-6.0-0.0-6.0-0.0","4","4","4","4","4","4","4","4","4","4","4","4","4","4","3","5","4","4","5","4","4","4","4","3","4","4","4","4","4","1","1","0","0","0","1","1","1","0","0","1","0","1","0","1","5","4","4","2","5","1","3","4","4","2","2","701209824037175296","潘","159","","","","","","","","","","","","","","","","","","","","","","","","","","","","","","","","","","","","","","","","","",""
"1327","<p style=""color:rgb(150, 250, 100); font-size: 35px;"">我</p>","e","categorize-html","60","285039","0.0-6.0-0.0-6.0-1.0","4","4","4","4","4","4","4","4","4","4","4","4","4","4","3","5","4","4","5","4","4","4","4","3","4","4","4","4","4","1","1","0","0","0","1","1","1","0","0","1","0","1","0","1","5","4","4","2","5","1","3","4","4","2","2","701209824037175296","潘","159","","","","","","","","","","","","","","","","","","","true","3","3","ability","1327","self","我","","","","","","","","","","","","","","","","",""
"null","","null","html-keyboard-response","61","285292","0.0-6.0-0.0-6.0-0.1","4","4","4","4","4","4","4","4","4","4","4","4","4","4","3","5","4","4","5","4","4","4","4","3","4","4","4","4","4","1","1","0","0","0","1","1","1","0","0","1","0","1","0","1","5","4","4","2","5","1","3","4","4","2","2","701209824037175296","潘","159","","","","","","","","","","","","","","","","","","","","","","","","","","","","","","","","","","","","","","","","","",""
"537","<p style=""color:white; font-size: 35px;"">精干</p>","e","categorize-html","62","285834","0.0-6.0-0.0-6.0-1.1","4","4","4","4","4","4","4","4","4","4","4","4","4","4","3","5","4","4","5","4","4","4","4","3","4","4","4","4","4","1","1","0","0","0","1","1","1","0","0","1","0","1","0","1","5","4","4","2","5","1","3","4","4","2","2","701209824037175296","潘","159","","","","","","","","","","","","","","","","","","","true","3","3","ability","537","positive","精干","","","","","","","","","","","","","","","","",""
"null","","null","html-keyboard-response","63","286087","0.0-6.0-0.0-6.0-0.2","4","4","4","4","4","4","4","4","4","4","4","4","4","4","3","5","4","4","5","4","4","4","4","3","4","4","4","4","4","1","1","0","0","0","1","1","1","0","0","1","0","1","0","1","5","4","4","2","5","1","3","4","4","2","2","701209824037175296","潘","159","","","","","","","","","","","","","","","","","","","","","","","","","","","","","","","","","","","","","","","","","",""
"635","<p style=""color:rgb(150, 250, 100); font-size: 35px;"">他的</p>","i","categorize-html","64","286729","0.0-6.0-0.0-6.0-1.2","4","4","4","4","4","4","4","4","4","4","4","4","4","4","3","5","4","4","5","4","4","4","4","3","4","4","4","4","4","1","1","0","0","0","1","1","1","0","0","1","0","1","0","1","5","4","4","2","5","1","3","4","4","2","2","701209824037175296","潘","159","","","","","","","","","","","","","","","","","","","true","3","3","ability","635","other","他的","","","","","","","","","","","","","","","","",""
"null","","null","html-keyboard-response","65","286981","0.0-6.0-0.0-6.0-0.3","4","4","4","4","4","4","4","4","4","4","4","4","4","4","3","5","4","4","5","4","4","4","4","3","4","4","4","4","4","1","1","0","0","0","1","1","1","0","0","1","0","1","0","1","5","4","4","2","5","1","3","4","4","2","2","701209824037175296","潘","159","","","","","","","","","","","","","","","","","","","","","","","","","","","","","","","","","","","","","","","","","",""
"589","<p style=""color:white; font-size: 35px;"">无能</p>","i","categorize-html","66","287578","0.0-6.0-0.0-6.0-1.3","4","4","4","4","4","4","4","4","4","4","4","4","4","4","3","5","4","4","5","4","4","4","4","3","4","4","4","4","4","1","1","0","0","0","1","1","1","0","0","1","0","1","0","1","5","4","4","2","5","1","3","4","4","2","2","701209824037175296","潘","159","","","","","","","","","","","","","","","","","","","true","3","3","ability","589","negative","无能","","","","","","","","","","","","","","","","",""
"null","","null","html-keyboard-response","67","287831","0.0-6.0-0.0-6.0-0.4","4","4","4","4","4","4","4","4","4","4","4","4","4","4","3","5","4","4","5","4","4","4","4","3","4","4","4","4","4","1","1","0","0","0","1","1","1","0","0","1","0","1","0","1","5","4","4","2","5","1","3","4","4","2","2","701209824037175296","潘","159","","","","","","","","","","","","","","","","","","","","","","","","","","","","","","","","","","","","","","","","","",""
"498","<p style=""color:rgb(150, 250, 100); font-size: 35px;"">他人</p>","i","categorize-html","68","288338","0.0-6.0-0.0-6.0-1.4","4","4","4","4","4","4","4","4","4","4","4","4","4","4","3","5","4","4","5","4","4","4","4","3","4","4","4","4","4","1","1","0","0","0","1","1","1","0","0","1","0","1","0","1","5","4","4","2","5","1","3","4","4","2","2","701209824037175296","潘","159","","","","","","","","","","","","","","","","","","","true","3","3","ability","498","other","他人","","","","","","","","","","","","","","","","",""
"null","","null","html-keyboard-response","69","288592","0.0-6.0-0.0-6.0-0.5","4","4","4","4","4","4","4","4","4","4","4","4","4","4","3","5","4","4","5","4","4","4","4","3","4","4","4","4","4","1","1","0","0","0","1","1","1","0","0","1","0","1","0","1","5","4","4","2","5","1","3","4","4","2","2","701209824037175296","潘","159","","","","","","","","","","","","","","","","","","","","","","","","","","","","","","","","","","","","","","","","","",""
"579","<p style=""color:white; font-size: 35px;"">全才</p>","e","categorize-html","70","289179","0.0-6.0-0.0-6.0-1.5","4","4","4","4","4","4","4","4","4","4","4","4","4","4","3","5","4","4","5","4","4","4","4","3","4","4","4","4","4","1","1","0","0","0","1","1","1","0","0","1","0","1","0","1","5","4","4","2","5","1","3","4","4","2","2","701209824037175296","潘","159","","","","","","","","","","","","","","","","","","","true","3","3","ability","579","positive","全才","","","","","","","","","","","","","","","","",""
"null","","null","html-keyboard-response","71","289433","0.0-6.0-0.0-6.0-0.6","4","4","4","4","4","4","4","4","4","4","4","4","4","4","3","5","4","4","5","4","4","4","4","3","4","4","4","4","4","1","1","0","0","0","1","1","1","0","0","1","0","1","0","1","5","4","4","2","5","1","3","4","4","2","2","701209824037175296","潘","159","","","","","","","","","","","","","","","","","","","","","","","","","","","","","","","","","","","","","","","","","",""
"624","<p style=""color:rgb(150, 250, 100); font-size: 35px;"">本人的</p>","e","categorize-html","72","290066","0.0-6.0-0.0-6.0-1.6","4","4","4","4","4","4","4","4","4","4","4","4","4","4","3","5","4","4","5","4","4","4","4","3","4","4","4","4","4","1","1","0","0","0","1","1","1","0","0","1","0","1","0","1","5","4","4","2","5","1","3","4","4","2","2","701209824037175296","潘","159","","","","","","","","","","","","","","","","","","","true","3","3","ability","624","self","本人的","","","","","","","","","","","","","","","","",""
"null","","null","html-keyboard-response","73","290319","0.0-6.0-0.0-6.0-0.7","4","4","4","4","4","4","4","4","4","4","4","4","4","4","3","5","4","4","5","4","4","4","4","3","4","4","4","4","4","1","1","0","0","0","1","1","1","0","0","1","0","1","0","1","5","4","4","2","5","1","3","4","4","2","2","701209824037175296","潘","159","","","","","","","","","","","","","","","","","","","","","","","","","","","","","","","","","","","","","","","","","",""
"581","<p style=""color:white; font-size: 35px;"">低能</p>","i","categorize-html","74","290909","0.0-6.0-0.0-6.0-1.7","4","4","4","4","4","4","4","4","4","4","4","4","4","4","3","5","4","4","5","4","4","4","4","3","4","4","4","4","4","1","1","0","0","0","1","1","1","0","0","1","0","1","0","1","5","4","4","2","5","1","3","4","4","2","2","701209824037175296","潘","159","","","","","","","","","","","","","","","","","","","true","3","3","ability","581","negative","低能","","","","","","","","","","","","","","","","",""
"null","","null","html-keyboard-response","75","291162","0.0-6.0-0.0-6.0-0.8","4","4","4","4","4","4","4","4","4","4","4","4","4","4","3","5","4","4","5","4","4","4","4","3","4","4","4","4","4","1","1","0","0","0","1","1","1","0","0","1","0","1","0","1","5","4","4","2","5","1","3","4","4","2","2","701209824037175296","潘","159","","","","","","","","","","","","","","","","","","","","","","","","","","","","","","","","","","","","","","","","","",""
"718","<p style=""color:rgb(150, 250, 100); font-size: 35px;"">别人</p>","i","categorize-html","76","291883","0.0-6.0-0.0-6.0-1.8","4","4","4","4","4","4","4","4","4","4","4","4","4","4","3","5","4","4","5","4","4","4","4","3","4","4","4","4","4","1","1","0","0","0","1","1","1","0","0","1","0","1","0","1","5","4","4","2","5","1","3","4","4","2","2","701209824037175296","潘","159","","","","","","","","","","","","","","","","","","","true","3","3","ability","718","other","别人","","","","","","","","","","","","","","","","",""
"null","","null","html-keyboard-response","77","292136","0.0-6.0-0.0-6.0-0.9","4","4","4","4","4","4","4","4","4","4","4","4","4","4","3","5","4","4","5","4","4","4","4","3","4","4","4","4","4","1","1","0","0","0","1","1","1","0","0","1","0","1","0","1","5","4","4","2","5","1","3","4","4","2","2","701209824037175296","潘","159","","","","","","","","","","","","","","","","","","","","","","","","","","","","","","","","","","","","","","","","","",""
"539","<p style=""color:white; font-size: 35px;"">拙笨</p>","i","categorize-html","78","292683","0.0-6.0-0.0-6.0-1.9","4","4","4","4","4","4","4","4","4","4","4","4","4","4","3","5","4","4","5","4","4","4","4","3","4","4","4","4","4","1","1","0","0","0","1","1","1","0","0","1","0","1","0","1","5","4","4","2","5","1","3","4","4","2","2","701209824037175296","潘","159","","","","","","","","","","","","","","","","","","","true","3","3","ability","539","negative","拙笨","","","","","","","","","","","","","","","","",""
"null","","null","html-keyboard-response","79","292936","0.0-6.0-0.0-6.0-0.10","4","4","4","4","4","4","4","4","4","4","4","4","4","4","3","5","4","4","5","4","4","4","4","3","4","4","4","4","4","1","1","0","0","0","1","1","1","0","0","1","0","1","0","1","5","4","4","2","5","1","3","4","4","2","2","701209824037175296","潘","159","","","","","","","","","","","","","","","","","","","","","","","","","","","","","","","","","","","","","","","","","",""
"648","<p style=""color:rgb(150, 250, 100); font-size: 35px;"">本人</p>","e","categorize-html","80","293592","0.0-6.0-0.0-6.0-1.10","4","4","4","4","4","4","4","4","4","4","4","4","4","4","3","5","4","4","5","4","4","4","4","3","4","4","4","4","4","1","1","0","0","0","1","1","1","0","0","1","0","1","0","1","5","4","4","2","5","1","3","4","4","2","2","701209824037175296","潘","159","","","","","","","","","","","","","","","","","","","true","3","3","ability","648","self","本人","","","","","","","","","","","","","","","","",""
"null","","null","html-keyboard-response","81","293846","0.0-6.0-0.0-6.0-0.11","4","4","4","4","4","4","4","4","4","4","4","4","4","4","3","5","4","4","5","4","4","4","4","3","4","4","4","4","4","1","1","0","0","0","1","1","1","0","0","1","0","1","0","1","5","4","4","2","5","1","3","4","4","2","2","701209824037175296","潘","159","","","","","","","","","","","","","","","","","","","","","","","","","","","","","","","","","","","","","","","","","",""
"574","<p style=""color:white; font-size: 35px;"">能干</p>","e","categorize-html","82","294429","0.0-6.0-0.0-6.0-1.11","4","4","4","4","4","4","4","4","4","4","4","4","4","4","3","5","4","4","5","4","4","4","4","3","4","4","4","4","4","1","1","0","0","0","1","1","1","0","0","1","0","1","0","1","5","4","4","2","5","1","3","4","4","2","2","701209824037175296","潘","159","","","","","","","","","","","","","","","","","","","true","3","3","ability","574","positive","能干","","","","","","","","","","","","","","","","",""
"null","","null","html-keyboard-response","83","294681","0.0-6.0-0.0-6.0-0.12","4","4","4","4","4","4","4","4","4","4","4","4","4","4","3","5","4","4","5","4","4","4","4","3","4","4","4","4","4","1","1","0","0","0","1","1","1","0","0","1","0","1","0","1","5","4","4","2","5","1","3","4","4","2","2","701209824037175296","潘","159","","","","","","","","","","","","","","","","","","","","","","","","","","","","","","","","","","","","","","","","","",""
"646","<p style=""color:rgb(150, 250, 100); font-size: 35px;"">他人的</p>","i","categorize-html","84","295337","0.0-6.0-0.0-6.0-1.12","4","4","4","4","4","4","4","4","4","4","4","4","4","4","3","5","4","4","5","4","4","4","4","3","4","4","4","4","4","1","1","0","0","0","1","1","1","0","0","1","0","1","0","1","5","4","4","2","5","1","3","4","4","2","2","701209824037175296","潘","159","","","","","","","","","","","","","","","","","","","true","3","3","ability","646","other","他人的","","","","","","","","","","","","","","","","",""
"null","","null","html-keyboard-response","85","295589","0.0-6.0-0.0-6.0-0.13","4","4","4","4","4","4","4","4","4","4","4","4","4","4","3","5","4","4","5","4","4","4","4","3","4","4","4","4","4","1","1","0","0","0","1","1","1","0","0","1","0","1","0","1","5","4","4","2","5","1","3","4","4","2","2","701209824037175296","潘","159","","","","","","","","","","","","","","","","","","","","","","","","","","","","","","","","","","","","","","","","","",""
"618","<p style=""color:white; font-size: 35px;"">高效</p>","e","categorize-html","86","296218","0.0-6.0-0.0-6.0-1.13","4","4","4","4","4","4","4","4","4","4","4","4","4","4","3","5","4","4","5","4","4","4","4","3","4","4","4","4","4","1","1","0","0","0","1","1","1","0","0","1","0","1","0","1","5","4","4","2","5","1","3","4","4","2","2","701209824037175296","潘","159","","","","","","","","","","","","","","","","","","","true","3","3","ability","618","positive","高效","","","","","","","","","","","","","","","","",""
"null","","null","html-keyboard-response","87","296471","0.0-6.0-0.0-6.0-0.14","4","4","4","4","4","4","4","4","4","4","4","4","4","4","3","5","4","4","5","4","4","4","4","3","4","4","4","4","4","1","1","0","0","0","1","1","1","0","0","1","0","1","0","1","5","4","4","2","5","1","3","4","4","2","2","701209824037175296","潘","159","","","","","","","","","","","","","","","","","","","","","","","","","","","","","","","","","","","","","","","","","",""
"554","<p style=""color:rgb(150, 250, 100); font-size: 35px;"">自己的</p>","e","categorize-html","88","297034","0.0-6.0-0.0-6.0-1.14","4","4","4","4","4","4","4","4","4","4","4","4","4","4","3","5","4","4","5","4","4","4","4","3","4","4","4","4","4","1","1","0","0","0","1","1","1","0","0","1","0","1","0","1","5","4","4","2","5","1","3","4","4","2","2","701209824037175296","潘","159","","","","","","","","","","","","","","","","","","","true","3","3","ability","554","self","自己的","","","","","","","","","","","","","","","","",""
"null","","null","html-keyboard-response","89","297286","0.0-6.0-0.0-6.0-0.15","4","4","4","4","4","4","4","4","4","4","4","4","4","4","3","5","4","4","5","4","4","4","4","3","4","4","4","4","4","1","1","0","0","0","1","1","1","0","0","1","0","1","0","1","5","4","4","2","5","1","3","4","4","2","2","701209824037175296","潘","159","","","","","","","","","","","","","","","","","","","","","","","","","","","","","","","","","","","","","","","","","",""
"529","<p style=""color:white; font-size: 35px;"">废物</p>","i","categorize-html","90","297823","0.0-6.0-0.0-6.0-1.15","4","4","4","4","4","4","4","4","4","4","4","4","4","4","3","5","4","4","5","4","4","4","4","3","4","4","4","4","4","1","1","0","0","0","1","1","1","0","0","1","0","1","0","1","5","4","4","2","5","1","3","4","4","2","2","701209824037175296","潘","159","","","","","","","","","","","","","","","","","","","true","3","3","ability","529","negative","废物","","","","","","","","","","","","","","","","",""
"null","","null","html-keyboard-response","91","298076","0.0-6.0-0.0-6.0-0.16","4","4","4","4","4","4","4","4","4","4","4","4","4","4","3","5","4","4","5","4","4","4","4","3","4","4","4","4","4","1","1","0","0","0","1","1","1","0","0","1","0","1","0","1","5","4","4","2","5","1","3","4","4","2","2","701209824037175296","潘","159","","","","","","","","","","","","","","","","","","","","","","","","","","","","","","","","","","","","","","","","","",""
"593","<p style=""color:rgb(150, 250, 100); font-size: 35px;"">别人的</p>","i","categorize-html","92","298676","0.0-6.0-0.0-6.0-1.16","4","4","4","4","4","4","4","4","4","4","4","4","4","4","3","5","4","4","5","4","4","4","4","3","4","4","4","4","4","1","1","0","0","0","1","1","1","0","0","1","0","1","0","1","5","4","4","2","5","1","3","4","4","2","2","701209824037175296","潘","159","","","","","","","","","","","","","","","","","","","true","3","3","ability","593","other","别人的","","","","","","","","","","","","","","","","",""
"null","","null","html-keyboard-response","93","298930","0.0-6.0-0.0-6.0-0.17","4","4","4","4","4","4","4","4","4","4","4","4","4","4","3","5","4","4","5","4","4","4","4","3","4","4","4","4","4","1","1","0","0","0","1","1","1","0","0","1","0","1","0","1","5","4","4","2","5","1","3","4","4","2","2","701209824037175296","潘","159","","","","","","","","","","","","","","","","","","","","","","","","","","","","","","","","","","","","","","","","","",""
"571","<p style=""color:white; font-size: 35px;"">天才</p>","e","categorize-html","94","299509","0.0-6.0-0.0-6.0-1.17","4","4","4","4","4","4","4","4","4","4","4","4","4","4","3","5","4","4","5","4","4","4","4","3","4","4","4","4","4","1","1","0","0","0","1","1","1","0","0","1","0","1","0","1","5","4","4","2","5","1","3","4","4","2","2","701209824037175296","潘","159","","","","","","","","","","","","","","","","","","","true","3","3","ability","571","positive","天才","","","","","","","","","","","","","","","","",""
"null","","null","html-keyboard-response","95","299763","0.0-6.0-0.0-6.0-0.18","4","4","4","4","4","4","4","4","4","4","4","4","4","4","3","5","4","4","5","4","4","4","4","3","4","4","4","4","4","1","1","0","0","0","1","1","1","0","0","1","0","1","0","1","5","4","4","2","5","1","3","4","4","2","2","701209824037175296","潘","159","","","","","","","","","","","","","","","","","","","","","","","","","","","","","","","","","","","","","","","","","",""
"536","<p style=""color:rgb(150, 250, 100); font-size: 35px;"">我的</p>","e","categorize-html","96","300308","0.0-6.0-0.0-6.0-1.18","4","4","4","4","4","4","4","4","4","4","4","4","4","4","3","5","4","4","5","4","4","4","4","3","4","4","4","4","4","1","1","0","0","0","1","1","1","0","0","1","0","1","0","1","5","4","4","2","5","1","3","4","4","2","2","701209824037175296","潘","159","","","","","","","","","","","","","","","","","","","true","3","3","ability","536","self","我的","","","","","","","","","","","","","","","","",""
"null","","null","html-keyboard-response","97","300561","0.0-6.0-0.0-6.0-0.19","4","4","4","4","4","4","4","4","4","4","4","4","4","4","3","5","4","4","5","4","4","4","4","3","4","4","4","4","4","1","1","0","0","0","1","1","1","0","0","1","0","1","0","1","5","4","4","2","5","1","3","4","4","2","2","701209824037175296","潘","159","","","","","","","","","","","","","","","","","","","","","","","","","","","","","","","","","","","","","","","","","",""
"535","<p style=""color:white; font-size: 35px;"">愚钝</p>","i","categorize-html","98","301106","0.0-6.0-0.0-6.0-1.19","4","4","4","4","4","4","4","4","4","4","4","4","4","4","3","5","4","4","5","4","4","4","4","3","4","4","4","4","4","1","1","0","0","0","1","1","1","0","0","1","0","1","0","1","5","4","4","2","5","1","3","4","4","2","2","701209824037175296","潘","159","","","","","","","","","","","","","","","","","","","true","3","3","ability","535","negative","愚钝","","","","","","","","","","","","","","","","",""
"null","","null","html-keyboard-response","99","301359","0.0-6.0-0.0-6.0-0.20","4","4","4","4","4","4","4","4","4","4","4","4","4","4","3","5","4","4","5","4","4","4","4","3","4","4","4","4","4","1","1","0","0","0","1","1","1","0","0","1","0","1","0","1","5","4","4","2","5","1","3","4","4","2","2","701209824037175296","潘","159","","","","","","","","","","","","","","","","","","","","","","","","","","","","","","","","","","","","","","","","","",""
"534","<p style=""color:rgb(150, 250, 100); font-size: 35px;"">自己</p>","e","categorize-html","100","301902","0.0-6.0-0.0-6.0-1.20","4","4","4","4","4","4","4","4","4","4","4","4","4","4","3","5","4","4","5","4","4","4","4","3","4","4","4","4","4","1","1","0","0","0","1","1","1","0","0","1","0","1","0","1","5","4","4","2","5","1","3","4","4","2","2","701209824037175296","潘","159","","","","","","","","","","","","","","","","","","","true","3","3","ability","534","self","自己","","","","","","","","","","","","","","","","",""
"null","","null","html-keyboard-response","101","302155","0.0-6.0-0.0-6.0-0.21","4","4","4","4","4","4","4","4","4","4","4","4","4","4","3","5","4","4","5","4","4","4","4","3","4","4","4","4","4","1","1","0","0","0","1","1","1","0","0","1","0","1","0","1","5","4","4","2","5","1","3","4","4","2","2","701209824037175296","潘","159","","","","","","","","","","","","","","","","","","","","","","","","","","","","","","","","","","","","","","","","","",""
"627","<p style=""color:white; font-size: 35px;"">全能</p>","e","categorize-html","102","302790","0.0-6.0-0.0-6.0-1.21","4","4","4","4","4","4","4","4","4","4","4","4","4","4","3","5","4","4","5","4","4","4","4","3","4","4","4","4","4","1","1","0","0","0","1","1","1","0","0","1","0","1","0","1","5","4","4","2","5","1","3","4","4","2","2","701209824037175296","潘","159","","","","","","","","","","","","","","","","","","","true","3","3","ability","627","positive","全能","","","","","","","","","","","","","","","","",""
"null","","null","html-keyboard-response","103","303043","0.0-6.0-0.0-6.0-0.22","4","4","4","4","4","4","4","4","4","4","4","4","4","4","3","5","4","4","5","4","4","4","4","3","4","4","4","4","4","1","1","0","0","0","1","1","1","0","0","1","0","1","0","1","5","4","4","2","5","1","3","4","4","2","2","701209824037175296","潘","159","","","","","","","","","","","","","","","","","","","","","","","","","","","","","","","","","","","","","","","","","",""
"505","<p style=""color:rgb(150, 250, 100); font-size: 35px;"">他</p>","i","categorize-html","104","303557","0.0-6.0-0.0-6.0-1.22","4","4","4","4","4","4","4","4","4","4","4","4","4","4","3","5","4","4","5","4","4","4","4","3","4","4","4","4","4","1","1","0","0","0","1","1","1","0","0","1","0","1","0","1","5","4","4","2","5","1","3","4","4","2","2","701209824037175296","潘","159","","","","","","","","","","","","","","","","","","","true","3","3","ability","505","other","他","","","","","","","","","","","","","","","","",""
"null","","null","html-keyboard-response","105","303810","0.0-6.0-0.0-6.0-0.23","4","4","4","4","4","4","4","4","4","4","4","4","4","4","3","5","4","4","5","4","4","4","4","3","4","4","4","4","4","1","1","0","0","0","1","1","1","0","0","1","0","1","0","1","5","4","4","2","5","1","3","4","4","2","2","701209824037175296","潘","159","","","","","","","","","","","","","","","","","","","","","","","","","","","","","","","","","","","","","","","","","",""
"611","<p style=""color:white; font-size: 35px;"">蠢笨</p>","i","categorize-html","106","304429","0.0-6.0-0.0-6.0-1.23","4","4","4","4","4","4","4","4","4","4","4","4","4","4","3","5","4","4","5","4","4","4","4","3","4","4","4","4","4","1","1","0","0","0","1","1","1","0","0","1","0","1","0","1","5","4","4","2","5","1","3","4","4","2","2","701209824037175296","潘","159","","","","","","","","","","","","","","","","","","","true","3","3","ability","611","negative","蠢笨","","","","","","","","","","","","","","","","",""
"6044","
    <div class=""tag-bottom""><p>
    —— 任务4：对“自我/积极”词和“他人/消极”词分类 ——<p/>
    <span style=""color:#78DCE8""><b>与刚才的任务完全相同，请再次对这四类词语分类</b></span><p/>
    <span style=""color:#FFD866""><b>请根据上方标签的提示，尽可能正确并且快速地做出按键反应</b></span><p/>
    当按键错误时屏幕中会出现<span style=""color:red""> X </span>，需要按另一个键纠正才能继续<br/><p/>
    请把双手食指分别放在键盘的“E”键和“I”键上<p/>
    按<空格键>开始
    </p></div>"," ","html-keyboard-response","107","310475","0.0-6.0-0.0-7.0","4","4","4","4","4","4","4","4","4","4","4","4","4","4","3","5","4","4","5","4","4","4","4","3","4","4","4","4","4","1","1","0","0","0","1","1","1","0","0","1","0","1","0","1","5","4","4","2","5","1","3","4","4","2","2","701209824037175296","潘","159","","","","","","","","","","","","","","","","","","","","","","","","","","","","","","","","","","","","","","","","","",""
"null","","null","html-keyboard-response","108","310726","0.0-6.0-0.0-8.0-0.0","4","4","4","4","4","4","4","4","4","4","4","4","4","4","3","5","4","4","5","4","4","4","4","3","4","4","4","4","4","1","1","0","0","0","1","1","1","0","0","1","0","1","0","1","5","4","4","2","5","1","3","4","4","2","2","701209824037175296","潘","159","","","","","","","","","","","","","","","","","","","","","","","","","","","","","","","","","","","","","","","","","",""
"871","<p style=""color:rgb(150, 250, 100); font-size: 35px;"">本人</p>","e","categorize-html","109","311604","0.0-6.0-0.0-8.0-1.0","4","4","4","4","4","4","4","4","4","4","4","4","4","4","3","5","4","4","5","4","4","4","4","3","4","4","4","4","4","1","1","0","0","0","1","1","1","0","0","1","0","1","0","1","5","4","4","2","5","1","3","4","4","2","2","701209824037175296","潘","159","","","","","","","","","","","","","","","","","","","true","4","4","ability","871","self","本人","","","","","","","","","","","","","","","","",""
"null","","null","html-keyboard-response","110","311856","0.0-6.0-0.0-8.0-0.1","4","4","4","4","4","4","4","4","4","4","4","4","4","4","3","5","4","4","5","4","4","4","4","3","4","4","4","4","4","1","1","0","0","0","1","1","1","0","0","1","0","1","0","1","5","4","4","2","5","1","3","4","4","2","2","701209824037175296","潘","159","","","","","","","","","","","","","","","","","","","","","","","","","","","","","","","","","","","","","","","","","",""
"527","<p style=""color:white; font-size: 35px;"">废物</p>","i","categorize-html","111","312390","0.0-6.0-0.0-8.0-1.1","4","4","4","4","4","4","4","4","4","4","4","4","4","4","3","5","4","4","5","4","4","4","4","3","4","4","4","4","4","1","1","0","0","0","1","1","1","0","0","1","0","1","0","1","5","4","4","2","5","1","3","4","4","2","2","701209824037175296","潘","159","","","","","","","","","","","","","","","","","","","true","4","4","ability","527","negative","废物","","","","","","","","","","","","","","","","",""
"null","","null","html-keyboard-response","112","312642","0.0-6.0-0.0-8.0-0.2","4","4","4","4","4","4","4","4","4","4","4","4","4","4","3","5","4","4","5","4","4","4","4","3","4","4","4","4","4","1","1","0","0","0","1","1","1","0","0","1","0","1","0","1","5","4","4","2","5","1","3","4","4","2","2","701209824037175296","潘","159","","","","","","","","","","","","","","","","","","","","","","","","","","","","","","","","","","","","","","","","","",""
"456","<p style=""color:rgb(150, 250, 100); font-size: 35px;"">他人</p>","i","categorize-html","113","313103","0.0-6.0-0.0-8.0-1.2","4","4","4","4","4","4","4","4","4","4","4","4","4","4","3","5","4","4","5","4","4","4","4","3","4","4","4","4","4","1","1","0","0","0","1","1","1","0","0","1","0","1","0","1","5","4","4","2","5","1","3","4","4","2","2","701209824037175296","潘","159","","","","","","","","","","","","","","","","","","","true","4","4","ability","456","other","他人","","","","","","","","","","","","","","","","",""
"null","","null","html-keyboard-response","114","313355","0.0-6.0-0.0-8.0-0.3","4","4","4","4","4","4","4","4","4","4","4","4","4","4","3","5","4","4","5","4","4","4","4","3","4","4","4","4","4","1","1","0","0","0","1","1","1","0","0","1","0","1","0","1","5","4","4","2","5","1","3","4","4","2","2","701209824037175296","潘","159","","","","","","","","","","","","","","","","","","","","","","","","","","","","","","","","","","","","","","","","","",""
"521","<p style=""color:white; font-size: 35px;"">天才</p>","e","categorize-html","115","313883","0.0-6.0-0.0-8.0-1.3","4","4","4","4","4","4","4","4","4","4","4","4","4","4","3","5","4","4","5","4","4","4","4","3","4","4","4","4","4","1","1","0","0","0","1","1","1","0","0","1","0","1","0","1","5","4","4","2","5","1","3","4","4","2","2","701209824037175296","潘","159","","","","","","","","","","","","","","","","","","","true","4","4","ability","521","positive","天才","","","","","","","","","","","","","","","","",""
"null","","null","html-keyboard-response","116","314135","0.0-6.0-0.0-8.0-0.4","4","4","4","4","4","4","4","4","4","4","4","4","4","4","3","5","4","4","5","4","4","4","4","3","4","4","4","4","4","1","1","0","0","0","1","1","1","0","0","1","0","1","0","1","5","4","4","2","5","1","3","4","4","2","2","701209824037175296","潘","159","","","","","","","","","","","","","","","","","","","","","","","","","","","","","","","","","","","","","","","","","",""
"483","<p style=""color:rgb(150, 250, 100); font-size: 35px;"">我</p>","e","categorize-html","117","314622","0.0-6.0-0.0-8.0-1.4","4","4","4","4","4","4","4","4","4","4","4","4","4","4","3","5","4","4","5","4","4","4","4","3","4","4","4","4","4","1","1","0","0","0","1","1","1","0","0","1","0","1","0","1","5","4","4","2","5","1","3","4","4","2","2","701209824037175296","潘","159","","","","","","","","","","","","","","","","","","","true","4","4","ability","483","self","我","","","","","","","","","","","","","","","","",""
"null","","null","html-keyboard-response","118","314890","0.0-6.0-0.0-8.0-0.5","4","4","4","4","4","4","4","4","4","4","4","4","4","4","3","5","4","4","5","4","4","4","4","3","4","4","4","4","4","1","1","0","0","0","1","1","1","0","0","1","0","1","0","1","5","4","4","2","5","1","3","4","4","2","2","701209824037175296","潘","159","","","","","","","","","","","","","","","","","","","","","","","","","","","","","","","","","","","","","","","","","",""
"561","<p style=""color:white; font-size: 35px;"">无能</p>","i","categorize-html","119","315454","0.0-6.0-0.0-8.0-1.5","4","4","4","4","4","4","4","4","4","4","4","4","4","4","3","5","4","4","5","4","4","4","4","3","4","4","4","4","4","1","1","0","0","0","1","1","1","0","0","1","0","1","0","1","5","4","4","2","5","1","3","4","4","2","2","701209824037175296","潘","159","","","","","","","","","","","","","","","","","","","true","4","4","ability","561","negative","无能","","","","","","","","","","","","","","","","",""
"null","","null","html-keyboard-response","120","315705","0.0-6.0-0.0-8.0-0.6","4","4","4","4","4","4","4","4","4","4","4","4","4","4","3","5","4","4","5","4","4","4","4","3","4","4","4","4","4","1","1","0","0","0","1","1","1","0","0","1","0","1","0","1","5","4","4","2","5","1","3","4","4","2","2","701209824037175296","潘","159","","","","","","","","","","","","","","","","","","","","","","","","","","","","","","","","","","","","","","","","","",""
"514","<p style=""color:rgb(150, 250, 100); font-size: 35px;"">他</p>","i","categorize-html","121","316222","0.0-6.0-0.0-8.0-1.6","4","4","4","4","4","4","4","4","4","4","4","4","4","4","3","5","4","4","5","4","4","4","4","3","4","4","4","4","4","1","1","0","0","0","1","1","1","0","0","1","0","1","0","1","5","4","4","2","5","1","3","4","4","2","2","701209824037175296","潘","159","","","","","","","","","","","","","","","","","","","true","4","4","ability","514","other","他","","","","","","","","","","","","","","","","",""
"null","","null","html-keyboard-response","122","316474","0.0-6.0-0.0-8.0-0.7","4","4","4","4","4","4","4","4","4","4","4","4","4","4","3","5","4","4","5","4","4","4","4","3","4","4","4","4","4","1","1","0","0","0","1","1","1","0","0","1","0","1","0","1","5","4","4","2","5","1","3","4","4","2","2","701209824037175296","潘","159","","","","","","","","","","","","","","","","","","","","","","","","","","","","","","","","","","","","","","","","","",""
"577","<p style=""color:white; font-size: 35px;"">高效</p>","e","categorize-html","123","317054","0.0-6.0-0.0-8.0-1.7","4","4","4","4","4","4","4","4","4","4","4","4","4","4","3","5","4","4","5","4","4","4","4","3","4","4","4","4","4","1","1","0","0","0","1","1","1","0","0","1","0","1","0","1","5","4","4","2","5","1","3","4","4","2","2","701209824037175296","潘","159","","","","","","","","","","","","","","","","","","","true","4","4","ability","577","positive","高效","","","","","","","","","","","","","","","","",""
"null","","null","html-keyboard-response","124","317306","0.0-6.0-0.0-8.0-0.8","4","4","4","4","4","4","4","4","4","4","4","4","4","4","3","5","4","4","5","4","4","4","4","3","4","4","4","4","4","1","1","0","0","0","1","1","1","0","0","1","0","1","0","1","5","4","4","2","5","1","3","4","4","2","2","701209824037175296","潘","159","","","","","","","","","","","","","","","","","","","","","","","","","","","","","","","","","","","","","","","","","",""
"476","<p style=""color:rgb(150, 250, 100); font-size: 35px;"">本人的</p>","e","categorize-html","125","317786","0.0-6.0-0.0-8.0-1.8","4","4","4","4","4","4","4","4","4","4","4","4","4","4","3","5","4","4","5","4","4","4","4","3","4","4","4","4","4","1","1","0","0","0","1","1","1","0","0","1","0","1","0","1","5","4","4","2","5","1","3","4","4","2","2","701209824037175296","潘","159","","","","","","","","","","","","","","","","","","","true","4","4","ability","476","self","本人的","","","","","","","","","","","","","","","","",""
"null","","null","html-keyboard-response","126","318038","0.0-6.0-0.0-8.0-0.9","4","4","4","4","4","4","4","4","4","4","4","4","4","4","3","5","4","4","5","4","4","4","4","3","4","4","4","4","4","1","1","0","0","0","1","1","1","0","0","1","0","1","0","1","5","4","4","2","5","1","3","4","4","2","2","701209824037175296","潘","159","","","","","","","","","","","","","","","","","","","","","","","","","","","","","","","","","","","","","","","","","",""
"507","<p style=""color:white; font-size: 35px;"">废物</p>","i","categorize-html","127","318558","0.0-6.0-0.0-8.0-1.9","4","4","4","4","4","4","4","4","4","4","4","4","4","4","3","5","4","4","5","4","4","4","4","3","4","4","4","4","4","1","1","0","0","0","1","1","1","0","0","1","0","1","0","1","5","4","4","2","5","1","3","4","4","2","2","701209824037175296","潘","159","","","","","","","","","","","","","","","","","","","true","4","4","ability","507","negative","废物","","","","","","","","","","","","","","","","",""
"null","","null","html-keyboard-response","128","318810","0.0-6.0-0.0-8.0-0.10","4","4","4","4","4","4","4","4","4","4","4","4","4","4","3","5","4","4","5","4","4","4","4","3","4","4","4","4","4","1","1","0","0","0","1","1","1","0","0","1","0","1","0","1","5","4","4","2","5","1","3","4","4","2","2","701209824037175296","潘","159","","","","","","","","","","","","","","","","","","","","","","","","","","","","","","","","","","","","","","","","","",""
"842","<p style=""color:rgb(150, 250, 100); font-size: 35px;"">别人的</p>","i","categorize-html","129","319656","0.0-6.0-0.0-8.0-1.10","4","4","4","4","4","4","4","4","4","4","4","4","4","4","3","5","4","4","5","4","4","4","4","3","4","4","4","4","4","1","1","0","0","0","1","1","1","0","0","1","0","1","0","1","5","4","4","2","5","1","3","4","4","2","2","701209824037175296","潘","159","","","","","","","","","","","","","","","","","","","true","4","4","ability","842","other","别人的","","","","","","","","","","","","","","","","",""
"null","","null","html-keyboard-response","130","319908","0.0-6.0-0.0-8.0-0.11","4","4","4","4","4","4","4","4","4","4","4","4","4","4","3","5","4","4","5","4","4","4","4","3","4","4","4","4","4","1","1","0","0","0","1","1","1","0","0","1","0","1","0","1","5","4","4","2","5","1","3","4","4","2","2","701209824037175296","潘","159","","","","","","","","","","","","","","","","","","","","","","","","","","","","","","","","","","","","","","","","","",""
"597","<p style=""color:white; font-size: 35px;"">精干</p>","e","categorize-html","131","320508","0.0-6.0-0.0-8.0-1.11","4","4","4","4","4","4","4","4","4","4","4","4","4","4","3","5","4","4","5","4","4","4","4","3","4","4","4","4","4","1","1","0","0","0","1","1","1","0","0","1","0","1","0","1","5","4","4","2","5","1","3","4","4","2","2","701209824037175296","潘","159","","","","","","","","","","","","","","","","","","","true","4","4","ability","597","positive","精干","","","","","","","","","","","","","","","","",""
"null","","null","html-keyboard-response","132","320760","0.0-6.0-0.0-8.0-0.12","4","4","4","4","4","4","4","4","4","4","4","4","4","4","3","5","4","4","5","4","4","4","4","3","4","4","4","4","4","1","1","0","0","0","1","1","1","0","0","1","0","1","0","1","5","4","4","2","5","1","3","4","4","2","2","701209824037175296","潘","159","","","","","","","","","","","","","","","","","","","","","","","","","","","","","","","","","","","","","","","","","",""
"463","<p style=""color:rgb(150, 250, 100); font-size: 35px;"">本人</p>","e","categorize-html","133","321226","0.0-6.0-0.0-8.0-1.12","4","4","4","4","4","4","4","4","4","4","4","4","4","4","3","5","4","4","5","4","4","4","4","3","4","4","4","4","4","1","1","0","0","0","1","1","1","0","0","1","0","1","0","1","5","4","4","2","5","1","3","4","4","2","2","701209824037175296","潘","159","","","","","","","","","","","","","","","","","","","true","4","4","ability","463","self","本人","","","","","","","","","","","","","","","","",""
"null","","null","html-keyboard-response","134","321480","0.0-6.0-0.0-8.0-0.13","4","4","4","4","4","4","4","4","4","4","4","4","4","4","3","5","4","4","5","4","4","4","4","3","4","4","4","4","4","1","1","0","0","0","1","1","1","0","0","1","0","1","0","1","5","4","4","2","5","1","3","4","4","2","2","701209824037175296","潘","159","","","","","","","","","","","","","","","","","","","","","","","","","","","","","","","","","","","","","","","","","",""
"543","<p style=""color:white; font-size: 35px;"">高效</p>","e","categorize-html","135","322028","0.0-6.0-0.0-8.0-1.13","4","4","4","4","4","4","4","4","4","4","4","4","4","4","3","5","4","4","5","4","4","4","4","3","4","4","4","4","4","1","1","0","0","0","1","1","1","0","0","1","0","1","0","1","5","4","4","2","5","1","3","4","4","2","2","701209824037175296","潘","159","","","","","","","","","","","","","","","","","","","true","4","4","ability","543","positive","高效","","","","","","","","","","","","","","","","",""
"null","","null","html-keyboard-response","136","322279","0.0-6.0-0.0-8.0-0.14","4","4","4","4","4","4","4","4","4","4","4","4","4","4","3","5","4","4","5","4","4","4","4","3","4","4","4","4","4","1","1","0","0","0","1","1","1","0","0","1","0","1","0","1","5","4","4","2","5","1","3","4","4","2","2","701209824037175296","潘","159","","","","","","","","","","","","","","","","","","","","","","","","","","","","","","","","","","","","","","","","","",""
"497","<p style=""color:rgb(150, 250, 100); font-size: 35px;"">他人的</p>","i","categorize-html","137","322780","0.0-6.0-0.0-8.0-1.14","4","4","4","4","4","4","4","4","4","4","4","4","4","4","3","5","4","4","5","4","4","4","4","3","4","4","4","4","4","1","1","0","0","0","1","1","1","0","0","1","0","1","0","1","5","4","4","2","5","1","3","4","4","2","2","701209824037175296","潘","159","","","","","","","","","","","","","","","","","","","true","4","4","ability","497","other","他人的","","","","","","","","","","","","","","","","",""
"null","","null","html-keyboard-response","138","323032","0.0-6.0-0.0-8.0-0.15","4","4","4","4","4","4","4","4","4","4","4","4","4","4","3","5","4","4","5","4","4","4","4","3","4","4","4","4","4","1","1","0","0","0","1","1","1","0","0","1","0","1","0","1","5","4","4","2","5","1","3","4","4","2","2","701209824037175296","潘","159","","","","","","","","","","","","","","","","","","","","","","","","","","","","","","","","","","","","","","","","","",""
"407","<p style=""color:white; font-size: 35px;"">拙笨</p>","i","categorize-html","139","323445","0.0-6.0-0.0-8.0-1.15","4","4","4","4","4","4","4","4","4","4","4","4","4","4","3","5","4","4","5","4","4","4","4","3","4","4","4","4","4","1","1","0","0","0","1","1","1","0","0","1","0","1","0","1","5","4","4","2","5","1","3","4","4","2","2","701209824037175296","潘","159","","","","","","","","","","","","","","","","","","","true","4","4","ability","407","negative","拙笨","","","","","","","","","","","","","","","","",""
"null","","null","html-keyboard-response","140","323698","0.0-6.0-0.0-8.0-0.16","4","4","4","4","4","4","4","4","4","4","4","4","4","4","3","5","4","4","5","4","4","4","4","3","4","4","4","4","4","1","1","0","0","0","1","1","1","0","0","1","0","1","0","1","5","4","4","2","5","1","3","4","4","2","2","701209824037175296","潘","159","","","","","","","","","","","","","","","","","","","","","","","","","","","","","","","","","","","","","","","","","",""
"448","<p style=""color:rgb(150, 250, 100); font-size: 35px;"">别人</p>","e","categorize-html","141","324979","0.0-6.0-0.0-8.0-1.16","4","4","4","4","4","4","4","4","4","4","4","4","4","4","3","5","4","4","5","4","4","4","4","3","4","4","4","4","4","1","1","0","0","0","1","1","1","0","0","1","0","1","0","1","5","4","4","2","5","1","3","4","4","2","2","701209824037175296","潘","159","","","","","","","","","","","","","","","","","","","false","4","4","ability","1169.4565217391305","other","别人","","","","","","","","","","","","","","","","",""
"null","","null","html-keyboard-response","142","325231","0.0-6.0-0.0-8.0-0.17","4","4","4","4","4","4","4","4","4","4","4","4","4","4","3","5","4","4","5","4","4","4","4","3","4","4","4","4","4","1","1","0","0","0","1","1","1","0","0","1","0","1","0","1","5","4","4","2","5","1","3","4","4","2","2","701209824037175296","潘","159","","","","","","","","","","","","","","","","","","","","","","","","","","","","","","","","","","","","","","","","","",""
"588","<p style=""color:white; font-size: 35px;"">全才</p>","e","categorize-html","143","325823","0.0-6.0-0.0-8.0-1.17","4","4","4","4","4","4","4","4","4","4","4","4","4","4","3","5","4","4","5","4","4","4","4","3","4","4","4","4","4","1","1","0","0","0","1","1","1","0","0","1","0","1","0","1","5","4","4","2","5","1","3","4","4","2","2","701209824037175296","潘","159","","","","","","","","","","","","","","","","","","","true","4","4","ability","588","positive","全才","","","","","","","","","","","","","","","","",""
"null","","null","html-keyboard-response","144","326074","0.0-6.0-0.0-8.0-0.18","4","4","4","4","4","4","4","4","4","4","4","4","4","4","3","5","4","4","5","4","4","4","4","3","4","4","4","4","4","1","1","0","0","0","1","1","1","0","0","1","0","1","0","1","5","4","4","2","5","1","3","4","4","2","2","701209824037175296","潘","159","","","","","","","","","","","","","","","","","","","","","","","","","","","","","","","","","","","","","","","","","",""
"508","<p style=""color:rgb(150, 250, 100); font-size: 35px;"">我</p>","e","categorize-html","145","326585","0.0-6.0-0.0-8.0-1.18","4","4","4","4","4","4","4","4","4","4","4","4","4","4","3","5","4","4","5","4","4","4","4","3","4","4","4","4","4","1","1","0","0","0","1","1","1","0","0","1","0","1","0","1","5","4","4","2","5","1","3","4","4","2","2","701209824037175296","潘","159","","","","","","","","","","","","","","","","","","","true","4","4","ability","508","self","我","","","","","","","","","","","","","","","","",""
"null","","null","html-keyboard-response","146","326837","0.0-6.0-0.0-8.0-0.19","4","4","4","4","4","4","4","4","4","4","4","4","4","4","3","5","4","4","5","4","4","4","4","3","4","4","4","4","4","1","1","0","0","0","1","1","1","0","0","1","0","1","0","1","5","4","4","2","5","1","3","4","4","2","2","701209824037175296","潘","159","","","","","","","","","","","","","","","","","","","","","","","","","","","","","","","","","","","","","","","","","",""
"553","<p style=""color:white; font-size: 35px;"">蠢笨</p>","i","categorize-html","147","327393","0.0-6.0-0.0-8.0-1.19","4","4","4","4","4","4","4","4","4","4","4","4","4","4","3","5","4","4","5","4","4","4","4","3","4","4","4","4","4","1","1","0","0","0","1","1","1","0","0","1","0","1","0","1","5","4","4","2","5","1","3","4","4","2","2","701209824037175296","潘","159","","","","","","","","","","","","","","","","","","","true","4","4","ability","553","negative","蠢笨","","","","","","","","","","","","","","","","",""
"null","","null","html-keyboard-response","148","327645","0.0-6.0-0.0-8.0-0.20","4","4","4","4","4","4","4","4","4","4","4","4","4","4","3","5","4","4","5","4","4","4","4","3","4","4","4","4","4","1","1","0","0","0","1","1","1","0","0","1","0","1","0","1","5","4","4","2","5","1","3","4","4","2","2","701209824037175296","潘","159","","","","","","","","","","","","","","","","","","","","","","","","","","","","","","","","","","","","","","","","","",""
"512","<p style=""color:rgb(150, 250, 100); font-size: 35px;"">他的</p>","i","categorize-html","149","328161","0.0-6.0-0.0-8.0-1.20","4","4","4","4","4","4","4","4","4","4","4","4","4","4","3","5","4","4","5","4","4","4","4","3","4","4","4","4","4","1","1","0","0","0","1","1","1","0","0","1","0","1","0","1","5","4","4","2","5","1","3","4","4","2","2","701209824037175296","潘","159","","","","","","","","","","","","","","","","","","","true","4","4","ability","512","other","他的","","","","","","","","","","","","","","","","",""
"null","","null","html-keyboard-response","150","328413","0.0-6.0-0.0-8.0-0.21","4","4","4","4","4","4","4","4","4","4","4","4","4","4","3","5","4","4","5","4","4","4","4","3","4","4","4","4","4","1","1","0","0","0","1","1","1","0","0","1","0","1","0","1","5","4","4","2","5","1","3","4","4","2","2","701209824037175296","潘","159","","","","","","","","","","","","","","","","","","","","","","","","","","","","","","","","","","","","","","","","","",""
"632","<p style=""color:white; font-size: 35px;"">全能</p>","e","categorize-html","151","329049","0.0-6.0-0.0-8.0-1.21","4","4","4","4","4","4","4","4","4","4","4","4","4","4","3","5","4","4","5","4","4","4","4","3","4","4","4","4","4","1","1","0","0","0","1","1","1","0","0","1","0","1","0","1","5","4","4","2","5","1","3","4","4","2","2","701209824037175296","潘","159","","","","","","","","","","","","","","","","","","","true","4","4","ability","632","positive","全能","","","","","","","","","","","","","","","","",""
"null","","null","html-keyboard-response","152","329301","0.0-6.0-0.0-8.0-0.22","4","4","4","4","4","4","4","4","4","4","4","4","4","4","3","5","4","4","5","4","4","4","4","3","4","4","4","4","4","1","1","0","0","0","1","1","1","0","0","1","0","1","0","1","5","4","4","2","5","1","3","4","4","2","2","701209824037175296","潘","159","","","","","","","","","","","","","","","","","","","","","","","","","","","","","","","","","","","","","","","","","",""
"625","<p style=""color:rgb(150, 250, 100); font-size: 35px;"">自己的</p>","e","categorize-html","153","329928","0.0-6.0-0.0-8.0-1.22","4","4","4","4","4","4","4","4","4","4","4","4","4","4","3","5","4","4","5","4","4","4","4","3","4","4","4","4","4","1","1","0","0","0","1","1","1","0","0","1","0","1","0","1","5","4","4","2","5","1","3","4","4","2","2","701209824037175296","潘","159","","","","","","","","","","","","","","","","","","","true","4","4","ability","625","self","自己的","","","","","","","","","","","","","","","","",""
"null","","null","html-keyboard-response","154","330180","0.0-6.0-0.0-8.0-0.23","4","4","4","4","4","4","4","4","4","4","4","4","4","4","3","5","4","4","5","4","4","4","4","3","4","4","4","4","4","1","1","0","0","0","1","1","1","0","0","1","0","1","0","1","5","4","4","2","5","1","3","4","4","2","2","701209824037175296","潘","159","","","","","","","","","","","","","","","","","","","","","","","","","","","","","","","","","","","","","","","","","",""
"599","<p style=""color:white; font-size: 35px;"">拙笨</p>","i","categorize-html","155","330781","0.0-6.0-0.0-8.0-1.23","4","4","4","4","4","4","4","4","4","4","4","4","4","4","3","5","4","4","5","4","4","4","4","3","4","4","4","4","4","1","1","0","0","0","1","1","1","0","0","1","0","1","0","1","5","4","4","2","5","1","3","4","4","2","2","701209824037175296","潘","159","","","","","","","","","","","","","","","","","","","true","4","4","ability","599","negative","拙笨","","","","","","","","","","","","","","","","",""
"null","","null","html-keyboard-response","156","331033","0.0-6.0-0.0-8.0-0.24","4","4","4","4","4","4","4","4","4","4","4","4","4","4","3","5","4","4","5","4","4","4","4","3","4","4","4","4","4","1","1","0","0","0","1","1","1","0","0","1","0","1","0","1","5","4","4","2","5","1","3","4","4","2","2","701209824037175296","潘","159","","","","","","","","","","","","","","","","","","","","","","","","","","","","","","","","","","","","","","","","","",""
"652","<p style=""color:rgb(150, 250, 100); font-size: 35px;"">他</p>","i","categorize-html","157","331689","0.0-6.0-0.0-8.0-1.24","4","4","4","4","4","4","4","4","4","4","4","4","4","4","3","5","4","4","5","4","4","4","4","3","4","4","4","4","4","1","1","0","0","0","1","1","1","0","0","1","0","1","0","1","5","4","4","2","5","1","3","4","4","2","2","701209824037175296","潘","159","","","","","","","","","","","","","","","","","","","true","4","4","ability","652","other","他","","","","","","","","","","","","","","","","",""
"null","","null","html-keyboard-response","158","331955","0.0-6.0-0.0-8.0-0.25","4","4","4","4","4","4","4","4","4","4","4","4","4","4","3","5","4","4","5","4","4","4","4","3","4","4","4","4","4","1","1","0","0","0","1","1","1","0","0","1","0","1","0","1","5","4","4","2","5","1","3","4","4","2","2","701209824037175296","潘","159","","","","","","","","","","","","","","","","","","","","","","","","","","","","","","","","","","","","","","","","","",""
"653","<p style=""color:white; font-size: 35px;"">能干</p>","e","categorize-html","159","332611","0.0-6.0-0.0-8.0-1.25","4","4","4","4","4","4","4","4","4","4","4","4","4","4","3","5","4","4","5","4","4","4","4","3","4","4","4","4","4","1","1","0","0","0","1","1","1","0","0","1","0","1","0","1","5","4","4","2","5","1","3","4","4","2","2","701209824037175296","潘","159","","","","","","","","","","","","","","","","","","","true","4","4","ability","653","positive","能干","","","","","","","","","","","","","","","","",""
"null","","null","html-keyboard-response","160","332865","0.0-6.0-0.0-8.0-0.26","4","4","4","4","4","4","4","4","4","4","4","4","4","4","3","5","4","4","5","4","4","4","4","3","4","4","4","4","4","1","1","0","0","0","1","1","1","0","0","1","0","1","0","1","5","4","4","2","5","1","3","4","4","2","2","701209824037175296","潘","159","","","","","","","","","","","","","","","","","","","","","","","","","","","","","","","","","","","","","","","","","",""
"570","<p style=""color:rgb(150, 250, 100); font-size: 35px;"">自己</p>","e","categorize-html","161","333439","0.0-6.0-0.0-8.0-1.26","4","4","4","4","4","4","4","4","4","4","4","4","4","4","3","5","4","4","5","4","4","4","4","3","4","4","4","4","4","1","1","0","0","0","1","1","1","0","0","1","0","1","0","1","5","4","4","2","5","1","3","4","4","2","2","701209824037175296","潘","159","","","","","","","","","","","","","","","","","","","true","4","4","ability","570","self","自己","","","","","","","","","","","","","","","","",""
"null","","null","html-keyboard-response","162","333696","0.0-6.0-0.0-8.0-0.27","4","4","4","4","4","4","4","4","4","4","4","4","4","4","3","5","4","4","5","4","4","4","4","3","4","4","4","4","4","1","1","0","0","0","1","1","1","0","0","1","0","1","0","1","5","4","4","2","5","1","3","4","4","2","2","701209824037175296","潘","159","","","","","","","","","","","","","","","","","","","","","","","","","","","","","","","","","","","","","","","","","",""
"618","<p style=""color:white; font-size: 35px;"">低能</p>","i","categorize-html","163","334321","0.0-6.0-0.0-8.0-1.27","4","4","4","4","4","4","4","4","4","4","4","4","4","4","3","5","4","4","5","4","4","4","4","3","4","4","4","4","4","1","1","0","0","0","1","1","1","0","0","1","0","1","0","1","5","4","4","2","5","1","3","4","4","2","2","701209824037175296","潘","159","","","","","","","","","","","","","","","","","","","true","4","4","ability","618","negative","低能","","","","","","","","","","","","","","","","",""
"null","","null","html-keyboard-response","164","334573","0.0-6.0-0.0-8.0-0.28","4","4","4","4","4","4","4","4","4","4","4","4","4","4","3","5","4","4","5","4","4","4","4","3","4","4","4","4","4","1","1","0","0","0","1","1","1","0","0","1","0","1","0","1","5","4","4","2","5","1","3","4","4","2","2","701209824037175296","潘","159","","","","","","","","","","","","","","","","","","","","","","","","","","","","","","","","","","","","","","","","","",""
"642","<p style=""color:rgb(150, 250, 100); font-size: 35px;"">他的</p>","i","categorize-html","165","335220","0.0-6.0-0.0-8.0-1.28","4","4","4","4","4","4","4","4","4","4","4","4","4","4","3","5","4","4","5","4","4","4","4","3","4","4","4","4","4","1","1","0","0","0","1","1","1","0","0","1","0","1","0","1","5","4","4","2","5","1","3","4","4","2","2","701209824037175296","潘","159","","","","","","","","","","","","","","","","","","","true","4","4","ability","642","other","他的","","","","","","","","","","","","","","","","",""
"null","","null","html-keyboard-response","166","335473","0.0-6.0-0.0-8.0-0.29","4","4","4","4","4","4","4","4","4","4","4","4","4","4","3","5","4","4","5","4","4","4","4","3","4","4","4","4","4","1","1","0","0","0","1","1","1","0","0","1","0","1","0","1","5","4","4","2","5","1","3","4","4","2","2","701209824037175296","潘","159","","","","","","","","","","","","","","","","","","","","","","","","","","","","","","","","","","","","","","","","","",""
"580","<p style=""color:white; font-size: 35px;"">天才</p>","e","categorize-html","167","336056","0.0-6.0-0.0-8.0-1.29","4","4","4","4","4","4","4","4","4","4","4","4","4","4","3","5","4","4","5","4","4","4","4","3","4","4","4","4","4","1","1","0","0","0","1","1","1","0","0","1","0","1","0","1","5","4","4","2","5","1","3","4","4","2","2","701209824037175296","潘","159","","","","","","","","","","","","","","","","","","","true","4","4","ability","580","positive","天才","","","","","","","","","","","","","","","","",""
"null","","null","html-keyboard-response","168","336308","0.0-6.0-0.0-8.0-0.30","4","4","4","4","4","4","4","4","4","4","4","4","4","4","3","5","4","4","5","4","4","4","4","3","4","4","4","4","4","1","1","0","0","0","1","1","1","0","0","1","0","1","0","1","5","4","4","2","5","1","3","4","4","2","2","701209824037175296","潘","159","","","","","","","","","","","","","","","","","","","","","","","","","","","","","","","","","","","","","","","","","",""
"657","<p style=""color:rgb(150, 250, 100); font-size: 35px;"">自己的</p>","e","categorize-html","169","336969","0.0-6.0-0.0-8.0-1.30","4","4","4","4","4","4","4","4","4","4","4","4","4","4","3","5","4","4","5","4","4","4","4","3","4","4","4","4","4","1","1","0","0","0","1","1","1","0","0","1","0","1","0","1","5","4","4","2","5","1","3","4","4","2","2","701209824037175296","潘","159","","","","","","","","","","","","","","","","","","","true","4","4","ability","657","self","自己的","","","","","","","","","","","","","","","","",""
"null","","null","html-keyboard-response","170","337223","0.0-6.0-0.0-8.0-0.31","4","4","4","4","4","4","4","4","4","4","4","4","4","4","3","5","4","4","5","4","4","4","4","3","4","4","4","4","4","1","1","0","0","0","1","1","1","0","0","1","0","1","0","1","5","4","4","2","5","1","3","4","4","2","2","701209824037175296","潘","159","","","","","","","","","","","","","","","","","","","","","","","","","","","","","","","","","","","","","","","","","",""
"517","<p style=""color:white; font-size: 35px;"">愚钝</p>","i","categorize-html","171","337745","0.0-6.0-0.0-8.0-1.31","4","4","4","4","4","4","4","4","4","4","4","4","4","4","3","5","4","4","5","4","4","4","4","3","4","4","4","4","4","1","1","0","0","0","1","1","1","0","0","1","0","1","0","1","5","4","4","2","5","1","3","4","4","2","2","701209824037175296","潘","159","","","","","","","","","","","","","","","","","","","true","4","4","ability","517","negative","愚钝","","","","","","","","","","","","","","","","",""
"null","","null","html-keyboard-response","172","337997","0.0-6.0-0.0-8.0-0.32","4","4","4","4","4","4","4","4","4","4","4","4","4","4","3","5","4","4","5","4","4","4","4","3","4","4","4","4","4","1","1","0","0","0","1","1","1","0","0","1","0","1","0","1","5","4","4","2","5","1","3","4","4","2","2","701209824037175296","潘","159","","","","","","","","","","","","","","","","","","","","","","","","","","","","","","","","","","","","","","","","","",""
"602","<p style=""color:rgb(150, 250, 100); font-size: 35px;"">他人的</p>","i","categorize-html","173","338603","0.0-6.0-0.0-8.0-1.32","4","4","4","4","4","4","4","4","4","4","4","4","4","4","3","5","4","4","5","4","4","4","4","3","4","4","4","4","4","1","1","0","0","0","1","1","1","0","0","1","0","1","0","1","5","4","4","2","5","1","3","4","4","2","2","701209824037175296","潘","159","","","","","","","","","","","","","","","","","","","true","4","4","ability","602","other","他人的","","","","","","","","","","","","","","","","",""
"null","","null","html-keyboard-response","174","338855","0.0-6.0-0.0-8.0-0.33","4","4","4","4","4","4","4","4","4","4","4","4","4","4","3","5","4","4","5","4","4","4","4","3","4","4","4","4","4","1","1","0","0","0","1","1","1","0","0","1","0","1","0","1","5","4","4","2","5","1","3","4","4","2","2","701209824037175296","潘","159","","","","","","","","","","","","","","","","","","","","","","","","","","","","","","","","","","","","","","","","","",""
"672","<p style=""color:white; font-size: 35px;"">精干</p>","e","categorize-html","175","339530","0.0-6.0-0.0-8.0-1.33","4","4","4","4","4","4","4","4","4","4","4","4","4","4","3","5","4","4","5","4","4","4","4","3","4","4","4","4","4","1","1","0","0","0","1","1","1","0","0","1","0","1","0","1","5","4","4","2","5","1","3","4","4","2","2","701209824037175296","潘","159","","","","","","","","","","","","","","","","","","","true","4","4","ability","672","positive","精干","","","","","","","","","","","","","","","","",""
"null","","null","html-keyboard-response","176","339782","0.0-6.0-0.0-8.0-0.34","4","4","4","4","4","4","4","4","4","4","4","4","4","4","3","5","4","4","5","4","4","4","4","3","4","4","4","4","4","1","1","0","0","0","1","1","1","0","0","1","0","1","0","1","5","4","4","2","5","1","3","4","4","2","2","701209824037175296","潘","159","","","","","","","","","","","","","","","","","","","","","","","","","","","","","","","","","","","","","","","","","",""
"662","<p style=""color:rgb(150, 250, 100); font-size: 35px;"">自己</p>","e","categorize-html","177","340449","0.0-6.0-0.0-8.0-1.34","4","4","4","4","4","4","4","4","4","4","4","4","4","4","3","5","4","4","5","4","4","4","4","3","4","4","4","4","4","1","1","0","0","0","1","1","1","0","0","1","0","1","0","1","5","4","4","2","5","1","3","4","4","2","2","701209824037175296","潘","159","","","","","","","","","","","","","","","","","","","true","4","4","ability","662","self","自己","","","","","","","","","","","","","","","","",""
"null","","null","html-keyboard-response","178","340702","0.0-6.0-0.0-8.0-0.35","4","4","4","4","4","4","4","4","4","4","4","4","4","4","3","5","4","4","5","4","4","4","4","3","4","4","4","4","4","1","1","0","0","0","1","1","1","0","0","1","0","1","0","1","5","4","4","2","5","1","3","4","4","2","2","701209824037175296","潘","159","","","","","","","","","","","","","","","","","","","","","","","","","","","","","","","","","","","","","","","","","",""
"600","<p style=""color:white; font-size: 35px;"">蠢笨</p>","i","categorize-html","179","341305","0.0-6.0-0.0-8.0-1.35","4","4","4","4","4","4","4","4","4","4","4","4","4","4","3","5","4","4","5","4","4","4","4","3","4","4","4","4","4","1","1","0","0","0","1","1","1","0","0","1","0","1","0","1","5","4","4","2","5","1","3","4","4","2","2","701209824037175296","潘","159","","","","","","","","","","","","","","","","","","","true","4","4","ability","600","negative","蠢笨","","","","","","","","","","","","","","","","",""
"null","","null","html-keyboard-response","180","341557","0.0-6.0-0.0-8.0-0.36","4","4","4","4","4","4","4","4","4","4","4","4","4","4","3","5","4","4","5","4","4","4","4","3","4","4","4","4","4","1","1","0","0","0","1","1","1","0","0","1","0","1","0","1","5","4","4","2","5","1","3","4","4","2","2","701209824037175296","潘","159","","","","","","","","","","","","","","","","","","","","","","","","","","","","","","","","","","","","","","","","","",""
"493","<p style=""color:rgb(150, 250, 100); font-size: 35px;"">他人</p>","i","categorize-html","181","342053","0.0-6.0-0.0-8.0-1.36","4","4","4","4","4","4","4","4","4","4","4","4","4","4","3","5","4","4","5","4","4","4","4","3","4","4","4","4","4","1","1","0","0","0","1","1","1","0","0","1","0","1","0","1","5","4","4","2","5","1","3","4","4","2","2","701209824037175296","潘","159","","","","","","","","","","","","","","","","","","","true","4","4","ability","493","other","他人","","","","","","","","","","","","","","","","",""
"null","","null","html-keyboard-response","182","342305","0.0-6.0-0.0-8.0-0.37","4","4","4","4","4","4","4","4","4","4","4","4","4","4","3","5","4","4","5","4","4","4","4","3","4","4","4","4","4","1","1","0","0","0","1","1","1","0","0","1","0","1","0","1","5","4","4","2","5","1","3","4","4","2","2","701209824037175296","潘","159","","","","","","","","","","","","","","","","","","","","","","","","","","","","","","","","","","","","","","","","","",""
"491","<p style=""color:white; font-size: 35px;"">愚钝</p>","i","categorize-html","183","342800","0.0-6.0-0.0-8.0-1.37","4","4","4","4","4","4","4","4","4","4","4","4","4","4","3","5","4","4","5","4","4","4","4","3","4","4","4","4","4","1","1","0","0","0","1","1","1","0","0","1","0","1","0","1","5","4","4","2","5","1","3","4","4","2","2","701209824037175296","潘","159","","","","","","","","","","","","","","","","","","","true","4","4","ability","491","negative","愚钝","","","","","","","","","","","","","","","","",""
"null","","null","html-keyboard-response","184","343051","0.0-6.0-0.0-8.0-0.38","4","4","4","4","4","4","4","4","4","4","4","4","4","4","3","5","4","4","5","4","4","4","4","3","4","4","4","4","4","1","1","0","0","0","1","1","1","0","0","1","0","1","0","1","5","4","4","2","5","1","3","4","4","2","2","701209824037175296","潘","159","","","","","","","","","","","","","","","","","","","","","","","","","","","","","","","","","","","","","","","","","",""
"508","<p style=""color:rgb(150, 250, 100); font-size: 35px;"">我的</p>","e","categorize-html","185","343562","0.0-6.0-0.0-8.0-1.38","4","4","4","4","4","4","4","4","4","4","4","4","4","4","3","5","4","4","5","4","4","4","4","3","4","4","4","4","4","1","1","0","0","0","1","1","1","0","0","1","0","1","0","1","5","4","4","2","5","1","3","4","4","2","2","701209824037175296","潘","159","","","","","","","","","","","","","","","","","","","true","4","4","ability","508","self","我的","","","","","","","","","","","","","","","","",""
"null","","null","html-keyboard-response","186","343814","0.0-6.0-0.0-8.0-0.39","4","4","4","4","4","4","4","4","4","4","4","4","4","4","3","5","4","4","5","4","4","4","4","3","4","4","4","4","4","1","1","0","0","0","1","1","1","0","0","1","0","1","0","1","5","4","4","2","5","1","3","4","4","2","2","701209824037175296","潘","159","","","","","","","","","","","","","","","","","","","","","","","","","","","","","","","","","","","","","","","","","",""
"578","<p style=""color:white; font-size: 35px;"">能干</p>","e","categorize-html","187","344396","0.0-6.0-0.0-8.0-1.39","4","4","4","4","4","4","4","4","4","4","4","4","4","4","3","5","4","4","5","4","4","4","4","3","4","4","4","4","4","1","1","0","0","0","1","1","1","0","0","1","0","1","0","1","5","4","4","2","5","1","3","4","4","2","2","701209824037175296","潘","159","","","","","","","","","","","","","","","","","","","true","4","4","ability","578","positive","能干","","","","","","","","","","","","","","","","",""
"null","","null","html-keyboard-response","188","344647","0.0-6.0-0.0-8.0-0.40","4","4","4","4","4","4","4","4","4","4","4","4","4","4","3","5","4","4","5","4","4","4","4","3","4","4","4","4","4","1","1","0","0","0","1","1","1","0","0","1","0","1","0","1","5","4","4","2","5","1","3","4","4","2","2","701209824037175296","潘","159","","","","","","","","","","","","","","","","","","","","","","","","","","","","","","","","","","","","","","","","","",""
"541","<p style=""color:rgb(150, 250, 100); font-size: 35px;"">别人的</p>","i","categorize-html","189","345193","0.0-6.0-0.0-8.0-1.40","4","4","4","4","4","4","4","4","4","4","4","4","4","4","3","5","4","4","5","4","4","4","4","3","4","4","4","4","4","1","1","0","0","0","1","1","1","0","0","1","0","1","0","1","5","4","4","2","5","1","3","4","4","2","2","701209824037175296","潘","159","","","","","","","","","","","","","","","","","","","true","4","4","ability","541","other","别人的","","","","","","","","","","","","","","","","",""
"null","","null","html-keyboard-response","190","345445","0.0-6.0-0.0-8.0-0.41","4","4","4","4","4","4","4","4","4","4","4","4","4","4","3","5","4","4","5","4","4","4","4","3","4","4","4","4","4","1","1","0","0","0","1","1","1","0","0","1","0","1","0","1","5","4","4","2","5","1","3","4","4","2","2","701209824037175296","潘","159","","","","","","","","","","","","","","","","","","","","","","","","","","","","","","","","","","","","","","","","","",""
"515","<p style=""color:white; font-size: 35px;"">低能</p>","i","categorize-html","191","345964","0.0-6.0-0.0-8.0-1.41","4","4","4","4","4","4","4","4","4","4","4","4","4","4","3","5","4","4","5","4","4","4","4","3","4","4","4","4","4","1","1","0","0","0","1","1","1","0","0","1","0","1","0","1","5","4","4","2","5","1","3","4","4","2","2","701209824037175296","潘","159","","","","","","","","","","","","","","","","","","","true","4","4","ability","515","negative","低能","","","","","","","","","","","","","","","","",""
"null","","null","html-keyboard-response","192","346216","0.0-6.0-0.0-8.0-0.42","4","4","4","4","4","4","4","4","4","4","4","4","4","4","3","5","4","4","5","4","4","4","4","3","4","4","4","4","4","1","1","0","0","0","1","1","1","0","0","1","0","1","0","1","5","4","4","2","5","1","3","4","4","2","2","701209824037175296","潘","159","","","","","","","","","","","","","","","","","","","","","","","","","","","","","","","","","","","","","","","","","",""
"607","<p style=""color:rgb(150, 250, 100); font-size: 35px;"">本人的</p>","e","categorize-html","193","346826","0.0-6.0-0.0-8.0-1.42","4","4","4","4","4","4","4","4","4","4","4","4","4","4","3","5","4","4","5","4","4","4","4","3","4","4","4","4","4","1","1","0","0","0","1","1","1","0","0","1","0","1","0","1","5","4","4","2","5","1","3","4","4","2","2","701209824037175296","潘","159","","","","","","","","","","","","","","","","","","","true","4","4","ability","607","self","本人的","","","","","","","","","","","","","","","","",""
