"rt","stimulus","response","trial_type","trial_index","time_elapsed","internal_node_id","ses_1","ses_2","ses_3","ses_4","ses_5","ses_6","ses_7","ses_8","ses_9","ses_10","coreself_1","coreself_2","coreself_3","coreself_4","coreself_5","coreself_6","coreself_7","coreself_8","coreself_9","coreself_10","SGPS_1","SGPS_2","SGPS_3","SGPS_4","SGPS_5","SGPS_6","SGPS_7","SGPS_8","SGPS_9","NPI1","NPI2","NPI3","NPI4","NPI5","NPI6","NPI7","NPI8","NPI9","NPI10","NPI11","NPI12","NPI13","NPI14","NPI15","hsns_1","hsns_2","hsns_3","hsns_4","hsns_5","trap1","hsns_6","hsns_7","hsns_8","hsns_9","hsns_10","subj_idx","friend_name","ParticipantID","value","success","user_agent","responses","item_order","radio_event_ids","radio_event_times","key_event_times","mouse_event_times","straightlining","zigzagging","honeypot","timeout","failed_images","failed_audio","failed_video","version_attrib","version_target","correct","IAT","screen_id","task_id","RT","condition","word","varname","summary","version_attrib2","version_target2","time_stamp","view_history","response_type","key_press","avg_frame_time","center_x","center_y","correct_response","identity","Image","question_order","correct_answer","trap1_item"
"23132","
   <p><div style = ""color: white;font-size:25px;"">您好，欢迎参加本次实验。</div> </p>
   <p><div style = ""color: white;font-size:25px;"">为充分保障您的权利，请确保您已经知晓并同意《参与实验同意书》以及《数据公开知情同意书》。</div></p>
   <p><div style = ""color: white;font-size:25px;"">如果您未见过上述内容，请咨询实验员。</div></p>
   <p><div style = ""color: white;font-size:25px;"">如果您选择继续实验，则表示您已经清楚两份知情同意书的内容并同意。</div></p>
   <p><div style = ""color: pink;font-size:30px;"">请确保您记得day0的实验编号，您将在本次实验输入该编号，若您忘记，请咨询实验员后作答。</div></p>
   <p><div style = ""color: lightblue;font-size:25px;"">请您尽可能认真地作答，我们将依据您在各问卷和按键任务中的作答质量发放报酬。</div></p>
   <p> <div style = ""color: green;font-size:25px;""><按空格键至下页></div> </p>
   "," ","html-keyboard-response","0","23165","0.0-0.0","3","3","4","3","3","3","3","4","3","4","4","4","3","3","4","4","4","4","4","4","2","2","2","1","2","2","2","2","1","1","0","0","1","0","0","0","1","0","1","1","1","1","0","0","4","2","2","1","2","4","3","4","4","2","2","781449352643350529","徐","155","","","","","","","","","","","","","","","","","","","","","","","","","","","","","","","","","","","","","","","","","",""
"","","","call-function","1","23171","0.0-1.0-0.0","3","3","4","3","3","3","3","4","3","4","4","4","3","3","4","4","4","4","4","4","2","2","2","1","2","2","2","2","1","1","0","0","1","0","0","0","1","0","1","1","1","1","0","0","4","2","2","1","2","4","3","4","4","2","2","781449352643350529","徐","155","","","","","","","","","","","","","","","","","","","","","","","","","","","","","","","","","","","","","","","","","",""
"31795","","{""friend_name"":""徐"",""ParticipantID"":""155""}","survey-html-form","2","55012","0.0-1.0-1.0","3","3","4","3","3","3","3","4","3","4","4","4","3","3","4","4","4","4","4","4","2","2","2","1","2","2","2","2","1","1","0","0","1","0","0","0","1","0","1","1","1","1","0","0","4","2","2","1","2","4","3","4","4","2","2","781449352643350529","徐","155","","","","","","","","","","","","","","","","","","","","","","","","","","","","","","","","","","","","","","","","","",""
"","","","fullscreen","3","74436","0.0-2.0","3","3","4","3","3","3","3","4","3","4","4","4","3","3","4","4","4","4","4","4","2","2","2","1","2","2","2","2","1","1","0","0","1","0","0","0","1","0","1","1","1","1","0","0","4","2","2","1","2","4","3","4","4","2","2","781449352643350529","徐","155","","true","{}","","","","","","","","","","","","","","","","","","","","","","","","","","","","","","","","","","","","","","",""
"24873.100000023842","","{""Q01"":""3"",""Q02"":""3"",""Q03"":""4"",""Q04"":""3"",""Q05"":""3"",""Q06"":""3"",""Q07"":""3"",""Q08"":""4"",""Q09"":""3"",""Q10"":""4""}","survey-template","4","99321","0.0-3.0","3","3","4","3","3","3","3","4","3","4","4","4","3","3","4","4","4","4","4","4","2","2","2","1","2","2","2","2","1","1","0","0","1","0","0","0","1","0","1","1","1","1","0","0","4","2","2","1","2","4","3","4","4","2","2","781449352643350529","徐","155","","","","{""Q01"":""3"",""Q02"":""3"",""Q03"":""4"",""Q04"":""3"",""Q05"":""3"",""Q06"":""3"",""Q07"":""3"",""Q08"":""4"",""Q09"":""3"",""Q10"":""4""}","[0,1,2,3,4,5,6,7,8,9]","[""Q01"",""Q02"",""Q03"",""Q04"",""Q05"",""Q06"",""Q07"",""Q08"",""Q09"",""Q10""]","[6223,8400.800000071526,11382.899999976158,12328.899999976158,13890.899999976158,15051,16532.899999976158,19886.899999976158,21982.899999976158,23363]","[]","[5746.899999976158,6223,7793.5,8400.800000071526,11382.899999976158,12328.899999976158,13890.899999976158,15051,16532.899999976158,19886.899999976158,21982.899999976158,23363,24871.100000023842]","0.5","0.4444444444444444","0","","","","","","","","","","","","","","","","","","","","","","","","","","","","","",""
"28059.799999952316","","{""Q01"":""4"",""Q02"":""4"",""Q03"":""3"",""Q04"":""3"",""Q05"":""4"",""Q06"":""4"",""Q07"":""4"",""Q08"":""4"",""Q09"":""4"",""Q10"":""4""}","survey-template","5","127390","0.0-4.0","3","3","4","3","3","3","3","4","3","4","4","4","3","3","4","4","4","4","4","4","2","2","2","1","2","2","2","2","1","1","0","0","1","0","0","0","1","0","1","1","1","1","0","0","4","2","2","1","2","4","3","4","4","2","2","781449352643350529","徐","155","","","","{""Q01"":""4"",""Q02"":""4"",""Q03"":""3"",""Q04"":""3"",""Q05"":""4"",""Q06"":""4"",""Q07"":""4"",""Q08"":""4"",""Q09"":""4"",""Q10"":""4""}","[0,1,2,3,4,5,6,7,8,9]","[""Q01"",""Q02"",""Q03"",""Q03"",""Q04"",""Q05"",""Q06"",""Q07"",""Q08"",""Q09"",""Q10""]","[5959.399999976158,7695.399999976158,9547.399999976158,12017.399999976158,13941.5,15235.600000023842,16771,18469.399999976158,22864,24409.399999976158,26311.399999976158]","[]","[5367.199999928474,5959.399999976158,7695.399999976158,9547.399999976158,12017.399999976158,13267.799999952316,13941.5,15235.600000023842,16771,18145.600000023842,18469.399999976158,22864,24409.399999976158,26311.399999976158,28057.699999928474]","0.5","0.2222222222222222","0","","","","","","","","","","","","","","","","","","","","","","","","","","","","","",""
"","","","preload","6","127807","0.0-5.0","3","3","4","3","3","3","3","4","3","4","4","4","3","3","4","4","4","4","4","4","2","2","2","1","2","2","2","2","1","1","0","0","1","0","0","0","1","0","1","1","1","1","0","0","4","2","2","1","2","4","3","4","4","2","2","781449352643350529","徐","155","","true","","","","","","","","","","","false","[]","[]","[]","","","","","","","","","","","","","","","","","","","","","","","","","",""
"11537","
    <h3>词语分类任务</h3>
    <p>在接下来的任务中，你需要对一系列词语进行分类。</p>
    <p>请先熟悉这些词语，这有利于你完成接下来的任务。</p>
    <table align=""center"" border=1 cellpadding=3 cellspacing=0>
    <tr> <th>类别</th> <th>词语</th> </tr>
    <tr> <td>&emsp;积极&emsp;</td> <td>&emsp;能干、全能、全才、高效、精干、天才&emsp;</td> </tr>
    <tr> <td>&emsp;消极&emsp;</td> <td>&emsp;无能、低能、废物、拙笨、愚钝、蠢笨&emsp;</td> </tr>
    <tr> <td>&emsp;自我&emsp;</td> <td>&emsp;我、我的、自己、自己的、本人、本人的&emsp;</td> </tr>
    <tr> <td>&emsp;他人&emsp;</td> <td>&emsp;他、他的、别人、别人的、他人、他人的&emsp;</td> </tr>
    </table><br/>","0","html-button-response","7","139349","0.0-6.0-0.0-0.0","3","3","4","3","3","3","3","4","3","4","4","4","3","3","4","4","4","4","4","4","2","2","2","1","2","2","2","2","1","1","0","0","1","0","0","0","1","0","1","1","1","1","0","0","4","2","2","1","2","4","3","4","4","2","2","781449352643350529","徐","155","","","","","","","","","","","","","","","","","1","1","","","","","","","","","","","","","","","","","","","","","","","",""
"24364","
    <div class=""tag-bottom"">
    <p> —— 任务1：对“自我”词和“他人”词分类 ——<p/>
    不同词语会出现在屏幕中央，类别标签将始终显示在屏幕上方<p/>   
    <span style=""color:#FFD866""><b>请根据上方标签的提示，尽可能正确并且快速地做出按键反应</b></span><p/>
    当按键错误时屏幕中会出现<span style=""color:red""> X </span>，需要按另一个键纠正才能继续<br/><p/>
    请把双手食指分别放在键盘的“E”键和“I”键上<p/>
    按<空格键>开始
    </p></div>"," ","html-keyboard-response","8","163718","0.0-6.0-0.0-1.0","3","3","4","3","3","3","3","4","3","4","4","4","3","3","4","4","4","4","4","4","2","2","2","1","2","2","2","2","1","1","0","0","1","0","0","0","1","0","1","1","1","1","0","0","4","2","2","1","2","4","3","4","4","2","2","781449352643350529","徐","155","","","","","","","","","","","","","","","","","","","","","","","","","","","","","","","","","","","","","","","","","",""
"null","","null","html-keyboard-response","9","163970","0.0-6.0-0.0-2.0-0.0","3","3","4","3","3","3","3","4","3","4","4","4","3","3","4","4","4","4","4","4","2","2","2","1","2","2","2","2","1","1","0","0","1","0","0","0","1","0","1","1","1","1","0","0","4","2","2","1","2","4","3","4","4","2","2","781449352643350529","徐","155","","","","","","","","","","","","","","","","","","","","","","","","","","","","","","","","","","","","","","","","","",""
"688","<p style=""color:rgb(150, 250, 100); font-size: 35px;"">我的</p>","e","categorize-html","10","164669","0.0-6.0-0.0-2.0-1.0","3","3","4","3","3","3","3","4","3","4","4","4","3","3","4","4","4","4","4","4","2","2","2","1","2","2","2","2","1","1","0","0","1","0","0","0","1","0","1","1","1","1","0","0","4","2","2","1","2","4","3","4","4","2","2","781449352643350529","徐","155","","","","","","","","","","","","","","","","","","","true","1","1","ability","688","self","我的","","","","","","","","","","","","","","","","",""
"null","","null","html-keyboard-response","11","164923","0.0-6.0-0.0-2.0-0.1","3","3","4","3","3","3","3","4","3","4","4","4","3","3","4","4","4","4","4","4","2","2","2","1","2","2","2","2","1","1","0","0","1","0","0","0","1","0","1","1","1","1","0","0","4","2","2","1","2","4","3","4","4","2","2","781449352643350529","徐","155","","","","","","","","","","","","","","","","","","","","","","","","","","","","","","","","","","","","","","","","","",""
"532","<p style=""color:rgb(150, 250, 100); font-size: 35px;"">自己</p>","e","categorize-html","12","165461","0.0-6.0-0.0-2.0-1.1","3","3","4","3","3","3","3","4","3","4","4","4","3","3","4","4","4","4","4","4","2","2","2","1","2","2","2","2","1","1","0","0","1","0","0","0","1","0","1","1","1","1","0","0","4","2","2","1","2","4","3","4","4","2","2","781449352643350529","徐","155","","","","","","","","","","","","","","","","","","","true","1","1","ability","532","self","自己","","","","","","","","","","","","","","","","",""
"null","","null","html-keyboard-response","13","165713","0.0-6.0-0.0-2.0-0.2","3","3","4","3","3","3","3","4","3","4","4","4","3","3","4","4","4","4","4","4","2","2","2","1","2","2","2","2","1","1","0","0","1","0","0","0","1","0","1","1","1","1","0","0","4","2","2","1","2","4","3","4","4","2","2","781449352643350529","徐","155","","","","","","","","","","","","","","","","","","","","","","","","","","","","","","","","","","","","","","","","","",""
"470","<p style=""color:rgb(150, 250, 100); font-size: 35px;"">他的</p>","i","categorize-html","14","166189","0.0-6.0-0.0-2.0-1.2","3","3","4","3","3","3","3","4","3","4","4","4","3","3","4","4","4","4","4","4","2","2","2","1","2","2","2","2","1","1","0","0","1","0","0","0","1","0","1","1","1","1","0","0","4","2","2","1","2","4","3","4","4","2","2","781449352643350529","徐","155","","","","","","","","","","","","","","","","","","","true","1","1","ability","470","other","他的","","","","","","","","","","","","","","","","",""
"null","","null","html-keyboard-response","15","166442","0.0-6.0-0.0-2.0-0.3","3","3","4","3","3","3","3","4","3","4","4","4","3","3","4","4","4","4","4","4","2","2","2","1","2","2","2","2","1","1","0","0","1","0","0","0","1","0","1","1","1","1","0","0","4","2","2","1","2","4","3","4","4","2","2","781449352643350529","徐","155","","","","","","","","","","","","","","","","","","","","","","","","","","","","","","","","","","","","","","","","","",""
"425","<p style=""color:rgb(150, 250, 100); font-size: 35px;"">他人</p>","i","categorize-html","16","166873","0.0-6.0-0.0-2.0-1.3","3","3","4","3","3","3","3","4","3","4","4","4","3","3","4","4","4","4","4","4","2","2","2","1","2","2","2","2","1","1","0","0","1","0","0","0","1","0","1","1","1","1","0","0","4","2","2","1","2","4","3","4","4","2","2","781449352643350529","徐","155","","","","","","","","","","","","","","","","","","","true","1","1","ability","425","other","他人","","","","","","","","","","","","","","","","",""
"null","","null","html-keyboard-response","17","167126","0.0-6.0-0.0-2.0-0.4","3","3","4","3","3","3","3","4","3","4","4","4","3","3","4","4","4","4","4","4","2","2","2","1","2","2","2","2","1","1","0","0","1","0","0","0","1","0","1","1","1","1","0","0","4","2","2","1","2","4","3","4","4","2","2","781449352643350529","徐","155","","","","","","","","","","","","","","","","","","","","","","","","","","","","","","","","","","","","","","","","","",""
"426","<p style=""color:rgb(150, 250, 100); font-size: 35px;"">自己的</p>","e","categorize-html","18","167556","0.0-6.0-0.0-2.0-1.4","3","3","4","3","3","3","3","4","3","4","4","4","3","3","4","4","4","4","4","4","2","2","2","1","2","2","2","2","1","1","0","0","1","0","0","0","1","0","1","1","1","1","0","0","4","2","2","1","2","4","3","4","4","2","2","781449352643350529","徐","155","","","","","","","","","","","","","","","","","","","true","1","1","ability","426","self","自己的","","","","","","","","","","","","","","","","",""
"null","","null","html-keyboard-response","19","167807","0.0-6.0-0.0-2.0-0.5","3","3","4","3","3","3","3","4","3","4","4","4","3","3","4","4","4","4","4","4","2","2","2","1","2","2","2","2","1","1","0","0","1","0","0","0","1","0","1","1","1","1","0","0","4","2","2","1","2","4","3","4","4","2","2","781449352643350529","徐","155","","","","","","","","","","","","","","","","","","","","","","","","","","","","","","","","","","","","","","","","","",""
"466","<p style=""color:rgb(150, 250, 100); font-size: 35px;"">他人的</p>","i","categorize-html","20","168279","0.0-6.0-0.0-2.0-1.5","3","3","4","3","3","3","3","4","3","4","4","4","3","3","4","4","4","4","4","4","2","2","2","1","2","2","2","2","1","1","0","0","1","0","0","0","1","0","1","1","1","1","0","0","4","2","2","1","2","4","3","4","4","2","2","781449352643350529","徐","155","","","","","","","","","","","","","","","","","","","true","1","1","ability","466","other","他人的","","","","","","","","","","","","","","","","",""
"null","","null","html-keyboard-response","21","168531","0.0-6.0-0.0-2.0-0.6","3","3","4","3","3","3","3","4","3","4","4","4","3","3","4","4","4","4","4","4","2","2","2","1","2","2","2","2","1","1","0","0","1","0","0","0","1","0","1","1","1","1","0","0","4","2","2","1","2","4","3","4","4","2","2","781449352643350529","徐","155","","","","","","","","","","","","","","","","","","","","","","","","","","","","","","","","","","","","","","","","","",""
"401","<p style=""color:rgb(150, 250, 100); font-size: 35px;"">我</p>","e","categorize-html","22","168938","0.0-6.0-0.0-2.0-1.6","3","3","4","3","3","3","3","4","3","4","4","4","3","3","4","4","4","4","4","4","2","2","2","1","2","2","2","2","1","1","0","0","1","0","0","0","1","0","1","1","1","1","0","0","4","2","2","1","2","4","3","4","4","2","2","781449352643350529","徐","155","","","","","","","","","","","","","","","","","","","true","1","1","ability","401","self","我","","","","","","","","","","","","","","","","",""
"null","","null","html-keyboard-response","23","169195","0.0-6.0-0.0-2.0-0.7","3","3","4","3","3","3","3","4","3","4","4","4","3","3","4","4","4","4","4","4","2","2","2","1","2","2","2","2","1","1","0","0","1","0","0","0","1","0","1","1","1","1","0","0","4","2","2","1","2","4","3","4","4","2","2","781449352643350529","徐","155","","","","","","","","","","","","","","","","","","","","","","","","","","","","","","","","","","","","","","","","","",""
"555","<p style=""color:rgb(150, 250, 100); font-size: 35px;"">本人的</p>","e","categorize-html","24","169753","0.0-6.0-0.0-2.0-1.7","3","3","4","3","3","3","3","4","3","4","4","4","3","3","4","4","4","4","4","4","2","2","2","1","2","2","2","2","1","1","0","0","1","0","0","0","1","0","1","1","1","1","0","0","4","2","2","1","2","4","3","4","4","2","2","781449352643350529","徐","155","","","","","","","","","","","","","","","","","","","true","1","1","ability","555","self","本人的","","","","","","","","","","","","","","","","",""
"null","","null","html-keyboard-response","25","170005","0.0-6.0-0.0-2.0-0.8","3","3","4","3","3","3","3","4","3","4","4","4","3","3","4","4","4","4","4","4","2","2","2","1","2","2","2","2","1","1","0","0","1","0","0","0","1","0","1","1","1","1","0","0","4","2","2","1","2","4","3","4","4","2","2","781449352643350529","徐","155","","","","","","","","","","","","","","","","","","","","","","","","","","","","","","","","","","","","","","","","","",""
"390","<p style=""color:rgb(150, 250, 100); font-size: 35px;"">本人</p>","e","categorize-html","26","170401","0.0-6.0-0.0-2.0-1.8","3","3","4","3","3","3","3","4","3","4","4","4","3","3","4","4","4","4","4","4","2","2","2","1","2","2","2","2","1","1","0","0","1","0","0","0","1","0","1","1","1","1","0","0","4","2","2","1","2","4","3","4","4","2","2","781449352643350529","徐","155","","","","","","","","","","","","","","","","","","","true","1","1","ability","390","self","本人","","","","","","","","","","","","","","","","",""
"null","","null","html-keyboard-response","27","170653","0.0-6.0-0.0-2.0-0.9","3","3","4","3","3","3","3","4","3","4","4","4","3","3","4","4","4","4","4","4","2","2","2","1","2","2","2","2","1","1","0","0","1","0","0","0","1","0","1","1","1","1","0","0","4","2","2","1","2","4","3","4","4","2","2","781449352643350529","徐","155","","","","","","","","","","","","","","","","","","","","","","","","","","","","","","","","","","","","","","","","","",""
"474","<p style=""color:rgb(150, 250, 100); font-size: 35px;"">别人</p>","i","categorize-html","28","171131","0.0-6.0-0.0-2.0-1.9","3","3","4","3","3","3","3","4","3","4","4","4","3","3","4","4","4","4","4","4","2","2","2","1","2","2","2","2","1","1","0","0","1","0","0","0","1","0","1","1","1","1","0","0","4","2","2","1","2","4","3","4","4","2","2","781449352643350529","徐","155","","","","","","","","","","","","","","","","","","","true","1","1","ability","474","other","别人","","","","","","","","","","","","","","","","",""
"null","","null","html-keyboard-response","29","171383","0.0-6.0-0.0-2.0-0.10","3","3","4","3","3","3","3","4","3","4","4","4","3","3","4","4","4","4","4","4","2","2","2","1","2","2","2","2","1","1","0","0","1","0","0","0","1","0","1","1","1","1","0","0","4","2","2","1","2","4","3","4","4","2","2","781449352643350529","徐","155","","","","","","","","","","","","","","","","","","","","","","","","","","","","","","","","","","","","","","","","","",""
"394","<p style=""color:rgb(150, 250, 100); font-size: 35px;"">别人的</p>","i","categorize-html","30","171782","0.0-6.0-0.0-2.0-1.10","3","3","4","3","3","3","3","4","3","4","4","4","3","3","4","4","4","4","4","4","2","2","2","1","2","2","2","2","1","1","0","0","1","0","0","0","1","0","1","1","1","1","0","0","4","2","2","1","2","4","3","4","4","2","2","781449352643350529","徐","155","","","","","","","","","","","","","","","","","","","true","1","1","ability","394","other","别人的","","","","","","","","","","","","","","","","",""
"null","","null","html-keyboard-response","31","172035","0.0-6.0-0.0-2.0-0.11","3","3","4","3","3","3","3","4","3","4","4","4","3","3","4","4","4","4","4","4","2","2","2","1","2","2","2","2","1","1","0","0","1","0","0","0","1","0","1","1","1","1","0","0","4","2","2","1","2","4","3","4","4","2","2","781449352643350529","徐","155","","","","","","","","","","","","","","","","","","","","","","","","","","","","","","","","","","","","","","","","","",""
"514","<p style=""color:rgb(150, 250, 100); font-size: 35px;"">他</p>","i","categorize-html","32","172555","0.0-6.0-0.0-2.0-1.11","3","3","4","3","3","3","3","4","3","4","4","4","3","3","4","4","4","4","4","4","2","2","2","1","2","2","2","2","1","1","0","0","1","0","0","0","1","0","1","1","1","1","0","0","4","2","2","1","2","4","3","4","4","2","2","781449352643350529","徐","155","","","","","","","","","","","","","","","","","","","true","1","1","ability","514","other","他","","","","","","","","","","","","","","","","",""
"6884","
    <div class=""tag-bottom""><p>
    —— 任务2：对“积极”词和“消极”词分类 ——<p/>   
    <span style=""color:#78DCE8""><b>注意上方，类别标签和需要分类的词语都已经改变</b></span><p/>
    <span style=""color:#FFD866""><b>请根据上方标签的提示，尽可能正确并且快速地做出按键反应</b></span><p/>
    当按键错误时屏幕中会出现<span style=""color:red""> X </span>，需要按另一个键纠正才能继续<br/><p/>
    请把双手食指分别放在键盘的“E”键和“I”键上<p/>
    按<空格键>开始
    </p></div>"," ","html-keyboard-response","33","179441","0.0-6.0-0.0-3.0","3","3","4","3","3","3","3","4","3","4","4","4","3","3","4","4","4","4","4","4","2","2","2","1","2","2","2","2","1","1","0","0","1","0","0","0","1","0","1","1","1","1","0","0","4","2","2","1","2","4","3","4","4","2","2","781449352643350529","徐","155","","","","","","","","","","","","","","","","","","","","","","","","","","","","","","","","","","","","","","","","","",""
"null","","null","html-keyboard-response","34","179693","0.0-6.0-0.0-4.0-0.0","3","3","4","3","3","3","3","4","3","4","4","4","3","3","4","4","4","4","4","4","2","2","2","1","2","2","2","2","1","1","0","0","1","0","0","0","1","0","1","1","1","1","0","0","4","2","2","1","2","4","3","4","4","2","2","781449352643350529","徐","155","","","","","","","","","","","","","","","","","","","","","","","","","","","","","","","","","","","","","","","","","",""
"560","<p style=""color:white; font-size: 35px;"">低能</p>","i","categorize-html","35","180260","0.0-6.0-0.0-4.0-1.0","3","3","4","3","3","3","3","4","3","4","4","4","3","3","4","4","4","4","4","4","2","2","2","1","2","2","2","2","1","1","0","0","1","0","0","0","1","0","1","1","1","1","0","0","4","2","2","1","2","4","3","4","4","2","2","781449352643350529","徐","155","","","","","","","","","","","","","","","","","","","true","2","2","ability","560","negative","低能","","","","","","","","","","","","","","","","",""
"null","","null","html-keyboard-response","36","180513","0.0-6.0-0.0-4.0-0.1","3","3","4","3","3","3","3","4","3","4","4","4","3","3","4","4","4","4","4","4","2","2","2","1","2","2","2","2","1","1","0","0","1","0","0","0","1","0","1","1","1","1","0","0","4","2","2","1","2","4","3","4","4","2","2","781449352643350529","徐","155","","","","","","","","","","","","","","","","","","","","","","","","","","","","","","","","","","","","","","","","","",""
"633","<p style=""color:white; font-size: 35px;"">全能</p>","e","categorize-html","37","181152","0.0-6.0-0.0-4.0-1.1","3","3","4","3","3","3","3","4","3","4","4","4","3","3","4","4","4","4","4","4","2","2","2","1","2","2","2","2","1","1","0","0","1","0","0","0","1","0","1","1","1","1","0","0","4","2","2","1","2","4","3","4","4","2","2","781449352643350529","徐","155","","","","","","","","","","","","","","","","","","","true","2","2","ability","633","positive","全能","","","","","","","","","","","","","","","","",""
"null","","null","html-keyboard-response","38","181405","0.0-6.0-0.0-4.0-0.2","3","3","4","3","3","3","3","4","3","4","4","4","3","3","4","4","4","4","4","4","2","2","2","1","2","2","2","2","1","1","0","0","1","0","0","0","1","0","1","1","1","1","0","0","4","2","2","1","2","4","3","4","4","2","2","781449352643350529","徐","155","","","","","","","","","","","","","","","","","","","","","","","","","","","","","","","","","","","","","","","","","",""
"532","<p style=""color:white; font-size: 35px;"">高效</p>","e","categorize-html","39","181942","0.0-6.0-0.0-4.0-1.2","3","3","4","3","3","3","3","4","3","4","4","4","3","3","4","4","4","4","4","4","2","2","2","1","2","2","2","2","1","1","0","0","1","0","0","0","1","0","1","1","1","1","0","0","4","2","2","1","2","4","3","4","4","2","2","781449352643350529","徐","155","","","","","","","","","","","","","","","","","","","true","2","2","ability","532","positive","高效","","","","","","","","","","","","","","","","",""
"null","","null","html-keyboard-response","40","182194","0.0-6.0-0.0-4.0-0.3","3","3","4","3","3","3","3","4","3","4","4","4","3","3","4","4","4","4","4","4","2","2","2","1","2","2","2","2","1","1","0","0","1","0","0","0","1","0","1","1","1","1","0","0","4","2","2","1","2","4","3","4","4","2","2","781449352643350529","徐","155","","","","","","","","","","","","","","","","","","","","","","","","","","","","","","","","","","","","","","","","","",""
"493","<p style=""color:white; font-size: 35px;"">精干</p>","e","categorize-html","41","182692","0.0-6.0-0.0-4.0-1.3","3","3","4","3","3","3","3","4","3","4","4","4","3","3","4","4","4","4","4","4","2","2","2","1","2","2","2","2","1","1","0","0","1","0","0","0","1","0","1","1","1","1","0","0","4","2","2","1","2","4","3","4","4","2","2","781449352643350529","徐","155","","","","","","","","","","","","","","","","","","","true","2","2","ability","493","positive","精干","","","","","","","","","","","","","","","","",""
"null","","null","html-keyboard-response","42","182945","0.0-6.0-0.0-4.0-0.4","3","3","4","3","3","3","3","4","3","4","4","4","3","3","4","4","4","4","4","4","2","2","2","1","2","2","2","2","1","1","0","0","1","0","0","0","1","0","1","1","1","1","0","0","4","2","2","1","2","4","3","4","4","2","2","781449352643350529","徐","155","","","","","","","","","","","","","","","","","","","","","","","","","","","","","","","","","","","","","","","","","",""
"488","<p style=""color:white; font-size: 35px;"">能干</p>","e","categorize-html","43","183439","0.0-6.0-0.0-4.0-1.4","3","3","4","3","3","3","3","4","3","4","4","4","3","3","4","4","4","4","4","4","2","2","2","1","2","2","2","2","1","1","0","0","1","0","0","0","1","0","1","1","1","1","0","0","4","2","2","1","2","4","3","4","4","2","2","781449352643350529","徐","155","","","","","","","","","","","","","","","","","","","true","2","2","ability","488","positive","能干","","","","","","","","","","","","","","","","",""
"null","","null","html-keyboard-response","44","183691","0.0-6.0-0.0-4.0-0.5","3","3","4","3","3","3","3","4","3","4","4","4","3","3","4","4","4","4","4","4","2","2","2","1","2","2","2","2","1","1","0","0","1","0","0","0","1","0","1","1","1","1","0","0","4","2","2","1","2","4","3","4","4","2","2","781449352643350529","徐","155","","","","","","","","","","","","","","","","","","","","","","","","","","","","","","","","","","","","","","","","","",""
"530","<p style=""color:white; font-size: 35px;"">无能</p>","i","categorize-html","45","184227","0.0-6.0-0.0-4.0-1.5","3","3","4","3","3","3","3","4","3","4","4","4","3","3","4","4","4","4","4","4","2","2","2","1","2","2","2","2","1","1","0","0","1","0","0","0","1","0","1","1","1","1","0","0","4","2","2","1","2","4","3","4","4","2","2","781449352643350529","徐","155","","","","","","","","","","","","","","","","","","","true","2","2","ability","530","negative","无能","","","","","","","","","","","","","","","","",""
"null","","null","html-keyboard-response","46","184479","0.0-6.0-0.0-4.0-0.6","3","3","4","3","3","3","3","4","3","4","4","4","3","3","4","4","4","4","4","4","2","2","2","1","2","2","2","2","1","1","0","0","1","0","0","0","1","0","1","1","1","1","0","0","4","2","2","1","2","4","3","4","4","2","2","781449352643350529","徐","155","","","","","","","","","","","","","","","","","","","","","","","","","","","","","","","","","","","","","","","","","",""
"599","<p style=""color:white; font-size: 35px;"">全才</p>","e","categorize-html","47","185085","0.0-6.0-0.0-4.0-1.6","3","3","4","3","3","3","3","4","3","4","4","4","3","3","4","4","4","4","4","4","2","2","2","1","2","2","2","2","1","1","0","0","1","0","0","0","1","0","1","1","1","1","0","0","4","2","2","1","2","4","3","4","4","2","2","781449352643350529","徐","155","","","","","","","","","","","","","","","","","","","true","2","2","ability","599","positive","全才","","","","","","","","","","","","","","","","",""
"null","","null","html-keyboard-response","48","185336","0.0-6.0-0.0-4.0-0.7","3","3","4","3","3","3","3","4","3","4","4","4","3","3","4","4","4","4","4","4","2","2","2","1","2","2","2","2","1","1","0","0","1","0","0","0","1","0","1","1","1","1","0","0","4","2","2","1","2","4","3","4","4","2","2","781449352643350529","徐","155","","","","","","","","","","","","","","","","","","","","","","","","","","","","","","","","","","","","","","","","","",""
"508","<p style=""color:white; font-size: 35px;"">天才</p>","e","categorize-html","49","185850","0.0-6.0-0.0-4.0-1.7","3","3","4","3","3","3","3","4","3","4","4","4","3","3","4","4","4","4","4","4","2","2","2","1","2","2","2","2","1","1","0","0","1","0","0","0","1","0","1","1","1","1","0","0","4","2","2","1","2","4","3","4","4","2","2","781449352643350529","徐","155","","","","","","","","","","","","","","","","","","","true","2","2","ability","508","positive","天才","","","","","","","","","","","","","","","","",""
"null","","null","html-keyboard-response","50","186102","0.0-6.0-0.0-4.0-0.8","3","3","4","3","3","3","3","4","3","4","4","4","3","3","4","4","4","4","4","4","2","2","2","1","2","2","2","2","1","1","0","0","1","0","0","0","1","0","1","1","1","1","0","0","4","2","2","1","2","4","3","4","4","2","2","781449352643350529","徐","155","","","","","","","","","","","","","","","","","","","","","","","","","","","","","","","","","","","","","","","","","",""
"512","<p style=""color:white; font-size: 35px;"">废物</p>","i","categorize-html","51","186620","0.0-6.0-0.0-4.0-1.8","3","3","4","3","3","3","3","4","3","4","4","4","3","3","4","4","4","4","4","4","2","2","2","1","2","2","2","2","1","1","0","0","1","0","0","0","1","0","1","1","1","1","0","0","4","2","2","1","2","4","3","4","4","2","2","781449352643350529","徐","155","","","","","","","","","","","","","","","","","","","true","2","2","ability","512","negative","废物","","","","","","","","","","","","","","","","",""
"null","","null","html-keyboard-response","52","186873","0.0-6.0-0.0-4.0-0.9","3","3","4","3","3","3","3","4","3","4","4","4","3","3","4","4","4","4","4","4","2","2","2","1","2","2","2","2","1","1","0","0","1","0","0","0","1","0","1","1","1","1","0","0","4","2","2","1","2","4","3","4","4","2","2","781449352643350529","徐","155","","","","","","","","","","","","","","","","","","","","","","","","","","","","","","","","","","","","","","","","","",""
"461","<p style=""color:white; font-size: 35px;"">蠢笨</p>","i","categorize-html","53","187338","0.0-6.0-0.0-4.0-1.9","3","3","4","3","3","3","3","4","3","4","4","4","3","3","4","4","4","4","4","4","2","2","2","1","2","2","2","2","1","1","0","0","1","0","0","0","1","0","1","1","1","1","0","0","4","2","2","1","2","4","3","4","4","2","2","781449352643350529","徐","155","","","","","","","","","","","","","","","","","","","true","2","2","ability","461","negative","蠢笨","","","","","","","","","","","","","","","","",""
"null","","null","html-keyboard-response","54","187594","0.0-6.0-0.0-4.0-0.10","3","3","4","3","3","3","3","4","3","4","4","4","3","3","4","4","4","4","4","4","2","2","2","1","2","2","2","2","1","1","0","0","1","0","0","0","1","0","1","1","1","1","0","0","4","2","2","1","2","4","3","4","4","2","2","781449352643350529","徐","155","","","","","","","","","","","","","","","","","","","","","","","","","","","","","","","","","","","","","","","","","",""
"447","<p style=""color:white; font-size: 35px;"">愚钝</p>","i","categorize-html","55","188046","0.0-6.0-0.0-4.0-1.10","3","3","4","3","3","3","3","4","3","4","4","4","3","3","4","4","4","4","4","4","2","2","2","1","2","2","2","2","1","1","0","0","1","0","0","0","1","0","1","1","1","1","0","0","4","2","2","1","2","4","3","4","4","2","2","781449352643350529","徐","155","","","","","","","","","","","","","","","","","","","true","2","2","ability","447","negative","愚钝","","","","","","","","","","","","","","","","",""
"null","","null","html-keyboard-response","56","188298","0.0-6.0-0.0-4.0-0.11","3","3","4","3","3","3","3","4","3","4","4","4","3","3","4","4","4","4","4","4","2","2","2","1","2","2","2","2","1","1","0","0","1","0","0","0","1","0","1","1","1","1","0","0","4","2","2","1","2","4","3","4","4","2","2","781449352643350529","徐","155","","","","","","","","","","","","","","","","","","","","","","","","","","","","","","","","","","","","","","","","","",""
"447","<p style=""color:white; font-size: 35px;"">拙笨</p>","i","categorize-html","57","188751","0.0-6.0-0.0-4.0-1.11","3","3","4","3","3","3","3","4","3","4","4","4","3","3","4","4","4","4","4","4","2","2","2","1","2","2","2","2","1","1","0","0","1","0","0","0","1","0","1","1","1","1","0","0","4","2","2","1","2","4","3","4","4","2","2","781449352643350529","徐","155","","","","","","","","","","","","","","","","","","","true","2","2","ability","447","negative","拙笨","","","","","","","","","","","","","","","","",""
"4828","
    <div class=""tag-bottom""><p>
    —— 任务3：对“自我/积极”词和“他人/消极”词分类 ——<p/>
    <span style=""color:#78DCE8""><b>注意上方，之前的四类词语将混合在一起交替呈现</b></span><p/>
    <span style=""color:#FFD866""><b>请根据上方标签的提示，尽可能正确并且快速地做出按键反应</b></span><p/>
    当按键错误时屏幕中会出现<span style=""color:red""> X </span>，需要按另一个键纠正才能继续<br/><p/>
    请把双手食指分别放在键盘的“E”键和“I”键上<p/>
    按<空格键>开始
    </p></div>"," ","html-keyboard-response","58","193581","0.0-6.0-0.0-5.0","3","3","4","3","3","3","3","4","3","4","4","4","3","3","4","4","4","4","4","4","2","2","2","1","2","2","2","2","1","1","0","0","1","0","0","0","1","0","1","1","1","1","0","0","4","2","2","1","2","4","3","4","4","2","2","781449352643350529","徐","155","","","","","","","","","","","","","","","","","","","","","","","","","","","","","","","","","","","","","","","","","",""
"null","","null","html-keyboard-response","59","193833","0.0-6.0-0.0-6.0-0.0","3","3","4","3","3","3","3","4","3","4","4","4","3","3","4","4","4","4","4","4","2","2","2","1","2","2","2","2","1","1","0","0","1","0","0","0","1","0","1","1","1","1","0","0","4","2","2","1","2","4","3","4","4","2","2","781449352643350529","徐","155","","","","","","","","","","","","","","","","","","","","","","","","","","","","","","","","","","","","","","","","","",""
"700","<p style=""color:rgb(150, 250, 100); font-size: 35px;"">别人的</p>","i","categorize-html","60","194541","0.0-6.0-0.0-6.0-1.0","3","3","4","3","3","3","3","4","3","4","4","4","3","3","4","4","4","4","4","4","2","2","2","1","2","2","2","2","1","1","0","0","1","0","0","0","1","0","1","1","1","1","0","0","4","2","2","1","2","4","3","4","4","2","2","781449352643350529","徐","155","","","","","","","","","","","","","","","","","","","true","3","3","ability","700","other","别人的","","","","","","","","","","","","","","","","",""
"null","","null","html-keyboard-response","61","194793","0.0-6.0-0.0-6.0-0.1","3","3","4","3","3","3","3","4","3","4","4","4","3","3","4","4","4","4","4","4","2","2","2","1","2","2","2","2","1","1","0","0","1","0","0","0","1","0","1","1","1","1","0","0","4","2","2","1","2","4","3","4","4","2","2","781449352643350529","徐","155","","","","","","","","","","","","","","","","","","","","","","","","","","","","","","","","","","","","","","","","","",""
"515","<p style=""color:white; font-size: 35px;"">天才</p>","e","categorize-html","62","195314","0.0-6.0-0.0-6.0-1.1","3","3","4","3","3","3","3","4","3","4","4","4","3","3","4","4","4","4","4","4","2","2","2","1","2","2","2","2","1","1","0","0","1","0","0","0","1","0","1","1","1","1","0","0","4","2","2","1","2","4","3","4","4","2","2","781449352643350529","徐","155","","","","","","","","","","","","","","","","","","","true","3","3","ability","515","positive","天才","","","","","","","","","","","","","","","","",""
"null","","null","html-keyboard-response","63","195567","0.0-6.0-0.0-6.0-0.2","3","3","4","3","3","3","3","4","3","4","4","4","3","3","4","4","4","4","4","4","2","2","2","1","2","2","2","2","1","1","0","0","1","0","0","0","1","0","1","1","1","1","0","0","4","2","2","1","2","4","3","4","4","2","2","781449352643350529","徐","155","","","","","","","","","","","","","","","","","","","","","","","","","","","","","","","","","","","","","","","","","",""
"619","<p style=""color:rgb(150, 250, 100); font-size: 35px;"">本人</p>","e","categorize-html","64","196192","0.0-6.0-0.0-6.0-1.2","3","3","4","3","3","3","3","4","3","4","4","4","3","3","4","4","4","4","4","4","2","2","2","1","2","2","2","2","1","1","0","0","1","0","0","0","1","0","1","1","1","1","0","0","4","2","2","1","2","4","3","4","4","2","2","781449352643350529","徐","155","","","","","","","","","","","","","","","","","","","true","3","3","ability","619","self","本人","","","","","","","","","","","","","","","","",""
"null","","null","html-keyboard-response","65","196453","0.0-6.0-0.0-6.0-0.3","3","3","4","3","3","3","3","4","3","4","4","4","3","3","4","4","4","4","4","4","2","2","2","1","2","2","2","2","1","1","0","0","1","0","0","0","1","0","1","1","1","1","0","0","4","2","2","1","2","4","3","4","4","2","2","781449352643350529","徐","155","","","","","","","","","","","","","","","","","","","","","","","","","","","","","","","","","","","","","","","","","",""
"811","<p style=""color:white; font-size: 35px;"">低能</p>","i","categorize-html","66","197268","0.0-6.0-0.0-6.0-1.3","3","3","4","3","3","3","3","4","3","4","4","4","3","3","4","4","4","4","4","4","2","2","2","1","2","2","2","2","1","1","0","0","1","0","0","0","1","0","1","1","1","1","0","0","4","2","2","1","2","4","3","4","4","2","2","781449352643350529","徐","155","","","","","","","","","","","","","","","","","","","true","3","3","ability","811","negative","低能","","","","","","","","","","","","","","","","",""
"null","","null","html-keyboard-response","67","197521","0.0-6.0-0.0-6.0-0.4","3","3","4","3","3","3","3","4","3","4","4","4","3","3","4","4","4","4","4","4","2","2","2","1","2","2","2","2","1","1","0","0","1","0","0","0","1","0","1","1","1","1","0","0","4","2","2","1","2","4","3","4","4","2","2","781449352643350529","徐","155","","","","","","","","","","","","","","","","","","","","","","","","","","","","","","","","","","","","","","","","","",""
"666","<p style=""color:rgb(150, 250, 100); font-size: 35px;"">别人</p>","i","categorize-html","68","198194","0.0-6.0-0.0-6.0-1.4","3","3","4","3","3","3","3","4","3","4","4","4","3","3","4","4","4","4","4","4","2","2","2","1","2","2","2","2","1","1","0","0","1","0","0","0","1","0","1","1","1","1","0","0","4","2","2","1","2","4","3","4","4","2","2","781449352643350529","徐","155","","","","","","","","","","","","","","","","","","","true","3","3","ability","666","other","别人","","","","","","","","","","","","","","","","",""
"null","","null","html-keyboard-response","69","198446","0.0-6.0-0.0-6.0-0.5","3","3","4","3","3","3","3","4","3","4","4","4","3","3","4","4","4","4","4","4","2","2","2","1","2","2","2","2","1","1","0","0","1","0","0","0","1","0","1","1","1","1","0","0","4","2","2","1","2","4","3","4","4","2","2","781449352643350529","徐","155","","","","","","","","","","","","","","","","","","","","","","","","","","","","","","","","","","","","","","","","","",""
"567","<p style=""color:white; font-size: 35px;"">精干</p>","e","categorize-html","70","199020","0.0-6.0-0.0-6.0-1.5","3","3","4","3","3","3","3","4","3","4","4","4","3","3","4","4","4","4","4","4","2","2","2","1","2","2","2","2","1","1","0","0","1","0","0","0","1","0","1","1","1","1","0","0","4","2","2","1","2","4","3","4","4","2","2","781449352643350529","徐","155","","","","","","","","","","","","","","","","","","","true","3","3","ability","567","positive","精干","","","","","","","","","","","","","","","","",""
"null","","null","html-keyboard-response","71","199273","0.0-6.0-0.0-6.0-0.6","3","3","4","3","3","3","3","4","3","4","4","4","3","3","4","4","4","4","4","4","2","2","2","1","2","2","2","2","1","1","0","0","1","0","0","0","1","0","1","1","1","1","0","0","4","2","2","1","2","4","3","4","4","2","2","781449352643350529","徐","155","","","","","","","","","","","","","","","","","","","","","","","","","","","","","","","","","","","","","","","","","",""
"565","<p style=""color:rgb(150, 250, 100); font-size: 35px;"">本人的</p>","e","categorize-html","72","199844","0.0-6.0-0.0-6.0-1.6","3","3","4","3","3","3","3","4","3","4","4","4","3","3","4","4","4","4","4","4","2","2","2","1","2","2","2","2","1","1","0","0","1","0","0","0","1","0","1","1","1","1","0","0","4","2","2","1","2","4","3","4","4","2","2","781449352643350529","徐","155","","","","","","","","","","","","","","","","","","","true","3","3","ability","565","self","本人的","","","","","","","","","","","","","","","","",""
"null","","null","html-keyboard-response","73","200098","0.0-6.0-0.0-6.0-0.7","3","3","4","3","3","3","3","4","3","4","4","4","3","3","4","4","4","4","4","4","2","2","2","1","2","2","2","2","1","1","0","0","1","0","0","0","1","0","1","1","1","1","0","0","4","2","2","1","2","4","3","4","4","2","2","781449352643350529","徐","155","","","","","","","","","","","","","","","","","","","","","","","","","","","","","","","","","","","","","","","","","",""
"573","<p style=""color:white; font-size: 35px;"">蠢笨</p>","i","categorize-html","74","200676","0.0-6.0-0.0-6.0-1.7","3","3","4","3","3","3","3","4","3","4","4","4","3","3","4","4","4","4","4","4","2","2","2","1","2","2","2","2","1","1","0","0","1","0","0","0","1","0","1","1","1","1","0","0","4","2","2","1","2","4","3","4","4","2","2","781449352643350529","徐","155","","","","","","","","","","","","","","","","","","","true","3","3","ability","573","negative","蠢笨","","","","","","","","","","","","","","","","",""
"null","","null","html-keyboard-response","75","200928","0.0-6.0-0.0-6.0-0.8","3","3","4","3","3","3","3","4","3","4","4","4","3","3","4","4","4","4","4","4","2","2","2","1","2","2","2","2","1","1","0","0","1","0","0","0","1","0","1","1","1","1","0","0","4","2","2","1","2","4","3","4","4","2","2","781449352643350529","徐","155","","","","","","","","","","","","","","","","","","","","","","","","","","","","","","","","","","","","","","","","","",""
"639","<p style=""color:rgb(150, 250, 100); font-size: 35px;"">他的</p>","i","categorize-html","76","201573","0.0-6.0-0.0-6.0-1.8","3","3","4","3","3","3","3","4","3","4","4","4","3","3","4","4","4","4","4","4","2","2","2","1","2","2","2","2","1","1","0","0","1","0","0","0","1","0","1","1","1","1","0","0","4","2","2","1","2","4","3","4","4","2","2","781449352643350529","徐","155","","","","","","","","","","","","","","","","","","","true","3","3","ability","639","other","他的","","","","","","","","","","","","","","","","",""
"null","","null","html-keyboard-response","77","201825","0.0-6.0-0.0-6.0-0.9","3","3","4","3","3","3","3","4","3","4","4","4","3","3","4","4","4","4","4","4","2","2","2","1","2","2","2","2","1","1","0","0","1","0","0","0","1","0","1","1","1","1","0","0","4","2","2","1","2","4","3","4","4","2","2","781449352643350529","徐","155","","","","","","","","","","","","","","","","","","","","","","","","","","","","","","","","","","","","","","","","","",""
"441","<p style=""color:white; font-size: 35px;"">废物</p>","i","categorize-html","78","202271","0.0-6.0-0.0-6.0-1.9","3","3","4","3","3","3","3","4","3","4","4","4","3","3","4","4","4","4","4","4","2","2","2","1","2","2","2","2","1","1","0","0","1","0","0","0","1","0","1","1","1","1","0","0","4","2","2","1","2","4","3","4","4","2","2","781449352643350529","徐","155","","","","","","","","","","","","","","","","","","","true","3","3","ability","441","negative","废物","","","","","","","","","","","","","","","","",""
"null","","null","html-keyboard-response","79","202524","0.0-6.0-0.0-6.0-0.10","3","3","4","3","3","3","3","4","3","4","4","4","3","3","4","4","4","4","4","4","2","2","2","1","2","2","2","2","1","1","0","0","1","0","0","0","1","0","1","1","1","1","0","0","4","2","2","1","2","4","3","4","4","2","2","781449352643350529","徐","155","","","","","","","","","","","","","","","","","","","","","","","","","","","","","","","","","","","","","","","","","",""
"508","<p style=""color:rgb(150, 250, 100); font-size: 35px;"">自己</p>","e","categorize-html","80","203038","0.0-6.0-0.0-6.0-1.10","3","3","4","3","3","3","3","4","3","4","4","4","3","3","4","4","4","4","4","4","2","2","2","1","2","2","2","2","1","1","0","0","1","0","0","0","1","0","1","1","1","1","0","0","4","2","2","1","2","4","3","4","4","2","2","781449352643350529","徐","155","","","","","","","","","","","","","","","","","","","true","3","3","ability","508","self","自己","","","","","","","","","","","","","","","","",""
"null","","null","html-keyboard-response","81","203289","0.0-6.0-0.0-6.0-0.11","3","3","4","3","3","3","3","4","3","4","4","4","3","3","4","4","4","4","4","4","2","2","2","1","2","2","2","2","1","1","0","0","1","0","0","0","1","0","1","1","1","1","0","0","4","2","2","1","2","4","3","4","4","2","2","781449352643350529","徐","155","","","","","","","","","","","","","","","","","","","","","","","","","","","","","","","","","","","","","","","","","",""
"549","<p style=""color:white; font-size: 35px;"">高效</p>","e","categorize-html","82","203844","0.0-6.0-0.0-6.0-1.11","3","3","4","3","3","3","3","4","3","4","4","4","3","3","4","4","4","4","4","4","2","2","2","1","2","2","2","2","1","1","0","0","1","0","0","0","1","0","1","1","1","1","0","0","4","2","2","1","2","4","3","4","4","2","2","781449352643350529","徐","155","","","","","","","","","","","","","","","","","","","true","3","3","ability","549","positive","高效","","","","","","","","","","","","","","","","",""
"null","","null","html-keyboard-response","83","204097","0.0-6.0-0.0-6.0-0.12","3","3","4","3","3","3","3","4","3","4","4","4","3","3","4","4","4","4","4","4","2","2","2","1","2","2","2","2","1","1","0","0","1","0","0","0","1","0","1","1","1","1","0","0","4","2","2","1","2","4","3","4","4","2","2","781449352643350529","徐","155","","","","","","","","","","","","","","","","","","","","","","","","","","","","","","","","","","","","","","","","","",""
"394","<p style=""color:rgb(150, 250, 100); font-size: 35px;"">我</p>","e","categorize-html","84","204497","0.0-6.0-0.0-6.0-1.12","3","3","4","3","3","3","3","4","3","4","4","4","3","3","4","4","4","4","4","4","2","2","2","1","2","2","2","2","1","1","0","0","1","0","0","0","1","0","1","1","1","1","0","0","4","2","2","1","2","4","3","4","4","2","2","781449352643350529","徐","155","","","","","","","","","","","","","","","","","","","true","3","3","ability","394","self","我","","","","","","","","","","","","","","","","",""
"null","","null","html-keyboard-response","85","204748","0.0-6.0-0.0-6.0-0.13","3","3","4","3","3","3","3","4","3","4","4","4","3","3","4","4","4","4","4","4","2","2","2","1","2","2","2","2","1","1","0","0","1","0","0","0","1","0","1","1","1","1","0","0","4","2","2","1","2","4","3","4","4","2","2","781449352643350529","徐","155","","","","","","","","","","","","","","","","","","","","","","","","","","","","","","","","","","","","","","","","","",""
"549","<p style=""color:white; font-size: 35px;"">无能</p>","i","categorize-html","86","205303","0.0-6.0-0.0-6.0-1.13","3","3","4","3","3","3","3","4","3","4","4","4","3","3","4","4","4","4","4","4","2","2","2","1","2","2","2","2","1","1","0","0","1","0","0","0","1","0","1","1","1","1","0","0","4","2","2","1","2","4","3","4","4","2","2","781449352643350529","徐","155","","","","","","","","","","","","","","","","","","","true","3","3","ability","549","negative","无能","","","","","","","","","","","","","","","","",""
"null","","null","html-keyboard-response","87","205555","0.0-6.0-0.0-6.0-0.14","3","3","4","3","3","3","3","4","3","4","4","4","3","3","4","4","4","4","4","4","2","2","2","1","2","2","2","2","1","1","0","0","1","0","0","0","1","0","1","1","1","1","0","0","4","2","2","1","2","4","3","4","4","2","2","781449352643350529","徐","155","","","","","","","","","","","","","","","","","","","","","","","","","","","","","","","","","","","","","","","","","",""
"510","<p style=""color:rgb(150, 250, 100); font-size: 35px;"">他人</p>","i","categorize-html","88","206072","0.0-6.0-0.0-6.0-1.14","3","3","4","3","3","3","3","4","3","4","4","4","3","3","4","4","4","4","4","4","2","2","2","1","2","2","2","2","1","1","0","0","1","0","0","0","1","0","1","1","1","1","0","0","4","2","2","1","2","4","3","4","4","2","2","781449352643350529","徐","155","","","","","","","","","","","","","","","","","","","true","3","3","ability","510","other","他人","","","","","","","","","","","","","","","","",""
"null","","null","html-keyboard-response","89","206325","0.0-6.0-0.0-6.0-0.15","3","3","4","3","3","3","3","4","3","4","4","4","3","3","4","4","4","4","4","4","2","2","2","1","2","2","2","2","1","1","0","0","1","0","0","0","1","0","1","1","1","1","0","0","4","2","2","1","2","4","3","4","4","2","2","781449352643350529","徐","155","","","","","","","","","","","","","","","","","","","","","","","","","","","","","","","","","","","","","","","","","",""
"522","<p style=""color:white; font-size: 35px;"">全能</p>","e","categorize-html","90","206853","0.0-6.0-0.0-6.0-1.15","3","3","4","3","3","3","3","4","3","4","4","4","3","3","4","4","4","4","4","4","2","2","2","1","2","2","2","2","1","1","0","0","1","0","0","0","1","0","1","1","1","1","0","0","4","2","2","1","2","4","3","4","4","2","2","781449352643350529","徐","155","","","","","","","","","","","","","","","","","","","true","3","3","ability","522","positive","全能","","","","","","","","","","","","","","","","",""
"null","","null","html-keyboard-response","91","207105","0.0-6.0-0.0-6.0-0.16","3","3","4","3","3","3","3","4","3","4","4","4","3","3","4","4","4","4","4","4","2","2","2","1","2","2","2","2","1","1","0","0","1","0","0","0","1","0","1","1","1","1","0","0","4","2","2","1","2","4","3","4","4","2","2","781449352643350529","徐","155","","","","","","","","","","","","","","","","","","","","","","","","","","","","","","","","","","","","","","","","","",""
"707","<p style=""color:rgb(150, 250, 100); font-size: 35px;"">他</p>","i","categorize-html","92","207818","0.0-6.0-0.0-6.0-1.16","3","3","4","3","3","3","3","4","3","4","4","4","3","3","4","4","4","4","4","4","2","2","2","1","2","2","2","2","1","1","0","0","1","0","0","0","1","0","1","1","1","1","0","0","4","2","2","1","2","4","3","4","4","2","2","781449352643350529","徐","155","","","","","","","","","","","","","","","","","","","true","3","3","ability","707","other","他","","","","","","","","","","","","","","","","",""
"null","","null","html-keyboard-response","93","208070","0.0-6.0-0.0-6.0-0.17","3","3","4","3","3","3","3","4","3","4","4","4","3","3","4","4","4","4","4","4","2","2","2","1","2","2","2","2","1","1","0","0","1","0","0","0","1","0","1","1","1","1","0","0","4","2","2","1","2","4","3","4","4","2","2","781449352643350529","徐","155","","","","","","","","","","","","","","","","","","","","","","","","","","","","","","","","","","","","","","","","","",""
"591","<p style=""color:white; font-size: 35px;"">愚钝</p>","i","categorize-html","94","208667","0.0-6.0-0.0-6.0-1.17","3","3","4","3","3","3","3","4","3","4","4","4","3","3","4","4","4","4","4","4","2","2","2","1","2","2","2","2","1","1","0","0","1","0","0","0","1","0","1","1","1","1","0","0","4","2","2","1","2","4","3","4","4","2","2","781449352643350529","徐","155","","","","","","","","","","","","","","","","","","","true","3","3","ability","591","negative","愚钝","","","","","","","","","","","","","","","","",""
"null","","null","html-keyboard-response","95","208919","0.0-6.0-0.0-6.0-0.18","3","3","4","3","3","3","3","4","3","4","4","4","3","3","4","4","4","4","4","4","2","2","2","1","2","2","2","2","1","1","0","0","1","0","0","0","1","0","1","1","1","1","0","0","4","2","2","1","2","4","3","4","4","2","2","781449352643350529","徐","155","","","","","","","","","","","","","","","","","","","","","","","","","","","","","","","","","","","","","","","","","",""
"520","<p style=""color:rgb(150, 250, 100); font-size: 35px;"">我的</p>","e","categorize-html","96","209445","0.0-6.0-0.0-6.0-1.18","3","3","4","3","3","3","3","4","3","4","4","4","3","3","4","4","4","4","4","4","2","2","2","1","2","2","2","2","1","1","0","0","1","0","0","0","1","0","1","1","1","1","0","0","4","2","2","1","2","4","3","4","4","2","2","781449352643350529","徐","155","","","","","","","","","","","","","","","","","","","true","3","3","ability","520","self","我的","","","","","","","","","","","","","","","","",""
"null","","null","html-keyboard-response","97","209697","0.0-6.0-0.0-6.0-0.19","3","3","4","3","3","3","3","4","3","4","4","4","3","3","4","4","4","4","4","4","2","2","2","1","2","2","2","2","1","1","0","0","1","0","0","0","1","0","1","1","1","1","0","0","4","2","2","1","2","4","3","4","4","2","2","781449352643350529","徐","155","","","","","","","","","","","","","","","","","","","","","","","","","","","","","","","","","","","","","","","","","",""
"530","<p style=""color:white; font-size: 35px;"">能干</p>","e","categorize-html","98","210232","0.0-6.0-0.0-6.0-1.19","3","3","4","3","3","3","3","4","3","4","4","4","3","3","4","4","4","4","4","4","2","2","2","1","2","2","2","2","1","1","0","0","1","0","0","0","1","0","1","1","1","1","0","0","4","2","2","1","2","4","3","4","4","2","2","781449352643350529","徐","155","","","","","","","","","","","","","","","","","","","true","3","3","ability","530","positive","能干","","","","","","","","","","","","","","","","",""
"null","","null","html-keyboard-response","99","210485","0.0-6.0-0.0-6.0-0.20","3","3","4","3","3","3","3","4","3","4","4","4","3","3","4","4","4","4","4","4","2","2","2","1","2","2","2","2","1","1","0","0","1","0","0","0","1","0","1","1","1","1","0","0","4","2","2","1","2","4","3","4","4","2","2","781449352643350529","徐","155","","","","","","","","","","","","","","","","","","","","","","","","","","","","","","","","","","","","","","","","","",""
"540","<p style=""color:rgb(150, 250, 100); font-size: 35px;"">他人的</p>","i","categorize-html","100","211031","0.0-6.0-0.0-6.0-1.20","3","3","4","3","3","3","3","4","3","4","4","4","3","3","4","4","4","4","4","4","2","2","2","1","2","2","2","2","1","1","0","0","1","0","0","0","1","0","1","1","1","1","0","0","4","2","2","1","2","4","3","4","4","2","2","781449352643350529","徐","155","","","","","","","","","","","","","","","","","","","true","3","3","ability","540","other","他人的","","","","","","","","","","","","","","","","",""
"null","","null","html-keyboard-response","101","211283","0.0-6.0-0.0-6.0-0.21","3","3","4","3","3","3","3","4","3","4","4","4","3","3","4","4","4","4","4","4","2","2","2","1","2","2","2","2","1","1","0","0","1","0","0","0","1","0","1","1","1","1","0","0","4","2","2","1","2","4","3","4","4","2","2","781449352643350529","徐","155","","","","","","","","","","","","","","","","","","","","","","","","","","","","","","","","","","","","","","","","","",""
"484","<p style=""color:white; font-size: 35px;"">全才</p>","e","categorize-html","102","211774","0.0-6.0-0.0-6.0-1.21","3","3","4","3","3","3","3","4","3","4","4","4","3","3","4","4","4","4","4","4","2","2","2","1","2","2","2","2","1","1","0","0","1","0","0","0","1","0","1","1","1","1","0","0","4","2","2","1","2","4","3","4","4","2","2","781449352643350529","徐","155","","","","","","","","","","","","","","","","","","","true","3","3","ability","484","positive","全才","","","","","","","","","","","","","","","","",""
"null","","null","html-keyboard-response","103","212026","0.0-6.0-0.0-6.0-0.22","3","3","4","3","3","3","3","4","3","4","4","4","3","3","4","4","4","4","4","4","2","2","2","1","2","2","2","2","1","1","0","0","1","0","0","0","1","0","1","1","1","1","0","0","4","2","2","1","2","4","3","4","4","2","2","781449352643350529","徐","155","","","","","","","","","","","","","","","","","","","","","","","","","","","","","","","","","","","","","","","","","",""
"545","<p style=""color:rgb(150, 250, 100); font-size: 35px;"">自己的</p>","e","categorize-html","104","212578","0.0-6.0-0.0-6.0-1.22","3","3","4","3","3","3","3","4","3","4","4","4","3","3","4","4","4","4","4","4","2","2","2","1","2","2","2","2","1","1","0","0","1","0","0","0","1","0","1","1","1","1","0","0","4","2","2","1","2","4","3","4","4","2","2","781449352643350529","徐","155","","","","","","","","","","","","","","","","","","","true","3","3","ability","545","self","自己的","","","","","","","","","","","","","","","","",""
"null","","null","html-keyboard-response","105","212833","0.0-6.0-0.0-6.0-0.23","3","3","4","3","3","3","3","4","3","4","4","4","3","3","4","4","4","4","4","4","2","2","2","1","2","2","2","2","1","1","0","0","1","0","0","0","1","0","1","1","1","1","0","0","4","2","2","1","2","4","3","4","4","2","2","781449352643350529","徐","155","","","","","","","","","","","","","","","","","","","","","","","","","","","","","","","","","","","","","","","","","",""
"601","<p style=""color:white; font-size: 35px;"">拙笨</p>","i","categorize-html","106","213440","0.0-6.0-0.0-6.0-1.23","3","3","4","3","3","3","3","4","3","4","4","4","3","3","4","4","4","4","4","4","2","2","2","1","2","2","2","2","1","1","0","0","1","0","0","0","1","0","1","1","1","1","0","0","4","2","2","1","2","4","3","4","4","2","2","781449352643350529","徐","155","","","","","","","","","","","","","","","","","","","true","3","3","ability","601","negative","拙笨","","","","","","","","","","","","","","","","",""
"9999","
    <div class=""tag-bottom""><p>
    —— 任务4：对“自我/积极”词和“他人/消极”词分类 ——<p/>
    <span style=""color:#78DCE8""><b>与刚才的任务完全相同，请再次对这四类词语分类</b></span><p/>
    <span style=""color:#FFD866""><b>请根据上方标签的提示，尽可能正确并且快速地做出按键反应</b></span><p/>
    当按键错误时屏幕中会出现<span style=""color:red""> X </span>，需要按另一个键纠正才能继续<br/><p/>
    请把双手食指分别放在键盘的“E”键和“I”键上<p/>
    按<空格键>开始
    </p></div>"," ","html-keyboard-response","107","223442","0.0-6.0-0.0-7.0","3","3","4","3","3","3","3","4","3","4","4","4","3","3","4","4","4","4","4","4","2","2","2","1","2","2","2","2","1","1","0","0","1","0","0","0","1","0","1","1","1","1","0","0","4","2","2","1","2","4","3","4","4","2","2","781449352643350529","徐","155","","","","","","","","","","","","","","","","","","","","","","","","","","","","","","","","","","","","","","","","","",""
"null","","null","html-keyboard-response","108","223694","0.0-6.0-0.0-8.0-0.0","3","3","4","3","3","3","3","4","3","4","4","4","3","3","4","4","4","4","4","4","2","2","2","1","2","2","2","2","1","1","0","0","1","0","0","0","1","0","1","1","1","1","0","0","4","2","2","1","2","4","3","4","4","2","2","781449352643350529","徐","155","","","","","","","","","","","","","","","","","","","","","","","","","","","","","","","","","","","","","","","","","",""
"641","<p style=""color:rgb(150, 250, 100); font-size: 35px;"">本人的</p>","e","categorize-html","109","224342","0.0-6.0-0.0-8.0-1.0","3","3","4","3","3","3","3","4","3","4","4","4","3","3","4","4","4","4","4","4","2","2","2","1","2","2","2","2","1","1","0","0","1","0","0","0","1","0","1","1","1","1","0","0","4","2","2","1","2","4","3","4","4","2","2","781449352643350529","徐","155","","","","","","","","","","","","","","","","","","","true","4","4","ability","641","self","本人的","","","","","","","","","","","","","","","","",""
"null","","null","html-keyboard-response","110","224594","0.0-6.0-0.0-8.0-0.1","3","3","4","3","3","3","3","4","3","4","4","4","3","3","4","4","4","4","4","4","2","2","2","1","2","2","2","2","1","1","0","0","1","0","0","0","1","0","1","1","1","1","0","0","4","2","2","1","2","4","3","4","4","2","2","781449352643350529","徐","155","","","","","","","","","","","","","","","","","","","","","","","","","","","","","","","","","","","","","","","","","",""
"529","<p style=""color:white; font-size: 35px;"">能干</p>","e","categorize-html","111","225127","0.0-6.0-0.0-8.0-1.1","3","3","4","3","3","3","3","4","3","4","4","4","3","3","4","4","4","4","4","4","2","2","2","1","2","2","2","2","1","1","0","0","1","0","0","0","1","0","1","1","1","1","0","0","4","2","2","1","2","4","3","4","4","2","2","781449352643350529","徐","155","","","","","","","","","","","","","","","","","","","true","4","4","ability","529","positive","能干","","","","","","","","","","","","","","","","",""
"null","","null","html-keyboard-response","112","225379","0.0-6.0-0.0-8.0-0.2","3","3","4","3","3","3","3","4","3","4","4","4","3","3","4","4","4","4","4","4","2","2","2","1","2","2","2","2","1","1","0","0","1","0","0","0","1","0","1","1","1","1","0","0","4","2","2","1","2","4","3","4","4","2","2","781449352643350529","徐","155","","","","","","","","","","","","","","","","","","","","","","","","","","","","","","","","","","","","","","","","","",""
"527","<p style=""color:rgb(150, 250, 100); font-size: 35px;"">别人</p>","i","categorize-html","113","225912","0.0-6.0-0.0-8.0-1.2","3","3","4","3","3","3","3","4","3","4","4","4","3","3","4","4","4","4","4","4","2","2","2","1","2","2","2","2","1","1","0","0","1","0","0","0","1","0","1","1","1","1","0","0","4","2","2","1","2","4","3","4","4","2","2","781449352643350529","徐","155","","","","","","","","","","","","","","","","","","","true","4","4","ability","527","other","别人","","","","","","","","","","","","","","","","",""
"null","","null","html-keyboard-response","114","226163","0.0-6.0-0.0-8.0-0.3","3","3","4","3","3","3","3","4","3","4","4","4","3","3","4","4","4","4","4","4","2","2","2","1","2","2","2","2","1","1","0","0","1","0","0","0","1","0","1","1","1","1","0","0","4","2","2","1","2","4","3","4","4","2","2","781449352643350529","徐","155","","","","","","","","","","","","","","","","","","","","","","","","","","","","","","","","","","","","","","","","","",""
"467","<p style=""color:white; font-size: 35px;"">废物</p>","i","categorize-html","115","226638","0.0-6.0-0.0-8.0-1.3","3","3","4","3","3","3","3","4","3","4","4","4","3","3","4","4","4","4","4","4","2","2","2","1","2","2","2","2","1","1","0","0","1","0","0","0","1","0","1","1","1","1","0","0","4","2","2","1","2","4","3","4","4","2","2","781449352643350529","徐","155","","","","","","","","","","","","","","","","","","","true","4","4","ability","467","negative","废物","","","","","","","","","","","","","","","","",""
"null","","null","html-keyboard-response","116","226903","0.0-6.0-0.0-8.0-0.4","3","3","4","3","3","3","3","4","3","4","4","4","3","3","4","4","4","4","4","4","2","2","2","1","2","2","2","2","1","1","0","0","1","0","0","0","1","0","1","1","1","1","0","0","4","2","2","1","2","4","3","4","4","2","2","781449352643350529","徐","155","","","","","","","","","","","","","","","","","","","","","","","","","","","","","","","","","","","","","","","","","",""
"465","<p style=""color:rgb(150, 250, 100); font-size: 35px;"">自己</p>","e","categorize-html","117","227373","0.0-6.0-0.0-8.0-1.4","3","3","4","3","3","3","3","4","3","4","4","4","3","3","4","4","4","4","4","4","2","2","2","1","2","2","2","2","1","1","0","0","1","0","0","0","1","0","1","1","1","1","0","0","4","2","2","1","2","4","3","4","4","2","2","781449352643350529","徐","155","","","","","","","","","","","","","","","","","","","true","4","4","ability","465","self","自己","","","","","","","","","","","","","","","","",""
"null","","null","html-keyboard-response","118","227626","0.0-6.0-0.0-8.0-0.5","3","3","4","3","3","3","3","4","3","4","4","4","3","3","4","4","4","4","4","4","2","2","2","1","2","2","2","2","1","1","0","0","1","0","0","0","1","0","1","1","1","1","0","0","4","2","2","1","2","4","3","4","4","2","2","781449352643350529","徐","155","","","","","","","","","","","","","","","","","","","","","","","","","","","","","","","","","","","","","","","","","",""
"565","<p style=""color:white; font-size: 35px;"">拙笨</p>","i","categorize-html","119","228197","0.0-6.0-0.0-8.0-1.5","3","3","4","3","3","3","3","4","3","4","4","4","3","3","4","4","4","4","4","4","2","2","2","1","2","2","2","2","1","1","0","0","1","0","0","0","1","0","1","1","1","1","0","0","4","2","2","1","2","4","3","4","4","2","2","781449352643350529","徐","155","","","","","","","","","","","","","","","","","","","true","4","4","ability","565","negative","拙笨","","","","","","","","","","","","","","","","",""
"null","","null","html-keyboard-response","120","228449","0.0-6.0-0.0-8.0-0.6","3","3","4","3","3","3","3","4","3","4","4","4","3","3","4","4","4","4","4","4","2","2","2","1","2","2","2","2","1","1","0","0","1","0","0","0","1","0","1","1","1","1","0","0","4","2","2","1","2","4","3","4","4","2","2","781449352643350529","徐","155","","","","","","","","","","","","","","","","","","","","","","","","","","","","","","","","","","","","","","","","","",""
"650","<p style=""color:rgb(150, 250, 100); font-size: 35px;"">他</p>","i","categorize-html","121","229104","0.0-6.0-0.0-8.0-1.6","3","3","4","3","3","3","3","4","3","4","4","4","3","3","4","4","4","4","4","4","2","2","2","1","2","2","2","2","1","1","0","0","1","0","0","0","1","0","1","1","1","1","0","0","4","2","2","1","2","4","3","4","4","2","2","781449352643350529","徐","155","","","","","","","","","","","","","","","","","","","true","4","4","ability","650","other","他","","","","","","","","","","","","","","","","",""
"null","","null","html-keyboard-response","122","229356","0.0-6.0-0.0-8.0-0.7","3","3","4","3","3","3","3","4","3","4","4","4","3","3","4","4","4","4","4","4","2","2","2","1","2","2","2","2","1","1","0","0","1","0","0","0","1","0","1","1","1","1","0","0","4","2","2","1","2","4","3","4","4","2","2","781449352643350529","徐","155","","","","","","","","","","","","","","","","","","","","","","","","","","","","","","","","","","","","","","","","","",""
"566","<p style=""color:white; font-size: 35px;"">全能</p>","e","categorize-html","123","229928","0.0-6.0-0.0-8.0-1.7","3","3","4","3","3","3","3","4","3","4","4","4","3","3","4","4","4","4","4","4","2","2","2","1","2","2","2","2","1","1","0","0","1","0","0","0","1","0","1","1","1","1","0","0","4","2","2","1","2","4","3","4","4","2","2","781449352643350529","徐","155","","","","","","","","","","","","","","","","","","","true","4","4","ability","566","positive","全能","","","","","","","","","","","","","","","","",""
"null","","null","html-keyboard-response","124","230180","0.0-6.0-0.0-8.0-0.8","3","3","4","3","3","3","3","4","3","4","4","4","3","3","4","4","4","4","4","4","2","2","2","1","2","2","2","2","1","1","0","0","1","0","0","0","1","0","1","1","1","1","0","0","4","2","2","1","2","4","3","4","4","2","2","781449352643350529","徐","155","","","","","","","","","","","","","","","","","","","","","","","","","","","","","","","","","","","","","","","","","",""
"554","<p style=""color:rgb(150, 250, 100); font-size: 35px;"">本人的</p>","e","categorize-html","125","230740","0.0-6.0-0.0-8.0-1.8","3","3","4","3","3","3","3","4","3","4","4","4","3","3","4","4","4","4","4","4","2","2","2","1","2","2","2","2","1","1","0","0","1","0","0","0","1","0","1","1","1","1","0","0","4","2","2","1","2","4","3","4","4","2","2","781449352643350529","徐","155","","","","","","","","","","","","","","","","","","","true","4","4","ability","554","self","本人的","","","","","","","","","","","","","","","","",""
"null","","null","html-keyboard-response","126","230993","0.0-6.0-0.0-8.0-0.9","3","3","4","3","3","3","3","4","3","4","4","4","3","3","4","4","4","4","4","4","2","2","2","1","2","2","2","2","1","1","0","0","1","0","0","0","1","0","1","1","1","1","0","0","4","2","2","1","2","4","3","4","4","2","2","781449352643350529","徐","155","","","","","","","","","","","","","","","","","","","","","","","","","","","","","","","","","","","","","","","","","",""
"485","<p style=""color:white; font-size: 35px;"">高效</p>","e","categorize-html","127","231482","0.0-6.0-0.0-8.0-1.9","3","3","4","3","3","3","3","4","3","4","4","4","3","3","4","4","4","4","4","4","2","2","2","1","2","2","2","2","1","1","0","0","1","0","0","0","1","0","1","1","1","1","0","0","4","2","2","1","2","4","3","4","4","2","2","781449352643350529","徐","155","","","","","","","","","","","","","","","","","","","true","4","4","ability","485","positive","高效","","","","","","","","","","","","","","","","",""
"null","","null","html-keyboard-response","128","231736","0.0-6.0-0.0-8.0-0.10","3","3","4","3","3","3","3","4","3","4","4","4","3","3","4","4","4","4","4","4","2","2","2","1","2","2","2","2","1","1","0","0","1","0","0","0","1","0","1","1","1","1","0","0","4","2","2","1","2","4","3","4","4","2","2","781449352643350529","徐","155","","","","","","","","","","","","","","","","","","","","","","","","","","","","","","","","","","","","","","","","","",""
"539","<p style=""color:rgb(150, 250, 100); font-size: 35px;"">他</p>","i","categorize-html","129","232281","0.0-6.0-0.0-8.0-1.10","3","3","4","3","3","3","3","4","3","4","4","4","3","3","4","4","4","4","4","4","2","2","2","1","2","2","2","2","1","1","0","0","1","0","0","0","1","0","1","1","1","1","0","0","4","2","2","1","2","4","3","4","4","2","2","781449352643350529","徐","155","","","","","","","","","","","","","","","","","","","true","4","4","ability","539","other","他","","","","","","","","","","","","","","","","",""
"null","","null","html-keyboard-response","130","232533","0.0-6.0-0.0-8.0-0.11","3","3","4","3","3","3","3","4","3","4","4","4","3","3","4","4","4","4","4","4","2","2","2","1","2","2","2","2","1","1","0","0","1","0","0","0","1","0","1","1","1","1","0","0","4","2","2","1","2","4","3","4","4","2","2","781449352643350529","徐","155","","","","","","","","","","","","","","","","","","","","","","","","","","","","","","","","","","","","","","","","","",""
"507","<p style=""color:white; font-size: 35px;"">低能</p>","i","categorize-html","131","233045","0.0-6.0-0.0-8.0-1.11","3","3","4","3","3","3","3","4","3","4","4","4","3","3","4","4","4","4","4","4","2","2","2","1","2","2","2","2","1","1","0","0","1","0","0","0","1","0","1","1","1","1","0","0","4","2","2","1","2","4","3","4","4","2","2","781449352643350529","徐","155","","","","","","","","","","","","","","","","","","","true","4","4","ability","507","negative","低能","","","","","","","","","","","","","","","","",""
"null","","null","html-keyboard-response","132","233308","0.0-6.0-0.0-8.0-0.12","3","3","4","3","3","3","3","4","3","4","4","4","3","3","4","4","4","4","4","4","2","2","2","1","2","2","2","2","1","1","0","0","1","0","0","0","1","0","1","1","1","1","0","0","4","2","2","1","2","4","3","4","4","2","2","781449352643350529","徐","155","","","","","","","","","","","","","","","","","","","","","","","","","","","","","","","","","","","","","","","","","",""
"847","<p style=""color:rgb(150, 250, 100); font-size: 35px;"">别人的</p>","i","categorize-html","133","234162","0.0-6.0-0.0-8.0-1.12","3","3","4","3","3","3","3","4","3","4","4","4","3","3","4","4","4","4","4","4","2","2","2","1","2","2","2","2","1","1","0","0","1","0","0","0","1","0","1","1","1","1","0","0","4","2","2","1","2","4","3","4","4","2","2","781449352643350529","徐","155","","","","","","","","","","","","","","","","","","","true","4","4","ability","847","other","别人的","","","","","","","","","","","","","","","","",""
"null","","null","html-keyboard-response","134","234425","0.0-6.0-0.0-8.0-0.13","3","3","4","3","3","3","3","4","3","4","4","4","3","3","4","4","4","4","4","4","2","2","2","1","2","2","2","2","1","1","0","0","1","0","0","0","1","0","1","1","1","1","0","0","4","2","2","1","2","4","3","4","4","2","2","781449352643350529","徐","155","","","","","","","","","","","","","","","","","","","","","","","","","","","","","","","","","","","","","","","","","",""
"1307","<p style=""color:white; font-size: 35px;"">全才</p>","e","categorize-html","135","235738","0.0-6.0-0.0-8.0-1.13","3","3","4","3","3","3","3","4","3","4","4","4","3","3","4","4","4","4","4","4","2","2","2","1","2","2","2","2","1","1","0","0","1","0","0","0","1","0","1","1","1","1","0","0","4","2","2","1","2","4","3","4","4","2","2","781449352643350529","徐","155","","","","","","","","","","","","","","","","","","","true","4","4","ability","1307","positive","全才","","","","","","","","","","","","","","","","",""
"null","","null","html-keyboard-response","136","235990","0.0-6.0-0.0-8.0-0.14","3","3","4","3","3","3","3","4","3","4","4","4","3","3","4","4","4","4","4","4","2","2","2","1","2","2","2","2","1","1","0","0","1","0","0","0","1","0","1","1","1","1","0","0","4","2","2","1","2","4","3","4","4","2","2","781449352643350529","徐","155","","","","","","","","","","","","","","","","","","","","","","","","","","","","","","","","","","","","","","","","","",""
"536","<p style=""color:rgb(150, 250, 100); font-size: 35px;"">自己的</p>","e","categorize-html","137","236533","0.0-6.0-0.0-8.0-1.14","3","3","4","3","3","3","3","4","3","4","4","4","3","3","4","4","4","4","4","4","2","2","2","1","2","2","2","2","1","1","0","0","1","0","0","0","1","0","1","1","1","1","0","0","4","2","2","1","2","4","3","4","4","2","2","781449352643350529","徐","155","","","","","","","","","","","","","","","","","","","true","4","4","ability","536","self","自己的","","","","","","","","","","","","","","","","",""
"null","","null","html-keyboard-response","138","236785","0.0-6.0-0.0-8.0-0.15","3","3","4","3","3","3","3","4","3","4","4","4","3","3","4","4","4","4","4","4","2","2","2","1","2","2","2","2","1","1","0","0","1","0","0","0","1","0","1","1","1","1","0","0","4","2","2","1","2","4","3","4","4","2","2","781449352643350529","徐","155","","","","","","","","","","","","","","","","","","","","","","","","","","","","","","","","","","","","","","","","","",""
"519","<p style=""color:white; font-size: 35px;"">拙笨</p>","i","categorize-html","139","237310","0.0-6.0-0.0-8.0-1.15","3","3","4","3","3","3","3","4","3","4","4","4","3","3","4","4","4","4","4","4","2","2","2","1","2","2","2","2","1","1","0","0","1","0","0","0","1","0","1","1","1","1","0","0","4","2","2","1","2","4","3","4","4","2","2","781449352643350529","徐","155","","","","","","","","","","","","","","","","","","","true","4","4","ability","519","negative","拙笨","","","","","","","","","","","","","","","","",""
"null","","null","html-keyboard-response","140","237563","0.0-6.0-0.0-8.0-0.16","3","3","4","3","3","3","3","4","3","4","4","4","3","3","4","4","4","4","4","4","2","2","2","1","2","2","2","2","1","1","0","0","1","0","0","0","1","0","1","1","1","1","0","0","4","2","2","1","2","4","3","4","4","2","2","781449352643350529","徐","155","","","","","","","","","","","","","","","","","","","","","","","","","","","","","","","","","","","","","","","","","",""
"538","<p style=""color:rgb(150, 250, 100); font-size: 35px;"">他人的</p>","i","categorize-html","141","238108","0.0-6.0-0.0-8.0-1.16","3","3","4","3","3","3","3","4","3","4","4","4","3","3","4","4","4","4","4","4","2","2","2","1","2","2","2","2","1","1","0","0","1","0","0","0","1","0","1","1","1","1","0","0","4","2","2","1","2","4","3","4","4","2","2","781449352643350529","徐","155","","","","","","","","","","","","","","","","","","","true","4","4","ability","538","other","他人的","","","","","","","","","","","","","","","","",""
"null","","null","html-keyboard-response","142","238359","0.0-6.0-0.0-8.0-0.17","3","3","4","3","3","3","3","4","3","4","4","4","3","3","4","4","4","4","4","4","2","2","2","1","2","2","2","2","1","1","0","0","1","0","0","0","1","0","1","1","1","1","0","0","4","2","2","1","2","4","3","4","4","2","2","781449352643350529","徐","155","","","","","","","","","","","","","","","","","","","","","","","","","","","","","","","","","","","","","","","","","",""
"574","<p style=""color:white; font-size: 35px;"">天才</p>","e","categorize-html","143","238937","0.0-6.0-0.0-8.0-1.17","3","3","4","3","3","3","3","4","3","4","4","4","3","3","4","4","4","4","4","4","2","2","2","1","2","2","2","2","1","1","0","0","1","0","0","0","1","0","1","1","1","1","0","0","4","2","2","1","2","4","3","4","4","2","2","781449352643350529","徐","155","","","","","","","","","","","","","","","","","","","true","4","4","ability","574","positive","天才","","","","","","","","","","","","","","","","",""
"null","","null","html-keyboard-response","144","239189","0.0-6.0-0.0-8.0-0.18","3","3","4","3","3","3","3","4","3","4","4","4","3","3","4","4","4","4","4","4","2","2","2","1","2","2","2","2","1","1","0","0","1","0","0","0","1","0","1","1","1","1","0","0","4","2","2","1","2","4","3","4","4","2","2","781449352643350529","徐","155","","","","","","","","","","","","","","","","","","","","","","","","","","","","","","","","","","","","","","","","","",""
"517","<p style=""color:rgb(150, 250, 100); font-size: 35px;"">自己的</p>","e","categorize-html","145","239711","0.0-6.0-0.0-8.0-1.18","3","3","4","3","3","3","3","4","3","4","4","4","3","3","4","4","4","4","4","4","2","2","2","1","2","2","2","2","1","1","0","0","1","0","0","0","1","0","1","1","1","1","0","0","4","2","2","1","2","4","3","4","4","2","2","781449352643350529","徐","155","","","","","","","","","","","","","","","","","","","true","4","4","ability","517","self","自己的","","","","","","","","","","","","","","","","",""
"null","","null","html-keyboard-response","146","239964","0.0-6.0-0.0-8.0-0.19","3","3","4","3","3","3","3","4","3","4","4","4","3","3","4","4","4","4","4","4","2","2","2","1","2","2","2","2","1","1","0","0","1","0","0","0","1","0","1","1","1","1","0","0","4","2","2","1","2","4","3","4","4","2","2","781449352643350529","徐","155","","","","","","","","","","","","","","","","","","","","","","","","","","","","","","","","","","","","","","","","","",""
"627","<p style=""color:white; font-size: 35px;"">蠢笨</p>","i","categorize-html","147","240596","0.0-6.0-0.0-8.0-1.19","3","3","4","3","3","3","3","4","3","4","4","4","3","3","4","4","4","4","4","4","2","2","2","1","2","2","2","2","1","1","0","0","1","0","0","0","1","0","1","1","1","1","0","0","4","2","2","1","2","4","3","4","4","2","2","781449352643350529","徐","155","","","","","","","","","","","","","","","","","","","true","4","4","ability","627","negative","蠢笨","","","","","","","","","","","","","","","","",""
"null","","null","html-keyboard-response","148","240849","0.0-6.0-0.0-8.0-0.20","3","3","4","3","3","3","3","4","3","4","4","4","3","3","4","4","4","4","4","4","2","2","2","1","2","2","2","2","1","1","0","0","1","0","0","0","1","0","1","1","1","1","0","0","4","2","2","1","2","4","3","4","4","2","2","781449352643350529","徐","155","","","","","","","","","","","","","","","","","","","","","","","","","","","","","","","","","","","","","","","","","",""
"544","<p style=""color:rgb(150, 250, 100); font-size: 35px;"">他人</p>","i","categorize-html","149","241399","0.0-6.0-0.0-8.0-1.20","3","3","4","3","3","3","3","4","3","4","4","4","3","3","4","4","4","4","4","4","2","2","2","1","2","2","2","2","1","1","0","0","1","0","0","0","1","0","1","1","1","1","0","0","4","2","2","1","2","4","3","4","4","2","2","781449352643350529","徐","155","","","","","","","","","","","","","","","","","","","true","4","4","ability","544","other","他人","","","","","","","","","","","","","","","","",""
"null","","null","html-keyboard-response","150","241652","0.0-6.0-0.0-8.0-0.21","3","3","4","3","3","3","3","4","3","4","4","4","3","3","4","4","4","4","4","4","2","2","2","1","2","2","2","2","1","1","0","0","1","0","0","0","1","0","1","1","1","1","0","0","4","2","2","1","2","4","3","4","4","2","2","781449352643350529","徐","155","","","","","","","","","","","","","","","","","","","","","","","","","","","","","","","","","","","","","","","","","",""
"529","<p style=""color:white; font-size: 35px;"">精干</p>","e","categorize-html","151","242187","0.0-6.0-0.0-8.0-1.21","3","3","4","3","3","3","3","4","3","4","4","4","3","3","4","4","4","4","4","4","2","2","2","1","2","2","2","2","1","1","0","0","1","0","0","0","1","0","1","1","1","1","0","0","4","2","2","1","2","4","3","4","4","2","2","781449352643350529","徐","155","","","","","","","","","","","","","","","","","","","true","4","4","ability","529","positive","精干","","","","","","","","","","","","","","","","",""
"null","","null","html-keyboard-response","152","242441","0.0-6.0-0.0-8.0-0.22","3","3","4","3","3","3","3","4","3","4","4","4","3","3","4","4","4","4","4","4","2","2","2","1","2","2","2","2","1","1","0","0","1","0","0","0","1","0","1","1","1","1","0","0","4","2","2","1","2","4","3","4","4","2","2","781449352643350529","徐","155","","","","","","","","","","","","","","","","","","","","","","","","","","","","","","","","","","","","","","","","","",""
"434","<p style=""color:rgb(150, 250, 100); font-size: 35px;"">我的</p>","e","categorize-html","153","242880","0.0-6.0-0.0-8.0-1.22","3","3","4","3","3","3","3","4","3","4","4","4","3","3","4","4","4","4","4","4","2","2","2","1","2","2","2","2","1","1","0","0","1","0","0","0","1","0","1","1","1","1","0","0","4","2","2","1","2","4","3","4","4","2","2","781449352643350529","徐","155","","","","","","","","","","","","","","","","","","","true","4","4","ability","434","self","我的","","","","","","","","","","","","","","","","",""
"null","","null","html-keyboard-response","154","243133","0.0-6.0-0.0-8.0-0.23","3","3","4","3","3","3","3","4","3","4","4","4","3","3","4","4","4","4","4","4","2","2","2","1","2","2","2","2","1","1","0","0","1","0","0","0","1","0","1","1","1","1","0","0","4","2","2","1","2","4","3","4","4","2","2","781449352643350529","徐","155","","","","","","","","","","","","","","","","","","","","","","","","","","","","","","","","","","","","","","","","","",""
"524","<p style=""color:white; font-size: 35px;"">愚钝</p>","i","categorize-html","155","243659","0.0-6.0-0.0-8.0-1.23","3","3","4","3","3","3","3","4","3","4","4","4","3","3","4","4","4","4","4","4","2","2","2","1","2","2","2","2","1","1","0","0","1","0","0","0","1","0","1","1","1","1","0","0","4","2","2","1","2","4","3","4","4","2","2","781449352643350529","徐","155","","","","","","","","","","","","","","","","","","","true","4","4","ability","524","negative","愚钝","","","","","","","","","","","","","","","","",""
"null","","null","html-keyboard-response","156","243911","0.0-6.0-0.0-8.0-0.24","3","3","4","3","3","3","3","4","3","4","4","4","3","3","4","4","4","4","4","4","2","2","2","1","2","2","2","2","1","1","0","0","1","0","0","0","1","0","1","1","1","1","0","0","4","2","2","1","2","4","3","4","4","2","2","781449352643350529","徐","155","","","","","","","","","","","","","","","","","","","","","","","","","","","","","","","","","","","","","","","","","",""
"641","<p style=""color:rgb(150, 250, 100); font-size: 35px;"">他的</p>","i","categorize-html","157","244557","0.0-6.0-0.0-8.0-1.24","3","3","4","3","3","3","3","4","3","4","4","4","3","3","4","4","4","4","4","4","2","2","2","1","2","2","2","2","1","1","0","0","1","0","0","0","1","0","1","1","1","1","0","0","4","2","2","1","2","4","3","4","4","2","2","781449352643350529","徐","155","","","","","","","","","","","","","","","","","","","true","4","4","ability","641","other","他的","","","","","","","","","","","","","","","","",""
"null","","null","html-keyboard-response","158","244810","0.0-6.0-0.0-8.0-0.25","3","3","4","3","3","3","3","4","3","4","4","4","3","3","4","4","4","4","4","4","2","2","2","1","2","2","2","2","1","1","0","0","1","0","0","0","1","0","1","1","1","1","0","0","4","2","2","1","2","4","3","4","4","2","2","781449352643350529","徐","155","","","","","","","","","","","","","","","","","","","","","","","","","","","","","","","","","","","","","","","","","",""
"747","<p style=""color:white; font-size: 35px;"">废物</p>","i","categorize-html","159","245564","0.0-6.0-0.0-8.0-1.25","3","3","4","3","3","3","3","4","3","4","4","4","3","3","4","4","4","4","4","4","2","2","2","1","2","2","2","2","1","1","0","0","1","0","0","0","1","0","1","1","1","1","0","0","4","2","2","1","2","4","3","4","4","2","2","781449352643350529","徐","155","","","","","","","","","","","","","","","","","","","true","4","4","ability","747","negative","废物","","","","","","","","","","","","","","","","",""
"null","","null","html-keyboard-response","160","245816","0.0-6.0-0.0-8.0-0.26","3","3","4","3","3","3","3","4","3","4","4","4","3","3","4","4","4","4","4","4","2","2","2","1","2","2","2","2","1","1","0","0","1","0","0","0","1","0","1","1","1","1","0","0","4","2","2","1","2","4","3","4","4","2","2","781449352643350529","徐","155","","","","","","","","","","","","","","","","","","","","","","","","","","","","","","","","","","","","","","","","","",""
"460","<p style=""color:rgb(150, 250, 100); font-size: 35px;"">本人</p>","e","categorize-html","161","246281","0.0-6.0-0.0-8.0-1.26","3","3","4","3","3","3","3","4","3","4","4","4","3","3","4","4","4","4","4","4","2","2","2","1","2","2","2","2","1","1","0","0","1","0","0","0","1","0","1","1","1","1","0","0","4","2","2","1","2","4","3","4","4","2","2","781449352643350529","徐","155","","","","","","","","","","","","","","","","","","","true","4","4","ability","460","self","本人","","","","","","","","","","","","","","","","",""
"null","","null","html-keyboard-response","162","246534","0.0-6.0-0.0-8.0-0.27","3","3","4","3","3","3","3","4","3","4","4","4","3","3","4","4","4","4","4","4","2","2","2","1","2","2","2","2","1","1","0","0","1","0","0","0","1","0","1","1","1","1","0","0","4","2","2","1","2","4","3","4","4","2","2","781449352643350529","徐","155","","","","","","","","","","","","","","","","","","","","","","","","","","","","","","","","","","","","","","","","","",""
"489","<p style=""color:white; font-size: 35px;"">高效</p>","e","categorize-html","163","247029","0.0-6.0-0.0-8.0-1.27","3","3","4","3","3","3","3","4","3","4","4","4","3","3","4","4","4","4","4","4","2","2","2","1","2","2","2","2","1","1","0","0","1","0","0","0","1","0","1","1","1","1","0","0","4","2","2","1","2","4","3","4","4","2","2","781449352643350529","徐","155","","","","","","","","","","","","","","","","","","","true","4","4","ability","489","positive","高效","","","","","","","","","","","","","","","","",""
"null","","null","html-keyboard-response","164","247282","0.0-6.0-0.0-8.0-0.28","3","3","4","3","3","3","3","4","3","4","4","4","3","3","4","4","4","4","4","4","2","2","2","1","2","2","2","2","1","1","0","0","1","0","0","0","1","0","1","1","1","1","0","0","4","2","2","1","2","4","3","4","4","2","2","781449352643350529","徐","155","","","","","","","","","","","","","","","","","","","","","","","","","","","","","","","","","","","","","","","","","",""
"535","<p style=""color:rgb(150, 250, 100); font-size: 35px;"">他的</p>","i","categorize-html","165","247821","0.0-6.0-0.0-8.0-1.28","3","3","4","3","3","3","3","4","3","4","4","4","3","3","4","4","4","4","4","4","2","2","2","1","2","2","2","2","1","1","0","0","1","0","0","0","1","0","1","1","1","1","0","0","4","2","2","1","2","4","3","4","4","2","2","781449352643350529","徐","155","","","","","","","","","","","","","","","","","","","true","4","4","ability","535","other","他的","","","","","","","","","","","","","","","","",""
"null","","null","html-keyboard-response","166","248086","0.0-6.0-0.0-8.0-0.29","3","3","4","3","3","3","3","4","3","4","4","4","3","3","4","4","4","4","4","4","2","2","2","1","2","2","2","2","1","1","0","0","1","0","0","0","1","0","1","1","1","1","0","0","4","2","2","1","2","4","3","4","4","2","2","781449352643350529","徐","155","","","","","","","","","","","","","","","","","","","","","","","","","","","","","","","","","","","","","","","","","",""
"584","<p style=""color:white; font-size: 35px;"">全能</p>","e","categorize-html","167","248679","0.0-6.0-0.0-8.0-1.29","3","3","4","3","3","3","3","4","3","4","4","4","3","3","4","4","4","4","4","4","2","2","2","1","2","2","2","2","1","1","0","0","1","0","0","0","1","0","1","1","1","1","0","0","4","2","2","1","2","4","3","4","4","2","2","781449352643350529","徐","155","","","","","","","","","","","","","","","","","","","true","4","4","ability","584","positive","全能","","","","","","","","","","","","","","","","",""
"null","","null","html-keyboard-response","168","248930","0.0-6.0-0.0-8.0-0.30","3","3","4","3","3","3","3","4","3","4","4","4","3","3","4","4","4","4","4","4","2","2","2","1","2","2","2","2","1","1","0","0","1","0","0","0","1","0","1","1","1","1","0","0","4","2","2","1","2","4","3","4","4","2","2","781449352643350529","徐","155","","","","","","","","","","","","","","","","","","","","","","","","","","","","","","","","","","","","","","","","","",""
"433","<p style=""color:rgb(150, 250, 100); font-size: 35px;"">我</p>","e","categorize-html","169","249369","0.0-6.0-0.0-8.0-1.30","3","3","4","3","3","3","3","4","3","4","4","4","3","3","4","4","4","4","4","4","2","2","2","1","2","2","2","2","1","1","0","0","1","0","0","0","1","0","1","1","1","1","0","0","4","2","2","1","2","4","3","4","4","2","2","781449352643350529","徐","155","","","","","","","","","","","","","","","","","","","true","4","4","ability","433","self","我","","","","","","","","","","","","","","","","",""
"null","","null","html-keyboard-response","170","249622","0.0-6.0-0.0-8.0-0.31","3","3","4","3","3","3","3","4","3","4","4","4","3","3","4","4","4","4","4","4","2","2","2","1","2","2","2","2","1","1","0","0","1","0","0","0","1","0","1","1","1","1","0","0","4","2","2","1","2","4","3","4","4","2","2","781449352643350529","徐","155","","","","","","","","","","","","","","","","","","","","","","","","","","","","","","","","","","","","","","","","","",""
"498","<p style=""color:white; font-size: 35px;"">无能</p>","i","categorize-html","171","250126","0.0-6.0-0.0-8.0-1.31","3","3","4","3","3","3","3","4","3","4","4","4","3","3","4","4","4","4","4","4","2","2","2","1","2","2","2","2","1","1","0","0","1","0","0","0","1","0","1","1","1","1","0","0","4","2","2","1","2","4","3","4","4","2","2","781449352643350529","徐","155","","","","","","","","","","","","","","","","","","","true","4","4","ability","498","negative","无能","","","","","","","","","","","","","","","","",""
"null","","null","html-keyboard-response","172","250378","0.0-6.0-0.0-8.0-0.32","3","3","4","3","3","3","3","4","3","4","4","4","3","3","4","4","4","4","4","4","2","2","2","1","2","2","2","2","1","1","0","0","1","0","0","0","1","0","1","1","1","1","0","0","4","2","2","1","2","4","3","4","4","2","2","781449352643350529","徐","155","","","","","","","","","","","","","","","","","","","","","","","","","","","","","","","","","","","","","","","","","",""
"506","<p style=""color:rgb(150, 250, 100); font-size: 35px;"">别人的</p>","i","categorize-html","173","250890","0.0-6.0-0.0-8.0-1.32","3","3","4","3","3","3","3","4","3","4","4","4","3","3","4","4","4","4","4","4","2","2","2","1","2","2","2","2","1","1","0","0","1","0","0","0","1","0","1","1","1","1","0","0","4","2","2","1","2","4","3","4","4","2","2","781449352643350529","徐","155","","","","","","","","","","","","","","","","","","","true","4","4","ability","506","other","别人的","","","","","","","","","","","","","","","","",""
"null","","null","html-keyboard-response","174","251143","0.0-6.0-0.0-8.0-0.33","3","3","4","3","3","3","3","4","3","4","4","4","3","3","4","4","4","4","4","4","2","2","2","1","2","2","2","2","1","1","0","0","1","0","0","0","1","0","1","1","1","1","0","0","4","2","2","1","2","4","3","4","4","2","2","781449352643350529","徐","155","","","","","","","","","","","","","","","","","","","","","","","","","","","","","","","","","","","","","","","","","",""
"634","<p style=""color:white; font-size: 35px;"">低能</p>","i","categorize-html","175","251783","0.0-6.0-0.0-8.0-1.33","3","3","4","3","3","3","3","4","3","4","4","4","3","3","4","4","4","4","4","4","2","2","2","1","2","2","2","2","1","1","0","0","1","0","0","0","1","0","1","1","1","1","0","0","4","2","2","1","2","4","3","4","4","2","2","781449352643350529","徐","155","","","","","","","","","","","","","","","","","","","true","4","4","ability","634","negative","低能","","","","","","","","","","","","","","","","",""
"null","","null","html-keyboard-response","176","252034","0.0-6.0-0.0-8.0-0.34","3","3","4","3","3","3","3","4","3","4","4","4","3","3","4","4","4","4","4","4","2","2","2","1","2","2","2","2","1","1","0","0","1","0","0","0","1","0","1","1","1","1","0","0","4","2","2","1","2","4","3","4","4","2","2","781449352643350529","徐","155","","","","","","","","","","","","","","","","","","","","","","","","","","","","","","","","","","","","","","","","","",""
"445","<p style=""color:rgb(150, 250, 100); font-size: 35px;"">自己</p>","e","categorize-html","177","252484","0.0-6.0-0.0-8.0-1.34","3","3","4","3","3","3","3","4","3","4","4","4","3","3","4","4","4","4","4","4","2","2","2","1","2","2","2","2","1","1","0","0","1","0","0","0","1","0","1","1","1","1","0","0","4","2","2","1","2","4","3","4","4","2","2","781449352643350529","徐","155","","","","","","","","","","","","","","","","","","","true","4","4","ability","445","self","自己","","","","","","","","","","","","","","","","",""
"null","","null","html-keyboard-response","178","252737","0.0-6.0-0.0-8.0-0.35","3","3","4","3","3","3","3","4","3","4","4","4","3","3","4","4","4","4","4","4","2","2","2","1","2","2","2","2","1","1","0","0","1","0","0","0","1","0","1","1","1","1","0","0","4","2","2","1","2","4","3","4","4","2","2","781449352643350529","徐","155","","","","","","","","","","","","","","","","","","","","","","","","","","","","","","","","","","","","","","","","","",""
"432","<p style=""color:white; font-size: 35px;"">全才</p>","e","categorize-html","179","253174","0.0-6.0-0.0-8.0-1.35","3","3","4","3","3","3","3","4","3","4","4","4","3","3","4","4","4","4","4","4","2","2","2","1","2","2","2","2","1","1","0","0","1","0","0","0","1","0","1","1","1","1","0","0","4","2","2","1","2","4","3","4","4","2","2","781449352643350529","徐","155","","","","","","","","","","","","","","","","","","","true","4","4","ability","432","positive","全才","","","","","","","","","","","","","","","","",""
"null","","null","html-keyboard-response","180","253429","0.0-6.0-0.0-8.0-0.36","3","3","4","3","3","3","3","4","3","4","4","4","3","3","4","4","4","4","4","4","2","2","2","1","2","2","2","2","1","1","0","0","1","0","0","0","1","0","1","1","1","1","0","0","4","2","2","1","2","4","3","4","4","2","2","781449352643350529","徐","155","","","","","","","","","","","","","","","","","","","","","","","","","","","","","","","","","","","","","","","","","",""
"437","<p style=""color:rgb(150, 250, 100); font-size: 35px;"">我的</p>","e","categorize-html","181","253873","0.0-6.0-0.0-8.0-1.36","3","3","4","3","3","3","3","4","3","4","4","4","3","3","4","4","4","4","4","4","2","2","2","1","2","2","2","2","1","1","0","0","1","0","0","0","1","0","1","1","1","1","0","0","4","2","2","1","2","4","3","4","4","2","2","781449352643350529","徐","155","","","","","","","","","","","","","","","","","","","true","4","4","ability","437","self","我的","","","","","","","","","","","","","","","","",""
"null","","null","html-keyboard-response","182","254125","0.0-6.0-0.0-8.0-0.37","3","3","4","3","3","3","3","4","3","4","4","4","3","3","4","4","4","4","4","4","2","2","2","1","2","2","2","2","1","1","0","0","1","0","0","0","1","0","1","1","1","1","0","0","4","2","2","1","2","4","3","4","4","2","2","781449352643350529","徐","155","","","","","","","","","","","","","","","","","","","","","","","","","","","","","","","","","","","","","","","","","",""
"586","<p style=""color:white; font-size: 35px;"">蠢笨</p>","i","categorize-html","183","254717","0.0-6.0-0.0-8.0-1.37","3","3","4","3","3","3","3","4","3","4","4","4","3","3","4","4","4","4","4","4","2","2","2","1","2","2","2","2","1","1","0","0","1","0","0","0","1","0","1","1","1","1","0","0","4","2","2","1","2","4","3","4","4","2","2","781449352643350529","徐","155","","","","","","","","","","","","","","","","","","","true","4","4","ability","586","negative","蠢笨","","","","","","","","","","","","","","","","",""
"null","","null","html-keyboard-response","184","254969","0.0-6.0-0.0-8.0-0.38","3","3","4","3","3","3","3","4","3","4","4","4","3","3","4","4","4","4","4","4","2","2","2","1","2","2","2","2","1","1","0","0","1","0","0","0","1","0","1","1","1","1","0","0","4","2","2","1","2","4","3","4","4","2","2","781449352643350529","徐","155","","","","","","","","","","","","","","","","","","","","","","","","","","","","","","","","","","","","","","","","","",""
"523","<p style=""color:rgb(150, 250, 100); font-size: 35px;"">他人的</p>","i","categorize-html","185","255498","0.0-6.0-0.0-8.0-1.38","3","3","4","3","3","3","3","4","3","4","4","4","3","3","4","4","4","4","4","4","2","2","2","1","2","2","2","2","1","1","0","0","1","0","0","0","1","0","1","1","1","1","0","0","4","2","2","1","2","4","3","4","4","2","2","781449352643350529","徐","155","","","","","","","","","","","","","","","","","","","true","4","4","ability","523","other","他人的","","","","","","","","","","","","","","","","",""
"null","","null","html-keyboard-response","186","255750","0.0-6.0-0.0-8.0-0.39","3","3","4","3","3","3","3","4","3","4","4","4","3","3","4","4","4","4","4","4","2","2","2","1","2","2","2","2","1","1","0","0","1","0","0","0","1","0","1","1","1","1","0","0","4","2","2","1","2","4","3","4","4","2","2","781449352643350529","徐","155","","","","","","","","","","","","","","","","","","","","","","","","","","","","","","","","","","","","","","","","","",""
"1224","<p style=""color:white; font-size: 35px;"">精干</p>","e","categorize-html","187","256980","0.0-6.0-0.0-8.0-1.39","3","3","4","3","3","3","3","4","3","4","4","4","3","3","4","4","4","4","4","4","2","2","2","1","2","2","2","2","1","1","0","0","1","0","0","0","1","0","1","1","1","1","0","0","4","2","2","1","2","4","3","4","4","2","2","781449352643350529","徐","155","","","","","","","","","","","","","","","","","","","true","4","4","ability","1224","positive","精干","","","","","","","","","","","","","","","","",""
"null","","null","html-keyboard-response","188","257233","0.0-6.0-0.0-8.0-0.40","3","3","4","3","3","3","3","4","3","4","4","4","3","3","4","4","4","4","4","4","2","2","2","1","2","2","2","2","1","1","0","0","1","0","0","0","1","0","1","1","1","1","0","0","4","2","2","1","2","4","3","4","4","2","2","781449352643350529","徐","155","","","","","","","","","","","","","","","","","","","","","","","","","","","","","","","","","","","","","","","","","",""
"622","<p style=""color:rgb(150, 250, 100); font-size: 35px;"">别人</p>","i","categorize-html","189","257858","0.0-6.0-0.0-8.0-1.40","3","3","4","3","3","3","3","4","3","4","4","4","3","3","4","4","4","4","4","4","2","2","2","1","2","2","2","2","1","1","0","0","1","0","0","0","1","0","1","1","1","1","0","0","4","2","2","1","2","4","3","4","4","2","2","781449352643350529","徐","155","","","","","","","","","","","","","","","","","","","true","4","4","ability","622","other","别人","","","","","","","","","","","","","","","","",""
"null","","null","html-keyboard-response","190","258110","0.0-6.0-0.0-8.0-0.41","3","3","4","3","3","3","3","4","3","4","4","4","3","3","4","4","4","4","4","4","2","2","2","1","2","2","2","2","1","1","0","0","1","0","0","0","1","0","1","1","1","1","0","0","4","2","2","1","2","4","3","4","4","2","2","781449352643350529","徐","155","","","","","","","","","","","","","","","","","","","","","","","","","","","","","","","","","","","","","","","","","",""
"545","<p style=""color:white; font-size: 35px;"">无能</p>","i","categorize-html","191","258661","0.0-6.0-0.0-8.0-1.41","3","3","4","3","3","3","3","4","3","4","4","4","3","3","4","4","4","4","4","4","2","2","2","1","2","2","2","2","1","1","0","0","1","0","0","0","1","0","1","1","1","1","0","0","4","2","2","1","2","4","3","4","4","2","2","781449352643350529","徐","155","","","","","","","","","","","","","","","","","","","true","4","4","ability","545","negative","无能","","","","","","","","","","","","","","","","",""
"null","","null","html-keyboard-response","192","258914","0.0-6.0-0.0-8.0-0.42","3","3","4","3","3","3","3","4","3","4","4","4","3","3","4","4","4","4","4","4","2","2","2","1","2","2","2","2","1","1","0","0","1","0","0","0","1","0","1","1","1","1","0","0","4","2","2","1","2","4","3","4","4","2","2","781449352643350529","徐","155","","","","","","","","","","","","","","","","","","","","","","","","","","","","","","","","","","","","","","","","","",""
"595","<p style=""color:rgb(150, 250, 100); font-size: 35px;"">我</p>","e","categorize-html","193","259515","0.0-6.0-0.0-8.0-1.42","3","3","4","3","3","3","3","4","3","4","4","4","3","3","4","4","4","4","4","4","2","2","2","1","2","2","2","2","1","1","0","0","1","0","0","0","1","0","1","1","1","1","0","0","4","2","2","1","2","4","3","4","4","2","2","781449352643350529","徐","155","","","","","","","","","","","","","","","","","","","true","4","4","ability","595","self","我","","","","","","","","","","","","","","","","",""
