"rt","stimulus","response","trial_type","trial_index","time_elapsed","internal_node_id","ses_1","ses_2","ses_3","ses_4","ses_5","ses_6","ses_7","ses_8","ses_9","ses_10","coreself_1","coreself_2","coreself_3","coreself_4","coreself_5","coreself_6","coreself_7","coreself_8","coreself_9","coreself_10","SGPS_1","SGPS_2","SGPS_3","SGPS_4","SGPS_5","SGPS_6","SGPS_7","SGPS_8","SGPS_9","NPI1","NPI2","NPI3","NPI4","NPI5","NPI6","NPI7","NPI8","NPI9","NPI10","NPI11","NPI12","NPI13","NPI14","NPI15","hsns_1","hsns_2","hsns_3","hsns_4","hsns_5","trap1","hsns_6","hsns_7","hsns_8","hsns_9","hsns_10","subj_idx","friend_name","ParticipantID","value","success","user_agent","responses","item_order","radio_event_ids","radio_event_times","key_event_times","mouse_event_times","straightlining","zigzagging","honeypot","timeout","failed_images","failed_audio","failed_video","view_history","response_type","key_press","avg_frame_time","center_x","center_y","correct_response","correct","identity","Image","word","condition","task_id","screen_id","time_stamp","version_attrib","version_target","IAT","RT","varname","summary","version_attrib2","version_target2","question_order","correct_answer","trap1_item"
"2979","
   <p><div style = ""color: white;font-size:25px;"">您好，欢迎参加本次实验。</div> </p>
   <p><div style = ""color: white;font-size:25px;"">为充分保障您的权利，请确保您已经知晓并同意《参与实验同意书》以及《数据公开知情同意书》。</div></p>
   <p><div style = ""color: white;font-size:25px;"">如果您未见过上述内容，请咨询实验员。</div></p>
   <p><div style = ""color: white;font-size:25px;"">如果您选择继续实验，则表示您已经清楚两份知情同意书的内容并同意。</div></p>
   <p><div style = ""color: pink;font-size:30px;"">请确保您记得day0的实验编号，您将在本次实验输入该编号，若您忘记，请咨询实验员后作答。</div></p>
   <p><div style = ""color: lightblue;font-size:25px;"">请您尽可能认真地作答，我们将依据您在各问卷和按键任务中的作答质量发放报酬。</div></p>
   <p> <div style = ""color: green;font-size:25px;""><按空格键至下页></div> </p>
   "," ","html-keyboard-response","0","2981","0.0-0.0","3","3","4","3","3","4","4","3","4","4","4","4","3","4","3","4","5","4","4","5","3","4","4","3","2","2","2","3","4","0","0","0","1","0","0","0","1","1","1","1","0","1","0","1","3","2","4","3","4","4","3","3","2","3","4","799642454209994753","张","552","","","","","","","","","","","","","","","","","","","","","","","","","","","","","","","","","","","","","","","","","",""
"","","","call-function","1","2984","0.0-1.0-0.0","3","3","4","3","3","4","4","3","4","4","4","4","3","4","3","4","5","4","4","5","3","4","4","3","2","2","2","3","4","0","0","0","1","0","0","0","1","1","1","1","0","1","0","1","3","2","4","3","4","4","3","3","2","3","4","799642454209994753","张","552","","","","","","","","","","","","","","","","","","","","","","","","","","","","","","","","","","","","","","","","","",""
"13123","","{""friend_name"":""张"",""ParticipantID"":""552""}","survey-html-form","2","16109","0.0-1.0-1.0","3","3","4","3","3","4","4","3","4","4","4","4","3","4","3","4","5","4","4","5","3","4","4","3","2","2","2","3","4","0","0","0","1","0","0","0","1","1","1","1","0","1","0","1","3","2","4","3","4","4","3","3","2","3","4","799642454209994753","张","552","","","","","","","","","","","","","","","","","","","","","","","","","","","","","","","","","","","","","","","","","",""
"","","","fullscreen","3","17855","0.0-2.0","3","3","4","3","3","4","4","3","4","4","4","4","3","4","3","4","5","4","4","5","3","4","4","3","2","2","2","3","4","0","0","0","1","0","0","0","1","1","1","1","0","1","0","1","3","2","4","3","4","4","3","3","2","3","4","799642454209994753","张","552","","true","{}","","","","","","","","","","","","","","","","","","","","","","","","","","","","","","","","","","","","","","",""
"22701.199999999255","","{""Q01"":""3"",""Q02"":""3"",""Q03"":""4"",""Q04"":""3"",""Q05"":""3"",""Q06"":""4"",""Q07"":""4"",""Q08"":""3"",""Q09"":""4"",""Q10"":""4""}","survey-template","4","40559","0.0-3.0","3","3","4","3","3","4","4","3","4","4","4","4","3","4","3","4","5","4","4","5","3","4","4","3","2","2","2","3","4","0","0","0","1","0","0","0","1","1","1","1","0","1","0","1","3","2","4","3","4","4","3","3","2","3","4","799642454209994753","张","552","","","","{""Q01"":""3"",""Q02"":""3"",""Q03"":""4"",""Q04"":""3"",""Q05"":""3"",""Q06"":""4"",""Q07"":""4"",""Q08"":""3"",""Q09"":""4"",""Q10"":""4""}","[0,1,2,3,4,5,6,7,8,9]","[""Q01"",""Q02"",""Q03"",""Q04"",""Q05"",""Q06"",""Q07"",""Q08"",""Q09"",""Q10""]","[3877,5251.300000000745,7130.300000000745,9256.5,11551.10000000149,14643.300000000745,15546.39999999851,17712.5,20901.199999999255,21884]","[]","[3044.5,3877,5251.300000000745,7130.300000000745,9256.5,11551.10000000149,14643.300000000745,15546.39999999851,17712.5,19590.300000000745,20901.199999999255,21884,22699.10000000149]","0.3","0.2222222222222222","0","","","","","","","","","","","","","","","","","","","","","","","","","","","","","",""
"27884.300000000745","","{""Q01"":""4"",""Q02"":""4"",""Q03"":""3"",""Q04"":""4"",""Q05"":""3"",""Q06"":""4"",""Q07"":""5"",""Q08"":""4"",""Q09"":""4"",""Q10"":""5""}","survey-template","5","68454","0.0-4.0","3","3","4","3","3","4","4","3","4","4","4","4","3","4","3","4","5","4","4","5","3","4","4","3","2","2","2","3","4","0","0","0","1","0","0","0","1","1","1","1","0","1","0","1","3","2","4","3","4","4","3","3","2","3","4","799642454209994753","张","552","","","","{""Q01"":""4"",""Q02"":""4"",""Q03"":""3"",""Q04"":""4"",""Q05"":""3"",""Q06"":""4"",""Q07"":""5"",""Q08"":""4"",""Q09"":""4"",""Q10"":""5""}","[0,1,2,3,4,5,6,7,8,9]","[""Q01"",""Q02"",""Q03"",""Q04"",""Q05"",""Q06"",""Q07"",""Q08"",""Q08"",""Q09"",""Q10""]","[4111,5397.5,7212.39999999851,12934.39999999851,17518.099999997765,18581,20402.800000000745,22912.800000000745,24199.699999999255,25534.199999999255,26957]","[]","[4111,5397.5,7212.39999999851,11328.5,12934.39999999851,16454.599999997765,17518.099999997765,18581,20402.800000000745,22912.800000000745,24199.699999999255,25534.199999999255,26957,27882.89999999851]","0.4","0.5555555555555556","0","","","","","","","","","","","","","","","","","","","","","","","","","","","","","",""
"","","","preload","6","72314","0.0-5.0","3","3","4","3","3","4","4","3","4","4","4","4","3","4","3","4","5","4","4","5","3","4","4","3","2","2","2","3","4","0","0","0","1","0","0","0","1","1","1","1","0","1","0","1","3","2","4","3","4","4","3","3","2","3","4","799642454209994753","张","552","","true","","","","","","","","","","","false","[]","[]","[]","","","","","","","","","","","","","","","","","","","","","","","","","",""
"10681","","","instructions","7","82997","0.0-6.0","3","3","4","3","3","4","4","3","4","4","4","4","3","4","3","4","5","4","4","5","3","4","4","3","2","2","2","3","4","0","0","0","1","0","0","0","1","1","1","1","0","1","0","1","3","2","4","3","4","4","3","3","2","3","4","799642454209994753","张","552","","","","","","","","","","","","","","","","","[{""page_index"":0,""viewing_time"":10681}]","","","","","","","","","","","","","","","","","","","","","","","","",""
"23635","","","instructions","8","106635","0.0-7.0-1.0-0.0","3","3","4","3","3","4","4","3","4","4","4","4","3","4","3","4","5","4","4","5","3","4","4","3","2","2","2","3","4","0","0","0","1","0","0","0","1","1","1","1","0","1","0","1","3","2","4","3","4","4","3","3","2","3","4","799642454209994753","张","552","","","","","","","","","","","","","","","","","[{""page_index"":0,""viewing_time"":16748},{""page_index"":1,""viewing_time"":4497},{""page_index"":2,""viewing_time"":2390}]","","","","","","","","","","","","","","","","","","","","","","","","",""
"null","","null","psychophysics","9","108849","0.0-7.0-1.0-1.0-0.0-0.0","3","3","4","3","3","4","4","3","4","4","4","4","3","4","3","4","5","4","4","5","3","4","4","3","2","2","2","3","4","0","0","0","1","0","0","0","1","1","1","1","0","1","0","1","3","2","4","3","4","4","3","3","2","3","4","799642454209994753","张","552","","","","null","","","","","","","","","","","","","","key","null","16.666000000000086","735","456","f","false","match","img/pentagon.png","五边","五边","ALT1_2","prac_ALT1_2","","","","","","","","","","","",""
"null","<span class='add_' style='color:yellow; font-size: 70px;'> 太慢! </span>","null","html-keyboard-response","10","109352","0.0-7.0-1.0-1.0-0.0-1.0","3","3","4","3","3","4","4","3","4","4","4","4","3","4","3","4","5","4","4","5","3","4","4","3","2","2","2","3","4","0","0","0","1","0","0","0","1","1","1","1","0","1","0","1","3","2","4","3","4","4","3","3","2","3","4","799642454209994753","张","552","","","","","","","","","","","","","","","","","","","","","","","","","","","","","","feedback_test","","","","","","","","","","","",""
"554","","f","psychophysics","11","110909","0.0-7.0-1.0-1.0-0.0-0.1","3","3","4","3","3","4","4","3","4","4","4","4","3","4","3","4","5","4","4","5","3","4","4","3","2","2","2","3","4","0","0","0","1","0","0","0","1","1","1","1","0","1","0","1","3","2","4","3","4","4","3","3","2","3","4","799642454209994753","张","552","","","","match","","","","","","","","","","","","","","key","f","16.670880434782664","735","456","j","false","nonmatch","img/ellipse.png","梯形","椭圆","ALT1_2","prac_ALT1_2","","","","","","","","","","","",""
"null","<span style='color:red; font-size: 70px;'>错误! </span>","null","html-keyboard-response","12","111411","0.0-7.0-1.0-1.0-0.0-1.1","3","3","4","3","3","4","4","3","4","4","4","4","3","4","3","4","5","4","4","5","3","4","4","3","2","2","2","3","4","0","0","0","1","0","0","0","1","1","1","1","0","1","0","1","3","2","4","3","4","4","3","3","2","3","4","799642454209994753","张","552","","","","","","","","","","","","","","","","","","","","","","","","","","","","","","feedback_test","","","","","","","","","","","",""
"505","","j","psychophysics","13","112919","0.0-7.0-1.0-1.0-0.0-0.2","3","3","4","3","3","4","4","3","4","4","4","4","3","4","3","4","5","4","4","5","3","4","4","3","2","2","2","3","4","0","0","0","1","0","0","0","1","1","1","1","0","1","0","1","3","2","4","3","4","4","3","3","2","3","4","799642454209994753","张","552","","","","nonmatch","","","","","","","","","","","","","","key","j","16.666000000000054","735","456","f","false","match","img/trapezoid.png","梯形","梯形","ALT1_2","prac_ALT1_2","","","","","","","","","","","",""
"null","<span style='color:red; font-size: 70px;'>错误! </span>","null","html-keyboard-response","14","113421","0.0-7.0-1.0-1.0-0.0-1.2","3","3","4","3","3","4","4","3","4","4","4","4","3","4","3","4","5","4","4","5","3","4","4","3","2","2","2","3","4","0","0","0","1","0","0","0","1","1","1","1","0","1","0","1","3","2","4","3","4","4","3","3","2","3","4","799642454209994753","张","552","","","","","","","","","","","","","","","","","","","","","","","","","","","","","","feedback_test","","","","","","","","","","","",""
"257","","f","psychophysics","15","114680","0.0-7.0-1.0-1.0-0.0-0.3","3","3","4","3","3","4","4","3","4","4","4","4","3","4","3","4","5","4","4","5","3","4","4","3","2","2","2","3","4","0","0","0","1","0","0","0","1","1","1","1","0","1","0","1","3","2","4","3","4","4","3","3","2","3","4","799642454209994753","张","552","","","","match","","","","","","","","","","","","","","key","f","16.665999999999997","735","456","j","false","nonmatch","img/pentagon.png","梯形","五边","ALT1_2","prac_ALT1_2","","","","","","","","","","","",""
"null","<span style='color:red; font-size: 70px;'>错误! </span>","null","html-keyboard-response","16","115182","0.0-7.0-1.0-1.0-0.0-1.3","3","3","4","3","3","4","4","3","4","4","4","4","3","4","3","4","5","4","4","5","3","4","4","3","2","2","2","3","4","0","0","0","1","0","0","0","1","1","1","1","0","1","0","1","3","2","4","3","4","4","3","3","2","3","4","799642454209994753","张","552","","","","","","","","","","","","","","","","","","","","","","","","","","","","","","feedback_test","","","","","","","","","","","",""
"483","","j","psychophysics","17","116668","0.0-7.0-1.0-1.0-0.0-0.4","3","3","4","3","3","4","4","3","4","4","4","4","3","4","3","4","5","4","4","5","3","4","4","3","2","2","2","3","4","0","0","0","1","0","0","0","1","1","1","1","0","1","0","1","3","2","4","3","4","4","3","3","2","3","4","799642454209994753","张","552","","","","nonmatch","","","","","","","","","","","","","","key","j","16.666000000000086","735","456","f","false","match","img/ellipse.png","椭圆","椭圆","ALT1_2","prac_ALT1_2","","","","","","","","","","","",""
"null","<span style='color:red; font-size: 70px;'>错误! </span>","null","html-keyboard-response","18","117170","0.0-7.0-1.0-1.0-0.0-1.4","3","3","4","3","3","4","4","3","4","4","4","4","3","4","3","4","5","4","4","5","3","4","4","3","2","2","2","3","4","0","0","0","1","0","0","0","1","1","1","1","0","1","0","1","3","2","4","3","4","4","3","3","2","3","4","799642454209994753","张","552","","","","","","","","","","","","","","","","","","","","","","","","","","","","","","feedback_test","","","","","","","","","","","",""
"337","","f","psychophysics","19","118509","0.0-7.0-1.0-1.0-0.0-0.5","3","3","4","3","3","4","4","3","4","4","4","4","3","4","3","4","5","4","4","5","3","4","4","3","2","2","2","3","4","0","0","0","1","0","0","0","1","1","1","1","0","1","0","1","3","2","4","3","4","4","3","3","2","3","4","799642454209994753","张","552","","","","match","","","","","","","","","","","","","","key","f","16.666000000000018","735","456","j","false","nonmatch","img/trapezoid.png","五边","梯形","ALT1_2","prac_ALT1_2","","","","","","","","","","","",""
"null","<span style='color:red; font-size: 70px;'>错误! </span>","null","html-keyboard-response","20","119011","0.0-7.0-1.0-1.0-0.0-1.5","3","3","4","3","3","4","4","3","4","4","4","4","3","4","3","4","5","4","4","5","3","4","4","3","2","2","2","3","4","0","0","0","1","0","0","0","1","1","1","1","0","1","0","1","3","2","4","3","4","4","3","3","2","3","4","799642454209994753","张","552","","","","","","","","","","","","","","","","","","","","","","","","","","","","","","feedback_test","","","","","","","","","","","",""
"350","","j","psychophysics","21","120364","0.0-7.0-1.0-1.0-0.0-0.6","3","3","4","3","3","4","4","3","4","4","4","4","3","4","3","4","5","4","4","5","3","4","4","3","2","2","2","3","4","0","0","0","1","0","0","0","1","1","1","1","0","1","0","1","3","2","4","3","4","4","3","3","2","3","4","799642454209994753","张","552","","","","nonmatch","","","","","","","","","","","","","","key","j","16.671537499999978","735","456","f","false","match","img/triangle.png","三角","三角","ALT1_2","prac_ALT1_2","","","","","","","","","","","",""
"null","<span style='color:red; font-size: 70px;'>错误! </span>","null","html-keyboard-response","22","120866","0.0-7.0-1.0-1.0-0.0-1.6","3","3","4","3","3","4","4","3","4","4","4","4","3","4","3","4","5","4","4","5","3","4","4","3","2","2","2","3","4","0","0","0","1","0","0","0","1","1","1","1","0","1","0","1","3","2","4","3","4","4","3","3","2","3","4","799642454209994753","张","552","","","","","","","","","","","","","","","","","","","","","","","","","","","","","","feedback_test","","","","","","","","","","","",""
"477","","f","psychophysics","23","122347","0.0-7.0-1.0-1.0-0.0-0.7","3","3","4","3","3","4","4","3","4","4","4","4","3","4","3","4","5","4","4","5","3","4","4","3","2","2","2","3","4","0","0","0","1","0","0","0","1","1","1","1","0","1","0","1","3","2","4","3","4","4","3","3","2","3","4","799642454209994753","张","552","","","","match","","","","","","","","","","","","","","key","f","16.666000000000086","735","456","j","false","nonmatch","img/pentagon.png","椭圆","五边","ALT1_2","prac_ALT1_2","","","","","","","","","","","",""
"null","<span style='color:red; font-size: 70px;'>错误! </span>","null","html-keyboard-response","24","122849","0.0-7.0-1.0-1.0-0.0-1.7","3","3","4","3","3","4","4","3","4","4","4","4","3","4","3","4","5","4","4","5","3","4","4","3","2","2","2","3","4","0","0","0","1","0","0","0","1","1","1","1","0","1","0","1","3","2","4","3","4","4","3","3","2","3","4","799642454209994753","张","552","","","","","","","","","","","","","","","","","","","","","","","","","","","","","","feedback_test","","","","","","","","","","","",""
"824","","f","psychophysics","25","124677","0.0-7.0-1.0-1.0-0.0-0.8","3","3","4","3","3","4","4","3","4","4","4","4","3","4","3","4","5","4","4","5","3","4","4","3","2","2","2","3","4","0","0","0","1","0","0","0","1","1","1","1","0","1","0","1","3","2","4","3","4","4","3","3","2","3","4","799642454209994753","张","552","","","","match","","","","","","","","","","","","","","key","f","16.665999999999976","735","456","f","true","match","img/pentagon.png","五边","五边","ALT1_2","prac_ALT1_2","","","","","","","","","","","",""
"null","<span style='color:GreenYellow; font-size: 70px;'>正确! </span>","null","html-keyboard-response","26","125179","0.0-7.0-1.0-1.0-0.0-1.8","3","3","4","3","3","4","4","3","4","4","4","4","3","4","3","4","5","4","4","5","3","4","4","3","2","2","2","3","4","0","0","0","1","0","0","0","1","1","1","1","0","1","0","1","3","2","4","3","4","4","3","3","2","3","4","799642454209994753","张","552","","","","","","","","","","","","","","","","","","","","","","","","","","","","","","feedback_test","","","","","","","","","","","",""
"416","","j","psychophysics","27","126599","0.0-7.0-1.0-1.0-0.0-0.9","3","3","4","3","3","4","4","3","4","4","4","4","3","4","3","4","5","4","4","5","3","4","4","3","2","2","2","3","4","0","0","0","1","0","0","0","1","1","1","1","0","1","0","1","3","2","4","3","4","4","3","3","2","3","4","799642454209994753","张","552","","","","nonmatch","","","","","","","","","","","","","","key","j","16.666000000000036","735","456","f","false","match","img/ellipse.png","椭圆","椭圆","ALT1_2","prac_ALT1_2","","","","","","","","","","","",""
"null","<span style='color:red; font-size: 70px;'>错误! </span>","null","html-keyboard-response","28","127101","0.0-7.0-1.0-1.0-0.0-1.9","3","3","4","3","3","4","4","3","4","4","4","4","3","4","3","4","5","4","4","5","3","4","4","3","2","2","2","3","4","0","0","0","1","0","0","0","1","1","1","1","0","1","0","1","3","2","4","3","4","4","3","3","2","3","4","799642454209994753","张","552","","","","","","","","","","","","","","","","","","","","","","","","","","","","","","feedback_test","","","","","","","","","","","",""
"323","","f","psychophysics","29","128427","0.0-7.0-1.0-1.0-0.0-0.10","3","3","4","3","3","4","4","3","4","4","4","4","3","4","3","4","5","4","4","5","3","4","4","3","2","2","2","3","4","0","0","0","1","0","0","0","1","1","1","1","0","1","0","1","3","2","4","3","4","4","3","3","2","3","4","799642454209994753","张","552","","","","match","","","","","","","","","","","","","","key","f","16.66600000000005","735","456","f","true","match","img/triangle.png","三角","三角","ALT1_2","prac_ALT1_2","","","","","","","","","","","",""
"null","<span style='color:GreenYellow; font-size: 70px;'>正确! </span>","null","html-keyboard-response","30","128928","0.0-7.0-1.0-1.0-0.0-1.10","3","3","4","3","3","4","4","3","4","4","4","4","3","4","3","4","5","4","4","5","3","4","4","3","2","2","2","3","4","0","0","0","1","0","0","0","1","1","1","1","0","1","0","1","3","2","4","3","4","4","3","3","2","3","4","799642454209994753","张","552","","","","","","","","","","","","","","","","","","","","","","","","","","","","","","feedback_test","","","","","","","","","","","",""
"371","","f","psychophysics","31","130302","0.0-7.0-1.0-1.0-0.0-0.11","3","3","4","3","3","4","4","3","4","4","4","4","3","4","3","4","5","4","4","5","3","4","4","3","2","2","2","3","4","0","0","0","1","0","0","0","1","1","1","1","0","1","0","1","3","2","4","3","4","4","3","3","2","3","4","799642454209994753","张","552","","","","match","","","","","","","","","","","","","","key","f","16.66992592592605","735","456","f","true","match","img/trapezoid.png","梯形","梯形","ALT1_2","prac_ALT1_2","","","","","","","","","","","",""
"null","<span style='color:GreenYellow; font-size: 70px;'>正确! </span>","null","html-keyboard-response","32","130804","0.0-7.0-1.0-1.0-0.0-1.11","3","3","4","3","3","4","4","3","4","4","4","4","3","4","3","4","5","4","4","5","3","4","4","3","2","2","2","3","4","0","0","0","1","0","0","0","1","1","1","1","0","1","0","1","3","2","4","3","4","4","3","3","2","3","4","799642454209994753","张","552","","","","","","","","","","","","","","","","","","","","","","","","","","","","","","feedback_test","","","","","","","","","","","",""
"295","","f","psychophysics","33","132101","0.0-7.0-1.0-1.0-0.0-0.12","3","3","4","3","3","4","4","3","4","4","4","4","3","4","3","4","5","4","4","5","3","4","4","3","2","2","2","3","4","0","0","0","1","0","0","0","1","1","1","1","0","1","0","1","3","2","4","3","4","4","3","3","2","3","4","799642454209994753","张","552","","","","match","","","","","","","","","","","","","","key","f","16.66600000000012","735","456","j","false","nonmatch","img/triangle.png","梯形","三角","ALT1_2","prac_ALT1_2","","","","","","","","","","","",""
"null","<span style='color:red; font-size: 70px;'>错误! </span>","null","html-keyboard-response","34","132603","0.0-7.0-1.0-1.0-0.0-1.12","3","3","4","3","3","4","4","3","4","4","4","4","3","4","3","4","5","4","4","5","3","4","4","3","2","2","2","3","4","0","0","0","1","0","0","0","1","1","1","1","0","1","0","1","3","2","4","3","4","4","3","3","2","3","4","799642454209994753","张","552","","","","","","","","","","","","","","","","","","","","","","","","","","","","","","feedback_test","","","","","","","","","","","",""
"287","","f","psychophysics","35","133892","0.0-7.0-1.0-1.0-0.0-0.13","3","3","4","3","3","4","4","3","4","4","4","4","3","4","3","4","5","4","4","5","3","4","4","3","2","2","2","3","4","0","0","0","1","0","0","0","1","1","1","1","0","1","0","1","3","2","4","3","4","4","3","3","2","3","4","799642454209994753","张","552","","","","match","","","","","","","","","","","","","","key","f","16.665999999999737","735","456","j","false","nonmatch","img/triangle.png","五边","三角","ALT1_2","prac_ALT1_2","","","","","","","","","","","",""
"null","<span style='color:red; font-size: 70px;'>错误! </span>","null","html-keyboard-response","36","134393","0.0-7.0-1.0-1.0-0.0-1.13","3","3","4","3","3","4","4","3","4","4","4","4","3","4","3","4","5","4","4","5","3","4","4","3","2","2","2","3","4","0","0","0","1","0","0","0","1","1","1","1","0","1","0","1","3","2","4","3","4","4","3","3","2","3","4","799642454209994753","张","552","","","","","","","","","","","","","","","","","","","","","","","","","","","","","","feedback_test","","","","","","","","","","","",""
"265","","j","psychophysics","37","135660","0.0-7.0-1.0-1.0-0.0-0.14","3","3","4","3","3","4","4","3","4","4","4","4","3","4","3","4","5","4","4","5","3","4","4","3","2","2","2","3","4","0","0","0","1","0","0","0","1","1","1","1","0","1","0","1","3","2","4","3","4","4","3","3","2","3","4","799642454209994753","张","552","","","","nonmatch","","","","","","","","","","","","","","key","j","16.666000000000157","735","456","j","true","nonmatch","img/ellipse.png","三角","椭圆","ALT1_2","prac_ALT1_2","","","","","","","","","","","",""
"null","<span style='color:GreenYellow; font-size: 70px;'>正确! </span>","null","html-keyboard-response","38","136162","0.0-7.0-1.0-1.0-0.0-1.14","3","3","4","3","3","4","4","3","4","4","4","4","3","4","3","4","5","4","4","5","3","4","4","3","2","2","2","3","4","0","0","0","1","0","0","0","1","1","1","1","0","1","0","1","3","2","4","3","4","4","3","3","2","3","4","799642454209994753","张","552","","","","","","","","","","","","","","","","","","","","","","","","","","","","","","feedback_test","","","","","","","","","","","",""
"318","","j","psychophysics","39","137483","0.0-7.0-1.0-1.0-0.0-0.15","3","3","4","3","3","4","4","3","4","4","4","4","3","4","3","4","5","4","4","5","3","4","4","3","2","2","2","3","4","0","0","0","1","0","0","0","1","1","1","1","0","1","0","1","3","2","4","3","4","4","3","3","2","3","4","799642454209994753","张","552","","","","nonmatch","","","","","","","","","","","","","","key","j","16.66600000000005","735","456","f","false","match","img/triangle.png","三角","三角","ALT1_2","prac_ALT1_2","","","","","","","","","","","",""
"null","<span style='color:red; font-size: 70px;'>错误! </span>","null","html-keyboard-response","40","137984","0.0-7.0-1.0-1.0-0.0-1.15","3","3","4","3","3","4","4","3","4","4","4","4","3","4","3","4","5","4","4","5","3","4","4","3","2","2","2","3","4","0","0","0","1","0","0","0","1","1","1","1","0","1","0","1","3","2","4","3","4","4","3","3","2","3","4","799642454209994753","张","552","","","","","","","","","","","","","","","","","","","","","","","","","","","","","","feedback_test","","","","","","","","","","","",""
"321","","f","psychophysics","41","139308","0.0-7.0-1.0-1.0-0.0-0.16","3","3","4","3","3","4","4","3","4","4","4","4","3","4","3","4","5","4","4","5","3","4","4","3","2","2","2","3","4","0","0","0","1","0","0","0","1","1","1","1","0","1","0","1","3","2","4","3","4","4","3","3","2","3","4","799642454209994753","张","552","","","","match","","","","","","","","","","","","","","key","f","16.66600000000005","735","456","f","true","match","img/trapezoid.png","梯形","梯形","ALT1_2","prac_ALT1_2","","","","","","","","","","","",""
"null","<span style='color:GreenYellow; font-size: 70px;'>正确! </span>","null","html-keyboard-response","42","139809","0.0-7.0-1.0-1.0-0.0-1.16","3","3","4","3","3","4","4","3","4","4","4","4","3","4","3","4","5","4","4","5","3","4","4","3","2","2","2","3","4","0","0","0","1","0","0","0","1","1","1","1","0","1","0","1","3","2","4","3","4","4","3","3","2","3","4","799642454209994753","张","552","","","","","","","","","","","","","","","","","","","","","","","","","","","","","","feedback_test","","","","","","","","","","","",""
"465","","f","psychophysics","43","141277","0.0-7.0-1.0-1.0-0.0-0.17","3","3","4","3","3","4","4","3","4","4","4","4","3","4","3","4","5","4","4","5","3","4","4","3","2","2","2","3","4","0","0","0","1","0","0","0","1","1","1","1","0","1","0","1","3","2","4","3","4","4","3","3","2","3","4","799642454209994753","张","552","","","","match","","","","","","","","","","","","","","key","f","16.66934482758596","735","456","j","false","nonmatch","img/pentagon.png","三角","五边","ALT1_2","prac_ALT1_2","","","","","","","","","","","",""
"null","<span style='color:red; font-size: 70px;'>错误! </span>","null","html-keyboard-response","44","141778","0.0-7.0-1.0-1.0-0.0-1.17","3","3","4","3","3","4","4","3","4","4","4","4","3","4","3","4","5","4","4","5","3","4","4","3","2","2","2","3","4","0","0","0","1","0","0","0","1","1","1","1","0","1","0","1","3","2","4","3","4","4","3","3","2","3","4","799642454209994753","张","552","","","","","","","","","","","","","","","","","","","","","","","","","","","","","","feedback_test","","","","","","","","","","","",""
"431","","f","psychophysics","45","143212","0.0-7.0-1.0-1.0-0.0-0.18","3","3","4","3","3","4","4","3","4","4","4","4","3","4","3","4","5","4","4","5","3","4","4","3","2","2","2","3","4","0","0","0","1","0","0","0","1","1","1","1","0","1","0","1","3","2","4","3","4","4","3","3","2","3","4","799642454209994753","张","552","","","","match","","","","","","","","","","","","","","key","f","16.666000000000178","735","456","j","false","nonmatch","img/ellipse.png","五边","椭圆","ALT1_2","prac_ALT1_2","","","","","","","","","","","",""
"null","<span style='color:red; font-size: 70px;'>错误! </span>","null","html-keyboard-response","46","143714","0.0-7.0-1.0-1.0-0.0-1.18","3","3","4","3","3","4","4","3","4","4","4","4","3","4","3","4","5","4","4","5","3","4","4","3","2","2","2","3","4","0","0","0","1","0","0","0","1","1","1","1","0","1","0","1","3","2","4","3","4","4","3","3","2","3","4","799642454209994753","张","552","","","","","","","","","","","","","","","","","","","","","","","","","","","","","","feedback_test","","","","","","","","","","","",""
"375","","f","psychophysics","47","145093","0.0-7.0-1.0-1.0-0.0-0.19","3","3","4","3","3","4","4","3","4","4","4","4","3","4","3","4","5","4","4","5","3","4","4","3","2","2","2","3","4","0","0","0","1","0","0","0","1","1","1","1","0","1","0","1","3","2","4","3","4","4","3","3","2","3","4","799642454209994753","张","552","","","","match","","","","","","","","","","","","","","key","f","16.666000000000277","735","456","j","false","nonmatch","img/triangle.png","椭圆","三角","ALT1_2","prac_ALT1_2","","","","","","","","","","","",""
"null","<span style='color:red; font-size: 70px;'>错误! </span>","null","html-keyboard-response","48","145595","0.0-7.0-1.0-1.0-0.0-1.19","3","3","4","3","3","4","4","3","4","4","4","4","3","4","3","4","5","4","4","5","3","4","4","3","2","2","2","3","4","0","0","0","1","0","0","0","1","1","1","1","0","1","0","1","3","2","4","3","4","4","3","3","2","3","4","799642454209994753","张","552","","","","","","","","","","","","","","","","","","","","","","","","","","","","","","feedback_test","","","","","","","","","","","",""
"347","","j","psychophysics","49","146945","0.0-7.0-1.0-1.0-0.0-0.20","3","3","4","3","3","4","4","3","4","4","4","4","3","4","3","4","5","4","4","5","3","4","4","3","2","2","2","3","4","0","0","0","1","0","0","0","1","1","1","1","0","1","0","1","3","2","4","3","4","4","3","3","2","3","4","799642454209994753","张","552","","","","nonmatch","","","","","","","","","","","","","","key","j","16.665999999999986","735","456","f","false","match","img/pentagon.png","五边","五边","ALT1_2","prac_ALT1_2","","","","","","","","","","","",""
"null","<span style='color:red; font-size: 70px;'>错误! </span>","null","html-keyboard-response","50","147447","0.0-7.0-1.0-1.0-0.0-1.20","3","3","4","3","3","4","4","3","4","4","4","4","3","4","3","4","5","4","4","5","3","4","4","3","2","2","2","3","4","0","0","0","1","0","0","0","1","1","1","1","0","1","0","1","3","2","4","3","4","4","3","3","2","3","4","799642454209994753","张","552","","","","","","","","","","","","","","","","","","","","","","","","","","","","","","feedback_test","","","","","","","","","","","",""
"267","","f","psychophysics","51","148716","0.0-7.0-1.0-1.0-0.0-0.21","3","3","4","3","3","4","4","3","4","4","4","4","3","4","3","4","5","4","4","5","3","4","4","3","2","2","2","3","4","0","0","0","1","0","0","0","1","1","1","1","0","1","0","1","3","2","4","3","4","4","3","3","2","3","4","799642454209994753","张","552","","","","match","","","","","","","","","","","","","","key","f","16.666000000000157","735","456","j","false","nonmatch","img/trapezoid.png","三角","梯形","ALT1_2","prac_ALT1_2","","","","","","","","","","","",""
"null","<span style='color:red; font-size: 70px;'>错误! </span>","null","html-keyboard-response","52","149218","0.0-7.0-1.0-1.0-0.0-1.21","3","3","4","3","3","4","4","3","4","4","4","4","3","4","3","4","5","4","4","5","3","4","4","3","2","2","2","3","4","0","0","0","1","0","0","0","1","1","1","1","0","1","0","1","3","2","4","3","4","4","3","3","2","3","4","799642454209994753","张","552","","","","","","","","","","","","","","","","","","","","","","","","","","","","","","feedback_test","","","","","","","","","","","",""
"240","","f","psychophysics","53","150460","0.0-7.0-1.0-1.0-0.0-0.22","3","3","4","3","3","4","4","3","4","4","4","4","3","4","3","4","5","4","4","5","3","4","4","3","2","2","2","3","4","0","0","0","1","0","0","0","1","1","1","1","0","1","0","1","3","2","4","3","4","4","3","3","2","3","4","799642454209994753","张","552","","","","match","","","","","","","","","","","","","","key","f","16.670356164383783","735","456","j","false","nonmatch","img/trapezoid.png","椭圆","梯形","ALT1_2","prac_ALT1_2","","","","","","","","","","","",""
"null","<span style='color:red; font-size: 70px;'>错误! </span>","null","html-keyboard-response","54","150961","0.0-7.0-1.0-1.0-0.0-1.22","3","3","4","3","3","4","4","3","4","4","4","4","3","4","3","4","5","4","4","5","3","4","4","3","2","2","2","3","4","0","0","0","1","0","0","0","1","1","1","1","0","1","0","1","3","2","4","3","4","4","3","3","2","3","4","799642454209994753","张","552","","","","","","","","","","","","","","","","","","","","","","","","","","","","","","feedback_test","","","","","","","","","","","",""
"245","","j","psychophysics","55","152210","0.0-7.0-1.0-1.0-0.0-0.23","3","3","4","3","3","4","4","3","4","4","4","4","3","4","3","4","5","4","4","5","3","4","4","3","2","2","2","3","4","0","0","0","1","0","0","0","1","1","1","1","0","1","0","1","3","2","4","3","4","4","3","3","2","3","4","799642454209994753","张","552","","","","nonmatch","","","","","","","","","","","","","","key","j","16.665999999999798","735","456","f","false","match","img/ellipse.png","椭圆","椭圆","ALT1_2","prac_ALT1_2","","","","","","","","","","","",""
"null","<span style='color:red; font-size: 70px;'>错误! </span>","null","html-keyboard-response","56","152712","0.0-7.0-1.0-1.0-0.0-1.23","3","3","4","3","3","4","4","3","4","4","4","4","3","4","3","4","5","4","4","5","3","4","4","3","2","2","2","3","4","0","0","0","1","0","0","0","1","1","1","1","0","1","0","1","3","2","4","3","4","4","3","3","2","3","4","799642454209994753","张","552","","","","","","","","","","","","","","","","","","","","","","","","","","","","","","feedback_test","","","","","","","","","","","",""
"275","","j","psychophysics","57","153992","0.0-7.0-1.0-1.0-0.0-0.24","3","3","4","3","3","4","4","3","4","4","4","4","3","4","3","4","5","4","4","5","3","4","4","3","2","2","2","3","4","0","0","0","1","0","0","0","1","1","1","1","0","1","0","1","3","2","4","3","4","4","3","3","2","3","4","799642454209994753","张","552","","","","nonmatch","","","","","","","","","","","","","","key","j","16.66600000000012","735","456","j","true","nonmatch","img/trapezoid.png","五边","梯形","ALT1_2","prac_ALT1_2","","","","","","","","","","","",""
"null","<span style='color:GreenYellow; font-size: 70px;'>正确! </span>","null","html-keyboard-response","58","154493","0.0-7.0-1.0-1.0-0.0-1.24","3","3","4","3","3","4","4","3","4","4","4","4","3","4","3","4","5","4","4","5","3","4","4","3","2","2","2","3","4","0","0","0","1","0","0","0","1","1","1","1","0","1","0","1","3","2","4","3","4","4","3","3","2","3","4","799642454209994753","张","552","","","","","","","","","","","","","","","","","","","","","","","","","","","","","","feedback_test","","","","","","","","","","","",""
"332","","j","psychophysics","59","155829","0.0-7.0-1.0-1.0-0.0-0.25","3","3","4","3","3","4","4","3","4","4","4","4","3","4","3","4","5","4","4","5","3","4","4","3","2","2","2","3","4","0","0","0","1","0","0","0","1","1","1","1","0","1","0","1","3","2","4","3","4","4","3","3","2","3","4","799642454209994753","张","552","","","","nonmatch","","","","","","","","","","","","","","key","j","16.666000000000018","735","456","j","true","nonmatch","img/pentagon.png","梯形","五边","ALT1_2","prac_ALT1_2","","","","","","","","","","","",""
"null","<span style='color:GreenYellow; font-size: 70px;'>正确! </span>","null","html-keyboard-response","60","156331","0.0-7.0-1.0-1.0-0.0-1.25","3","3","4","3","3","4","4","3","4","4","4","4","3","4","3","4","5","4","4","5","3","4","4","3","2","2","2","3","4","0","0","0","1","0","0","0","1","1","1","1","0","1","0","1","3","2","4","3","4","4","3","3","2","3","4","799642454209994753","张","552","","","","","","","","","","","","","","","","","","","","","","","","","","","","","","feedback_test","","","","","","","","","","","",""
"309","","f","psychophysics","61","157643","0.0-7.0-1.0-1.0-0.0-0.26","3","3","4","3","3","4","4","3","4","4","4","4","3","4","3","4","5","4","4","5","3","4","4","3","2","2","2","3","4","0","0","0","1","0","0","0","1","1","1","1","0","1","0","1","3","2","4","3","4","4","3","3","2","3","4","799642454209994753","张","552","","","","match","","","","","","","","","","","","","","key","f","16.66600000000005","735","456","f","true","match","img/pentagon.png","五边","五边","ALT1_2","prac_ALT1_2","","","","","","","","","","","",""
"null","<span style='color:GreenYellow; font-size: 70px;'>正确! </span>","null","html-keyboard-response","62","158144","0.0-7.0-1.0-1.0-0.0-1.26","3","3","4","3","3","4","4","3","4","4","4","4","3","4","3","4","5","4","4","5","3","4","4","3","2","2","2","3","4","0","0","0","1","0","0","0","1","1","1","1","0","1","0","1","3","2","4","3","4","4","3","3","2","3","4","799642454209994753","张","552","","","","","","","","","","","","","","","","","","","","","","","","","","","","","","feedback_test","","","","","","","","","","","",""
"313","","f","psychophysics","63","159460","0.0-7.0-1.0-1.0-0.0-0.27","3","3","4","3","3","4","4","3","4","4","4","4","3","4","3","4","5","4","4","5","3","4","4","3","2","2","2","3","4","0","0","0","1","0","0","0","1","1","1","1","0","1","0","1","3","2","4","3","4","4","3","3","2","3","4","799642454209994753","张","552","","","","match","","","","","","","","","","","","","","key","f","16.665999999999677","735","456","j","false","nonmatch","img/ellipse.png","三角","椭圆","ALT1_2","prac_ALT1_2","","","","","","","","","","","",""
"null","<span style='color:red; font-size: 70px;'>错误! </span>","null","html-keyboard-response","64","159962","0.0-7.0-1.0-1.0-0.0-1.27","3","3","4","3","3","4","4","3","4","4","4","4","3","4","3","4","5","4","4","5","3","4","4","3","2","2","2","3","4","0","0","0","1","0","0","0","1","1","1","1","0","1","0","1","3","2","4","3","4","4","3","3","2","3","4","799642454209994753","张","552","","","","","","","","","","","","","","","","","","","","","","","","","","","","","","feedback_test","","","","","","","","","","","",""
"289","","f","psychophysics","65","161254","0.0-7.0-1.0-1.0-0.0-0.28","3","3","4","3","3","4","4","3","4","4","4","4","3","4","3","4","5","4","4","5","3","4","4","3","2","2","2","3","4","0","0","0","1","0","0","0","1","1","1","1","0","1","0","1","3","2","4","3","4","4","3","3","2","3","4","799642454209994753","张","552","","","","match","","","","","","","","","","","","","","key","f","16.670714285714528","735","456","f","true","match","img/triangle.png","三角","三角","ALT1_2","prac_ALT1_2","","","","","","","","","","","",""
"null","<span style='color:GreenYellow; font-size: 70px;'>正确! </span>","null","html-keyboard-response","66","161756","0.0-7.0-1.0-1.0-0.0-1.28","3","3","4","3","3","4","4","3","4","4","4","4","3","4","3","4","5","4","4","5","3","4","4","3","2","2","2","3","4","0","0","0","1","0","0","0","1","1","1","1","0","1","0","1","3","2","4","3","4","4","3","3","2","3","4","799642454209994753","张","552","","","","","","","","","","","","","","","","","","","","","","","","","","","","","","feedback_test","","","","","","","","","","","",""
"420","","j","psychophysics","67","163179","0.0-7.0-1.0-1.0-0.0-0.29","3","3","4","3","3","4","4","3","4","4","4","4","3","4","3","4","5","4","4","5","3","4","4","3","2","2","2","3","4","0","0","0","1","0","0","0","1","1","1","1","0","1","0","1","3","2","4","3","4","4","3","3","2","3","4","799642454209994753","张","552","","","","nonmatch","","","","","","","","","","","","","","key","j","16.66600000000021","735","456","j","true","nonmatch","img/pentagon.png","三角","五边","ALT1_2","prac_ALT1_2","","","","","","","","","","","",""
"null","<span style='color:GreenYellow; font-size: 70px;'>正确! </span>","null","html-keyboard-response","68","163681","0.0-7.0-1.0-1.0-0.0-1.29","3","3","4","3","3","4","4","3","4","4","4","4","3","4","3","4","5","4","4","5","3","4","4","3","2","2","2","3","4","0","0","0","1","0","0","0","1","1","1","1","0","1","0","1","3","2","4","3","4","4","3","3","2","3","4","799642454209994753","张","552","","","","","","","","","","","","","","","","","","","","","","","","","","","","","","feedback_test","","","","","","","","","","","",""
"341","","f","psychophysics","69","165026","0.0-7.0-1.0-1.0-0.0-0.30","3","3","4","3","3","4","4","3","4","4","4","4","3","4","3","4","5","4","4","5","3","4","4","3","2","2","2","3","4","0","0","0","1","0","0","0","1","1","1","1","0","1","0","1","3","2","4","3","4","4","3","3","2","3","4","799642454209994753","张","552","","","","match","","","","","","","","","","","","","","key","f","16.665999999999986","735","456","j","false","nonmatch","img/triangle.png","五边","三角","ALT1_2","prac_ALT1_2","","","","","","","","","","","",""
"null","<span style='color:red; font-size: 70px;'>错误! </span>","null","html-keyboard-response","70","165527","0.0-7.0-1.0-1.0-0.0-1.30","3","3","4","3","3","4","4","3","4","4","4","4","3","4","3","4","5","4","4","5","3","4","4","3","2","2","2","3","4","0","0","0","1","0","0","0","1","1","1","1","0","1","0","1","3","2","4","3","4","4","3","3","2","3","4","799642454209994753","张","552","","","","","","","","","","","","","","","","","","","","","","","","","","","","","","feedback_test","","","","","","","","","","","",""
"380","","f","psychophysics","71","166910","0.0-7.0-1.0-1.0-0.0-0.31","3","3","4","3","3","4","4","3","4","4","4","4","3","4","3","4","5","4","4","5","3","4","4","3","2","2","2","3","4","0","0","0","1","0","0","0","1","1","1","1","0","1","0","1","3","2","4","3","4","4","3","3","2","3","4","799642454209994753","张","552","","","","match","","","","","","","","","","","","","","key","f","16.665999999999922","735","456","f","true","match","img/trapezoid.png","梯形","梯形","ALT1_2","prac_ALT1_2","","","","","","","","","","","",""
"null","<span style='color:GreenYellow; font-size: 70px;'>正确! </span>","null","html-keyboard-response","72","167411","0.0-7.0-1.0-1.0-0.0-1.31","3","3","4","3","3","4","4","3","4","4","4","4","3","4","3","4","5","4","4","5","3","4","4","3","2","2","2","3","4","0","0","0","1","0","0","0","1","1","1","1","0","1","0","1","3","2","4","3","4","4","3","3","2","3","4","799642454209994753","张","552","","","","","","","","","","","","","","","","","","","","","","","","","","","","","","feedback_test","","","","","","","","","","","",""
"380","","f","psychophysics","73","168794","0.0-7.0-1.0-1.0-0.0-0.32","3","3","4","3","3","4","4","3","4","4","4","4","3","4","3","4","5","4","4","5","3","4","4","3","2","2","2","3","4","0","0","0","1","0","0","0","1","1","1","1","0","1","0","1","3","2","4","3","4","4","3","3","2","3","4","799642454209994753","张","552","","","","match","","","","","","","","","","","","","","key","f","16.665999999999922","735","456","j","false","nonmatch","img/ellipse.png","梯形","椭圆","ALT1_2","prac_ALT1_2","","","","","","","","","","","",""
"null","<span style='color:red; font-size: 70px;'>错误! </span>","null","html-keyboard-response","74","169296","0.0-7.0-1.0-1.0-0.0-1.32","3","3","4","3","3","4","4","3","4","4","4","4","3","4","3","4","5","4","4","5","3","4","4","3","2","2","2","3","4","0","0","0","1","0","0","0","1","1","1","1","0","1","0","1","3","2","4","3","4","4","3","3","2","3","4","799642454209994753","张","552","","","","","","","","","","","","","","","","","","","","","","","","","","","","","","feedback_test","","","","","","","","","","","",""
"344","","j","psychophysics","75","170643","0.0-7.0-1.0-1.0-0.0-0.33","3","3","4","3","3","4","4","3","4","4","4","4","3","4","3","4","5","4","4","5","3","4","4","3","2","2","2","3","4","0","0","0","1","0","0","0","1","1","1","1","0","1","0","1","3","2","4","3","4","4","3","3","2","3","4","799642454209994753","张","552","","","","nonmatch","","","","","","","","","","","","","","key","j","16.669974999999976","735","456","f","false","match","img/ellipse.png","椭圆","椭圆","ALT1_2","prac_ALT1_2","","","","","","","","","","","",""
"null","<span style='color:red; font-size: 70px;'>错误! </span>","null","html-keyboard-response","76","171145","0.0-7.0-1.0-1.0-0.0-1.33","3","3","4","3","3","4","4","3","4","4","4","4","3","4","3","4","5","4","4","5","3","4","4","3","2","2","2","3","4","0","0","0","1","0","0","0","1","1","1","1","0","1","0","1","3","2","4","3","4","4","3","3","2","3","4","799642454209994753","张","552","","","","","","","","","","","","","","","","","","","","","","","","","","","","","","feedback_test","","","","","","","","","","","",""
"306","","j","psychophysics","77","172453","0.0-7.0-1.0-1.0-0.0-0.34","3","3","4","3","3","4","4","3","4","4","4","4","3","4","3","4","5","4","4","5","3","4","4","3","2","2","2","3","4","0","0","0","1","0","0","0","1","1","1","1","0","1","0","1","3","2","4","3","4","4","3","3","2","3","4","799642454209994753","张","552","","","","nonmatch","","","","","","","","","","","","","","key","j","16.666000000000086","735","456","j","true","nonmatch","img/ellipse.png","五边","椭圆","ALT1_2","prac_ALT1_2","","","","","","","","","","","",""
"null","<span style='color:GreenYellow; font-size: 70px;'>正确! </span>","null","html-keyboard-response","78","172955","0.0-7.0-1.0-1.0-0.0-1.34","3","3","4","3","3","4","4","3","4","4","4","4","3","4","3","4","5","4","4","5","3","4","4","3","2","2","2","3","4","0","0","0","1","0","0","0","1","1","1","1","0","1","0","1","3","2","4","3","4","4","3","3","2","3","4","799642454209994753","张","552","","","","","","","","","","","","","","","","","","","","","","","","","","","","","","feedback_test","","","","","","","","","","","",""
"307","","f","psychophysics","79","174265","0.0-7.0-1.0-1.0-0.0-0.35","3","3","4","3","3","4","4","3","4","4","4","4","3","4","3","4","5","4","4","5","3","4","4","3","2","2","2","3","4","0","0","0","1","0","0","0","1","1","1","1","0","1","0","1","3","2","4","3","4","4","3","3","2","3","4","799642454209994753","张","552","","","","match","","","","","","","","","","","","","","key","f","16.666000000000086","735","456","f","true","match","img/trapezoid.png","梯形","梯形","ALT1_2","prac_ALT1_2","","","","","","","","","","","",""
"null","<span style='color:GreenYellow; font-size: 70px;'>正确! </span>","null","html-keyboard-response","80","174767","0.0-7.0-1.0-1.0-0.0-1.35","3","3","4","3","3","4","4","3","4","4","4","4","3","4","3","4","5","4","4","5","3","4","4","3","2","2","2","3","4","0","0","0","1","0","0","0","1","1","1","1","0","1","0","1","3","2","4","3","4","4","3","3","2","3","4","799642454209994753","张","552","","","","","","","","","","","","","","","","","","","","","","","","","","","","","","feedback_test","","","","","","","","","","","",""
"326","","f","psychophysics","81","176095","0.0-7.0-1.0-1.0-0.0-0.36","3","3","4","3","3","4","4","3","4","4","4","4","3","4","3","4","5","4","4","5","3","4","4","3","2","2","2","3","4","0","0","0","1","0","0","0","1","1","1","1","0","1","0","1","3","2","4","3","4","4","3","3","2","3","4","799642454209994753","张","552","","","","match","","","","","","","","","","","","","","key","f","16.666000000000018","735","456","j","false","nonmatch","img/trapezoid.png","三角","梯形","ALT1_2","prac_ALT1_2","","","","","","","","","","","",""
"null","<span style='color:red; font-size: 70px;'>错误! </span>","null","html-keyboard-response","82","176598","0.0-7.0-1.0-1.0-0.0-1.36","3","3","4","3","3","4","4","3","4","4","4","4","3","4","3","4","5","4","4","5","3","4","4","3","2","2","2","3","4","0","0","0","1","0","0","0","1","1","1","1","0","1","0","1","3","2","4","3","4","4","3","3","2","3","4","799642454209994753","张","552","","","","","","","","","","","","","","","","","","","","","","","","","","","","","","feedback_test","","","","","","","","","","","",""
"377","","f","psychophysics","83","177976","0.0-7.0-1.0-1.0-0.0-0.37","3","3","4","3","3","4","4","3","4","4","4","4","3","4","3","4","5","4","4","5","3","4","4","3","2","2","2","3","4","0","0","0","1","0","0","0","1","1","1","1","0","1","0","1","3","2","4","3","4","4","3","3","2","3","4","799642454209994753","张","552","","","","match","","","","","","","","","","","","","","key","f","16.665999999999954","735","456","j","false","nonmatch","img/triangle.png","椭圆","三角","ALT1_2","prac_ALT1_2","","","","","","","","","","","",""
"null","<span style='color:red; font-size: 70px;'>错误! </span>","null","html-keyboard-response","84","178478","0.0-7.0-1.0-1.0-0.0-1.37","3","3","4","3","3","4","4","3","4","4","4","4","3","4","3","4","5","4","4","5","3","4","4","3","2","2","2","3","4","0","0","0","1","0","0","0","1","1","1","1","0","1","0","1","3","2","4","3","4","4","3","3","2","3","4","799642454209994753","张","552","","","","","","","","","","","","","","","","","","","","","","","","","","","","","","feedback_test","","","","","","","","","","","",""
"329","","f","psychophysics","85","179810","0.0-7.0-1.0-1.0-0.0-0.38","3","3","4","3","3","4","4","3","4","4","4","4","3","4","3","4","5","4","4","5","3","4","4","3","2","2","2","3","4","0","0","0","1","0","0","0","1","1","1","1","0","1","0","1","3","2","4","3","4","4","3","3","2","3","4","799642454209994753","张","552","","","","match","","","","","","","","","","","","","","key","f","16.66599999999965","735","456","f","true","match","img/pentagon.png","五边","五边","ALT1_2","prac_ALT1_2","","","","","","","","","","","",""
"null","<span style='color:GreenYellow; font-size: 70px;'>正确! </span>","null","html-keyboard-response","86","180312","0.0-7.0-1.0-1.0-0.0-1.38","3","3","4","3","3","4","4","3","4","4","4","4","3","4","3","4","5","4","4","5","3","4","4","3","2","2","2","3","4","0","0","0","1","0","0","0","1","1","1","1","0","1","0","1","3","2","4","3","4","4","3","3","2","3","4","799642454209994753","张","552","","","","","","","","","","","","","","","","","","","","","","","","","","","","","","feedback_test","","","","","","","","","","","",""
"296","","j","psychophysics","87","181611","0.0-7.0-1.0-1.0-0.0-0.39","3","3","4","3","3","4","4","3","4","4","4","4","3","4","3","4","5","4","4","5","3","4","4","3","2","2","2","3","4","0","0","0","1","0","0","0","1","1","1","1","0","1","0","1","3","2","4","3","4","4","3","3","2","3","4","799642454209994753","张","552","","","","nonmatch","","","","","","","","","","","","","","key","j","16.670818181818444","735","456","f","false","match","img/triangle.png","三角","三角","ALT1_2","prac_ALT1_2","","","","","","","","","","","",""
"null","<span style='color:red; font-size: 70px;'>错误! </span>","null","html-keyboard-response","88","182113","0.0-7.0-1.0-1.0-0.0-1.39","3","3","4","3","3","4","4","3","4","4","4","4","3","4","3","4","5","4","4","5","3","4","4","3","2","2","2","3","4","0","0","0","1","0","0","0","1","1","1","1","0","1","0","1","3","2","4","3","4","4","3","3","2","3","4","799642454209994753","张","552","","","","","","","","","","","","","","","","","","","","","","","","","","","","","","feedback_test","","","","","","","","","","","",""
"null","","null","psychophysics","89","184332","0.0-7.0-1.0-1.0-0.0-0.40","3","3","4","3","3","4","4","3","4","4","4","4","3","4","3","4","5","4","4","5","3","4","4","3","2","2","2","3","4","0","0","0","1","0","0","0","1","1","1","1","0","1","0","1","3","2","4","3","4","4","3","3","2","3","4","799642454209994753","张","552","","","","null","","","","","","","","","","","","","","key","null","16.666000000000086","735","456","f","false","match","img/pentagon.png","五边","五边","ALT1_2","prac_ALT1_2","","","","","","","","","","","",""
"null","<span class='add_' style='color:yellow; font-size: 70px;'> 太慢! </span>","null","html-keyboard-response","90","184835","0.0-7.0-1.0-1.0-0.0-1.40","3","3","4","3","3","4","4","3","4","4","4","4","3","4","3","4","5","4","4","5","3","4","4","3","2","2","2","3","4","0","0","0","1","0","0","0","1","1","1","1","0","1","0","1","3","2","4","3","4","4","3","3","2","3","4","799642454209994753","张","552","","","","","","","","","","","","","","","","","","","","","","","","","","","","","","feedback_test","","","","","","","","","","","",""
"488","","f","psychophysics","91","186325","0.0-7.0-1.0-1.0-0.0-0.41","3","3","4","3","3","4","4","3","4","4","4","4","3","4","3","4","5","4","4","5","3","4","4","3","2","2","2","3","4","0","0","0","1","0","0","0","1","1","1","1","0","1","0","1","3","2","4","3","4","4","3","3","2","3","4","799642454209994753","张","552","","","","match","","","","","","","","","","","","","","key","f","16.665999999999755","735","456","j","false","nonmatch","img/trapezoid.png","椭圆","梯形","ALT1_2","prac_ALT1_2","","","","","","","","","","","",""
"null","<span style='color:red; font-size: 70px;'>错误! </span>","null","html-keyboard-response","92","186826","0.0-7.0-1.0-1.0-0.0-1.41","3","3","4","3","3","4","4","3","4","4","4","4","3","4","3","4","5","4","4","5","3","4","4","3","2","2","2","3","4","0","0","0","1","0","0","0","1","1","1","1","0","1","0","1","3","2","4","3","4","4","3","3","2","3","4","799642454209994753","张","552","","","","","","","","","","","","","","","","","","","","","","","","","","","","","","feedback_test","","","","","","","","","","","",""
"404","","j","psychophysics","93","188233","0.0-7.0-1.0-1.0-0.0-0.42","3","3","4","3","3","4","4","3","4","4","4","4","3","4","3","4","5","4","4","5","3","4","4","3","2","2","2","3","4","0","0","0","1","0","0","0","1","1","1","1","0","1","0","1","3","2","4","3","4","4","3","3","2","3","4","799642454209994753","张","552","","","","nonmatch","","","","","","","","","","","","","","key","j","16.665999999999894","735","456","f","false","match","img/triangle.png","三角","三角","ALT1_2","prac_ALT1_2","","","","","","","","","","","",""
"null","<span style='color:red; font-size: 70px;'>错误! </span>","null","html-keyboard-response","94","188735","0.0-7.0-1.0-1.0-0.0-1.42","3","3","4","3","3","4","4","3","4","4","4","4","3","4","3","4","5","4","4","5","3","4","4","3","2","2","2","3","4","0","0","0","1","0","0","0","1","1","1","1","0","1","0","1","3","2","4","3","4","4","3","3","2","3","4","799642454209994753","张","552","","","","","","","","","","","","","","","","","","","","","","","","","","","","","","feedback_test","","","","","","","","","","","",""
"339","","j","psychophysics","95","190076","0.0-7.0-1.0-1.0-0.0-0.43","3","3","4","3","3","4","4","3","4","4","4","4","3","4","3","4","5","4","4","5","3","4","4","3","2","2","2","3","4","0","0","0","1","0","0","0","1","1","1","1","0","1","0","1","3","2","4","3","4","4","3","3","2","3","4","799642454209994753","张","552","","","","nonmatch","","","","","","","","","","","","","","key","j","16.666000000000018","735","456","f","false","match","img/trapezoid.png","梯形","梯形","ALT1_2","prac_ALT1_2","","","","","","","","","","","",""
"null","<span style='color:red; font-size: 70px;'>错误! </span>","null","html-keyboard-response","96","190578","0.0-7.0-1.0-1.0-0.0-1.43","3","3","4","3","3","4","4","3","4","4","4","4","3","4","3","4","5","4","4","5","3","4","4","3","2","2","2","3","4","0","0","0","1","0","0","0","1","1","1","1","0","1","0","1","3","2","4","3","4","4","3","3","2","3","4","799642454209994753","张","552","","","","","","","","","","","","","","","","","","","","","","","","","","","","","","feedback_test","","","","","","","","","","","",""
"245","","f","psychophysics","97","191826","0.0-7.0-1.0-1.0-0.0-0.44","3","3","4","3","3","4","4","3","4","4","4","4","3","4","3","4","5","4","4","5","3","4","4","3","2","2","2","3","4","0","0","0","1","0","0","0","1","1","1","1","0","1","0","1","3","2","4","3","4","4","3","3","2","3","4","799642454209994753","张","552","","","","match","","","","","","","","","","","","","","key","f","16.670986486486367","735","456","f","true","match","img/ellipse.png","椭圆","椭圆","ALT1_2","prac_ALT1_2","","","","","","","","","","","",""
"null","<span style='color:GreenYellow; font-size: 70px;'>正确! </span>","null","html-keyboard-response","98","192328","0.0-7.0-1.0-1.0-0.0-1.44","3","3","4","3","3","4","4","3","4","4","4","4","3","4","3","4","5","4","4","5","3","4","4","3","2","2","2","3","4","0","0","0","1","0","0","0","1","1","1","1","0","1","0","1","3","2","4","3","4","4","3","3","2","3","4","799642454209994753","张","552","","","","","","","","","","","","","","","","","","","","","","","","","","","","","","feedback_test","","","","","","","","","","","",""
"443","","f","psychophysics","99","193774","0.0-7.0-1.0-1.0-0.0-0.45","3","3","4","3","3","4","4","3","4","4","4","4","3","4","3","4","5","4","4","5","3","4","4","3","2","2","2","3","4","0","0","0","1","0","0","0","1","1","1","1","0","1","0","1","3","2","4","3","4","4","3","3","2","3","4","799642454209994753","张","552","","","","match","","","","","","","","","","","","","","key","f","16.666000000000146","735","456","j","false","nonmatch","img/pentagon.png","椭圆","五边","ALT1_2","prac_ALT1_2","","","","","","","","","","","",""
"null","<span style='color:red; font-size: 70px;'>错误! </span>","null","html-keyboard-response","100","194276","0.0-7.0-1.0-1.0-0.0-1.45","3","3","4","3","3","4","4","3","4","4","4","4","3","4","3","4","5","4","4","5","3","4","4","3","2","2","2","3","4","0","0","0","1","0","0","0","1","1","1","1","0","1","0","1","3","2","4","3","4","4","3","3","2","3","4","799642454209994753","张","552","","","","","","","","","","","","","","","","","","","","","","","","","","","","","","feedback_test","","","","","","","","","","","",""
"434","","f","psychophysics","101","195712","0.0-7.0-1.0-1.0-0.0-0.46","3","3","4","3","3","4","4","3","4","4","4","4","3","4","3","4","5","4","4","5","3","4","4","3","2","2","2","3","4","0","0","0","1","0","0","0","1","1","1","1","0","1","0","1","3","2","4","3","4","4","3","3","2","3","4","799642454209994753","张","552","","","","match","","","","","","","","","","","","","","key","f","16.666000000000178","735","456","j","false","nonmatch","img/triangle.png","梯形","三角","ALT1_2","prac_ALT1_2","","","","","","","","","","","",""
"null","<span style='color:red; font-size: 70px;'>错误! </span>","null","html-keyboard-response","102","196214","0.0-7.0-1.0-1.0-0.0-1.46","3","3","4","3","3","4","4","3","4","4","4","4","3","4","3","4","5","4","4","5","3","4","4","3","2","2","2","3","4","0","0","0","1","0","0","0","1","1","1","1","0","1","0","1","3","2","4","3","4","4","3","3","2","3","4","799642454209994753","张","552","","","","","","","","","","","","","","","","","","","","","","","","","","","","","","feedback_test","","","","","","","","","","","",""
"293","","f","psychophysics","103","197509","0.0-7.0-1.0-1.0-0.0-0.47","3","3","4","3","3","4","4","3","4","4","4","4","3","4","3","4","5","4","4","5","3","4","4","3","2","2","2","3","4","0","0","0","1","0","0","0","1","1","1","1","0","1","0","1","3","2","4","3","4","4","3","3","2","3","4","799642454209994753","张","552","","","","match","","","","","","","","","","","","","","key","f","16.666000000000086","735","456","f","true","match","img/ellipse.png","椭圆","椭圆","ALT1_2","prac_ALT1_2","","","","","","","","","","","",""
"null","<span style='color:GreenYellow; font-size: 70px;'>正确! </span>","null","html-keyboard-response","104","198011","0.0-7.0-1.0-1.0-0.0-1.47","3","3","4","3","3","4","4","3","4","4","4","4","3","4","3","4","5","4","4","5","3","4","4","3","2","2","2","3","4","0","0","0","1","0","0","0","1","1","1","1","0","1","0","1","3","2","4","3","4","4","3","3","2","3","4","799642454209994753","张","552","","","","","","","","","","","","","","","","","","","","","","","","","","","","","","feedback_test","","","","","","","","","","","",""
"2582","<style>.context{color:white; font-size: 35px; line-height:40px}</style>                          <div><p class='context'>您正确回答了33% 的试次。</p><p class='context'>您的平均反应时为349毫秒。</p><p class='context'>恭喜您完成练习。按空格键继续。</p></div>"," ","html-keyboard-response","105","200599","0.0-7.0-1.0-1.0-1.0-0.0","3","3","4","3","3","4","4","3","4","4","4","4","3","4","3","4","5","4","4","5","3","4","4","3","2","2","2","3","4","0","0","0","1","0","0","0","1","1","1","1","0","1","0","1","3","2","4","3","4","4","3","3","2","3","4","799642454209994753","张","552","","","","","","","","","","","","","","","","","","","","","","","","","","","","","","","","","","","","","","","","","",""
"12003","","","instructions","106","212606","0.0-7.0-1.0-1.0-1.0-1.0","3","3","4","3","3","4","4","3","4","4","4","4","3","4","3","4","5","4","4","5","3","4","4","3","2","2","2","3","4","0","0","0","1","0","0","0","1","1","1","1","0","1","0","1","3","2","4","3","4","4","3","3","2","3","4","799642454209994753","张","552","","","","","","","","","","","","","","","","","[{""page_index"":0,""viewing_time"":1697},{""page_index"":1,""viewing_time"":8252},{""page_index"":2,""viewing_time"":2053}]","","","","","","","","","","","","","","","","","","","","","","","","",""
"531","","f","psychophysics","107","214142","0.0-7.0-1.0-1.1-0.1-0.48","3","3","4","3","3","4","4","3","4","4","4","4","3","4","3","4","5","4","4","5","3","4","4","3","2","2","2","3","4","0","0","0","1","0","0","0","1","1","1","1","0","1","0","1","3","2","4","3","4","4","3","3","2","3","4","799642454209994753","张","552","","","","match","","","","","","","","","","","","","","key","f","16.665999999999997","735","456","j","false","nonmatch","img/pentagon.png","梯形","五边","ALT1_2","prac_ALT1_2","","","","","","","","","","","",""
"null","<span style='color:red; font-size: 70px;'>错误! </span>","null","html-keyboard-response","108","214644","0.0-7.0-1.0-1.1-0.1-1.48","3","3","4","3","3","4","4","3","4","4","4","4","3","4","3","4","5","4","4","5","3","4","4","3","2","2","2","3","4","0","0","0","1","0","0","0","1","1","1","1","0","1","0","1","3","2","4","3","4","4","3","3","2","3","4","799642454209994753","张","552","","","","","","","","","","","","","","","","","","","","","","","","","","","","","","feedback_test","","","","","","","","","","","",""
"684","","j","psychophysics","109","216331","0.0-7.0-1.0-1.1-0.1-0.49","3","3","4","3","3","4","4","3","4","4","4","4","3","4","3","4","5","4","4","5","3","4","4","3","2","2","2","3","4","0","0","0","1","0","0","0","1","1","1","1","0","1","0","1","3","2","4","3","4","4","3","3","2","3","4","799642454209994753","张","552","","","","nonmatch","","","","","","","","","","","","","","key","j","16.666000000000057","735","456","j","true","nonmatch","img/ellipse.png","五边","椭圆","ALT1_2","prac_ALT1_2","","","","","","","","","","","",""
"null","<span style='color:GreenYellow; font-size: 70px;'>正确! </span>","null","html-keyboard-response","110","216833","0.0-7.0-1.0-1.1-0.1-1.49","3","3","4","3","3","4","4","3","4","4","4","4","3","4","3","4","5","4","4","5","3","4","4","3","2","2","2","3","4","0","0","0","1","0","0","0","1","1","1","1","0","1","0","1","3","2","4","3","4","4","3","3","2","3","4","799642454209994753","张","552","","","","","","","","","","","","","","","","","","","","","","","","","","","","","","feedback_test","","","","","","","","","","","",""
"677","","j","psychophysics","111","218512","0.0-7.0-1.0-1.1-0.1-0.50","3","3","4","3","3","4","4","3","4","4","4","4","3","4","3","4","5","4","4","5","3","4","4","3","2","2","2","3","4","0","0","0","1","0","0","0","1","1","1","1","0","1","0","1","3","2","4","3","4","4","3","3","2","3","4","799642454209994753","张","552","","","","nonmatch","","","","","","","","","","","","","","key","j","16.666000000000086","735","456","j","true","nonmatch","img/pentagon.png","三角","五边","ALT1_2","prac_ALT1_2","","","","","","","","","","","",""
"null","<span style='color:GreenYellow; font-size: 70px;'>正确! </span>","null","html-keyboard-response","112","219014","0.0-7.0-1.0-1.1-0.1-1.50","3","3","4","3","3","4","4","3","4","4","4","4","3","4","3","4","5","4","4","5","3","4","4","3","2","2","2","3","4","0","0","0","1","0","0","0","1","1","1","1","0","1","0","1","3","2","4","3","4","4","3","3","2","3","4","799642454209994753","张","552","","","","","","","","","","","","","","","","","","","","","","","","","","","","","","feedback_test","","","","","","","","","","","",""
"526","","f","psychophysics","113","220543","0.0-7.0-1.0-1.1-0.1-0.51","3","3","4","3","3","4","4","3","4","4","4","4","3","4","3","4","5","4","4","5","3","4","4","3","2","2","2","3","4","0","0","0","1","0","0","0","1","1","1","1","0","1","0","1","3","2","4","3","4","4","3","3","2","3","4","799642454209994753","张","552","","","","match","","","","","","","","","","","","","","key","f","16.665999999999997","735","456","f","true","match","img/trapezoid.png","梯形","梯形","ALT1_2","prac_ALT1_2","","","","","","","","","","","",""
"null","<span style='color:GreenYellow; font-size: 70px;'>正确! </span>","null","html-keyboard-response","114","221045","0.0-7.0-1.0-1.1-0.1-1.51","3","3","4","3","3","4","4","3","4","4","4","4","3","4","3","4","5","4","4","5","3","4","4","3","2","2","2","3","4","0","0","0","1","0","0","0","1","1","1","1","0","1","0","1","3","2","4","3","4","4","3","3","2","3","4","799642454209994753","张","552","","","","","","","","","","","","","","","","","","","","","","","","","","","","","","feedback_test","","","","","","","","","","","",""
"763","","j","psychophysics","115","222810","0.0-7.0-1.0-1.1-0.1-0.52","3","3","4","3","3","4","4","3","4","4","4","4","3","4","3","4","5","4","4","5","3","4","4","3","2","2","2","3","4","0","0","0","1","0","0","0","1","1","1","1","0","1","0","1","3","2","4","3","4","4","3","3","2","3","4","799642454209994753","张","552","","","","nonmatch","","","","","","","","","","","","","","key","j","16.669028571428775","735","456","j","true","nonmatch","img/trapezoid.png","五边","梯形","ALT1_2","prac_ALT1_2","","","","","","","","","","","",""
"null","<span style='color:GreenYellow; font-size: 70px;'>正确! </span>","null","html-keyboard-response","116","223312","0.0-7.0-1.0-1.1-0.1-1.52","3","3","4","3","3","4","4","3","4","4","4","4","3","4","3","4","5","4","4","5","3","4","4","3","2","2","2","3","4","0","0","0","1","0","0","0","1","1","1","1","0","1","0","1","3","2","4","3","4","4","3","3","2","3","4","799642454209994753","张","552","","","","","","","","","","","","","","","","","","","","","","","","","","","","","","feedback_test","","","","","","","","","","","",""
"668","","j","psychophysics","117","224982","0.0-7.0-1.0-1.1-0.1-0.53","3","3","4","3","3","4","4","3","4","4","4","4","3","4","3","4","5","4","4","5","3","4","4","3","2","2","2","3","4","0","0","0","1","0","0","0","1","1","1","1","0","1","0","1","3","2","4","3","4","4","3","3","2","3","4","799642454209994753","张","552","","","","nonmatch","","","","","","","","","","","","","","key","j","16.666000000000086","735","456","f","false","match","img/trapezoid.png","梯形","梯形","ALT1_2","prac_ALT1_2","","","","","","","","","","","",""
"null","<span style='color:red; font-size: 70px;'>错误! </span>","null","html-keyboard-response","118","225484","0.0-7.0-1.0-1.1-0.1-1.53","3","3","4","3","3","4","4","3","4","4","4","4","3","4","3","4","5","4","4","5","3","4","4","3","2","2","2","3","4","0","0","0","1","0","0","0","1","1","1","1","0","1","0","1","3","2","4","3","4","4","3","3","2","3","4","799642454209994753","张","552","","","","","","","","","","","","","","","","","","","","","","","","","","","","","","feedback_test","","","","","","","","","","","",""
"592","","f","psychophysics","119","227079","0.0-7.0-1.0-1.1-0.1-0.54","3","3","4","3","3","4","4","3","4","4","4","4","3","4","3","4","5","4","4","5","3","4","4","3","2","2","2","3","4","0","0","0","1","0","0","0","1","1","1","1","0","1","0","1","3","2","4","3","4","4","3","3","2","3","4","799642454209994753","张","552","","","","match","","","","","","","","","","","","","","key","f","16.665999999999915","735","456","f","true","match","img/triangle.png","三角","三角","ALT1_2","prac_ALT1_2","","","","","","","","","","","",""
"null","<span style='color:GreenYellow; font-size: 70px;'>正确! </span>","null","html-keyboard-response","120","227581","0.0-7.0-1.0-1.1-0.1-1.54","3","3","4","3","3","4","4","3","4","4","4","4","3","4","3","4","5","4","4","5","3","4","4","3","2","2","2","3","4","0","0","0","1","0","0","0","1","1","1","1","0","1","0","1","3","2","4","3","4","4","3","3","2","3","4","799642454209994753","张","552","","","","","","","","","","","","","","","","","","","","","","","","","","","","","","feedback_test","","","","","","","","","","","",""
"676","","f","psychophysics","121","229259","0.0-7.0-1.0-1.1-0.1-0.55","3","3","4","3","3","4","4","3","4","4","4","4","3","4","3","4","5","4","4","5","3","4","4","3","2","2","2","3","4","0","0","0","1","0","0","0","1","1","1","1","0","1","0","1","3","2","4","3","4","4","3","3","2","3","4","799642454209994753","张","552","","","","match","","","","","","","","","","","","","","key","f","16.666000000000057","735","456","f","true","match","img/pentagon.png","五边","五边","ALT1_2","prac_ALT1_2","","","","","","","","","","","",""
"null","<span style='color:GreenYellow; font-size: 70px;'>正确! </span>","null","html-keyboard-response","122","229760","0.0-7.0-1.0-1.1-0.1-1.55","3","3","4","3","3","4","4","3","4","4","4","4","3","4","3","4","5","4","4","5","3","4","4","3","2","2","2","3","4","0","0","0","1","0","0","0","1","1","1","1","0","1","0","1","3","2","4","3","4","4","3","3","2","3","4","799642454209994753","张","552","","","","","","","","","","","","","","","","","","","","","","","","","","","","","","feedback_test","","","","","","","","","","","",""
"629","","f","psychophysics","123","231392","0.0-7.0-1.0-1.1-0.1-0.56","3","3","4","3","3","4","4","3","4","4","4","4","3","4","3","4","5","4","4","5","3","4","4","3","2","2","2","3","4","0","0","0","1","0","0","0","1","1","1","1","0","1","0","1","3","2","4","3","4","4","3","3","2","3","4","799642454209994753","张","552","","","","match","","","","","","","","","","","","","","key","f","16.66600000000014","735","456","f","true","match","img/triangle.png","三角","三角","ALT1_2","prac_ALT1_2","","","","","","","","","","","",""
"null","<span style='color:GreenYellow; font-size: 70px;'>正确! </span>","null","html-keyboard-response","124","231893","0.0-7.0-1.0-1.1-0.1-1.56","3","3","4","3","3","4","4","3","4","4","4","4","3","4","3","4","5","4","4","5","3","4","4","3","2","2","2","3","4","0","0","0","1","0","0","0","1","1","1","1","0","1","0","1","3","2","4","3","4","4","3","3","2","3","4","799642454209994753","张","552","","","","","","","","","","","","","","","","","","","","","","","","","","","","","","feedback_test","","","","","","","","","","","",""
"629","","f","psychophysics","125","233524","0.0-7.0-1.0-1.1-0.1-0.57","3","3","4","3","3","4","4","3","4","4","4","4","3","4","3","4","5","4","4","5","3","4","4","3","2","2","2","3","4","0","0","0","1","0","0","0","1","1","1","1","0","1","0","1","3","2","4","3","4","4","3","3","2","3","4","799642454209994753","张","552","","","","match","","","","","","","","","","","","","","key","f","16.67056701030911","735","456","f","true","match","img/ellipse.png","椭圆","椭圆","ALT1_2","prac_ALT1_2","","","","","","","","","","","",""
"null","<span style='color:GreenYellow; font-size: 70px;'>正确! </span>","null","html-keyboard-response","126","234025","0.0-7.0-1.0-1.1-0.1-1.57","3","3","4","3","3","4","4","3","4","4","4","4","3","4","3","4","5","4","4","5","3","4","4","3","2","2","2","3","4","0","0","0","1","0","0","0","1","1","1","1","0","1","0","1","3","2","4","3","4","4","3","3","2","3","4","799642454209994753","张","552","","","","","","","","","","","","","","","","","","","","","","","","","","","","","","feedback_test","","","","","","","","","","","",""
"645","","j","psychophysics","127","235673","0.0-7.0-1.0-1.1-0.1-0.58","3","3","4","3","3","4","4","3","4","4","4","4","3","4","3","4","5","4","4","5","3","4","4","3","2","2","2","3","4","0","0","0","1","0","0","0","1","1","1","1","0","1","0","1","3","2","4","3","4","4","3","3","2","3","4","799642454209994753","张","552","","","","nonmatch","","","","","","","","","","","","","","key","j","16.665999999999816","735","456","j","true","nonmatch","img/ellipse.png","三角","椭圆","ALT1_2","prac_ALT1_2","","","","","","","","","","","",""
"null","<span style='color:GreenYellow; font-size: 70px;'>正确! </span>","null","html-keyboard-response","128","236175","0.0-7.0-1.0-1.1-0.1-1.58","3","3","4","3","3","4","4","3","4","4","4","4","3","4","3","4","5","4","4","5","3","4","4","3","2","2","2","3","4","0","0","0","1","0","0","0","1","1","1","1","0","1","0","1","3","2","4","3","4","4","3","3","2","3","4","799642454209994753","张","552","","","","","","","","","","","","","","","","","","","","","","","","","","","","","","feedback_test","","","","","","","","","","","",""
"598","","f","psychophysics","129","237775","0.0-7.0-1.0-1.1-0.1-0.59","3","3","4","3","3","4","4","3","4","4","4","4","3","4","3","4","5","4","4","5","3","4","4","3","2","2","2","3","4","0","0","0","1","0","0","0","1","1","1","1","0","1","0","1","3","2","4","3","4","4","3","3","2","3","4","799642454209994753","张","552","","","","match","","","","","","","","","","","","","","key","f","16.666000000000196","735","456","f","true","match","img/pentagon.png","五边","五边","ALT1_2","prac_ALT1_2","","","","","","","","","","","",""
"null","<span style='color:GreenYellow; font-size: 70px;'>正确! </span>","null","html-keyboard-response","130","238277","0.0-7.0-1.0-1.1-0.1-1.59","3","3","4","3","3","4","4","3","4","4","4","4","3","4","3","4","5","4","4","5","3","4","4","3","2","2","2","3","4","0","0","0","1","0","0","0","1","1","1","1","0","1","0","1","3","2","4","3","4","4","3","3","2","3","4","799642454209994753","张","552","","","","","","","","","","","","","","","","","","","","","","","","","","","","","","feedback_test","","","","","","","","","","","",""
"496","","f","psychophysics","131","239775","0.0-7.0-1.0-1.1-0.1-0.60","3","3","4","3","3","4","4","3","4","4","4","4","3","4","3","4","5","4","4","5","3","4","4","3","2","2","2","3","4","0","0","0","1","0","0","0","1","1","1","1","0","1","0","1","3","2","4","3","4","4","3","3","2","3","4","799642454209994753","张","552","","","","match","","","","","","","","","","","","","","key","f","16.666000000000054","735","456","j","false","nonmatch","img/triangle.png","梯形","三角","ALT1_2","prac_ALT1_2","","","","","","","","","","","",""
"null","<span style='color:red; font-size: 70px;'>错误! </span>","null","html-keyboard-response","132","240277","0.0-7.0-1.0-1.1-0.1-1.60","3","3","4","3","3","4","4","3","4","4","4","4","3","4","3","4","5","4","4","5","3","4","4","3","2","2","2","3","4","0","0","0","1","0","0","0","1","1","1","1","0","1","0","1","3","2","4","3","4","4","3","3","2","3","4","799642454209994753","张","552","","","","","","","","","","","","","","","","","","","","","","","","","","","","","","feedback_test","","","","","","","","","","","",""
"712","","j","psychophysics","133","241992","0.0-7.0-1.0-1.1-0.1-0.61","3","3","4","3","3","4","4","3","4","4","4","4","3","4","3","4","5","4","4","5","3","4","4","3","2","2","2","3","4","0","0","0","1","0","0","0","1","1","1","1","0","1","0","1","3","2","4","3","4","4","3","3","2","3","4","799642454209994753","张","552","","","","nonmatch","","","","","","","","","","","","","","key","j","16.666000000000007","735","456","j","true","nonmatch","img/ellipse.png","梯形","椭圆","ALT1_2","prac_ALT1_2","","","","","","","","","","","",""
"null","<span style='color:GreenYellow; font-size: 70px;'>正确! </span>","null","html-keyboard-response","134","242493","0.0-7.0-1.0-1.1-0.1-1.61","3","3","4","3","3","4","4","3","4","4","4","4","3","4","3","4","5","4","4","5","3","4","4","3","2","2","2","3","4","0","0","0","1","0","0","0","1","1","1","1","0","1","0","1","3","2","4","3","4","4","3","3","2","3","4","799642454209994753","张","552","","","","","","","","","","","","","","","","","","","","","","","","","","","","","","feedback_test","","","","","","","","","","","",""
"729","","j","psychophysics","135","244225","0.0-7.0-1.0-1.1-0.1-0.62","3","3","4","3","3","4","4","3","4","4","4","4","3","4","3","4","5","4","4","5","3","4","4","3","2","2","2","3","4","0","0","0","1","0","0","0","1","1","1","1","0","1","0","1","3","2","4","3","4","4","3","3","2","3","4","799642454209994753","张","552","","","","nonmatch","","","","","","","","","","","","","","key","j","16.669223300970806","735","456","j","true","nonmatch","img/triangle.png","椭圆","三角","ALT1_2","prac_ALT1_2","","","","","","","","","","","",""
"null","<span style='color:GreenYellow; font-size: 70px;'>正确! </span>","null","html-keyboard-response","136","244726","0.0-7.0-1.0-1.1-0.1-1.62","3","3","4","3","3","4","4","3","4","4","4","4","3","4","3","4","5","4","4","5","3","4","4","3","2","2","2","3","4","0","0","0","1","0","0","0","1","1","1","1","0","1","0","1","3","2","4","3","4","4","3","3","2","3","4","799642454209994753","张","552","","","","","","","","","","","","","","","","","","","","","","","","","","","","","","feedback_test","","","","","","","","","","","",""
"843","","f","psychophysics","137","246572","0.0-7.0-1.0-1.1-0.1-0.63","3","3","4","3","3","4","4","3","4","4","4","4","3","4","3","4","5","4","4","5","3","4","4","3","2","2","2","3","4","0","0","0","1","0","0","0","1","1","1","1","0","1","0","1","3","2","4","3","4","4","3","3","2","3","4","799642454209994753","张","552","","","","match","","","","","","","","","","","","","","key","f","16.66599999999984","735","456","f","true","match","img/ellipse.png","椭圆","椭圆","ALT1_2","prac_ALT1_2","","","","","","","","","","","",""
"null","<span style='color:GreenYellow; font-size: 70px;'>正确! </span>","null","html-keyboard-response","138","247074","0.0-7.0-1.0-1.1-0.1-1.63","3","3","4","3","3","4","4","3","4","4","4","4","3","4","3","4","5","4","4","5","3","4","4","3","2","2","2","3","4","0","0","0","1","0","0","0","1","1","1","1","0","1","0","1","3","2","4","3","4","4","3","3","2","3","4","799642454209994753","张","552","","","","","","","","","","","","","","","","","","","","","","","","","","","","","","feedback_test","","","","","","","","","","","",""
"885","","f","psychophysics","139","248963","0.0-7.0-1.0-1.1-0.1-0.64","3","3","4","3","3","4","4","3","4","4","4","4","3","4","3","4","5","4","4","5","3","4","4","3","2","2","2","3","4","0","0","0","1","0","0","0","1","1","1","1","0","1","0","1","3","2","4","3","4","4","3","3","2","3","4","799642454209994753","张","552","","","","match","","","","","","","","","","","","","","key","f","16.666000000000036","735","456","f","true","match","img/ellipse.png","椭圆","椭圆","ALT1_2","prac_ALT1_2","","","","","","","","","","","",""
"null","<span style='color:GreenYellow; font-size: 70px;'>正确! </span>","null","html-keyboard-response","140","249465","0.0-7.0-1.0-1.1-0.1-1.64","3","3","4","3","3","4","4","3","4","4","4","4","3","4","3","4","5","4","4","5","3","4","4","3","2","2","2","3","4","0","0","0","1","0","0","0","1","1","1","1","0","1","0","1","3","2","4","3","4","4","3","3","2","3","4","799642454209994753","张","552","","","","","","","","","","","","","","","","","","","","","","","","","","","","","","feedback_test","","","","","","","","","","","",""
"749","","f","psychophysics","141","251217","0.0-7.0-1.0-1.1-0.1-0.65","3","3","4","3","3","4","4","3","4","4","4","4","3","4","3","4","5","4","4","5","3","4","4","3","2","2","2","3","4","0","0","0","1","0","0","0","1","1","1","1","0","1","0","1","3","2","4","3","4","4","3","3","2","3","4","799642454209994753","张","552","","","","match","","","","","","","","","","","","","","key","f","16.665999999999958","735","456","f","true","match","img/pentagon.png","五边","五边","ALT1_2","prac_ALT1_2","","","","","","","","","","","",""
"null","<span style='color:GreenYellow; font-size: 70px;'>正确! </span>","null","html-keyboard-response","142","251719","0.0-7.0-1.0-1.1-0.1-1.65","3","3","4","3","3","4","4","3","4","4","4","4","3","4","3","4","5","4","4","5","3","4","4","3","2","2","2","3","4","0","0","0","1","0","0","0","1","1","1","1","0","1","0","1","3","2","4","3","4","4","3","3","2","3","4","799642454209994753","张","552","","","","","","","","","","","","","","","","","","","","","","","","","","","","","","feedback_test","","","","","","","","","","","",""
"628","","j","psychophysics","143","253349","0.0-7.0-1.0-1.1-0.1-0.66","3","3","4","3","3","4","4","3","4","4","4","4","3","4","3","4","5","4","4","5","3","4","4","3","2","2","2","3","4","0","0","0","1","0","0","0","1","1","1","1","0","1","0","1","3","2","4","3","4","4","3","3","2","3","4","799642454209994753","张","552","","","","nonmatch","","","","","","","","","","","","","","key","j","16.66931250000016","735","456","j","true","nonmatch","img/trapezoid.png","三角","梯形","ALT1_2","prac_ALT1_2","","","","","","","","","","","",""
"null","<span style='color:GreenYellow; font-size: 70px;'>正确! </span>","null","html-keyboard-response","144","253851","0.0-7.0-1.0-1.1-0.1-1.66","3","3","4","3","3","4","4","3","4","4","4","4","3","4","3","4","5","4","4","5","3","4","4","3","2","2","2","3","4","0","0","0","1","0","0","0","1","1","1","1","0","1","0","1","3","2","4","3","4","4","3","3","2","3","4","799642454209994753","张","552","","","","","","","","","","","","","","","","","","","","","","","","","","","","","","feedback_test","","","","","","","","","","","",""
"575","","f","psychophysics","145","255428","0.0-7.0-1.0-1.1-0.1-0.67","3","3","4","3","3","4","4","3","4","4","4","4","3","4","3","4","5","4","4","5","3","4","4","3","2","2","2","3","4","0","0","0","1","0","0","0","1","1","1","1","0","1","0","1","3","2","4","3","4","4","3","3","2","3","4","799642454209994753","张","552","","","","match","","","","","","","","","","","","","","key","f","16.665999999999944","735","456","f","true","match","img/triangle.png","三角","三角","ALT1_2","prac_ALT1_2","","","","","","","","","","","",""
"null","<span style='color:GreenYellow; font-size: 70px;'>正确! </span>","null","html-keyboard-response","146","255930","0.0-7.0-1.0-1.1-0.1-1.67","3","3","4","3","3","4","4","3","4","4","4","4","3","4","3","4","5","4","4","5","3","4","4","3","2","2","2","3","4","0","0","0","1","0","0","0","1","1","1","1","0","1","0","1","3","2","4","3","4","4","3","3","2","3","4","799642454209994753","张","552","","","","","","","","","","","","","","","","","","","","","","","","","","","","","","feedback_test","","","","","","","","","","","",""
"758","","j","psychophysics","147","257690","0.0-7.0-1.0-1.1-0.1-0.68","3","3","4","3","3","4","4","3","4","4","4","4","3","4","3","4","5","4","4","5","3","4","4","3","2","2","2","3","4","0","0","0","1","0","0","0","1","1","1","1","0","1","0","1","3","2","4","3","4","4","3","3","2","3","4","799642454209994753","张","552","","","","nonmatch","","","","","","","","","","","","","","key","j","16.665999999999933","735","456","j","true","nonmatch","img/trapezoid.png","椭圆","梯形","ALT1_2","prac_ALT1_2","","","","","","","","","","","",""
"null","<span style='color:GreenYellow; font-size: 70px;'>正确! </span>","null","html-keyboard-response","148","258191","0.0-7.0-1.0-1.1-0.1-1.68","3","3","4","3","3","4","4","3","4","4","4","4","3","4","3","4","5","4","4","5","3","4","4","3","2","2","2","3","4","0","0","0","1","0","0","0","1","1","1","1","0","1","0","1","3","2","4","3","4","4","3","3","2","3","4","799642454209994753","张","552","","","","","","","","","","","","","","","","","","","","","","","","","","","","","","feedback_test","","","","","","","","","","","",""
"773","","j","psychophysics","149","259967","0.0-7.0-1.0-1.1-0.1-0.69","3","3","4","3","3","4","4","3","4","4","4","4","3","4","3","4","5","4","4","5","3","4","4","3","2","2","2","3","4","0","0","0","1","0","0","0","1","1","1","1","0","1","0","1","3","2","4","3","4","4","3","3","2","3","4","799642454209994753","张","552","","","","nonmatch","","","","","","","","","","","","","","key","j","16.665999999999933","735","456","j","true","nonmatch","img/pentagon.png","椭圆","五边","ALT1_2","prac_ALT1_2","","","","","","","","","","","",""
"null","<span style='color:GreenYellow; font-size: 70px;'>正确! </span>","null","html-keyboard-response","150","260469","0.0-7.0-1.0-1.1-0.1-1.69","3","3","4","3","3","4","4","3","4","4","4","4","3","4","3","4","5","4","4","5","3","4","4","3","2","2","2","3","4","0","0","0","1","0","0","0","1","1","1","1","0","1","0","1","3","2","4","3","4","4","3","3","2","3","4","799642454209994753","张","552","","","","","","","","","","","","","","","","","","","","","","","","","","","","","","feedback_test","","","","","","","","","","","",""
"671","","j","psychophysics","151","262142","0.0-7.0-1.0-1.1-0.1-0.70","3","3","4","3","3","4","4","3","4","4","4","4","3","4","3","4","5","4","4","5","3","4","4","3","2","2","2","3","4","0","0","0","1","0","0","0","1","1","1","1","0","1","0","1","3","2","4","3","4","4","3","3","2","3","4","799642454209994753","张","552","","","","nonmatch","","","","","","","","","","","","","","key","j","16.666000000000086","735","456","j","true","nonmatch","img/triangle.png","五边","三角","ALT1_2","prac_ALT1_2","","","","","","","","","","","",""
"null","<span style='color:GreenYellow; font-size: 70px;'>正确! </span>","null","html-keyboard-response","152","262644","0.0-7.0-1.0-1.1-0.1-1.70","3","3","4","3","3","4","4","3","4","4","4","4","3","4","3","4","5","4","4","5","3","4","4","3","2","2","2","3","4","0","0","0","1","0","0","0","1","1","1","1","0","1","0","1","3","2","4","3","4","4","3","3","2","3","4","799642454209994753","张","552","","","","","","","","","","","","","","","","","","","","","","","","","","","","","","feedback_test","","","","","","","","","","","",""
"612","","f","psychophysics","153","264259","0.0-7.0-1.0-1.1-0.1-0.71","3","3","4","3","3","4","4","3","4","4","4","4","3","4","3","4","5","4","4","5","3","4","4","3","2","2","2","3","4","0","0","0","1","0","0","0","1","1","1","1","0","1","0","1","3","2","4","3","4","4","3","3","2","3","4","799642454209994753","张","552","","","","match","","","","","","","","","","","","","","key","f","16.66935416666638","735","456","f","true","match","img/trapezoid.png","梯形","梯形","ALT1_2","prac_ALT1_2","","","","","","","","","","","",""
"null","<span style='color:GreenYellow; font-size: 70px;'>正确! </span>","null","html-keyboard-response","154","264761","0.0-7.0-1.0-1.1-0.1-1.71","3","3","4","3","3","4","4","3","4","4","4","4","3","4","3","4","5","4","4","5","3","4","4","3","2","2","2","3","4","0","0","0","1","0","0","0","1","1","1","1","0","1","0","1","3","2","4","3","4","4","3","3","2","3","4","799642454209994753","张","552","","","","","","","","","","","","","","","","","","","","","","","","","","","","","","feedback_test","","","","","","","","","","","",""
"627","","f","psychophysics","155","266392","0.0-7.0-1.0-1.1-0.1-0.72","3","3","4","3","3","4","4","3","4","4","4","4","3","4","3","4","5","4","4","5","3","4","4","3","2","2","2","3","4","0","0","0","1","0","0","0","1","1","1","1","0","1","0","1","3","2","4","3","4","4","3","3","2","3","4","799642454209994753","张","552","","","","match","","","","","","","","","","","","","","key","f","16.66600000000014","735","456","f","true","match","img/triangle.png","三角","三角","ALT1_2","prac_ALT1_2","","","","","","","","","","","",""
"null","<span style='color:GreenYellow; font-size: 70px;'>正确! </span>","null","html-keyboard-response","156","266894","0.0-7.0-1.0-1.1-0.1-1.72","3","3","4","3","3","4","4","3","4","4","4","4","3","4","3","4","5","4","4","5","3","4","4","3","2","2","2","3","4","0","0","0","1","0","0","0","1","1","1","1","0","1","0","1","3","2","4","3","4","4","3","3","2","3","4","799642454209994753","张","552","","","","","","","","","","","","","","","","","","","","","","","","","","","","","","feedback_test","","","","","","","","","","","",""
"695","","j","psychophysics","157","268590","0.0-7.0-1.0-1.1-0.1-0.73","3","3","4","3","3","4","4","3","4","4","4","4","3","4","3","4","5","4","4","5","3","4","4","3","2","2","2","3","4","0","0","0","1","0","0","0","1","1","1","1","0","1","0","1","3","2","4","3","4","4","3","3","2","3","4","799642454209994753","张","552","","","","nonmatch","","","","","","","","","","","","","","key","j","16.665999999999457","735","456","j","true","nonmatch","img/ellipse.png","五边","椭圆","ALT1_2","prac_ALT1_2","","","","","","","","","","","",""
"null","<span style='color:GreenYellow; font-size: 70px;'>正确! </span>","null","html-keyboard-response","158","269091","0.0-7.0-1.0-1.1-0.1-1.73","3","3","4","3","3","4","4","3","4","4","4","4","3","4","3","4","5","4","4","5","3","4","4","3","2","2","2","3","4","0","0","0","1","0","0","0","1","1","1","1","0","1","0","1","3","2","4","3","4","4","3","3","2","3","4","799642454209994753","张","552","","","","","","","","","","","","","","","","","","","","","","","","","","","","","","feedback_test","","","","","","","","","","","",""
"666","","f","psychophysics","159","270760","0.0-7.0-1.0-1.1-0.1-0.74","3","3","4","3","3","4","4","3","4","4","4","4","3","4","3","4","5","4","4","5","3","4","4","3","2","2","2","3","4","0","0","0","1","0","0","0","1","1","1","1","0","1","0","1","3","2","4","3","4","4","3","3","2","3","4","799642454209994753","张","552","","","","match","","","","","","","","","","","","","","key","f","16.666000000000086","735","456","f","true","match","img/trapezoid.png","梯形","梯形","ALT1_2","prac_ALT1_2","","","","","","","","","","","",""
"null","<span style='color:GreenYellow; font-size: 70px;'>正确! </span>","null","html-keyboard-response","160","271262","0.0-7.0-1.0-1.1-0.1-1.74","3","3","4","3","3","4","4","3","4","4","4","4","3","4","3","4","5","4","4","5","3","4","4","3","2","2","2","3","4","0","0","0","1","0","0","0","1","1","1","1","0","1","0","1","3","2","4","3","4","4","3","3","2","3","4","799642454209994753","张","552","","","","","","","","","","","","","","","","","","","","","","","","","","","","","","feedback_test","","","","","","","","","","","",""
"612","","f","psychophysics","161","272875","0.0-7.0-1.0-1.1-0.1-0.75","3","3","4","3","3","4","4","3","4","4","4","4","3","4","3","4","5","4","4","5","3","4","4","3","2","2","2","3","4","0","0","0","1","0","0","0","1","1","1","1","0","1","0","1","3","2","4","3","4","4","3","3","2","3","4","799642454209994753","张","552","","","","match","","","","","","","","","","","","","","key","f","16.66931250000016","735","456","f","true","match","img/pentagon.png","五边","五边","ALT1_2","prac_ALT1_2","","","","","","","","","","","",""
"null","<span style='color:GreenYellow; font-size: 70px;'>正确! </span>","null","html-keyboard-response","162","273377","0.0-7.0-1.0-1.1-0.1-1.75","3","3","4","3","3","4","4","3","4","4","4","4","3","4","3","4","5","4","4","5","3","4","4","3","2","2","2","3","4","0","0","0","1","0","0","0","1","1","1","1","0","1","0","1","3","2","4","3","4","4","3","3","2","3","4","799642454209994753","张","552","","","","","","","","","","","","","","","","","","","","","","","","","","","","","","feedback_test","","","","","","","","","","","",""
"579","","f","psychophysics","163","274958","0.0-7.0-1.0-1.1-0.1-0.76","3","3","4","3","3","4","4","3","4","4","4","4","3","4","3","4","5","4","4","5","3","4","4","3","2","2","2","3","4","0","0","0","1","0","0","0","1","1","1","1","0","1","0","1","3","2","4","3","4","4","3","3","2","3","4","799642454209994753","张","552","","","","match","","","","","","","","","","","","","","key","f","16.665999999999915","735","456","f","true","match","img/ellipse.png","椭圆","椭圆","ALT1_2","prac_ALT1_2","","","","","","","","","","","",""
"null","<span style='color:GreenYellow; font-size: 70px;'>正确! </span>","null","html-keyboard-response","164","275460","0.0-7.0-1.0-1.1-0.1-1.76","3","3","4","3","3","4","4","3","4","4","4","4","3","4","3","4","5","4","4","5","3","4","4","3","2","2","2","3","4","0","0","0","1","0","0","0","1","1","1","1","0","1","0","1","3","2","4","3","4","4","3","3","2","3","4","799642454209994753","张","552","","","","","","","","","","","","","","","","","","","","","","","","","","","","","","feedback_test","","","","","","","","","","","",""
"779","","f","psychophysics","165","277242","0.0-7.0-1.0-1.1-0.1-0.77","3","3","4","3","3","4","4","3","4","4","4","4","3","4","3","4","5","4","4","5","3","4","4","3","2","2","2","3","4","0","0","0","1","0","0","0","1","1","1","1","0","1","0","1","3","2","4","3","4","4","3","3","2","3","4","799642454209994753","张","552","","","","match","","","","","","","","","","","","","","key","f","16.665999999999634","735","456","f","true","match","img/trapezoid.png","梯形","梯形","ALT1_2","prac_ALT1_2","","","","","","","","","","","",""
"null","<span style='color:GreenYellow; font-size: 70px;'>正确! </span>","null","html-keyboard-response","166","277743","0.0-7.0-1.0-1.1-0.1-1.77","3","3","4","3","3","4","4","3","4","4","4","4","3","4","3","4","5","4","4","5","3","4","4","3","2","2","2","3","4","0","0","0","1","0","0","0","1","1","1","1","0","1","0","1","3","2","4","3","4","4","3","3","2","3","4","799642454209994753","张","552","","","","","","","","","","","","","","","","","","","","","","","","","","","","","","feedback_test","","","","","","","","","","","",""
"556","","f","psychophysics","167","279302","0.0-7.0-1.0-1.1-0.1-0.78","3","3","4","3","3","4","4","3","4","4","4","4","3","4","3","4","5","4","4","5","3","4","4","3","2","2","2","3","4","0","0","0","1","0","0","0","1","1","1","1","0","1","0","1","3","2","4","3","4","4","3","3","2","3","4","799642454209994753","张","552","","","","match","","","","","","","","","","","","","","key","f","16.666000000000256","735","456","f","true","match","img/triangle.png","三角","三角","ALT1_2","prac_ALT1_2","","","","","","","","","","","",""
"null","<span style='color:GreenYellow; font-size: 70px;'>正确! </span>","null","html-keyboard-response","168","279803","0.0-7.0-1.0-1.1-0.1-1.78","3","3","4","3","3","4","4","3","4","4","4","4","3","4","3","4","5","4","4","5","3","4","4","3","2","2","2","3","4","0","0","0","1","0","0","0","1","1","1","1","0","1","0","1","3","2","4","3","4","4","3","3","2","3","4","799642454209994753","张","552","","","","","","","","","","","","","","","","","","","","","","","","","","","","","","feedback_test","","","","","","","","","","","",""
"536","","f","psychophysics","169","281342","0.0-7.0-1.0-1.1-0.1-0.79","3","3","4","3","3","4","4","3","4","4","4","4","3","4","3","4","5","4","4","5","3","4","4","3","2","2","2","3","4","0","0","0","1","0","0","0","1","1","1","1","0","1","0","1","3","2","4","3","4","4","3","3","2","3","4","799642454209994753","张","552","","","","match","","","","","","","","","","","","","","key","f","16.665999999999677","735","456","j","false","nonmatch","img/ellipse.png","梯形","椭圆","ALT1_2","prac_ALT1_2","","","","","","","","","","","",""
"null","<span style='color:red; font-size: 70px;'>错误! </span>","null","html-keyboard-response","170","281843","0.0-7.0-1.0-1.1-0.1-1.79","3","3","4","3","3","4","4","3","4","4","4","4","3","4","3","4","5","4","4","5","3","4","4","3","2","2","2","3","4","0","0","0","1","0","0","0","1","1","1","1","0","1","0","1","3","2","4","3","4","4","3","3","2","3","4","799642454209994753","张","552","","","","","","","","","","","","","","","","","","","","","","","","","","","","","","feedback_test","","","","","","","","","","","",""
"564","","f","psychophysics","171","283410","0.0-7.0-1.0-1.1-0.1-0.80","3","3","4","3","3","4","4","3","4","4","4","4","3","4","3","4","5","4","4","5","3","4","4","3","2","2","2","3","4","0","0","0","1","0","0","0","1","1","1","1","0","1","0","1","3","2","4","3","4","4","3","3","2","3","4","799642454209994753","张","552","","","","match","","","","","","","","","","","","","","key","f","16.669419354838645","735","456","f","true","match","img/ellipse.png","椭圆","椭圆","ALT1_2","prac_ALT1_2","","","","","","","","","","","",""
"null","<span style='color:GreenYellow; font-size: 70px;'>正确! </span>","null","html-keyboard-response","172","283911","0.0-7.0-1.0-1.1-0.1-1.80","3","3","4","3","3","4","4","3","4","4","4","4","3","4","3","4","5","4","4","5","3","4","4","3","2","2","2","3","4","0","0","0","1","0","0","0","1","1","1","1","0","1","0","1","3","2","4","3","4","4","3","3","2","3","4","799642454209994753","张","552","","","","","","","","","","","","","","","","","","","","","","","","","","","","","","feedback_test","","","","","","","","","","","",""
"694","","j","psychophysics","173","285608","0.0-7.0-1.0-1.1-0.1-0.81","3","3","4","3","3","4","4","3","4","4","4","4","3","4","3","4","5","4","4","5","3","4","4","3","2","2","2","3","4","0","0","0","1","0","0","0","1","1","1","1","0","1","0","1","3","2","4","3","4","4","3","3","2","3","4","799642454209994753","张","552","","","","nonmatch","","","","","","","","","","","","","","key","j","16.666000000000032","735","456","j","true","nonmatch","img/triangle.png","椭圆","三角","ALT1_2","prac_ALT1_2","","","","","","","","","","","",""
"null","<span style='color:GreenYellow; font-size: 70px;'>正确! </span>","null","html-keyboard-response","174","286110","0.0-7.0-1.0-1.1-0.1-1.81","3","3","4","3","3","4","4","3","4","4","4","4","3","4","3","4","5","4","4","5","3","4","4","3","2","2","2","3","4","0","0","0","1","0","0","0","1","1","1","1","0","1","0","1","3","2","4","3","4","4","3","3","2","3","4","799642454209994753","张","552","","","","","","","","","","","","","","","","","","","","","","","","","","","","","","feedback_test","","","","","","","","","","","",""
"613","","j","psychophysics","175","287725","0.0-7.0-1.0-1.1-0.1-0.82","3","3","4","3","3","4","4","3","4","4","4","4","3","4","3","4","5","4","4","5","3","4","4","3","2","2","2","3","4","0","0","0","1","0","0","0","1","1","1","1","0","1","0","1","3","2","4","3","4","4","3","3","2","3","4","799642454209994753","张","552","","","","nonmatch","","","","","","","","","","","","","","key","j","16.665999999999865","735","456","j","true","nonmatch","img/triangle.png","梯形","三角","ALT1_2","prac_ALT1_2","","","","","","","","","","","",""
"null","<span style='color:GreenYellow; font-size: 70px;'>正确! </span>","null","html-keyboard-response","176","288227","0.0-7.0-1.0-1.1-0.1-1.82","3","3","4","3","3","4","4","3","4","4","4","4","3","4","3","4","5","4","4","5","3","4","4","3","2","2","2","3","4","0","0","0","1","0","0","0","1","1","1","1","0","1","0","1","3","2","4","3","4","4","3","3","2","3","4","799642454209994753","张","552","","","","","","","","","","","","","","","","","","","","","","","","","","","","","","feedback_test","","","","","","","","","","","",""
"546","","f","psychophysics","177","289775","0.0-7.0-1.0-1.1-0.1-0.83","3","3","4","3","3","4","4","3","4","4","4","4","3","4","3","4","5","4","4","5","3","4","4","3","2","2","2","3","4","0","0","0","1","0","0","0","1","1","1","1","0","1","0","1","3","2","4","3","4","4","3","3","2","3","4","799642454209994753","张","552","","","","match","","","","","","","","","","","","","","key","f","16.66599999999997","735","456","f","true","match","img/pentagon.png","五边","五边","ALT1_2","prac_ALT1_2","","","","","","","","","","","",""
"null","<span style='color:GreenYellow; font-size: 70px;'>正确! </span>","null","html-keyboard-response","178","290277","0.0-7.0-1.0-1.1-0.1-1.83","3","3","4","3","3","4","4","3","4","4","4","4","3","4","3","4","5","4","4","5","3","4","4","3","2","2","2","3","4","0","0","0","1","0","0","0","1","1","1","1","0","1","0","1","3","2","4","3","4","4","3","3","2","3","4","799642454209994753","张","552","","","","","","","","","","","","","","","","","","","","","","","","","","","","","","feedback_test","","","","","","","","","","","",""
"713","","j","psychophysics","179","291992","0.0-7.0-1.0-1.1-0.1-0.84","3","3","4","3","3","4","4","3","4","4","4","4","3","4","3","4","5","4","4","5","3","4","4","3","2","2","2","3","4","0","0","0","1","0","0","0","1","1","1","1","0","1","0","1","3","2","4","3","4","4","3","3","2","3","4","799642454209994753","张","552","","","","nonmatch","","","","","","","","","","","","","","key","j","16.665999999999723","735","456","j","true","nonmatch","img/ellipse.png","三角","椭圆","ALT1_2","prac_ALT1_2","","","","","","","","","","","",""
"null","<span style='color:GreenYellow; font-size: 70px;'>正确! </span>","null","html-keyboard-response","180","292493","0.0-7.0-1.0-1.1-0.1-1.84","3","3","4","3","3","4","4","3","4","4","4","4","3","4","3","4","5","4","4","5","3","4","4","3","2","2","2","3","4","0","0","0","1","0","0","0","1","1","1","1","0","1","0","1","3","2","4","3","4","4","3","3","2","3","4","799642454209994753","张","552","","","","","","","","","","","","","","","","","","","","","","","","","","","","","","feedback_test","","","","","","","","","","","",""
"672","","j","psychophysics","181","294168","0.0-7.0-1.0-1.1-0.1-0.85","3","3","4","3","3","4","4","3","4","4","4","4","3","4","3","4","5","4","4","5","3","4","4","3","2","2","2","3","4","0","0","0","1","0","0","0","1","1","1","1","0","1","0","1","3","2","4","3","4","4","3","3","2","3","4","799642454209994753","张","552","","","","nonmatch","","","","","","","","","","","","","","key","j","16.66918000000005","735","456","j","true","nonmatch","img/pentagon.png","梯形","五边","ALT1_2","prac_ALT1_2","","","","","","","","","","","",""
