"rt","stimulus","response","trial_type","trial_index","time_elapsed","internal_node_id","ses_1","ses_2","ses_3","ses_4","ses_5","ses_6","ses_7","ses_8","ses_9","ses_10","coreself_1","coreself_2","coreself_3","coreself_4","coreself_5","coreself_6","coreself_7","coreself_8","coreself_9","coreself_10","SGPS_1","SGPS_2","SGPS_3","SGPS_4","SGPS_5","SGPS_6","SGPS_7","SGPS_8","SGPS_9","NPI1","NPI2","NPI3","NPI4","NPI5","NPI6","NPI7","NPI8","NPI9","NPI10","NPI11","NPI12","NPI13","NPI14","NPI15","hsns_1","hsns_2","hsns_3","hsns_4","hsns_5","trap1","hsns_6","hsns_7","hsns_8","hsns_9","hsns_10","subj_idx","friend_name","ParticipantID","value","success","user_agent","responses","item_order","radio_event_ids","radio_event_times","key_event_times","mouse_event_times","straightlining","zigzagging","honeypot","timeout","failed_images","failed_audio","failed_video","version_attrib2","version_target2","correct","IAT","screen_id","task_id","RT","condition","word","varname","summary","version_attrib","version_target","time_stamp","view_history","response_type","key_press","avg_frame_time","center_x","center_y","correct_response","identity","Image","question_order","correct_answer","trap1_item"
"9152","
   <p><div style = ""color: white;font-size:25px;"">您好，欢迎参加本次实验。</div> </p>
   <p><div style = ""color: white;font-size:25px;"">为充分保障您的权利，请确保您已经知晓并同意《参与实验同意书》以及《数据公开知情同意书》。</div></p>
   <p><div style = ""color: white;font-size:25px;"">如果您未见过上述内容，请咨询实验员。</div></p>
   <p><div style = ""color: white;font-size:25px;"">如果您选择继续实验，则表示您已经清楚两份知情同意书的内容并同意。</div></p>
   <p><div style = ""color: pink;font-size:30px;"">请确保您记得day0的实验编号，您将在本次实验输入该编号，若您忘记，请咨询实验员后作答。</div></p>
   <p><div style = ""color: lightblue;font-size:25px;"">请您尽可能认真地作答，我们将依据您在各问卷和按键任务中的作答质量发放报酬。</div></p>
   <p> <div style = ""color: green;font-size:25px;""><按空格键至下页></div> </p>
   "," ","html-keyboard-response","0","9157","0.0-0.0","4","3","4","3","4","3","3","4","4","4","4","5","5","4","5","4","5","4","4","5","1","1","2","2","1","2","4","4","1","1","1","0","0","1","0","0","0","0","0","0","0","0","0","1","4","2","4","1","2","","2","3","2","2","2","637466695379714048","王","338","","","","","","","","","","","","","","","","","","","","","","","","","","","","","","","","","","","","","","","","","",""
"","","","call-function","1","9161","0.0-1.0-0.0","4","3","4","3","4","3","3","4","4","4","4","5","5","4","5","4","5","4","4","5","1","1","2","2","1","2","4","4","1","1","1","0","0","1","0","0","0","0","0","0","0","0","0","1","4","2","4","1","2","","2","3","2","2","2","637466695379714048","王","338","","","","","","","","","","","","","","","","","","","","","","","","","","","","","","","","","","","","","","","","","",""
"22370","","{""friend_name"":""王"",""ParticipantID"":""338""}","survey-html-form","2","31533","0.0-1.0-1.0","4","3","4","3","4","3","3","4","4","4","4","5","5","4","5","4","5","4","4","5","1","1","2","2","1","2","4","4","1","1","1","0","0","1","0","0","0","0","0","0","0","0","0","1","4","2","4","1","2","","2","3","2","2","2","637466695379714048","王","338","","","","","","","","","","","","","","","","","","","","","","","","","","","","","","","","","","","","","","","","","",""
"","","","fullscreen","3","40956","0.0-2.0","4","3","4","3","4","3","3","4","4","4","4","5","5","4","5","4","5","4","4","5","1","1","2","2","1","2","4","4","1","1","1","0","0","1","0","0","0","0","0","0","0","0","0","1","4","2","4","1","2","","2","3","2","2","2","637466695379714048","王","338","","true","{}","","","","","","","","","","","","","","","","","","","","","","","","","","","","","","","","","","","","","","",""
"36437.5","","{""Q01"":""4"",""Q02"":""3"",""Q03"":""4"",""Q04"":""3"",""Q05"":""4"",""Q06"":""3"",""Q07"":""3"",""Q08"":""4"",""Q09"":""4"",""Q10"":""4""}","survey-template","4","77369","0.0-3.0","4","3","4","3","4","3","3","4","4","4","4","5","5","4","5","4","5","4","4","5","1","1","2","2","1","2","4","4","1","1","1","0","0","1","0","0","0","0","0","0","0","0","0","1","4","2","4","1","2","","2","3","2","2","2","637466695379714048","王","338","","","","{""Q01"":""4"",""Q02"":""3"",""Q03"":""4"",""Q04"":""3"",""Q05"":""4"",""Q06"":""3"",""Q07"":""3"",""Q08"":""4"",""Q09"":""4"",""Q10"":""4""}","[0,1,2,3,4,5,6,7,8,9]","[""Q01"",""Q02"",""Q04"",""Q03"",""Q05"",""Q06"",""Q07"",""Q08"",""Q09"",""Q10""]","[12500,13355.599999999977,16627.199999999953,17299.300000000047,19483.199999999953,20675.199999999953,28610.699999999953,33194.69999999995,34914.5,35394.69999999995]","[]","[12500,13355.599999999977,14075.5,15243.199999999953,16627.199999999953,17299.300000000047,19483.199999999953,20675.199999999953,24307.5,24938.800000000047,28610.699999999953,33194.69999999995,34346.69999999995,34914.5,35394.69999999995,36434.69999999995]","0.5","0.1111111111111111","0","","","","","","","","","","","","","","","","","","","","","","","","","","","","","",""
"42266.30000000005","","{""Q01"":""4"",""Q02"":""5"",""Q03"":""5"",""Q04"":""4"",""Q05"":""5"",""Q06"":""4"",""Q07"":""5"",""Q08"":""4"",""Q09"":""4"",""Q10"":""5""}","survey-template","5","119646","0.0-4.0","4","3","4","3","4","3","3","4","4","4","4","5","5","4","5","4","5","4","4","5","1","1","2","2","1","2","4","4","1","1","1","0","0","1","0","0","0","0","0","0","0","0","0","1","4","2","4","1","2","","2","3","2","2","2","637466695379714048","王","338","","","","{""Q01"":""4"",""Q02"":""5"",""Q03"":""5"",""Q04"":""4"",""Q05"":""5"",""Q06"":""4"",""Q07"":""5"",""Q08"":""4"",""Q09"":""4"",""Q10"":""5""}","[0,1,2,3,4,5,6,7,8,9]","[""Q01"",""Q02"",""Q03"",""Q04"",""Q05"",""Q06"",""Q07"",""Q08"",""Q09"",""Q10"",""Q10"",""Q10""]","[23927.70000000007,27591.70000000007,28463.600000000093,30567.70000000007,32703.5,33887.30000000005,34727.40000000002,36775.40000000002,38687,39199.10000000009,40207.30000000005,40743.20000000007]","[]","[23927.70000000007,27591.70000000007,28463.600000000093,30567.70000000007,32703.5,33887.30000000005,34727.40000000002,36775.40000000002,38687,39199.10000000009,40207.30000000005,40743.20000000007,42263.30000000005]","0.5","0.1111111111111111","0","","","","","","","","","","","","","","","","","","","","","","","","","","","","","",""
"","","","preload","6","120224","0.0-5.0","4","3","4","3","4","3","3","4","4","4","4","5","5","4","5","4","5","4","4","5","1","1","2","2","1","2","4","4","1","1","1","0","0","1","0","0","0","0","0","0","0","0","0","1","4","2","4","1","2","","2","3","2","2","2","637466695379714048","王","338","","true","","","","","","","","","","","false","[]","[]","[]","","","","","","","","","","","","","","","","","","","","","","","","","",""
"12262","
    <h3>词语分类任务</h3>
    <p>在接下来的任务中，你需要对一系列词语进行分类。<p/>
    请先熟悉这些词语，这有利于你完成接下来的任务。</p>
    <table align=""center"" border=1 cellpadding=3 cellspacing=0>
    <tr> <th>类别</th> <th>词语</th> </tr>
    <tr> <td>&emsp;积极&emsp;</td> <td>&emsp;高尚、诚信、善良、君子、廉正、正直&emsp;</td> </tr>
    <tr> <td>&emsp;消极&emsp;</td> <td>&emsp;缺德、卑鄙、不孝、不仁、小人、黑心&emsp;</td> </tr>
    <tr> <td>&emsp;自我&emsp;</td> <td>&emsp;我、我的、自己、自己的、本人、本人的&emsp;</td> </tr>
    <tr> <td>&emsp;他人&emsp;</td> <td>&emsp;他、他的、别人、别人的、他人、他人的&emsp;</td> </tr>
    </table><br/>","0","html-button-response","7","132490","0.0-6.0-1.0-0.0","4","3","4","3","4","3","3","4","4","4","4","5","5","4","5","4","5","4","4","5","1","1","2","2","1","2","4","4","1","1","1","0","0","1","0","0","0","0","0","0","0","0","0","1","4","2","4","1","2","","2","3","2","2","2","637466695379714048","王","338","","","","","","","","","","","","","","","","","2","1","","","","","","","","","","","","","","","","","","","","","","","",""
"28038","
    <div class=""tag-bottom""><p>
    —— 任务1：对“自我”词和“他人”词分类 ——<p/>
    不同词语会出现在屏幕中央，类别标签将始终显示在屏幕上方<p/>   
    <span style=""color:#FFD866""><b>请根据上方标签的提示，尽可能正确并且快速地做出按键反应</b></span><p/>
    当按键错误时屏幕中会出现<span style=""color:red""> X </span>，需要按另一个键纠正才能继续<br/><p/>
    请把双手食指分别放在键盘的“E”键和“I”键上<p/>
    按<空格键>开始
    </p></div>"," ","html-keyboard-response","8","160534","0.0-6.0-1.0-1.0","4","3","4","3","4","3","3","4","4","4","4","5","5","4","5","4","5","4","4","5","1","1","2","2","1","2","4","4","1","1","1","0","0","1","0","0","0","0","0","0","0","0","0","1","4","2","4","1","2","","2","3","2","2","2","637466695379714048","王","338","","","","","","","","","","","","","","","","","","","","","","","","","","","","","","","","","","","","","","","","","",""
"null","","null","html-keyboard-response","9","160785","0.0-6.0-1.0-2.0-0.0","4","3","4","3","4","3","3","4","4","4","4","5","5","4","5","4","5","4","4","5","1","1","2","2","1","2","4","4","1","1","1","0","0","1","0","0","0","0","0","0","0","0","0","1","4","2","4","1","2","","2","3","2","2","2","637466695379714048","王","338","","","","","","","","","","","","","","","","","","","","","","","","","","","","","","","","","","","","","","","","","",""
"1041","<p style=""color:rgb(150, 250, 100); font-size: 35px;"">本人</p>","e","categorize-html","10","161832","0.0-6.0-1.0-2.0-1.0","4","3","4","3","4","3","3","4","4","4","4","5","5","4","5","4","5","4","4","5","1","1","2","2","1","2","4","4","1","1","1","0","0","1","0","0","0","0","0","0","0","0","0","1","4","2","4","1","2","","2","3","2","2","2","637466695379714048","王","338","","","","","","","","","","","","","","","","","","","true","11","1","moral","1041","self","本人","","","","","","","","","","","","","","","","",""
"null","","null","html-keyboard-response","11","162083","0.0-6.0-1.0-2.0-0.1","4","3","4","3","4","3","3","4","4","4","4","5","5","4","5","4","5","4","4","5","1","1","2","2","1","2","4","4","1","1","1","0","0","1","0","0","0","0","0","0","0","0","0","1","4","2","4","1","2","","2","3","2","2","2","637466695379714048","王","338","","","","","","","","","","","","","","","","","","","","","","","","","","","","","","","","","","","","","","","","","",""
"822","<p style=""color:rgb(150, 250, 100); font-size: 35px;"">别人的</p>","i","categorize-html","12","162909","0.0-6.0-1.0-2.0-1.1","4","3","4","3","4","3","3","4","4","4","4","5","5","4","5","4","5","4","4","5","1","1","2","2","1","2","4","4","1","1","1","0","0","1","0","0","0","0","0","0","0","0","0","1","4","2","4","1","2","","2","3","2","2","2","637466695379714048","王","338","","","","","","","","","","","","","","","","","","","true","11","1","moral","822","other","别人的","","","","","","","","","","","","","","","","",""
"null","","null","html-keyboard-response","13","163160","0.0-6.0-1.0-2.0-0.2","4","3","4","3","4","3","3","4","4","4","4","5","5","4","5","4","5","4","4","5","1","1","2","2","1","2","4","4","1","1","1","0","0","1","0","0","0","0","0","0","0","0","0","1","4","2","4","1","2","","2","3","2","2","2","637466695379714048","王","338","","","","","","","","","","","","","","","","","","","","","","","","","","","","","","","","","","","","","","","","","",""
"1321","<p style=""color:rgb(150, 250, 100); font-size: 35px;"">自己</p>","e","categorize-html","14","164485","0.0-6.0-1.0-2.0-1.2","4","3","4","3","4","3","3","4","4","4","4","5","5","4","5","4","5","4","4","5","1","1","2","2","1","2","4","4","1","1","1","0","0","1","0","0","0","0","0","0","0","0","0","1","4","2","4","1","2","","2","3","2","2","2","637466695379714048","王","338","","","","","","","","","","","","","","","","","","","true","11","1","moral","1321","self","自己","","","","","","","","","","","","","","","","",""
"null","","null","html-keyboard-response","15","164736","0.0-6.0-1.0-2.0-0.3","4","3","4","3","4","3","3","4","4","4","4","5","5","4","5","4","5","4","4","5","1","1","2","2","1","2","4","4","1","1","1","0","0","1","0","0","0","0","0","0","0","0","0","1","4","2","4","1","2","","2","3","2","2","2","637466695379714048","王","338","","","","","","","","","","","","","","","","","","","","","","","","","","","","","","","","","","","","","","","","","",""
"2013","<p style=""color:rgb(150, 250, 100); font-size: 35px;"">我</p>","e","categorize-html","16","166753","0.0-6.0-1.0-2.0-1.3","4","3","4","3","4","3","3","4","4","4","4","5","5","4","5","4","5","4","4","5","1","1","2","2","1","2","4","4","1","1","1","0","0","1","0","0","0","0","0","0","0","0","0","1","4","2","4","1","2","","2","3","2","2","2","637466695379714048","王","338","","","","","","","","","","","","","","","","","","","true","11","1","moral","2013","self","我","","","","","","","","","","","","","","","","",""
"null","","null","html-keyboard-response","17","167004","0.0-6.0-1.0-2.0-0.4","4","3","4","3","4","3","3","4","4","4","4","5","5","4","5","4","5","4","4","5","1","1","2","2","1","2","4","4","1","1","1","0","0","1","0","0","0","0","0","0","0","0","0","1","4","2","4","1","2","","2","3","2","2","2","637466695379714048","王","338","","","","","","","","","","","","","","","","","","","","","","","","","","","","","","","","","","","","","","","","","",""
"1293","<p style=""color:rgb(150, 250, 100); font-size: 35px;"">他人</p>","i","categorize-html","18","168301","0.0-6.0-1.0-2.0-1.4","4","3","4","3","4","3","3","4","4","4","4","5","5","4","5","4","5","4","4","5","1","1","2","2","1","2","4","4","1","1","1","0","0","1","0","0","0","0","0","0","0","0","0","1","4","2","4","1","2","","2","3","2","2","2","637466695379714048","王","338","","","","","","","","","","","","","","","","","","","true","11","1","moral","1293","other","他人","","","","","","","","","","","","","","","","",""
"null","","null","html-keyboard-response","19","168552","0.0-6.0-1.0-2.0-0.5","4","3","4","3","4","3","3","4","4","4","4","5","5","4","5","4","5","4","4","5","1","1","2","2","1","2","4","4","1","1","1","0","0","1","0","0","0","0","0","0","0","0","0","1","4","2","4","1","2","","2","3","2","2","2","637466695379714048","王","338","","","","","","","","","","","","","","","","","","","","","","","","","","","","","","","","","","","","","","","","","",""
"1066","<p style=""color:rgb(150, 250, 100); font-size: 35px;"">他的</p>","i","categorize-html","20","169622","0.0-6.0-1.0-2.0-1.5","4","3","4","3","4","3","3","4","4","4","4","5","5","4","5","4","5","4","4","5","1","1","2","2","1","2","4","4","1","1","1","0","0","1","0","0","0","0","0","0","0","0","0","1","4","2","4","1","2","","2","3","2","2","2","637466695379714048","王","338","","","","","","","","","","","","","","","","","","","true","11","1","moral","1066","other","他的","","","","","","","","","","","","","","","","",""
"null","","null","html-keyboard-response","21","169874","0.0-6.0-1.0-2.0-0.6","4","3","4","3","4","3","3","4","4","4","4","5","5","4","5","4","5","4","4","5","1","1","2","2","1","2","4","4","1","1","1","0","0","1","0","0","0","0","0","0","0","0","0","1","4","2","4","1","2","","2","3","2","2","2","637466695379714048","王","338","","","","","","","","","","","","","","","","","","","","","","","","","","","","","","","","","","","","","","","","","",""
"846","<p style=""color:rgb(150, 250, 100); font-size: 35px;"">本人的</p>","e","categorize-html","22","170722","0.0-6.0-1.0-2.0-1.6","4","3","4","3","4","3","3","4","4","4","4","5","5","4","5","4","5","4","4","5","1","1","2","2","1","2","4","4","1","1","1","0","0","1","0","0","0","0","0","0","0","0","0","1","4","2","4","1","2","","2","3","2","2","2","637466695379714048","王","338","","","","","","","","","","","","","","","","","","","true","11","1","moral","846","self","本人的","","","","","","","","","","","","","","","","",""
"null","","null","html-keyboard-response","23","170974","0.0-6.0-1.0-2.0-0.7","4","3","4","3","4","3","3","4","4","4","4","5","5","4","5","4","5","4","4","5","1","1","2","2","1","2","4","4","1","1","1","0","0","1","0","0","0","0","0","0","0","0","0","1","4","2","4","1","2","","2","3","2","2","2","637466695379714048","王","338","","","","","","","","","","","","","","","","","","","","","","","","","","","","","","","","","","","","","","","","","",""
"1240","<p style=""color:rgb(150, 250, 100); font-size: 35px;"">我的</p>","e","categorize-html","24","172217","0.0-6.0-1.0-2.0-1.7","4","3","4","3","4","3","3","4","4","4","4","5","5","4","5","4","5","4","4","5","1","1","2","2","1","2","4","4","1","1","1","0","0","1","0","0","0","0","0","0","0","0","0","1","4","2","4","1","2","","2","3","2","2","2","637466695379714048","王","338","","","","","","","","","","","","","","","","","","","true","11","1","moral","1240","self","我的","","","","","","","","","","","","","","","","",""
"null","","null","html-keyboard-response","25","172469","0.0-6.0-1.0-2.0-0.8","4","3","4","3","4","3","3","4","4","4","4","5","5","4","5","4","5","4","4","5","1","1","2","2","1","2","4","4","1","1","1","0","0","1","0","0","0","0","0","0","0","0","0","1","4","2","4","1","2","","2","3","2","2","2","637466695379714048","王","338","","","","","","","","","","","","","","","","","","","","","","","","","","","","","","","","","","","","","","","","","",""
"1288","<p style=""color:rgb(150, 250, 100); font-size: 35px;"">别人</p>","i","categorize-html","26","173760","0.0-6.0-1.0-2.0-1.8","4","3","4","3","4","3","3","4","4","4","4","5","5","4","5","4","5","4","4","5","1","1","2","2","1","2","4","4","1","1","1","0","0","1","0","0","0","0","0","0","0","0","0","1","4","2","4","1","2","","2","3","2","2","2","637466695379714048","王","338","","","","","","","","","","","","","","","","","","","true","11","1","moral","1288","other","别人","","","","","","","","","","","","","","","","",""
"null","","null","html-keyboard-response","27","174012","0.0-6.0-1.0-2.0-0.9","4","3","4","3","4","3","3","4","4","4","4","5","5","4","5","4","5","4","4","5","1","1","2","2","1","2","4","4","1","1","1","0","0","1","0","0","0","0","0","0","0","0","0","1","4","2","4","1","2","","2","3","2","2","2","637466695379714048","王","338","","","","","","","","","","","","","","","","","","","","","","","","","","","","","","","","","","","","","","","","","",""
"1243","<p style=""color:rgb(150, 250, 100); font-size: 35px;"">他人的</p>","i","categorize-html","28","175258","0.0-6.0-1.0-2.0-1.9","4","3","4","3","4","3","3","4","4","4","4","5","5","4","5","4","5","4","4","5","1","1","2","2","1","2","4","4","1","1","1","0","0","1","0","0","0","0","0","0","0","0","0","1","4","2","4","1","2","","2","3","2","2","2","637466695379714048","王","338","","","","","","","","","","","","","","","","","","","true","11","1","moral","1243","other","他人的","","","","","","","","","","","","","","","","",""
"null","","null","html-keyboard-response","29","175510","0.0-6.0-1.0-2.0-0.10","4","3","4","3","4","3","3","4","4","4","4","5","5","4","5","4","5","4","4","5","1","1","2","2","1","2","4","4","1","1","1","0","0","1","0","0","0","0","0","0","0","0","0","1","4","2","4","1","2","","2","3","2","2","2","637466695379714048","王","338","","","","","","","","","","","","","","","","","","","","","","","","","","","","","","","","","","","","","","","","","",""
"1005","<p style=""color:rgb(150, 250, 100); font-size: 35px;"">自己的</p>","e","categorize-html","30","176518","0.0-6.0-1.0-2.0-1.10","4","3","4","3","4","3","3","4","4","4","4","5","5","4","5","4","5","4","4","5","1","1","2","2","1","2","4","4","1","1","1","0","0","1","0","0","0","0","0","0","0","0","0","1","4","2","4","1","2","","2","3","2","2","2","637466695379714048","王","338","","","","","","","","","","","","","","","","","","","true","11","1","moral","1005","self","自己的","","","","","","","","","","","","","","","","",""
"null","","null","html-keyboard-response","31","176770","0.0-6.0-1.0-2.0-0.11","4","3","4","3","4","3","3","4","4","4","4","5","5","4","5","4","5","4","4","5","1","1","2","2","1","2","4","4","1","1","1","0","0","1","0","0","0","0","0","0","0","0","0","1","4","2","4","1","2","","2","3","2","2","2","637466695379714048","王","338","","","","","","","","","","","","","","","","","","","","","","","","","","","","","","","","","","","","","","","","","",""
"985","<p style=""color:rgb(150, 250, 100); font-size: 35px;"">他</p>","i","categorize-html","32","177756","0.0-6.0-1.0-2.0-1.11","4","3","4","3","4","3","3","4","4","4","4","5","5","4","5","4","5","4","4","5","1","1","2","2","1","2","4","4","1","1","1","0","0","1","0","0","0","0","0","0","0","0","0","1","4","2","4","1","2","","2","3","2","2","2","637466695379714048","王","338","","","","","","","","","","","","","","","","","","","true","11","1","moral","985","other","他","","","","","","","","","","","","","","","","",""
"6382","
    <div class=""tag-bottom""><p>
    —— 任务2：对“消极”词和“积极”词分类 ——<p/>   
    <span style=""color:#78DCE8""><b>注意上方，类别标签和需要分类的词语都已经改变</b></span><p/>
    <span style=""color:#FFD866""><b>请根据上方标签的提示，尽可能正确并且快速地做出按键反应</b></span><p/>
    当按键错误时屏幕中会出现<span style=""color:red""> X </span>，需要按另一个键纠正才能继续<br/><p/>
    请把双手食指分别放在键盘的“E”键和“I”键上<p/>
    按<空格键>开始
    </p></div>"," ","html-keyboard-response","33","184140","0.0-6.0-1.0-3.0","4","3","4","3","4","3","3","4","4","4","4","5","5","4","5","4","5","4","4","5","1","1","2","2","1","2","4","4","1","1","1","0","0","1","0","0","0","0","0","0","0","0","0","1","4","2","4","1","2","","2","3","2","2","2","637466695379714048","王","338","","","","","","","","","","","","","","","","","","","","","","","","","","","","","","","","","","","","","","","","","",""
"null","","null","html-keyboard-response","34","184390","0.0-6.0-1.0-4.0-0.0","4","3","4","3","4","3","3","4","4","4","4","5","5","4","5","4","5","4","4","5","1","1","2","2","1","2","4","4","1","1","1","0","0","1","0","0","0","0","0","0","0","0","0","1","4","2","4","1","2","","2","3","2","2","2","637466695379714048","王","338","","","","","","","","","","","","","","","","","","","","","","","","","","","","","","","","","","","","","","","","","",""
"2212","<p style=""color:white; font-size: 35px;"">黑心</p>","e","categorize-html","35","186606","0.0-6.0-1.0-4.0-1.0","4","3","4","3","4","3","3","4","4","4","4","5","5","4","5","4","5","4","4","5","1","1","2","2","1","2","4","4","1","1","1","0","0","1","0","0","0","0","0","0","0","0","0","1","4","2","4","1","2","","2","3","2","2","2","637466695379714048","王","338","","","","","","","","","","","","","","","","","","","true","12","2","moral","2212","negative","黑心","","","","","","","","","","","","","","","","",""
"null","","null","html-keyboard-response","36","186858","0.0-6.0-1.0-4.0-0.1","4","3","4","3","4","3","3","4","4","4","4","5","5","4","5","4","5","4","4","5","1","1","2","2","1","2","4","4","1","1","1","0","0","1","0","0","0","0","0","0","0","0","0","1","4","2","4","1","2","","2","3","2","2","2","637466695379714048","王","338","","","","","","","","","","","","","","","","","","","","","","","","","","","","","","","","","","","","","","","","","",""
"735","<p style=""color:white; font-size: 35px;"">卑鄙</p>","e","categorize-html","37","187596","0.0-6.0-1.0-4.0-1.1","4","3","4","3","4","3","3","4","4","4","4","5","5","4","5","4","5","4","4","5","1","1","2","2","1","2","4","4","1","1","1","0","0","1","0","0","0","0","0","0","0","0","0","1","4","2","4","1","2","","2","3","2","2","2","637466695379714048","王","338","","","","","","","","","","","","","","","","","","","true","12","2","moral","735","negative","卑鄙","","","","","","","","","","","","","","","","",""
"null","","null","html-keyboard-response","38","187848","0.0-6.0-1.0-4.0-0.2","4","3","4","3","4","3","3","4","4","4","4","5","5","4","5","4","5","4","4","5","1","1","2","2","1","2","4","4","1","1","1","0","0","1","0","0","0","0","0","0","0","0","0","1","4","2","4","1","2","","2","3","2","2","2","637466695379714048","王","338","","","","","","","","","","","","","","","","","","","","","","","","","","","","","","","","","","","","","","","","","",""
"631","<p style=""color:white; font-size: 35px;"">不仁</p>","e","categorize-html","39","188482","0.0-6.0-1.0-4.0-1.2","4","3","4","3","4","3","3","4","4","4","4","5","5","4","5","4","5","4","4","5","1","1","2","2","1","2","4","4","1","1","1","0","0","1","0","0","0","0","0","0","0","0","0","1","4","2","4","1","2","","2","3","2","2","2","637466695379714048","王","338","","","","","","","","","","","","","","","","","","","true","12","2","moral","631","negative","不仁","","","","","","","","","","","","","","","","",""
"null","","null","html-keyboard-response","40","188733","0.0-6.0-1.0-4.0-0.3","4","3","4","3","4","3","3","4","4","4","4","5","5","4","5","4","5","4","4","5","1","1","2","2","1","2","4","4","1","1","1","0","0","1","0","0","0","0","0","0","0","0","0","1","4","2","4","1","2","","2","3","2","2","2","637466695379714048","王","338","","","","","","","","","","","","","","","","","","","","","","","","","","","","","","","","","","","","","","","","","",""
"1189","<p style=""color:white; font-size: 35px;"">小人</p>","e","categorize-html","41","189925","0.0-6.0-1.0-4.0-1.3","4","3","4","3","4","3","3","4","4","4","4","5","5","4","5","4","5","4","4","5","1","1","2","2","1","2","4","4","1","1","1","0","0","1","0","0","0","0","0","0","0","0","0","1","4","2","4","1","2","","2","3","2","2","2","637466695379714048","王","338","","","","","","","","","","","","","","","","","","","true","12","2","moral","1189","negative","小人","","","","","","","","","","","","","","","","",""
"null","","null","html-keyboard-response","42","190177","0.0-6.0-1.0-4.0-0.4","4","3","4","3","4","3","3","4","4","4","4","5","5","4","5","4","5","4","4","5","1","1","2","2","1","2","4","4","1","1","1","0","0","1","0","0","0","0","0","0","0","0","0","1","4","2","4","1","2","","2","3","2","2","2","637466695379714048","王","338","","","","","","","","","","","","","","","","","","","","","","","","","","","","","","","","","","","","","","","","","",""
"703","<p style=""color:white; font-size: 35px;"">诚信</p>","i","categorize-html","43","190883","0.0-6.0-1.0-4.0-1.4","4","3","4","3","4","3","3","4","4","4","4","5","5","4","5","4","5","4","4","5","1","1","2","2","1","2","4","4","1","1","1","0","0","1","0","0","0","0","0","0","0","0","0","1","4","2","4","1","2","","2","3","2","2","2","637466695379714048","王","338","","","","","","","","","","","","","","","","","","","true","12","2","moral","703","positive","诚信","","","","","","","","","","","","","","","","",""
"null","","null","html-keyboard-response","44","191135","0.0-6.0-1.0-4.0-0.5","4","3","4","3","4","3","3","4","4","4","4","5","5","4","5","4","5","4","4","5","1","1","2","2","1","2","4","4","1","1","1","0","0","1","0","0","0","0","0","0","0","0","0","1","4","2","4","1","2","","2","3","2","2","2","637466695379714048","王","338","","","","","","","","","","","","","","","","","","","","","","","","","","","","","","","","","","","","","","","","","",""
"1929","<p style=""color:white; font-size: 35px;"">不孝</p>","e","categorize-html","45","193067","0.0-6.0-1.0-4.0-1.5","4","3","4","3","4","3","3","4","4","4","4","5","5","4","5","4","5","4","4","5","1","1","2","2","1","2","4","4","1","1","1","0","0","1","0","0","0","0","0","0","0","0","0","1","4","2","4","1","2","","2","3","2","2","2","637466695379714048","王","338","","","","","","","","","","","","","","","","","","","true","12","2","moral","1929","negative","不孝","","","","","","","","","","","","","","","","",""
"null","","null","html-keyboard-response","46","193319","0.0-6.0-1.0-4.0-0.6","4","3","4","3","4","3","3","4","4","4","4","5","5","4","5","4","5","4","4","5","1","1","2","2","1","2","4","4","1","1","1","0","0","1","0","0","0","0","0","0","0","0","0","1","4","2","4","1","2","","2","3","2","2","2","637466695379714048","王","338","","","","","","","","","","","","","","","","","","","","","","","","","","","","","","","","","","","","","","","","","",""
"827","<p style=""color:white; font-size: 35px;"">正直</p>","i","categorize-html","47","194149","0.0-6.0-1.0-4.0-1.6","4","3","4","3","4","3","3","4","4","4","4","5","5","4","5","4","5","4","4","5","1","1","2","2","1","2","4","4","1","1","1","0","0","1","0","0","0","0","0","0","0","0","0","1","4","2","4","1","2","","2","3","2","2","2","637466695379714048","王","338","","","","","","","","","","","","","","","","","","","true","12","2","moral","827","positive","正直","","","","","","","","","","","","","","","","",""
"null","","null","html-keyboard-response","48","194400","0.0-6.0-1.0-4.0-0.7","4","3","4","3","4","3","3","4","4","4","4","5","5","4","5","4","5","4","4","5","1","1","2","2","1","2","4","4","1","1","1","0","0","1","0","0","0","0","0","0","0","0","0","1","4","2","4","1","2","","2","3","2","2","2","637466695379714048","王","338","","","","","","","","","","","","","","","","","","","","","","","","","","","","","","","","","","","","","","","","","",""
"968","<p style=""color:white; font-size: 35px;"">缺德</p>","e","categorize-html","49","195371","0.0-6.0-1.0-4.0-1.7","4","3","4","3","4","3","3","4","4","4","4","5","5","4","5","4","5","4","4","5","1","1","2","2","1","2","4","4","1","1","1","0","0","1","0","0","0","0","0","0","0","0","0","1","4","2","4","1","2","","2","3","2","2","2","637466695379714048","王","338","","","","","","","","","","","","","","","","","","","true","12","2","moral","968","negative","缺德","","","","","","","","","","","","","","","","",""
"null","","null","html-keyboard-response","50","195622","0.0-6.0-1.0-4.0-0.8","4","3","4","3","4","3","3","4","4","4","4","5","5","4","5","4","5","4","4","5","1","1","2","2","1","2","4","4","1","1","1","0","0","1","0","0","0","0","0","0","0","0","0","1","4","2","4","1","2","","2","3","2","2","2","637466695379714048","王","338","","","","","","","","","","","","","","","","","","","","","","","","","","","","","","","","","","","","","","","","","",""
"816","<p style=""color:white; font-size: 35px;"">善良</p>","i","categorize-html","51","196441","0.0-6.0-1.0-4.0-1.8","4","3","4","3","4","3","3","4","4","4","4","5","5","4","5","4","5","4","4","5","1","1","2","2","1","2","4","4","1","1","1","0","0","1","0","0","0","0","0","0","0","0","0","1","4","2","4","1","2","","2","3","2","2","2","637466695379714048","王","338","","","","","","","","","","","","","","","","","","","true","12","2","moral","816","positive","善良","","","","","","","","","","","","","","","","",""
"null","","null","html-keyboard-response","52","196692","0.0-6.0-1.0-4.0-0.9","4","3","4","3","4","3","3","4","4","4","4","5","5","4","5","4","5","4","4","5","1","1","2","2","1","2","4","4","1","1","1","0","0","1","0","0","0","0","0","0","0","0","0","1","4","2","4","1","2","","2","3","2","2","2","637466695379714048","王","338","","","","","","","","","","","","","","","","","","","","","","","","","","","","","","","","","","","","","","","","","",""
"1087","<p style=""color:white; font-size: 35px;"">君子</p>","i","categorize-html","53","197782","0.0-6.0-1.0-4.0-1.9","4","3","4","3","4","3","3","4","4","4","4","5","5","4","5","4","5","4","4","5","1","1","2","2","1","2","4","4","1","1","1","0","0","1","0","0","0","0","0","0","0","0","0","1","4","2","4","1","2","","2","3","2","2","2","637466695379714048","王","338","","","","","","","","","","","","","","","","","","","true","12","2","moral","1087","positive","君子","","","","","","","","","","","","","","","","",""
"null","","null","html-keyboard-response","54","198033","0.0-6.0-1.0-4.0-0.10","4","3","4","3","4","3","3","4","4","4","4","5","5","4","5","4","5","4","4","5","1","1","2","2","1","2","4","4","1","1","1","0","0","1","0","0","0","0","0","0","0","0","0","1","4","2","4","1","2","","2","3","2","2","2","637466695379714048","王","338","","","","","","","","","","","","","","","","","","","","","","","","","","","","","","","","","","","","","","","","","",""
"503","<p style=""color:white; font-size: 35px;"">高尚</p>","i","categorize-html","55","198539","0.0-6.0-1.0-4.0-1.10","4","3","4","3","4","3","3","4","4","4","4","5","5","4","5","4","5","4","4","5","1","1","2","2","1","2","4","4","1","1","1","0","0","1","0","0","0","0","0","0","0","0","0","1","4","2","4","1","2","","2","3","2","2","2","637466695379714048","王","338","","","","","","","","","","","","","","","","","","","true","12","2","moral","503","positive","高尚","","","","","","","","","","","","","","","","",""
"null","","null","html-keyboard-response","56","198791","0.0-6.0-1.0-4.0-0.11","4","3","4","3","4","3","3","4","4","4","4","5","5","4","5","4","5","4","4","5","1","1","2","2","1","2","4","4","1","1","1","0","0","1","0","0","0","0","0","0","0","0","0","1","4","2","4","1","2","","2","3","2","2","2","637466695379714048","王","338","","","","","","","","","","","","","","","","","","","","","","","","","","","","","","","","","","","","","","","","","",""
"565","<p style=""color:white; font-size: 35px;"">廉正</p>","i","categorize-html","57","199359","0.0-6.0-1.0-4.0-1.11","4","3","4","3","4","3","3","4","4","4","4","5","5","4","5","4","5","4","4","5","1","1","2","2","1","2","4","4","1","1","1","0","0","1","0","0","0","0","0","0","0","0","0","1","4","2","4","1","2","","2","3","2","2","2","637466695379714048","王","338","","","","","","","","","","","","","","","","","","","true","12","2","moral","565","positive","廉正","","","","","","","","","","","","","","","","",""
"13100","
    <div class=""tag-bottom""><p>
    —— 任务3：对“自我/消极”词和“他人/积极”词分类 ——<p/>
    <span style=""color:#78DCE8""><b>注意上方，之前的四类词语将混合在一起交替呈现</b></span><p/>
    <span style=""color:#FFD866""><b>请根据上方标签的提示，尽可能正确并且快速地做出按键反应</b></span><p/>
    当按键错误时屏幕中会出现<span style=""color:red""> X </span>，需要按另一个键纠正才能继续<br/><p/>
    请把双手食指分别放在键盘的“E”键和“I”键上<p/>
    按<空格键>开始
    </p></div>"," ","html-keyboard-response","58","212460","0.0-6.0-1.0-5.0","4","3","4","3","4","3","3","4","4","4","4","5","5","4","5","4","5","4","4","5","1","1","2","2","1","2","4","4","1","1","1","0","0","1","0","0","0","0","0","0","0","0","0","1","4","2","4","1","2","","2","3","2","2","2","637466695379714048","王","338","","","","","","","","","","","","","","","","","","","","","","","","","","","","","","","","","","","","","","","","","",""
"null","","null","html-keyboard-response","59","212711","0.0-6.0-1.0-6.0-0.0","4","3","4","3","4","3","3","4","4","4","4","5","5","4","5","4","5","4","4","5","1","1","2","2","1","2","4","4","1","1","1","0","0","1","0","0","0","0","0","0","0","0","0","1","4","2","4","1","2","","2","3","2","2","2","637466695379714048","王","338","","","","","","","","","","","","","","","","","","","","","","","","","","","","","","","","","","","","","","","","","",""
"1835","<p style=""color:rgb(150, 250, 100); font-size: 35px;"">他的</p>","i","categorize-html","60","214550","0.0-6.0-1.0-6.0-1.0","4","3","4","3","4","3","3","4","4","4","4","5","5","4","5","4","5","4","4","5","1","1","2","2","1","2","4","4","1","1","1","0","0","1","0","0","0","0","0","0","0","0","0","1","4","2","4","1","2","","2","3","2","2","2","637466695379714048","王","338","","","","","","","","","","","","","","","","","","","true","13","3","moral","1835","other","他的","","","","","","","","","","","","","","","","",""
"null","","null","html-keyboard-response","61","214802","0.0-6.0-1.0-6.0-0.1","4","3","4","3","4","3","3","4","4","4","4","5","5","4","5","4","5","4","4","5","1","1","2","2","1","2","4","4","1","1","1","0","0","1","0","0","0","0","0","0","0","0","0","1","4","2","4","1","2","","2","3","2","2","2","637466695379714048","王","338","","","","","","","","","","","","","","","","","","","","","","","","","","","","","","","","","","","","","","","","","",""
"2302","<p style=""color:white; font-size: 35px;"">不仁</p>","e","categorize-html","62","217108","0.0-6.0-1.0-6.0-1.1","4","3","4","3","4","3","3","4","4","4","4","5","5","4","5","4","5","4","4","5","1","1","2","2","1","2","4","4","1","1","1","0","0","1","0","0","0","0","0","0","0","0","0","1","4","2","4","1","2","","2","3","2","2","2","637466695379714048","王","338","","","","","","","","","","","","","","","","","","","true","13","3","moral","2302","negative","不仁","","","","","","","","","","","","","","","","",""
"null","","null","html-keyboard-response","63","217359","0.0-6.0-1.0-6.0-0.2","4","3","4","3","4","3","3","4","4","4","4","5","5","4","5","4","5","4","4","5","1","1","2","2","1","2","4","4","1","1","1","0","0","1","0","0","0","0","0","0","0","0","0","1","4","2","4","1","2","","2","3","2","2","2","637466695379714048","王","338","","","","","","","","","","","","","","","","","","","","","","","","","","","","","","","","","","","","","","","","","",""
"1558","<p style=""color:rgb(150, 250, 100); font-size: 35px;"">自己</p>","e","categorize-html","64","218921","0.0-6.0-1.0-6.0-1.2","4","3","4","3","4","3","3","4","4","4","4","5","5","4","5","4","5","4","4","5","1","1","2","2","1","2","4","4","1","1","1","0","0","1","0","0","0","0","0","0","0","0","0","1","4","2","4","1","2","","2","3","2","2","2","637466695379714048","王","338","","","","","","","","","","","","","","","","","","","true","13","3","moral","1558","self","自己","","","","","","","","","","","","","","","","",""
"null","","null","html-keyboard-response","65","219172","0.0-6.0-1.0-6.0-0.3","4","3","4","3","4","3","3","4","4","4","4","5","5","4","5","4","5","4","4","5","1","1","2","2","1","2","4","4","1","1","1","0","0","1","0","0","0","0","0","0","0","0","0","1","4","2","4","1","2","","2","3","2","2","2","637466695379714048","王","338","","","","","","","","","","","","","","","","","","","","","","","","","","","","","","","","","","","","","","","","","",""
"1223","<p style=""color:white; font-size: 35px;"">高尚</p>","i","categorize-html","66","220399","0.0-6.0-1.0-6.0-1.3","4","3","4","3","4","3","3","4","4","4","4","5","5","4","5","4","5","4","4","5","1","1","2","2","1","2","4","4","1","1","1","0","0","1","0","0","0","0","0","0","0","0","0","1","4","2","4","1","2","","2","3","2","2","2","637466695379714048","王","338","","","","","","","","","","","","","","","","","","","true","13","3","moral","1223","positive","高尚","","","","","","","","","","","","","","","","",""
"null","","null","html-keyboard-response","67","220650","0.0-6.0-1.0-6.0-0.4","4","3","4","3","4","3","3","4","4","4","4","5","5","4","5","4","5","4","4","5","1","1","2","2","1","2","4","4","1","1","1","0","0","1","0","0","0","0","0","0","0","0","0","1","4","2","4","1","2","","2","3","2","2","2","637466695379714048","王","338","","","","","","","","","","","","","","","","","","","","","","","","","","","","","","","","","","","","","","","","","",""
"954","<p style=""color:rgb(150, 250, 100); font-size: 35px;"">他</p>","i","categorize-html","68","221608","0.0-6.0-1.0-6.0-1.4","4","3","4","3","4","3","3","4","4","4","4","5","5","4","5","4","5","4","4","5","1","1","2","2","1","2","4","4","1","1","1","0","0","1","0","0","0","0","0","0","0","0","0","1","4","2","4","1","2","","2","3","2","2","2","637466695379714048","王","338","","","","","","","","","","","","","","","","","","","true","13","3","moral","954","other","他","","","","","","","","","","","","","","","","",""
"null","","null","html-keyboard-response","69","221859","0.0-6.0-1.0-6.0-0.5","4","3","4","3","4","3","3","4","4","4","4","5","5","4","5","4","5","4","4","5","1","1","2","2","1","2","4","4","1","1","1","0","0","1","0","0","0","0","0","0","0","0","0","1","4","2","4","1","2","","2","3","2","2","2","637466695379714048","王","338","","","","","","","","","","","","","","","","","","","","","","","","","","","","","","","","","","","","","","","","","",""
"2139","<p style=""color:white; font-size: 35px;"">不孝</p>","e","categorize-html","70","224002","0.0-6.0-1.0-6.0-1.5","4","3","4","3","4","3","3","4","4","4","4","5","5","4","5","4","5","4","4","5","1","1","2","2","1","2","4","4","1","1","1","0","0","1","0","0","0","0","0","0","0","0","0","1","4","2","4","1","2","","2","3","2","2","2","637466695379714048","王","338","","","","","","","","","","","","","","","","","","","true","13","3","moral","2139","negative","不孝","","","","","","","","","","","","","","","","",""
"null","","null","html-keyboard-response","71","224253","0.0-6.0-1.0-6.0-0.6","4","3","4","3","4","3","3","4","4","4","4","5","5","4","5","4","5","4","4","5","1","1","2","2","1","2","4","4","1","1","1","0","0","1","0","0","0","0","0","0","0","0","0","1","4","2","4","1","2","","2","3","2","2","2","637466695379714048","王","338","","","","","","","","","","","","","","","","","","","","","","","","","","","","","","","","","","","","","","","","","",""
"1267","<p style=""color:rgb(150, 250, 100); font-size: 35px;"">自己的</p>","e","categorize-html","72","225523","0.0-6.0-1.0-6.0-1.6","4","3","4","3","4","3","3","4","4","4","4","5","5","4","5","4","5","4","4","5","1","1","2","2","1","2","4","4","1","1","1","0","0","1","0","0","0","0","0","0","0","0","0","1","4","2","4","1","2","","2","3","2","2","2","637466695379714048","王","338","","","","","","","","","","","","","","","","","","","true","13","3","moral","1267","self","自己的","","","","","","","","","","","","","","","","",""
"null","","null","html-keyboard-response","73","225775","0.0-6.0-1.0-6.0-0.7","4","3","4","3","4","3","3","4","4","4","4","5","5","4","5","4","5","4","4","5","1","1","2","2","1","2","4","4","1","1","1","0","0","1","0","0","0","0","0","0","0","0","0","1","4","2","4","1","2","","2","3","2","2","2","637466695379714048","王","338","","","","","","","","","","","","","","","","","","","","","","","","","","","","","","","","","","","","","","","","","",""
"1507","<p style=""color:white; font-size: 35px;"">君子</p>","i","categorize-html","74","227285","0.0-6.0-1.0-6.0-1.7","4","3","4","3","4","3","3","4","4","4","4","5","5","4","5","4","5","4","4","5","1","1","2","2","1","2","4","4","1","1","1","0","0","1","0","0","0","0","0","0","0","0","0","1","4","2","4","1","2","","2","3","2","2","2","637466695379714048","王","338","","","","","","","","","","","","","","","","","","","true","13","3","moral","1507","positive","君子","","","","","","","","","","","","","","","","",""
"null","","null","html-keyboard-response","75","227537","0.0-6.0-1.0-6.0-0.8","4","3","4","3","4","3","3","4","4","4","4","5","5","4","5","4","5","4","4","5","1","1","2","2","1","2","4","4","1","1","1","0","0","1","0","0","0","0","0","0","0","0","0","1","4","2","4","1","2","","2","3","2","2","2","637466695379714048","王","338","","","","","","","","","","","","","","","","","","","","","","","","","","","","","","","","","","","","","","","","","",""
"1529","<p style=""color:rgb(150, 250, 100); font-size: 35px;"">本人的</p>","i","categorize-html","76","231949","0.0-6.0-1.0-6.0-1.8","4","3","4","3","4","3","3","4","4","4","4","5","5","4","5","4","5","4","4","5","1","1","2","2","1","2","4","4","1","1","1","0","0","1","0","0","0","0","0","0","0","0","0","1","4","2","4","1","2","","2","3","2","2","2","637466695379714048","王","338","","","","","","","","","","","","","","","","","","","false","13","3","moral","1854.5652173913043","self","本人的","","","","","","","","","","","","","","","","",""
"null","","null","html-keyboard-response","77","232200","0.0-6.0-1.0-6.0-0.9","4","3","4","3","4","3","3","4","4","4","4","5","5","4","5","4","5","4","4","5","1","1","2","2","1","2","4","4","1","1","1","0","0","1","0","0","0","0","0","0","0","0","0","1","4","2","4","1","2","","2","3","2","2","2","637466695379714048","王","338","","","","","","","","","","","","","","","","","","","","","","","","","","","","","","","","","","","","","","","","","",""
"1900","<p style=""color:white; font-size: 35px;"">正直</p>","i","categorize-html","78","234104","0.0-6.0-1.0-6.0-1.9","4","3","4","3","4","3","3","4","4","4","4","5","5","4","5","4","5","4","4","5","1","1","2","2","1","2","4","4","1","1","1","0","0","1","0","0","0","0","0","0","0","0","0","1","4","2","4","1","2","","2","3","2","2","2","637466695379714048","王","338","","","","","","","","","","","","","","","","","","","true","13","3","moral","1900","positive","正直","","","","","","","","","","","","","","","","",""
"null","","null","html-keyboard-response","79","234355","0.0-6.0-1.0-6.0-0.10","4","3","4","3","4","3","3","4","4","4","4","5","5","4","5","4","5","4","4","5","1","1","2","2","1","2","4","4","1","1","1","0","0","1","0","0","0","0","0","0","0","0","0","1","4","2","4","1","2","","2","3","2","2","2","637466695379714048","王","338","","","","","","","","","","","","","","","","","","","","","","","","","","","","","","","","","","","","","","","","","",""
"1801","<p style=""color:rgb(150, 250, 100); font-size: 35px;"">他人的</p>","i","categorize-html","80","236160","0.0-6.0-1.0-6.0-1.10","4","3","4","3","4","3","3","4","4","4","4","5","5","4","5","4","5","4","4","5","1","1","2","2","1","2","4","4","1","1","1","0","0","1","0","0","0","0","0","0","0","0","0","1","4","2","4","1","2","","2","3","2","2","2","637466695379714048","王","338","","","","","","","","","","","","","","","","","","","true","13","3","moral","1801","other","他人的","","","","","","","","","","","","","","","","",""
"null","","null","html-keyboard-response","81","236411","0.0-6.0-1.0-6.0-0.11","4","3","4","3","4","3","3","4","4","4","4","5","5","4","5","4","5","4","4","5","1","1","2","2","1","2","4","4","1","1","1","0","0","1","0","0","0","0","0","0","0","0","0","1","4","2","4","1","2","","2","3","2","2","2","637466695379714048","王","338","","","","","","","","","","","","","","","","","","","","","","","","","","","","","","","","","","","","","","","","","",""
"1474","<p style=""color:white; font-size: 35px;"">黑心</p>","e","categorize-html","82","237887","0.0-6.0-1.0-6.0-1.11","4","3","4","3","4","3","3","4","4","4","4","5","5","4","5","4","5","4","4","5","1","1","2","2","1","2","4","4","1","1","1","0","0","1","0","0","0","0","0","0","0","0","0","1","4","2","4","1","2","","2","3","2","2","2","637466695379714048","王","338","","","","","","","","","","","","","","","","","","","true","13","3","moral","1474","negative","黑心","","","","","","","","","","","","","","","","",""
"null","","null","html-keyboard-response","83","238138","0.0-6.0-1.0-6.0-0.12","4","3","4","3","4","3","3","4","4","4","4","5","5","4","5","4","5","4","4","5","1","1","2","2","1","2","4","4","1","1","1","0","0","1","0","0","0","0","0","0","0","0","0","1","4","2","4","1","2","","2","3","2","2","2","637466695379714048","王","338","","","","","","","","","","","","","","","","","","","","","","","","","","","","","","","","","","","","","","","","","",""
"707","<p style=""color:rgb(150, 250, 100); font-size: 35px;"">我的</p>","e","categorize-html","84","238848","0.0-6.0-1.0-6.0-1.12","4","3","4","3","4","3","3","4","4","4","4","5","5","4","5","4","5","4","4","5","1","1","2","2","1","2","4","4","1","1","1","0","0","1","0","0","0","0","0","0","0","0","0","1","4","2","4","1","2","","2","3","2","2","2","637466695379714048","王","338","","","","","","","","","","","","","","","","","","","true","13","3","moral","707","self","我的","","","","","","","","","","","","","","","","",""
"null","","null","html-keyboard-response","85","239100","0.0-6.0-1.0-6.0-0.13","4","3","4","3","4","3","3","4","4","4","4","5","5","4","5","4","5","4","4","5","1","1","2","2","1","2","4","4","1","1","1","0","0","1","0","0","0","0","0","0","0","0","0","1","4","2","4","1","2","","2","3","2","2","2","637466695379714048","王","338","","","","","","","","","","","","","","","","","","","","","","","","","","","","","","","","","","","","","","","","","",""
"860","<p style=""color:white; font-size: 35px;"">卑鄙</p>","e","categorize-html","86","239963","0.0-6.0-1.0-6.0-1.13","4","3","4","3","4","3","3","4","4","4","4","5","5","4","5","4","5","4","4","5","1","1","2","2","1","2","4","4","1","1","1","0","0","1","0","0","0","0","0","0","0","0","0","1","4","2","4","1","2","","2","3","2","2","2","637466695379714048","王","338","","","","","","","","","","","","","","","","","","","true","13","3","moral","860","negative","卑鄙","","","","","","","","","","","","","","","","",""
"null","","null","html-keyboard-response","87","240214","0.0-6.0-1.0-6.0-0.14","4","3","4","3","4","3","3","4","4","4","4","5","5","4","5","4","5","4","4","5","1","1","2","2","1","2","4","4","1","1","1","0","0","1","0","0","0","0","0","0","0","0","0","1","4","2","4","1","2","","2","3","2","2","2","637466695379714048","王","338","","","","","","","","","","","","","","","","","","","","","","","","","","","","","","","","","","","","","","","","","",""
"809","<p style=""color:rgb(150, 250, 100); font-size: 35px;"">别人</p>","i","categorize-html","88","241027","0.0-6.0-1.0-6.0-1.14","4","3","4","3","4","3","3","4","4","4","4","5","5","4","5","4","5","4","4","5","1","1","2","2","1","2","4","4","1","1","1","0","0","1","0","0","0","0","0","0","0","0","0","1","4","2","4","1","2","","2","3","2","2","2","637466695379714048","王","338","","","","","","","","","","","","","","","","","","","true","13","3","moral","809","other","别人","","","","","","","","","","","","","","","","",""
"null","","null","html-keyboard-response","89","241278","0.0-6.0-1.0-6.0-0.15","4","3","4","3","4","3","3","4","4","4","4","5","5","4","5","4","5","4","4","5","1","1","2","2","1","2","4","4","1","1","1","0","0","1","0","0","0","0","0","0","0","0","0","1","4","2","4","1","2","","2","3","2","2","2","637466695379714048","王","338","","","","","","","","","","","","","","","","","","","","","","","","","","","","","","","","","","","","","","","","","",""
"896","<p style=""color:white; font-size: 35px;"">善良</p>","i","categorize-html","90","242178","0.0-6.0-1.0-6.0-1.15","4","3","4","3","4","3","3","4","4","4","4","5","5","4","5","4","5","4","4","5","1","1","2","2","1","2","4","4","1","1","1","0","0","1","0","0","0","0","0","0","0","0","0","1","4","2","4","1","2","","2","3","2","2","2","637466695379714048","王","338","","","","","","","","","","","","","","","","","","","true","13","3","moral","896","positive","善良","","","","","","","","","","","","","","","","",""
"null","","null","html-keyboard-response","91","242429","0.0-6.0-1.0-6.0-0.16","4","3","4","3","4","3","3","4","4","4","4","5","5","4","5","4","5","4","4","5","1","1","2","2","1","2","4","4","1","1","1","0","0","1","0","0","0","0","0","0","0","0","0","1","4","2","4","1","2","","2","3","2","2","2","637466695379714048","王","338","","","","","","","","","","","","","","","","","","","","","","","","","","","","","","","","","","","","","","","","","",""
"587","<p style=""color:rgb(150, 250, 100); font-size: 35px;"">别人的</p>","i","categorize-html","92","243020","0.0-6.0-1.0-6.0-1.16","4","3","4","3","4","3","3","4","4","4","4","5","5","4","5","4","5","4","4","5","1","1","2","2","1","2","4","4","1","1","1","0","0","1","0","0","0","0","0","0","0","0","0","1","4","2","4","1","2","","2","3","2","2","2","637466695379714048","王","338","","","","","","","","","","","","","","","","","","","true","13","3","moral","587","other","别人的","","","","","","","","","","","","","","","","",""
"null","","null","html-keyboard-response","93","243279","0.0-6.0-1.0-6.0-0.17","4","3","4","3","4","3","3","4","4","4","4","5","5","4","5","4","5","4","4","5","1","1","2","2","1","2","4","4","1","1","1","0","0","1","0","0","0","0","0","0","0","0","0","1","4","2","4","1","2","","2","3","2","2","2","637466695379714048","王","338","","","","","","","","","","","","","","","","","","","","","","","","","","","","","","","","","","","","","","","","","",""
"781","<p style=""color:white; font-size: 35px;"">小人</p>","e","categorize-html","94","244064","0.0-6.0-1.0-6.0-1.17","4","3","4","3","4","3","3","4","4","4","4","5","5","4","5","4","5","4","4","5","1","1","2","2","1","2","4","4","1","1","1","0","0","1","0","0","0","0","0","0","0","0","0","1","4","2","4","1","2","","2","3","2","2","2","637466695379714048","王","338","","","","","","","","","","","","","","","","","","","true","13","3","moral","781","negative","小人","","","","","","","","","","","","","","","","",""
"null","","null","html-keyboard-response","95","244316","0.0-6.0-1.0-6.0-0.18","4","3","4","3","4","3","3","4","4","4","4","5","5","4","5","4","5","4","4","5","1","1","2","2","1","2","4","4","1","1","1","0","0","1","0","0","0","0","0","0","0","0","0","1","4","2","4","1","2","","2","3","2","2","2","637466695379714048","王","338","","","","","","","","","","","","","","","","","","","","","","","","","","","","","","","","","","","","","","","","","",""
"946","<p style=""color:rgb(150, 250, 100); font-size: 35px;"">我</p>","e","categorize-html","96","245266","0.0-6.0-1.0-6.0-1.18","4","3","4","3","4","3","3","4","4","4","4","5","5","4","5","4","5","4","4","5","1","1","2","2","1","2","4","4","1","1","1","0","0","1","0","0","0","0","0","0","0","0","0","1","4","2","4","1","2","","2","3","2","2","2","637466695379714048","王","338","","","","","","","","","","","","","","","","","","","true","13","3","moral","946","self","我","","","","","","","","","","","","","","","","",""
"null","","null","html-keyboard-response","97","245517","0.0-6.0-1.0-6.0-0.19","4","3","4","3","4","3","3","4","4","4","4","5","5","4","5","4","5","4","4","5","1","1","2","2","1","2","4","4","1","1","1","0","0","1","0","0","0","0","0","0","0","0","0","1","4","2","4","1","2","","2","3","2","2","2","637466695379714048","王","338","","","","","","","","","","","","","","","","","","","","","","","","","","","","","","","","","","","","","","","","","",""
"1017","<p style=""color:white; font-size: 35px;"">廉正</p>","i","categorize-html","98","246537","0.0-6.0-1.0-6.0-1.19","4","3","4","3","4","3","3","4","4","4","4","5","5","4","5","4","5","4","4","5","1","1","2","2","1","2","4","4","1","1","1","0","0","1","0","0","0","0","0","0","0","0","0","1","4","2","4","1","2","","2","3","2","2","2","637466695379714048","王","338","","","","","","","","","","","","","","","","","","","true","13","3","moral","1017","positive","廉正","","","","","","","","","","","","","","","","",""
"null","","null","html-keyboard-response","99","246788","0.0-6.0-1.0-6.0-0.20","4","3","4","3","4","3","3","4","4","4","4","5","5","4","5","4","5","4","4","5","1","1","2","2","1","2","4","4","1","1","1","0","0","1","0","0","0","0","0","0","0","0","0","1","4","2","4","1","2","","2","3","2","2","2","637466695379714048","王","338","","","","","","","","","","","","","","","","","","","","","","","","","","","","","","","","","","","","","","","","","",""
"1220","<p style=""color:rgb(150, 250, 100); font-size: 35px;"">他人</p>","i","categorize-html","100","248012","0.0-6.0-1.0-6.0-1.20","4","3","4","3","4","3","3","4","4","4","4","5","5","4","5","4","5","4","4","5","1","1","2","2","1","2","4","4","1","1","1","0","0","1","0","0","0","0","0","0","0","0","0","1","4","2","4","1","2","","2","3","2","2","2","637466695379714048","王","338","","","","","","","","","","","","","","","","","","","true","13","3","moral","1220","other","他人","","","","","","","","","","","","","","","","",""
"null","","null","html-keyboard-response","101","248263","0.0-6.0-1.0-6.0-0.21","4","3","4","3","4","3","3","4","4","4","4","5","5","4","5","4","5","4","4","5","1","1","2","2","1","2","4","4","1","1","1","0","0","1","0","0","0","0","0","0","0","0","0","1","4","2","4","1","2","","2","3","2","2","2","637466695379714048","王","338","","","","","","","","","","","","","","","","","","","","","","","","","","","","","","","","","","","","","","","","","",""
"939","<p style=""color:white; font-size: 35px;"">诚信</p>","i","categorize-html","102","249206","0.0-6.0-1.0-6.0-1.21","4","3","4","3","4","3","3","4","4","4","4","5","5","4","5","4","5","4","4","5","1","1","2","2","1","2","4","4","1","1","1","0","0","1","0","0","0","0","0","0","0","0","0","1","4","2","4","1","2","","2","3","2","2","2","637466695379714048","王","338","","","","","","","","","","","","","","","","","","","true","13","3","moral","939","positive","诚信","","","","","","","","","","","","","","","","",""
"null","","null","html-keyboard-response","103","249457","0.0-6.0-1.0-6.0-0.22","4","3","4","3","4","3","3","4","4","4","4","5","5","4","5","4","5","4","4","5","1","1","2","2","1","2","4","4","1","1","1","0","0","1","0","0","0","0","0","0","0","0","0","1","4","2","4","1","2","","2","3","2","2","2","637466695379714048","王","338","","","","","","","","","","","","","","","","","","","","","","","","","","","","","","","","","","","","","","","","","",""
"1115","<p style=""color:rgb(150, 250, 100); font-size: 35px;"">本人</p>","e","categorize-html","104","250576","0.0-6.0-1.0-6.0-1.22","4","3","4","3","4","3","3","4","4","4","4","5","5","4","5","4","5","4","4","5","1","1","2","2","1","2","4","4","1","1","1","0","0","1","0","0","0","0","0","0","0","0","0","1","4","2","4","1","2","","2","3","2","2","2","637466695379714048","王","338","","","","","","","","","","","","","","","","","","","true","13","3","moral","1115","self","本人","","","","","","","","","","","","","","","","",""
"null","","null","html-keyboard-response","105","250827","0.0-6.0-1.0-6.0-0.23","4","3","4","3","4","3","3","4","4","4","4","5","5","4","5","4","5","4","4","5","1","1","2","2","1","2","4","4","1","1","1","0","0","1","0","0","0","0","0","0","0","0","0","1","4","2","4","1","2","","2","3","2","2","2","637466695379714048","王","338","","","","","","","","","","","","","","","","","","","","","","","","","","","","","","","","","","","","","","","","","",""
"1018","<p style=""color:white; font-size: 35px;"">缺德</p>","e","categorize-html","106","251848","0.0-6.0-1.0-6.0-1.23","4","3","4","3","4","3","3","4","4","4","4","5","5","4","5","4","5","4","4","5","1","1","2","2","1","2","4","4","1","1","1","0","0","1","0","0","0","0","0","0","0","0","0","1","4","2","4","1","2","","2","3","2","2","2","637466695379714048","王","338","","","","","","","","","","","","","","","","","","","true","13","3","moral","1018","negative","缺德","","","","","","","","","","","","","","","","",""
"11100","
    <div class=""tag-bottom""><p>
    —— 任务4：对“自我/消极”词和“他人/积极”词分类 ——<p/>
    <span style=""color:#78DCE8""><b>与刚才的任务完全相同，请再次对这四类词语分类</b></span><p/>
    <span style=""color:#FFD866""><b>请根据上方标签的提示，尽可能正确并且快速地做出按键反应</b></span><p/>
    当按键错误时屏幕中会出现<span style=""color:red""> X </span>，需要按另一个键纠正才能继续<br/><p/>
    请把双手食指分别放在键盘的“E”键和“I”键上<p/>
    按<空格键>开始
    </p></div>"," ","html-keyboard-response","107","262949","0.0-6.0-1.0-7.0","4","3","4","3","4","3","3","4","4","4","4","5","5","4","5","4","5","4","4","5","1","1","2","2","1","2","4","4","1","1","1","0","0","1","0","0","0","0","0","0","0","0","0","1","4","2","4","1","2","","2","3","2","2","2","637466695379714048","王","338","","","","","","","","","","","","","","","","","","","","","","","","","","","","","","","","","","","","","","","","","",""
"null","","null","html-keyboard-response","108","263200","0.0-6.0-1.0-8.0-0.0","4","3","4","3","4","3","3","4","4","4","4","5","5","4","5","4","5","4","4","5","1","1","2","2","1","2","4","4","1","1","1","0","0","1","0","0","0","0","0","0","0","0","0","1","4","2","4","1","2","","2","3","2","2","2","637466695379714048","王","338","","","","","","","","","","","","","","","","","","","","","","","","","","","","","","","","","","","","","","","","","",""
"2670","<p style=""color:rgb(150, 250, 100); font-size: 35px;"">别人的</p>","i","categorize-html","109","265875","0.0-6.0-1.0-8.0-1.0","4","3","4","3","4","3","3","4","4","4","4","5","5","4","5","4","5","4","4","5","1","1","2","2","1","2","4","4","1","1","1","0","0","1","0","0","0","0","0","0","0","0","0","1","4","2","4","1","2","","2","3","2","2","2","637466695379714048","王","338","","","","","","","","","","","","","","","","","","","true","14","4","moral","2670","other","别人的","","","","","","","","","","","","","","","","",""
"null","","null","html-keyboard-response","110","266126","0.0-6.0-1.0-8.0-0.1","4","3","4","3","4","3","3","4","4","4","4","5","5","4","5","4","5","4","4","5","1","1","2","2","1","2","4","4","1","1","1","0","0","1","0","0","0","0","0","0","0","0","0","1","4","2","4","1","2","","2","3","2","2","2","637466695379714048","王","338","","","","","","","","","","","","","","","","","","","","","","","","","","","","","","","","","","","","","","","","","",""
"1507","<p style=""color:white; font-size: 35px;"">缺德</p>","e","categorize-html","111","267638","0.0-6.0-1.0-8.0-1.1","4","3","4","3","4","3","3","4","4","4","4","5","5","4","5","4","5","4","4","5","1","1","2","2","1","2","4","4","1","1","1","0","0","1","0","0","0","0","0","0","0","0","0","1","4","2","4","1","2","","2","3","2","2","2","637466695379714048","王","338","","","","","","","","","","","","","","","","","","","true","14","4","moral","1507","negative","缺德","","","","","","","","","","","","","","","","",""
"null","","null","html-keyboard-response","112","267889","0.0-6.0-1.0-8.0-0.2","4","3","4","3","4","3","3","4","4","4","4","5","5","4","5","4","5","4","4","5","1","1","2","2","1","2","4","4","1","1","1","0","0","1","0","0","0","0","0","0","0","0","0","1","4","2","4","1","2","","2","3","2","2","2","637466695379714048","王","338","","","","","","","","","","","","","","","","","","","","","","","","","","","","","","","","","","","","","","","","","",""
"615","<p style=""color:rgb(150, 250, 100); font-size: 35px;"">我的</p>","e","categorize-html","113","268507","0.0-6.0-1.0-8.0-1.2","4","3","4","3","4","3","3","4","4","4","4","5","5","4","5","4","5","4","4","5","1","1","2","2","1","2","4","4","1","1","1","0","0","1","0","0","0","0","0","0","0","0","0","1","4","2","4","1","2","","2","3","2","2","2","637466695379714048","王","338","","","","","","","","","","","","","","","","","","","true","14","4","moral","615","self","我的","","","","","","","","","","","","","","","","",""
"null","","null","html-keyboard-response","114","268758","0.0-6.0-1.0-8.0-0.3","4","3","4","3","4","3","3","4","4","4","4","5","5","4","5","4","5","4","4","5","1","1","2","2","1","2","4","4","1","1","1","0","0","1","0","0","0","0","0","0","0","0","0","1","4","2","4","1","2","","2","3","2","2","2","637466695379714048","王","338","","","","","","","","","","","","","","","","","","","","","","","","","","","","","","","","","","","","","","","","","",""
"957","<p style=""color:white; font-size: 35px;"">廉正</p>","i","categorize-html","115","269718","0.0-6.0-1.0-8.0-1.3","4","3","4","3","4","3","3","4","4","4","4","5","5","4","5","4","5","4","4","5","1","1","2","2","1","2","4","4","1","1","1","0","0","1","0","0","0","0","0","0","0","0","0","1","4","2","4","1","2","","2","3","2","2","2","637466695379714048","王","338","","","","","","","","","","","","","","","","","","","true","14","4","moral","957","positive","廉正","","","","","","","","","","","","","","","","",""
"null","","null","html-keyboard-response","116","269970","0.0-6.0-1.0-8.0-0.4","4","3","4","3","4","3","3","4","4","4","4","5","5","4","5","4","5","4","4","5","1","1","2","2","1","2","4","4","1","1","1","0","0","1","0","0","0","0","0","0","0","0","0","1","4","2","4","1","2","","2","3","2","2","2","637466695379714048","王","338","","","","","","","","","","","","","","","","","","","","","","","","","","","","","","","","","","","","","","","","","",""
"1417","<p style=""color:rgb(150, 250, 100); font-size: 35px;"">别人</p>","i","categorize-html","117","271390","0.0-6.0-1.0-8.0-1.4","4","3","4","3","4","3","3","4","4","4","4","5","5","4","5","4","5","4","4","5","1","1","2","2","1","2","4","4","1","1","1","0","0","1","0","0","0","0","0","0","0","0","0","1","4","2","4","1","2","","2","3","2","2","2","637466695379714048","王","338","","","","","","","","","","","","","","","","","","","true","14","4","moral","1417","other","别人","","","","","","","","","","","","","","","","",""
"null","","null","html-keyboard-response","118","271642","0.0-6.0-1.0-8.0-0.5","4","3","4","3","4","3","3","4","4","4","4","5","5","4","5","4","5","4","4","5","1","1","2","2","1","2","4","4","1","1","1","0","0","1","0","0","0","0","0","0","0","0","0","1","4","2","4","1","2","","2","3","2","2","2","637466695379714048","王","338","","","","","","","","","","","","","","","","","","","","","","","","","","","","","","","","","","","","","","","","","",""
"1757","<p style=""color:white; font-size: 35px;"">不孝</p>","e","categorize-html","119","273402","0.0-6.0-1.0-8.0-1.5","4","3","4","3","4","3","3","4","4","4","4","5","5","4","5","4","5","4","4","5","1","1","2","2","1","2","4","4","1","1","1","0","0","1","0","0","0","0","0","0","0","0","0","1","4","2","4","1","2","","2","3","2","2","2","637466695379714048","王","338","","","","","","","","","","","","","","","","","","","true","14","4","moral","1757","negative","不孝","","","","","","","","","","","","","","","","",""
"null","","null","html-keyboard-response","120","273654","0.0-6.0-1.0-8.0-0.6","4","3","4","3","4","3","3","4","4","4","4","5","5","4","5","4","5","4","4","5","1","1","2","2","1","2","4","4","1","1","1","0","0","1","0","0","0","0","0","0","0","0","0","1","4","2","4","1","2","","2","3","2","2","2","637466695379714048","王","338","","","","","","","","","","","","","","","","","","","","","","","","","","","","","","","","","","","","","","","","","",""
"586","<p style=""color:rgb(150, 250, 100); font-size: 35px;"">本人的</p>","e","categorize-html","121","274243","0.0-6.0-1.0-8.0-1.6","4","3","4","3","4","3","3","4","4","4","4","5","5","4","5","4","5","4","4","5","1","1","2","2","1","2","4","4","1","1","1","0","0","1","0","0","0","0","0","0","0","0","0","1","4","2","4","1","2","","2","3","2","2","2","637466695379714048","王","338","","","","","","","","","","","","","","","","","","","true","14","4","moral","586","self","本人的","","","","","","","","","","","","","","","","",""
"null","","null","html-keyboard-response","122","274494","0.0-6.0-1.0-8.0-0.7","4","3","4","3","4","3","3","4","4","4","4","5","5","4","5","4","5","4","4","5","1","1","2","2","1","2","4","4","1","1","1","0","0","1","0","0","0","0","0","0","0","0","0","1","4","2","4","1","2","","2","3","2","2","2","637466695379714048","王","338","","","","","","","","","","","","","","","","","","","","","","","","","","","","","","","","","","","","","","","","","",""
"1720","<p style=""color:white; font-size: 35px;"">正直</p>","i","categorize-html","123","276218","0.0-6.0-1.0-8.0-1.7","4","3","4","3","4","3","3","4","4","4","4","5","5","4","5","4","5","4","4","5","1","1","2","2","1","2","4","4","1","1","1","0","0","1","0","0","0","0","0","0","0","0","0","1","4","2","4","1","2","","2","3","2","2","2","637466695379714048","王","338","","","","","","","","","","","","","","","","","","","true","14","4","moral","1720","positive","正直","","","","","","","","","","","","","","","","",""
"null","","null","html-keyboard-response","124","276469","0.0-6.0-1.0-8.0-0.8","4","3","4","3","4","3","3","4","4","4","4","5","5","4","5","4","5","4","4","5","1","1","2","2","1","2","4","4","1","1","1","0","0","1","0","0","0","0","0","0","0","0","0","1","4","2","4","1","2","","2","3","2","2","2","637466695379714048","王","338","","","","","","","","","","","","","","","","","","","","","","","","","","","","","","","","","","","","","","","","","",""
"1602","<p style=""color:rgb(150, 250, 100); font-size: 35px;"">自己</p>","e","categorize-html","125","278074","0.0-6.0-1.0-8.0-1.8","4","3","4","3","4","3","3","4","4","4","4","5","5","4","5","4","5","4","4","5","1","1","2","2","1","2","4","4","1","1","1","0","0","1","0","0","0","0","0","0","0","0","0","1","4","2","4","1","2","","2","3","2","2","2","637466695379714048","王","338","","","","","","","","","","","","","","","","","","","true","14","4","moral","1602","self","自己","","","","","","","","","","","","","","","","",""
"null","","null","html-keyboard-response","126","278326","0.0-6.0-1.0-8.0-0.9","4","3","4","3","4","3","3","4","4","4","4","5","5","4","5","4","5","4","4","5","1","1","2","2","1","2","4","4","1","1","1","0","0","1","0","0","0","0","0","0","0","0","0","1","4","2","4","1","2","","2","3","2","2","2","637466695379714048","王","338","","","","","","","","","","","","","","","","","","","","","","","","","","","","","","","","","","","","","","","","","",""
"1480","<p style=""color:white; font-size: 35px;"">高尚</p>","i","categorize-html","127","279810","0.0-6.0-1.0-8.0-1.9","4","3","4","3","4","3","3","4","4","4","4","5","5","4","5","4","5","4","4","5","1","1","2","2","1","2","4","4","1","1","1","0","0","1","0","0","0","0","0","0","0","0","0","1","4","2","4","1","2","","2","3","2","2","2","637466695379714048","王","338","","","","","","","","","","","","","","","","","","","true","14","4","moral","1480","positive","高尚","","","","","","","","","","","","","","","","",""
"null","","null","html-keyboard-response","128","280061","0.0-6.0-1.0-8.0-0.10","4","3","4","3","4","3","3","4","4","4","4","5","5","4","5","4","5","4","4","5","1","1","2","2","1","2","4","4","1","1","1","0","0","1","0","0","0","0","0","0","0","0","0","1","4","2","4","1","2","","2","3","2","2","2","637466695379714048","王","338","","","","","","","","","","","","","","","","","","","","","","","","","","","","","","","","","","","","","","","","","",""
"1396","<p style=""color:rgb(150, 250, 100); font-size: 35px;"">他的</p>","i","categorize-html","129","281478","0.0-6.0-1.0-8.0-1.10","4","3","4","3","4","3","3","4","4","4","4","5","5","4","5","4","5","4","4","5","1","1","2","2","1","2","4","4","1","1","1","0","0","1","0","0","0","0","0","0","0","0","0","1","4","2","4","1","2","","2","3","2","2","2","637466695379714048","王","338","","","","","","","","","","","","","","","","","","","true","14","4","moral","1396","other","他的","","","","","","","","","","","","","","","","",""
"null","","null","html-keyboard-response","130","281729","0.0-6.0-1.0-8.0-0.11","4","3","4","3","4","3","3","4","4","4","4","5","5","4","5","4","5","4","4","5","1","1","2","2","1","2","4","4","1","1","1","0","0","1","0","0","0","0","0","0","0","0","0","1","4","2","4","1","2","","2","3","2","2","2","637466695379714048","王","338","","","","","","","","","","","","","","","","","","","","","","","","","","","","","","","","","","","","","","","","","",""
"1425","<p style=""color:white; font-size: 35px;"">黑心</p>","e","categorize-html","131","283158","0.0-6.0-1.0-8.0-1.11","4","3","4","3","4","3","3","4","4","4","4","5","5","4","5","4","5","4","4","5","1","1","2","2","1","2","4","4","1","1","1","0","0","1","0","0","0","0","0","0","0","0","0","1","4","2","4","1","2","","2","3","2","2","2","637466695379714048","王","338","","","","","","","","","","","","","","","","","","","true","14","4","moral","1425","negative","黑心","","","","","","","","","","","","","","","","",""
"null","","null","html-keyboard-response","132","283410","0.0-6.0-1.0-8.0-0.12","4","3","4","3","4","3","3","4","4","4","4","5","5","4","5","4","5","4","4","5","1","1","2","2","1","2","4","4","1","1","1","0","0","1","0","0","0","0","0","0","0","0","0","1","4","2","4","1","2","","2","3","2","2","2","637466695379714048","王","338","","","","","","","","","","","","","","","","","","","","","","","","","","","","","","","","","","","","","","","","","",""
"807","<p style=""color:rgb(150, 250, 100); font-size: 35px;"">他</p>","i","categorize-html","133","284220","0.0-6.0-1.0-8.0-1.12","4","3","4","3","4","3","3","4","4","4","4","5","5","4","5","4","5","4","4","5","1","1","2","2","1","2","4","4","1","1","1","0","0","1","0","0","0","0","0","0","0","0","0","1","4","2","4","1","2","","2","3","2","2","2","637466695379714048","王","338","","","","","","","","","","","","","","","","","","","true","14","4","moral","807","other","他","","","","","","","","","","","","","","","","",""
"null","","null","html-keyboard-response","134","284472","0.0-6.0-1.0-8.0-0.13","4","3","4","3","4","3","3","4","4","4","4","5","5","4","5","4","5","4","4","5","1","1","2","2","1","2","4","4","1","1","1","0","0","1","0","0","0","0","0","0","0","0","0","1","4","2","4","1","2","","2","3","2","2","2","637466695379714048","王","338","","","","","","","","","","","","","","","","","","","","","","","","","","","","","","","","","","","","","","","","","",""
"681","<p style=""color:white; font-size: 35px;"">不仁</p>","e","categorize-html","135","285156","0.0-6.0-1.0-8.0-1.13","4","3","4","3","4","3","3","4","4","4","4","5","5","4","5","4","5","4","4","5","1","1","2","2","1","2","4","4","1","1","1","0","0","1","0","0","0","0","0","0","0","0","0","1","4","2","4","1","2","","2","3","2","2","2","637466695379714048","王","338","","","","","","","","","","","","","","","","","","","true","14","4","moral","681","negative","不仁","","","","","","","","","","","","","","","","",""
"null","","null","html-keyboard-response","136","285408","0.0-6.0-1.0-8.0-0.14","4","3","4","3","4","3","3","4","4","4","4","5","5","4","5","4","5","4","4","5","1","1","2","2","1","2","4","4","1","1","1","0","0","1","0","0","0","0","0","0","0","0","0","1","4","2","4","1","2","","2","3","2","2","2","637466695379714048","王","338","","","","","","","","","","","","","","","","","","","","","","","","","","","","","","","","","","","","","","","","","",""
"712","<p style=""color:rgb(150, 250, 100); font-size: 35px;"">本人的</p>","e","categorize-html","137","286123","0.0-6.0-1.0-8.0-1.14","4","3","4","3","4","3","3","4","4","4","4","5","5","4","5","4","5","4","4","5","1","1","2","2","1","2","4","4","1","1","1","0","0","1","0","0","0","0","0","0","0","0","0","1","4","2","4","1","2","","2","3","2","2","2","637466695379714048","王","338","","","","","","","","","","","","","","","","","","","true","14","4","moral","712","self","本人的","","","","","","","","","","","","","","","","",""
"null","","null","html-keyboard-response","138","286374","0.0-6.0-1.0-8.0-0.15","4","3","4","3","4","3","3","4","4","4","4","5","5","4","5","4","5","4","4","5","1","1","2","2","1","2","4","4","1","1","1","0","0","1","0","0","0","0","0","0","0","0","0","1","4","2","4","1","2","","2","3","2","2","2","637466695379714048","王","338","","","","","","","","","","","","","","","","","","","","","","","","","","","","","","","","","","","","","","","","","",""
"1025","<p style=""color:white; font-size: 35px;"">高尚</p>","i","categorize-html","139","287402","0.0-6.0-1.0-8.0-1.15","4","3","4","3","4","3","3","4","4","4","4","5","5","4","5","4","5","4","4","5","1","1","2","2","1","2","4","4","1","1","1","0","0","1","0","0","0","0","0","0","0","0","0","1","4","2","4","1","2","","2","3","2","2","2","637466695379714048","王","338","","","","","","","","","","","","","","","","","","","true","14","4","moral","1025","positive","高尚","","","","","","","","","","","","","","","","",""
"null","","null","html-keyboard-response","140","287653","0.0-6.0-1.0-8.0-0.16","4","3","4","3","4","3","3","4","4","4","4","5","5","4","5","4","5","4","4","5","1","1","2","2","1","2","4","4","1","1","1","0","0","1","0","0","0","0","0","0","0","0","0","1","4","2","4","1","2","","2","3","2","2","2","637466695379714048","王","338","","","","","","","","","","","","","","","","","","","","","","","","","","","","","","","","","","","","","","","","","",""
"680","<p style=""color:rgb(150, 250, 100); font-size: 35px;"">他的</p>","i","categorize-html","141","288336","0.0-6.0-1.0-8.0-1.16","4","3","4","3","4","3","3","4","4","4","4","5","5","4","5","4","5","4","4","5","1","1","2","2","1","2","4","4","1","1","1","0","0","1","0","0","0","0","0","0","0","0","0","1","4","2","4","1","2","","2","3","2","2","2","637466695379714048","王","338","","","","","","","","","","","","","","","","","","","true","14","4","moral","680","other","他的","","","","","","","","","","","","","","","","",""
"null","","null","html-keyboard-response","142","288587","0.0-6.0-1.0-8.0-0.17","4","3","4","3","4","3","3","4","4","4","4","5","5","4","5","4","5","4","4","5","1","1","2","2","1","2","4","4","1","1","1","0","0","1","0","0","0","0","0","0","0","0","0","1","4","2","4","1","2","","2","3","2","2","2","637466695379714048","王","338","","","","","","","","","","","","","","","","","","","","","","","","","","","","","","","","","","","","","","","","","",""
"719","<p style=""color:white; font-size: 35px;"">诚信</p>","i","categorize-html","143","289310","0.0-6.0-1.0-8.0-1.17","4","3","4","3","4","3","3","4","4","4","4","5","5","4","5","4","5","4","4","5","1","1","2","2","1","2","4","4","1","1","1","0","0","1","0","0","0","0","0","0","0","0","0","1","4","2","4","1","2","","2","3","2","2","2","637466695379714048","王","338","","","","","","","","","","","","","","","","","","","true","14","4","moral","719","positive","诚信","","","","","","","","","","","","","","","","",""
"null","","null","html-keyboard-response","144","289561","0.0-6.0-1.0-8.0-0.18","4","3","4","3","4","3","3","4","4","4","4","5","5","4","5","4","5","4","4","5","1","1","2","2","1","2","4","4","1","1","1","0","0","1","0","0","0","0","0","0","0","0","0","1","4","2","4","1","2","","2","3","2","2","2","637466695379714048","王","338","","","","","","","","","","","","","","","","","","","","","","","","","","","","","","","","","","","","","","","","","",""
"499","<p style=""color:rgb(150, 250, 100); font-size: 35px;"">自己</p>","i","categorize-html","145","290550","0.0-6.0-1.0-8.0-1.18","4","3","4","3","4","3","3","4","4","4","4","5","5","4","5","4","5","4","4","5","1","1","2","2","1","2","4","4","1","1","1","0","0","1","0","0","0","0","0","0","0","0","0","1","4","2","4","1","2","","2","3","2","2","2","637466695379714048","王","338","","","","","","","","","","","","","","","","","","","false","14","4","moral","1750","self","自己","","","","","","","","","","","","","","","","",""
"null","","null","html-keyboard-response","146","290801","0.0-6.0-1.0-8.0-0.19","4","3","4","3","4","3","3","4","4","4","4","5","5","4","5","4","5","4","4","5","1","1","2","2","1","2","4","4","1","1","1","0","0","1","0","0","0","0","0","0","0","0","0","1","4","2","4","1","2","","2","3","2","2","2","637466695379714048","王","338","","","","","","","","","","","","","","","","","","","","","","","","","","","","","","","","","","","","","","","","","",""
"634","<p style=""color:white; font-size: 35px;"">黑心</p>","e","categorize-html","147","291439","0.0-6.0-1.0-8.0-1.19","4","3","4","3","4","3","3","4","4","4","4","5","5","4","5","4","5","4","4","5","1","1","2","2","1","2","4","4","1","1","1","0","0","1","0","0","0","0","0","0","0","0","0","1","4","2","4","1","2","","2","3","2","2","2","637466695379714048","王","338","","","","","","","","","","","","","","","","","","","true","14","4","moral","634","negative","黑心","","","","","","","","","","","","","","","","",""
"null","","null","html-keyboard-response","148","291690","0.0-6.0-1.0-8.0-0.20","4","3","4","3","4","3","3","4","4","4","4","5","5","4","5","4","5","4","4","5","1","1","2","2","1","2","4","4","1","1","1","0","0","1","0","0","0","0","0","0","0","0","0","1","4","2","4","1","2","","2","3","2","2","2","637466695379714048","王","338","","","","","","","","","","","","","","","","","","","","","","","","","","","","","","","","","","","","","","","","","",""
"1188","<p style=""color:rgb(150, 250, 100); font-size: 35px;"">别人的</p>","i","categorize-html","149","292882","0.0-6.0-1.0-8.0-1.20","4","3","4","3","4","3","3","4","4","4","4","5","5","4","5","4","5","4","4","5","1","1","2","2","1","2","4","4","1","1","1","0","0","1","0","0","0","0","0","0","0","0","0","1","4","2","4","1","2","","2","3","2","2","2","637466695379714048","王","338","","","","","","","","","","","","","","","","","","","true","14","4","moral","1188","other","别人的","","","","","","","","","","","","","","","","",""
"null","","null","html-keyboard-response","150","293133","0.0-6.0-1.0-8.0-0.21","4","3","4","3","4","3","3","4","4","4","4","5","5","4","5","4","5","4","4","5","1","1","2","2","1","2","4","4","1","1","1","0","0","1","0","0","0","0","0","0","0","0","0","1","4","2","4","1","2","","2","3","2","2","2","637466695379714048","王","338","","","","","","","","","","","","","","","","","","","","","","","","","","","","","","","","","","","","","","","","","",""
"912","<p style=""color:white; font-size: 35px;"">不仁</p>","e","categorize-html","151","294049","0.0-6.0-1.0-8.0-1.21","4","3","4","3","4","3","3","4","4","4","4","5","5","4","5","4","5","4","4","5","1","1","2","2","1","2","4","4","1","1","1","0","0","1","0","0","0","0","0","0","0","0","0","1","4","2","4","1","2","","2","3","2","2","2","637466695379714048","王","338","","","","","","","","","","","","","","","","","","","true","14","4","moral","912","negative","不仁","","","","","","","","","","","","","","","","",""
"null","","null","html-keyboard-response","152","294300","0.0-6.0-1.0-8.0-0.22","4","3","4","3","4","3","3","4","4","4","4","5","5","4","5","4","5","4","4","5","1","1","2","2","1","2","4","4","1","1","1","0","0","1","0","0","0","0","0","0","0","0","0","1","4","2","4","1","2","","2","3","2","2","2","637466695379714048","王","338","","","","","","","","","","","","","","","","","","","","","","","","","","","","","","","","","","","","","","","","","",""
"587","<p style=""color:rgb(150, 250, 100); font-size: 35px;"">本人</p>","e","categorize-html","153","294891","0.0-6.0-1.0-8.0-1.22","4","3","4","3","4","3","3","4","4","4","4","5","5","4","5","4","5","4","4","5","1","1","2","2","1","2","4","4","1","1","1","0","0","1","0","0","0","0","0","0","0","0","0","1","4","2","4","1","2","","2","3","2","2","2","637466695379714048","王","338","","","","","","","","","","","","","","","","","","","true","14","4","moral","587","self","本人","","","","","","","","","","","","","","","","",""
"null","","null","html-keyboard-response","154","295141","0.0-6.0-1.0-8.0-0.23","4","3","4","3","4","3","3","4","4","4","4","5","5","4","5","4","5","4","4","5","1","1","2","2","1","2","4","4","1","1","1","0","0","1","0","0","0","0","0","0","0","0","0","1","4","2","4","1","2","","2","3","2","2","2","637466695379714048","王","338","","","","","","","","","","","","","","","","","","","","","","","","","","","","","","","","","","","","","","","","","",""
"779","<p style=""color:white; font-size: 35px;"">善良</p>","i","categorize-html","155","295925","0.0-6.0-1.0-8.0-1.23","4","3","4","3","4","3","3","4","4","4","4","5","5","4","5","4","5","4","4","5","1","1","2","2","1","2","4","4","1","1","1","0","0","1","0","0","0","0","0","0","0","0","0","1","4","2","4","1","2","","2","3","2","2","2","637466695379714048","王","338","","","","","","","","","","","","","","","","","","","true","14","4","moral","779","positive","善良","","","","","","","","","","","","","","","","",""
"null","","null","html-keyboard-response","156","296176","0.0-6.0-1.0-8.0-0.24","4","3","4","3","4","3","3","4","4","4","4","5","5","4","5","4","5","4","4","5","1","1","2","2","1","2","4","4","1","1","1","0","0","1","0","0","0","0","0","0","0","0","0","1","4","2","4","1","2","","2","3","2","2","2","637466695379714048","王","338","","","","","","","","","","","","","","","","","","","","","","","","","","","","","","","","","","","","","","","","","",""
"881","<p style=""color:rgb(150, 250, 100); font-size: 35px;"">他</p>","i","categorize-html","157","297060","0.0-6.0-1.0-8.0-1.24","4","3","4","3","4","3","3","4","4","4","4","5","5","4","5","4","5","4","4","5","1","1","2","2","1","2","4","4","1","1","1","0","0","1","0","0","0","0","0","0","0","0","0","1","4","2","4","1","2","","2","3","2","2","2","637466695379714048","王","338","","","","","","","","","","","","","","","","","","","true","14","4","moral","881","other","他","","","","","","","","","","","","","","","","",""
"null","","null","html-keyboard-response","158","297311","0.0-6.0-1.0-8.0-0.25","4","3","4","3","4","3","3","4","4","4","4","5","5","4","5","4","5","4","4","5","1","1","2","2","1","2","4","4","1","1","1","0","0","1","0","0","0","0","0","0","0","0","0","1","4","2","4","1","2","","2","3","2","2","2","637466695379714048","王","338","","","","","","","","","","","","","","","","","","","","","","","","","","","","","","","","","","","","","","","","","",""
"796","<p style=""color:white; font-size: 35px;"">缺德</p>","e","categorize-html","159","298108","0.0-6.0-1.0-8.0-1.25","4","3","4","3","4","3","3","4","4","4","4","5","5","4","5","4","5","4","4","5","1","1","2","2","1","2","4","4","1","1","1","0","0","1","0","0","0","0","0","0","0","0","0","1","4","2","4","1","2","","2","3","2","2","2","637466695379714048","王","338","","","","","","","","","","","","","","","","","","","true","14","4","moral","796","negative","缺德","","","","","","","","","","","","","","","","",""
"null","","null","html-keyboard-response","160","298360","0.0-6.0-1.0-8.0-0.26","4","3","4","3","4","3","3","4","4","4","4","5","5","4","5","4","5","4","4","5","1","1","2","2","1","2","4","4","1","1","1","0","0","1","0","0","0","0","0","0","0","0","0","1","4","2","4","1","2","","2","3","2","2","2","637466695379714048","王","338","","","","","","","","","","","","","","","","","","","","","","","","","","","","","","","","","","","","","","","","","",""
"681","<p style=""color:rgb(150, 250, 100); font-size: 35px;"">我</p>","e","categorize-html","161","299044","0.0-6.0-1.0-8.0-1.26","4","3","4","3","4","3","3","4","4","4","4","5","5","4","5","4","5","4","4","5","1","1","2","2","1","2","4","4","1","1","1","0","0","1","0","0","0","0","0","0","0","0","0","1","4","2","4","1","2","","2","3","2","2","2","637466695379714048","王","338","","","","","","","","","","","","","","","","","","","true","14","4","moral","681","self","我","","","","","","","","","","","","","","","","",""
"null","","null","html-keyboard-response","162","299296","0.0-6.0-1.0-8.0-0.27","4","3","4","3","4","3","3","4","4","4","4","5","5","4","5","4","5","4","4","5","1","1","2","2","1","2","4","4","1","1","1","0","0","1","0","0","0","0","0","0","0","0","0","1","4","2","4","1","2","","2","3","2","2","2","637466695379714048","王","338","","","","","","","","","","","","","","","","","","","","","","","","","","","","","","","","","","","","","","","","","",""
"1020","<p style=""color:white; font-size: 35px;"">正直</p>","i","categorize-html","163","300319","0.0-6.0-1.0-8.0-1.27","4","3","4","3","4","3","3","4","4","4","4","5","5","4","5","4","5","4","4","5","1","1","2","2","1","2","4","4","1","1","1","0","0","1","0","0","0","0","0","0","0","0","0","1","4","2","4","1","2","","2","3","2","2","2","637466695379714048","王","338","","","","","","","","","","","","","","","","","","","true","14","4","moral","1020","positive","正直","","","","","","","","","","","","","","","","",""
"null","","null","html-keyboard-response","164","300571","0.0-6.0-1.0-8.0-0.28","4","3","4","3","4","3","3","4","4","4","4","5","5","4","5","4","5","4","4","5","1","1","2","2","1","2","4","4","1","1","1","0","0","1","0","0","0","0","0","0","0","0","0","1","4","2","4","1","2","","2","3","2","2","2","637466695379714048","王","338","","","","","","","","","","","","","","","","","","","","","","","","","","","","","","","","","","","","","","","","","",""
"1026","<p style=""color:rgb(150, 250, 100); font-size: 35px;"">他人的</p>","i","categorize-html","165","301601","0.0-6.0-1.0-8.0-1.28","4","3","4","3","4","3","3","4","4","4","4","5","5","4","5","4","5","4","4","5","1","1","2","2","1","2","4","4","1","1","1","0","0","1","0","0","0","0","0","0","0","0","0","1","4","2","4","1","2","","2","3","2","2","2","637466695379714048","王","338","","","","","","","","","","","","","","","","","","","true","14","4","moral","1026","other","他人的","","","","","","","","","","","","","","","","",""
"null","","null","html-keyboard-response","166","301852","0.0-6.0-1.0-8.0-0.29","4","3","4","3","4","3","3","4","4","4","4","5","5","4","5","4","5","4","4","5","1","1","2","2","1","2","4","4","1","1","1","0","0","1","0","0","0","0","0","0","0","0","0","1","4","2","4","1","2","","2","3","2","2","2","637466695379714048","王","338","","","","","","","","","","","","","","","","","","","","","","","","","","","","","","","","","","","","","","","","","",""
"683","<p style=""color:white; font-size: 35px;"">不孝</p>","e","categorize-html","167","302538","0.0-6.0-1.0-8.0-1.29","4","3","4","3","4","3","3","4","4","4","4","5","5","4","5","4","5","4","4","5","1","1","2","2","1","2","4","4","1","1","1","0","0","1","0","0","0","0","0","0","0","0","0","1","4","2","4","1","2","","2","3","2","2","2","637466695379714048","王","338","","","","","","","","","","","","","","","","","","","true","14","4","moral","683","negative","不孝","","","","","","","","","","","","","","","","",""
"null","","null","html-keyboard-response","168","302790","0.0-6.0-1.0-8.0-0.30","4","3","4","3","4","3","3","4","4","4","4","5","5","4","5","4","5","4","4","5","1","1","2","2","1","2","4","4","1","1","1","0","0","1","0","0","0","0","0","0","0","0","0","1","4","2","4","1","2","","2","3","2","2","2","637466695379714048","王","338","","","","","","","","","","","","","","","","","","","","","","","","","","","","","","","","","","","","","","","","","",""
"776","<p style=""color:rgb(150, 250, 100); font-size: 35px;"">我的</p>","e","categorize-html","169","303570","0.0-6.0-1.0-8.0-1.30","4","3","4","3","4","3","3","4","4","4","4","5","5","4","5","4","5","4","4","5","1","1","2","2","1","2","4","4","1","1","1","0","0","1","0","0","0","0","0","0","0","0","0","1","4","2","4","1","2","","2","3","2","2","2","637466695379714048","王","338","","","","","","","","","","","","","","","","","","","true","14","4","moral","776","self","我的","","","","","","","","","","","","","","","","",""
"null","","null","html-keyboard-response","170","303821","0.0-6.0-1.0-8.0-0.31","4","3","4","3","4","3","3","4","4","4","4","5","5","4","5","4","5","4","4","5","1","1","2","2","1","2","4","4","1","1","1","0","0","1","0","0","0","0","0","0","0","0","0","1","4","2","4","1","2","","2","3","2","2","2","637466695379714048","王","338","","","","","","","","","","","","","","","","","","","","","","","","","","","","","","","","","","","","","","","","","",""
"808","<p style=""color:white; font-size: 35px;"">君子</p>","i","categorize-html","171","304633","0.0-6.0-1.0-8.0-1.31","4","3","4","3","4","3","3","4","4","4","4","5","5","4","5","4","5","4","4","5","1","1","2","2","1","2","4","4","1","1","1","0","0","1","0","0","0","0","0","0","0","0","0","1","4","2","4","1","2","","2","3","2","2","2","637466695379714048","王","338","","","","","","","","","","","","","","","","","","","true","14","4","moral","808","positive","君子","","","","","","","","","","","","","","","","",""
"null","","null","html-keyboard-response","172","304884","0.0-6.0-1.0-8.0-0.32","4","3","4","3","4","3","3","4","4","4","4","5","5","4","5","4","5","4","4","5","1","1","2","2","1","2","4","4","1","1","1","0","0","1","0","0","0","0","0","0","0","0","0","1","4","2","4","1","2","","2","3","2","2","2","637466695379714048","王","338","","","","","","","","","","","","","","","","","","","","","","","","","","","","","","","","","","","","","","","","","",""
"2363","<p style=""color:rgb(150, 250, 100); font-size: 35px;"">他人</p>","i","categorize-html","173","307251","0.0-6.0-1.0-8.0-1.32","4","3","4","3","4","3","3","4","4","4","4","5","5","4","5","4","5","4","4","5","1","1","2","2","1","2","4","4","1","1","1","0","0","1","0","0","0","0","0","0","0","0","0","1","4","2","4","1","2","","2","3","2","2","2","637466695379714048","王","338","","","","","","","","","","","","","","","","","","","true","14","4","moral","2363","other","他人","","","","","","","","","","","","","","","","",""
"null","","null","html-keyboard-response","174","307502","0.0-6.0-1.0-8.0-0.33","4","3","4","3","4","3","3","4","4","4","4","5","5","4","5","4","5","4","4","5","1","1","2","2","1","2","4","4","1","1","1","0","0","1","0","0","0","0","0","0","0","0","0","1","4","2","4","1","2","","2","3","2","2","2","637466695379714048","王","338","","","","","","","","","","","","","","","","","","","","","","","","","","","","","","","","","","","","","","","","","",""
"1349","<p style=""color:white; font-size: 35px;"">诚信</p>","i","categorize-html","175","308854","0.0-6.0-1.0-8.0-1.33","4","3","4","3","4","3","3","4","4","4","4","5","5","4","5","4","5","4","4","5","1","1","2","2","1","2","4","4","1","1","1","0","0","1","0","0","0","0","0","0","0","0","0","1","4","2","4","1","2","","2","3","2","2","2","637466695379714048","王","338","","","","","","","","","","","","","","","","","","","true","14","4","moral","1349","positive","诚信","","","","","","","","","","","","","","","","",""
"null","","null","html-keyboard-response","176","309105","0.0-6.0-1.0-8.0-0.34","4","3","4","3","4","3","3","4","4","4","4","5","5","4","5","4","5","4","4","5","1","1","2","2","1","2","4","4","1","1","1","0","0","1","0","0","0","0","0","0","0","0","0","1","4","2","4","1","2","","2","3","2","2","2","637466695379714048","王","338","","","","","","","","","","","","","","","","","","","","","","","","","","","","","","","","","","","","","","","","","",""
"763","<p style=""color:rgb(150, 250, 100); font-size: 35px;"">自己的</p>","e","categorize-html","177","309872","0.0-6.0-1.0-8.0-1.34","4","3","4","3","4","3","3","4","4","4","4","5","5","4","5","4","5","4","4","5","1","1","2","2","1","2","4","4","1","1","1","0","0","1","0","0","0","0","0","0","0","0","0","1","4","2","4","1","2","","2","3","2","2","2","637466695379714048","王","338","","","","","","","","","","","","","","","","","","","true","14","4","moral","763","self","自己的","","","","","","","","","","","","","","","","",""
"null","","null","html-keyboard-response","178","310123","0.0-6.0-1.0-8.0-0.35","4","3","4","3","4","3","3","4","4","4","4","5","5","4","5","4","5","4","4","5","1","1","2","2","1","2","4","4","1","1","1","0","0","1","0","0","0","0","0","0","0","0","0","1","4","2","4","1","2","","2","3","2","2","2","637466695379714048","王","338","","","","","","","","","","","","","","","","","","","","","","","","","","","","","","","","","","","","","","","","","",""
"816","<p style=""color:white; font-size: 35px;"">小人</p>","e","categorize-html","179","310944","0.0-6.0-1.0-8.0-1.35","4","3","4","3","4","3","3","4","4","4","4","5","5","4","5","4","5","4","4","5","1","1","2","2","1","2","4","4","1","1","1","0","0","1","0","0","0","0","0","0","0","0","0","1","4","2","4","1","2","","2","3","2","2","2","637466695379714048","王","338","","","","","","","","","","","","","","","","","","","true","14","4","moral","816","negative","小人","","","","","","","","","","","","","","","","",""
"null","","null","html-keyboard-response","180","311195","0.0-6.0-1.0-8.0-0.36","4","3","4","3","4","3","3","4","4","4","4","5","5","4","5","4","5","4","4","5","1","1","2","2","1","2","4","4","1","1","1","0","0","1","0","0","0","0","0","0","0","0","0","1","4","2","4","1","2","","2","3","2","2","2","637466695379714048","王","338","","","","","","","","","","","","","","","","","","","","","","","","","","","","","","","","","","","","","","","","","",""
"1326","<p style=""color:rgb(150, 250, 100); font-size: 35px;"">别人</p>","i","categorize-html","181","312525","0.0-6.0-1.0-8.0-1.36","4","3","4","3","4","3","3","4","4","4","4","5","5","4","5","4","5","4","4","5","1","1","2","2","1","2","4","4","1","1","1","0","0","1","0","0","0","0","0","0","0","0","0","1","4","2","4","1","2","","2","3","2","2","2","637466695379714048","王","338","","","","","","","","","","","","","","","","","","","true","14","4","moral","1326","other","别人","","","","","","","","","","","","","","","","",""
"null","","null","html-keyboard-response","182","312776","0.0-6.0-1.0-8.0-0.37","4","3","4","3","4","3","3","4","4","4","4","5","5","4","5","4","5","4","4","5","1","1","2","2","1","2","4","4","1","1","1","0","0","1","0","0","0","0","0","0","0","0","0","1","4","2","4","1","2","","2","3","2","2","2","637466695379714048","王","338","","","","","","","","","","","","","","","","","","","","","","","","","","","","","","","","","","","","","","","","","",""
"870","<p style=""color:white; font-size: 35px;"">卑鄙</p>","e","categorize-html","183","313650","0.0-6.0-1.0-8.0-1.37","4","3","4","3","4","3","3","4","4","4","4","5","5","4","5","4","5","4","4","5","1","1","2","2","1","2","4","4","1","1","1","0","0","1","0","0","0","0","0","0","0","0","0","1","4","2","4","1","2","","2","3","2","2","2","637466695379714048","王","338","","","","","","","","","","","","","","","","","","","true","14","4","moral","870","negative","卑鄙","","","","","","","","","","","","","","","","",""
"null","","null","html-keyboard-response","184","313901","0.0-6.0-1.0-8.0-0.38","4","3","4","3","4","3","3","4","4","4","4","5","5","4","5","4","5","4","4","5","1","1","2","2","1","2","4","4","1","1","1","0","0","1","0","0","0","0","0","0","0","0","0","1","4","2","4","1","2","","2","3","2","2","2","637466695379714048","王","338","","","","","","","","","","","","","","","","","","","","","","","","","","","","","","","","","","","","","","","","","",""
"750","<p style=""color:rgb(150, 250, 100); font-size: 35px;"">自己的</p>","e","categorize-html","185","314655","0.0-6.0-1.0-8.0-1.38","4","3","4","3","4","3","3","4","4","4","4","5","5","4","5","4","5","4","4","5","1","1","2","2","1","2","4","4","1","1","1","0","0","1","0","0","0","0","0","0","0","0","0","1","4","2","4","1","2","","2","3","2","2","2","637466695379714048","王","338","","","","","","","","","","","","","","","","","","","true","14","4","moral","750","self","自己的","","","","","","","","","","","","","","","","",""
"null","","null","html-keyboard-response","186","314906","0.0-6.0-1.0-8.0-0.39","4","3","4","3","4","3","3","4","4","4","4","5","5","4","5","4","5","4","4","5","1","1","2","2","1","2","4","4","1","1","1","0","0","1","0","0","0","0","0","0","0","0","0","1","4","2","4","1","2","","2","3","2","2","2","637466695379714048","王","338","","","","","","","","","","","","","","","","","","","","","","","","","","","","","","","","","","","","","","","","","",""
"629","<p style=""color:white; font-size: 35px;"">廉正</p>","i","categorize-html","187","315539","0.0-6.0-1.0-8.0-1.39","4","3","4","3","4","3","3","4","4","4","4","5","5","4","5","4","5","4","4","5","1","1","2","2","1","2","4","4","1","1","1","0","0","1","0","0","0","0","0","0","0","0","0","1","4","2","4","1","2","","2","3","2","2","2","637466695379714048","王","338","","","","","","","","","","","","","","","","","","","true","14","4","moral","629","positive","廉正","","","","","","","","","","","","","","","","",""
"null","","null","html-keyboard-response","188","315790","0.0-6.0-1.0-8.0-0.40","4","3","4","3","4","3","3","4","4","4","4","5","5","4","5","4","5","4","4","5","1","1","2","2","1","2","4","4","1","1","1","0","0","1","0","0","0","0","0","0","0","0","0","1","4","2","4","1","2","","2","3","2","2","2","637466695379714048","王","338","","","","","","","","","","","","","","","","","","","","","","","","","","","","","","","","","","","","","","","","","",""
"592","<p style=""color:rgb(150, 250, 100); font-size: 35px;"">我</p>","e","categorize-html","189","316386","0.0-6.0-1.0-8.0-1.40","4","3","4","3","4","3","3","4","4","4","4","5","5","4","5","4","5","4","4","5","1","1","2","2","1","2","4","4","1","1","1","0","0","1","0","0","0","0","0","0","0","0","0","1","4","2","4","1","2","","2","3","2","2","2","637466695379714048","王","338","","","","","","","","","","","","","","","","","","","true","14","4","moral","592","self","我","","","","","","","","","","","","","","","","",""
"null","","null","html-keyboard-response","190","316637","0.0-6.0-1.0-8.0-0.41","4","3","4","3","4","3","3","4","4","4","4","5","5","4","5","4","5","4","4","5","1","1","2","2","1","2","4","4","1","1","1","0","0","1","0","0","0","0","0","0","0","0","0","1","4","2","4","1","2","","2","3","2","2","2","637466695379714048","王","338","","","","","","","","","","","","","","","","","","","","","","","","","","","","","","","","","","","","","","","","","",""
"2308","<p style=""color:white; font-size: 35px;"">君子</p>","i","categorize-html","191","318948","0.0-6.0-1.0-8.0-1.41","4","3","4","3","4","3","3","4","4","4","4","5","5","4","5","4","5","4","4","5","1","1","2","2","1","2","4","4","1","1","1","0","0","1","0","0","0","0","0","0","0","0","0","1","4","2","4","1","2","","2","3","2","2","2","637466695379714048","王","338","","","","","","","","","","","","","","","","","","","true","14","4","moral","2308","positive","君子","","","","","","","","","","","","","","","","",""
"null","","null","html-keyboard-response","192","319199","0.0-6.0-1.0-8.0-0.42","4","3","4","3","4","3","3","4","4","4","4","5","5","4","5","4","5","4","4","5","1","1","2","2","1","2","4","4","1","1","1","0","0","1","0","0","0","0","0","0","0","0","0","1","4","2","4","1","2","","2","3","2","2","2","637466695379714048","王","338","","","","","","","","","","","","","","","","","","","","","","","","","","","","","","","","","","","","","","","","","",""
"1873","<p style=""color:rgb(150, 250, 100); font-size: 35px;"">他人</p>","i","categorize-html","193","321075","0.0-6.0-1.0-8.0-1.42","4","3","4","3","4","3","3","4","4","4","4","5","5","4","5","4","5","4","4","5","1","1","2","2","1","2","4","4","1","1","1","0","0","1","0","0","0","0","0","0","0","0","0","1","4","2","4","1","2","","2","3","2","2","2","637466695379714048","王","338","","","","","","","","","","","","","","","","","","","true","14","4","moral","1873","other","他人","","","","","","","","","","","","","","","","",""
