"rt","stimulus","response","trial_type","trial_index","time_elapsed","internal_node_id","ses_1","ses_2","ses_3","ses_4","ses_5","ses_6","ses_7","ses_8","ses_9","ses_10","coreself_1","coreself_2","coreself_3","coreself_4","coreself_5","coreself_6","coreself_7","coreself_8","coreself_9","coreself_10","SGPS_1","SGPS_2","SGPS_3","SGPS_4","SGPS_5","SGPS_6","SGPS_7","SGPS_8","SGPS_9","NPI1","NPI2","NPI3","NPI4","NPI5","NPI6","NPI7","NPI8","NPI9","NPI10","NPI11","NPI12","NPI13","NPI14","NPI15","hsns_1","hsns_2","hsns_3","hsns_4","hsns_5","trap1","hsns_6","hsns_7","hsns_8","hsns_9","hsns_10","subj_idx","friend_name","ParticipantID","value","success","user_agent","responses","item_order","radio_event_ids","radio_event_times","key_event_times","mouse_event_times","straightlining","zigzagging","honeypot","timeout","failed_images","failed_audio","failed_video","view_history","response_type","key_press","avg_frame_time","center_x","center_y","correct_response","correct","identity","Image","word","condition","task_id","screen_id","time_stamp","version_attrib2","version_target2","IAT","RT","varname","summary","version_attrib","version_target","question_order","correct_answer","trap1_item"
"1695","
   <p><div style = ""color: white;font-size:25px;"">您好，欢迎参加本次实验。</div> </p>
   <p><div style = ""color: white;font-size:25px;"">为充分保障您的权利，请确保您已经知晓并同意《参与实验同意书》以及《数据公开知情同意书》。</div></p>
   <p><div style = ""color: white;font-size:25px;"">如果您未见过上述内容，请咨询实验员。</div></p>
   <p><div style = ""color: white;font-size:25px;"">如果您选择继续实验，则表示您已经清楚两份知情同意书的内容并同意。</div></p>
   <p><div style = ""color: pink;font-size:30px;"">请确保您记得day0的实验编号，您将在本次实验输入该编号，若您忘记，请咨询实验员后作答。</div></p>
   <p><div style = ""color: lightblue;font-size:25px;"">请您尽可能认真地作答，我们将依据您在各问卷和按键任务中的作答质量发放报酬。</div></p>
   <p> <div style = ""color: green;font-size:25px;""><按空格键至下页></div> </p>
   "," ","html-keyboard-response","0","1699","0.0-0.0","4","3","4","3","4","4","4","4","4","4","4","4","5","3","3","5","3","3","5","2","3","4","1","1","2","2","1","2","4","1","0","1","1","0","0","0","1","0","1","1","0","1","0","1","5","2","3","4","1","5","3","3","2","1","2","784086466967113730","管","388","","","","","","","","","","","","","","","","","","","","","","","","","","","","","","","","","","","","","","","","","",""
"","","","call-function","1","1700","0.0-1.0-0.0","4","3","4","3","4","4","4","4","4","4","4","4","5","3","3","5","3","3","5","2","3","4","1","1","2","2","1","2","4","1","0","1","1","0","0","0","1","0","1","1","0","1","0","1","5","2","3","4","1","5","3","3","2","1","2","784086466967113730","管","388","","","","","","","","","","","","","","","","","","","","","","","","","","","","","","","","","","","","","","","","","",""
"31820","","{""friend_name"":""管"",""ParticipantID"":""388""}","survey-html-form","2","33520","0.0-1.0-1.0","4","3","4","3","4","4","4","4","4","4","4","4","5","3","3","5","3","3","5","2","3","4","1","1","2","2","1","2","4","1","0","1","1","0","0","0","1","0","1","1","0","1","0","1","5","2","3","4","1","5","3","3","2","1","2","784086466967113730","管","388","","","","","","","","","","","","","","","","","","","","","","","","","","","","","","","","","","","","","","","","","",""
"","","","fullscreen","3","111785","0.0-2.0","4","3","4","3","4","4","4","4","4","4","4","4","5","3","3","5","3","3","5","2","3","4","1","1","2","2","1","2","4","1","0","1","1","0","0","0","1","0","1","1","0","1","0","1","5","2","3","4","1","5","3","3","2","1","2","784086466967113730","管","388","","true","{}","","","","","","","","","","","","","","","","","","","","","","","","","","","","","","","","","","","","","","",""
"20466.900000000373","","{""Q01"":""4"",""Q02"":""3"",""Q03"":""4"",""Q04"":""3"",""Q05"":""4"",""Q06"":""4"",""Q07"":""4"",""Q08"":""4"",""Q09"":""4"",""Q10"":""4""}","survey-template","4","132257","0.0-3.0","4","3","4","3","4","4","4","4","4","4","4","4","5","3","3","5","3","3","5","2","3","4","1","1","2","2","1","2","4","1","0","1","1","0","0","0","1","0","1","1","0","1","0","1","5","2","3","4","1","5","3","3","2","1","2","784086466967113730","管","388","","","","{""Q01"":""4"",""Q02"":""3"",""Q03"":""4"",""Q04"":""3"",""Q05"":""4"",""Q06"":""4"",""Q07"":""4"",""Q08"":""4"",""Q09"":""4"",""Q10"":""4""}","[0,1,2,3,4,5,6,7,8,9]","[""Q01"",""Q01"",""Q02"",""Q03"",""Q04"",""Q05"",""Q06"",""Q07"",""Q08"",""Q09"",""Q10""]","[5905.9000000003725,7257.799999998882,7953.699999999255,9425.799999998882,11673.699999999255,12881.599999999627,14313.699999999255,15137.699999999255,16801.699999999255,17841.699999999255,19281.699999999255]","[]","[5905.9000000003725,7257.799999998882,7953.699999999255,9425.799999998882,11673.699999999255,12881.599999999627,14313.699999999255,15137.699999999255,16801.699999999255,17841.699999999255,19281.699999999255,20465.599999999627]","0.5","0.3333333333333333","0","","","","","","","","","","","","","","","","","","","","","","","","","","","","","",""
"19409.800000000745","","{""Q01"":""4"",""Q02"":""4"",""Q03"":""5"",""Q04"":""3"",""Q05"":""3"",""Q06"":""5"",""Q07"":""3"",""Q08"":""3"",""Q09"":""5"",""Q10"":""2""}","survey-template","5","151672","0.0-4.0","4","3","4","3","4","4","4","4","4","4","4","4","5","3","3","5","3","3","5","2","3","4","1","1","2","2","1","2","4","1","0","1","1","0","0","0","1","0","1","1","0","1","0","1","5","2","3","4","1","5","3","3","2","1","2","784086466967113730","管","388","","","","{""Q01"":""4"",""Q02"":""4"",""Q03"":""5"",""Q04"":""3"",""Q05"":""3"",""Q06"":""5"",""Q07"":""3"",""Q08"":""3"",""Q09"":""5"",""Q10"":""2""}","[0,1,2,3,4,5,6,7,8,9]","[""Q01"",""Q02"",""Q03"",""Q04"",""Q05"",""Q06"",""Q07"",""Q08"",""Q09"",""Q10"",""Q10"",""Q10""]","[4864,5816.4000000003725,7272.60000000149,8944.5,9792.5,11456.400000000373,12624.5,14680.10000000149,15928.5,17224.400000000373,17928,18712.400000000373]","[]","[4864,5816.4000000003725,7272.60000000149,8944.5,9792.5,11456.400000000373,12624.5,14680.10000000149,15928.5,17224.400000000373,17928,18712.400000000373,19408.5]","0.4","0.2222222222222222","0","","","","","","","","","","","","","","","","","","","","","","","","","","","","","",""
"","","","preload","6","152080","0.0-5.0","4","3","4","3","4","4","4","4","4","4","4","4","5","3","3","5","3","3","5","2","3","4","1","1","2","2","1","2","4","1","0","1","1","0","0","0","1","0","1","1","0","1","0","1","5","2","3","4","1","5","3","3","2","1","2","784086466967113730","管","388","","true","","","","","","","","","","","false","[]","[]","[]","","","","","","","","","","","","","","","","","","","","","","","","","",""
"39966","","","instructions","7","192045","0.0-6.0","4","3","4","3","4","4","4","4","4","4","4","4","5","3","3","5","3","3","5","2","3","4","1","1","2","2","1","2","4","1","0","1","1","0","0","0","1","0","1","1","0","1","0","1","5","2","3","4","1","5","3","3","2","1","2","784086466967113730","管","388","","","","","","","","","","","","","","","","","[{""page_index"":0,""viewing_time"":39966}]","","","","","","","","","","","","","","","","","","","","","","","","",""
"29070","","","instructions","8","221117","0.0-7.0-0.0-0.0","4","3","4","3","4","4","4","4","4","4","4","4","5","3","3","5","3","3","5","2","3","4","1","1","2","2","1","2","4","1","0","1","1","0","0","0","1","0","1","1","0","1","0","1","5","2","3","4","1","5","3","3","2","1","2","784086466967113730","管","388","","","","","","","","","","","","","","","","","[{""page_index"":0,""viewing_time"":14662},{""page_index"":1,""viewing_time"":12816},{""page_index"":2,""viewing_time"":1592}]","","","","","","","","","","","","","","","","","","","","","","","","",""
"null","","null","psychophysics","9","223325","0.0-7.0-0.0-1.0-0.0-0.0","4","3","4","3","4","4","4","4","4","4","4","4","5","3","3","5","3","3","5","2","3","4","1","1","2","2","1","2","4","1","0","1","1","0","0","0","1","0","1","1","0","1","0","1","5","2","3","4","1","5","3","3","2","1","2","784086466967113730","管","388","","","","null","","","","","","","","","","","","","","key","null","16.65496183206098","774.8571180181065","431.99998615168766","j","false","nonmatch","img/trapezoid.png","椭圆","梯形","ALT1_1","prac_ALT1_1","","","","","","","","","","","",""
"null","<span class='add_' style='color:yellow; font-size: 70px;'> 太慢! </span>","null","html-keyboard-response","10","223831","0.0-7.0-0.0-1.0-0.0-1.0","4","3","4","3","4","4","4","4","4","4","4","4","5","3","3","5","3","3","5","2","3","4","1","1","2","2","1","2","4","1","0","1","1","0","0","0","1","0","1","1","0","1","0","1","5","2","3","4","1","5","3","3","2","1","2","784086466967113730","管","388","","","","","","","","","","","","","","","","","","","","","","","","","","","","","","feedback_test","","","","","","","","","","","",""
"632","","f","psychophysics","11","225471","0.0-7.0-0.0-1.0-0.0-0.1","4","3","4","3","4","4","4","4","4","4","4","4","5","3","3","5","3","3","5","2","3","4","1","1","2","2","1","2","4","1","0","1","1","0","0","0","1","0","1","1","0","1","0","1","5","2","3","4","1","5","3","3","2","1","2","784086466967113730","管","388","","","","match","","","","","","","","","","","","","","key","f","16.656701030927955","774.8571180181065","431.99998615168766","f","true","match","img/pentagon.png","五边","五边","ALT1_1","prac_ALT1_1","","","","","","","","","","","",""
"null","<span style='color:GreenYellow; font-size: 70px;'>正确! </span>","null","html-keyboard-response","12","225972","0.0-7.0-0.0-1.0-0.0-1.1","4","3","4","3","4","4","4","4","4","4","4","4","5","3","3","5","3","3","5","2","3","4","1","1","2","2","1","2","4","1","0","1","1","0","0","0","1","0","1","1","0","1","0","1","5","2","3","4","1","5","3","3","2","1","2","784086466967113730","管","388","","","","","","","","","","","","","","","","","","","","","","","","","","","","","","feedback_test","","","","","","","","","","","",""
"640","","f","psychophysics","13","227614","0.0-7.0-0.0-1.0-0.0-0.2","4","3","4","3","4","4","4","4","4","4","4","4","5","3","3","5","3","3","5","2","3","4","1","1","2","2","1","2","4","1","0","1","1","0","0","0","1","0","1","1","0","1","0","1","5","2","3","4","1","5","3","3","2","1","2","784086466967113730","管","388","","","","match","","","","","","","","","","","","","","key","f","16.65000000000012","774.8571180181065","431.99998615168766","f","true","match","img/pentagon.png","五边","五边","ALT1_1","prac_ALT1_1","","","","","","","","","","","",""
"null","<span style='color:GreenYellow; font-size: 70px;'>正确! </span>","null","html-keyboard-response","14","228117","0.0-7.0-0.0-1.0-0.0-1.2","4","3","4","3","4","4","4","4","4","4","4","4","5","3","3","5","3","3","5","2","3","4","1","1","2","2","1","2","4","1","0","1","1","0","0","0","1","0","1","1","0","1","0","1","5","2","3","4","1","5","3","3","2","1","2","784086466967113730","管","388","","","","","","","","","","","","","","","","","","","","","","","","","","","","","","feedback_test","","","","","","","","","","","",""
"571","","j","psychophysics","15","229696","0.0-7.0-0.0-1.0-0.0-0.3","4","3","4","3","4","4","4","4","4","4","4","4","5","3","3","5","3","3","5","2","3","4","1","1","2","2","1","2","4","1","0","1","1","0","0","0","1","0","1","1","0","1","0","1","5","2","3","4","1","5","3","3","2","1","2","784086466967113730","管","388","","","","nonmatch","","","","","","","","","","","","","","key","j","16.655319148936233","774.8571180181065","431.99998615168766","j","true","nonmatch","img/pentagon.png","椭圆","五边","ALT1_1","prac_ALT1_1","","","","","","","","","","","",""
"null","<span style='color:GreenYellow; font-size: 70px;'>正确! </span>","null","html-keyboard-response","16","230204","0.0-7.0-0.0-1.0-0.0-1.3","4","3","4","3","4","4","4","4","4","4","4","4","5","3","3","5","3","3","5","2","3","4","1","1","2","2","1","2","4","1","0","1","1","0","0","0","1","0","1","1","0","1","0","1","5","2","3","4","1","5","3","3","2","1","2","784086466967113730","管","388","","","","","","","","","","","","","","","","","","","","","","","","","","","","","","feedback_test","","","","","","","","","","","",""
"535","","f","psychophysics","17","231741","0.0-7.0-0.0-1.0-0.0-0.4","4","3","4","3","4","4","4","4","4","4","4","4","5","3","3","5","3","3","5","2","3","4","1","1","2","2","1","2","4","1","0","1","1","0","0","0","1","0","1","1","0","1","0","1","5","2","3","4","1","5","3","3","2","1","2","784086466967113730","管","388","","","","match","","","","","","","","","","","","","","key","f","16.656043956044083","774.8571180181065","431.99998615168766","f","true","match","img/pentagon.png","五边","五边","ALT1_1","prac_ALT1_1","","","","","","","","","","","",""
"null","<span style='color:GreenYellow; font-size: 70px;'>正确! </span>","null","html-keyboard-response","18","232249","0.0-7.0-0.0-1.0-0.0-1.4","4","3","4","3","4","4","4","4","4","4","4","4","5","3","3","5","3","3","5","2","3","4","1","1","2","2","1","2","4","1","0","1","1","0","0","0","1","0","1","1","0","1","0","1","5","2","3","4","1","5","3","3","2","1","2","784086466967113730","管","388","","","","","","","","","","","","","","","","","","","","","","","","","","","","","","feedback_test","","","","","","","","","","","",""
"679","","j","psychophysics","19","233936","0.0-7.0-0.0-1.0-0.0-0.5","4","3","4","3","4","4","4","4","4","4","4","4","5","3","3","5","3","3","5","2","3","4","1","1","2","2","1","2","4","1","0","1","1","0","0","0","1","0","1","1","0","1","0","1","5","2","3","4","1","5","3","3","2","1","2","784086466967113730","管","388","","","","nonmatch","","","","","","","","","","","","","","key","j","16.652000000000115","774.8571180181065","431.99998615168766","j","true","nonmatch","img/ellipse.png","五边","椭圆","ALT1_1","prac_ALT1_1","","","","","","","","","","","",""
"null","<span style='color:GreenYellow; font-size: 70px;'>正确! </span>","null","html-keyboard-response","20","234442","0.0-7.0-0.0-1.0-0.0-1.5","4","3","4","3","4","4","4","4","4","4","4","4","5","3","3","5","3","3","5","2","3","4","1","1","2","2","1","2","4","1","0","1","1","0","0","0","1","0","1","1","0","1","0","1","5","2","3","4","1","5","3","3","2","1","2","784086466967113730","管","388","","","","","","","","","","","","","","","","","","","","","","","","","","","","","","feedback_test","","","","","","","","","","","",""
"561","","f","psychophysics","21","236006","0.0-7.0-0.0-1.0-0.0-0.6","4","3","4","3","4","4","4","4","4","4","4","4","5","3","3","5","3","3","5","2","3","4","1","1","2","2","1","2","4","1","0","1","1","0","0","0","1","0","1","1","0","1","0","1","5","2","3","4","1","5","3","3","2","1","2","784086466967113730","管","388","","","","match","","","","","","","","","","","","","","key","f","16.65698924731189","774.8571180181065","431.99998615168766","f","true","match","img/diamond.png","菱形","菱形","ALT1_1","prac_ALT1_1","","","","","","","","","","","",""
"null","<span style='color:GreenYellow; font-size: 70px;'>正确! </span>","null","html-keyboard-response","22","236512","0.0-7.0-0.0-1.0-0.0-1.6","4","3","4","3","4","4","4","4","4","4","4","4","5","3","3","5","3","3","5","2","3","4","1","1","2","2","1","2","4","1","0","1","1","0","0","0","1","0","1","1","0","1","0","1","5","2","3","4","1","5","3","3","2","1","2","784086466967113730","管","388","","","","","","","","","","","","","","","","","","","","","","","","","","","","","","feedback_test","","","","","","","","","","","",""
"576","","j","psychophysics","23","238097","0.0-7.0-0.0-1.0-0.0-0.7","4","3","4","3","4","4","4","4","4","4","4","4","5","3","3","5","3","3","5","2","3","4","1","1","2","2","1","2","4","1","0","1","1","0","0","0","1","0","1","1","0","1","0","1","5","2","3","4","1","5","3","3","2","1","2","784086466967113730","管","388","","","","nonmatch","","","","","","","","","","","","","","key","j","16.654255319148938","774.8571180181065","431.99998615168766","j","true","nonmatch","img/ellipse.png","梯形","椭圆","ALT1_1","prac_ALT1_1","","","","","","","","","","","",""
"null","<span style='color:GreenYellow; font-size: 70px;'>正确! </span>","null","html-keyboard-response","24","238605","0.0-7.0-0.0-1.0-0.0-1.7","4","3","4","3","4","4","4","4","4","4","4","4","5","3","3","5","3","3","5","2","3","4","1","1","2","2","1","2","4","1","0","1","1","0","0","0","1","0","1","1","0","1","0","1","5","2","3","4","1","5","3","3","2","1","2","784086466967113730","管","388","","","","","","","","","","","","","","","","","","","","","","","","","","","","","","feedback_test","","","","","","","","","","","",""
"576","","f","psychophysics","25","240190","0.0-7.0-0.0-1.0-0.0-0.8","4","3","4","3","4","4","4","4","4","4","4","4","5","3","3","5","3","3","5","2","3","4","1","1","2","2","1","2","4","1","0","1","1","0","0","0","1","0","1","1","0","1","0","1","5","2","3","4","1","5","3","3","2","1","2","784086466967113730","管","388","","","","match","","","","","","","","","","","","","","key","f","16.655319148935924","774.8571180181065","431.99998615168766","j","false","nonmatch","img/trapezoid.png","菱形","梯形","ALT1_1","prac_ALT1_1","","","","","","","","","","","",""
"null","<span style='color:red; font-size: 70px;'>错误! </span>","null","html-keyboard-response","26","240699","0.0-7.0-0.0-1.0-0.0-1.8","4","3","4","3","4","4","4","4","4","4","4","4","5","3","3","5","3","3","5","2","3","4","1","1","2","2","1","2","4","1","0","1","1","0","0","0","1","0","1","1","0","1","0","1","5","2","3","4","1","5","3","3","2","1","2","784086466967113730","管","388","","","","","","","","","","","","","","","","","","","","","","","","","","","","","","feedback_test","","","","","","","","","","","",""
"592","","f","psychophysics","27","242293","0.0-7.0-0.0-1.0-0.0-0.9","4","3","4","3","4","4","4","4","4","4","4","4","5","3","3","5","3","3","5","2","3","4","1","1","2","2","1","2","4","1","0","1","1","0","0","0","1","0","1","1","0","1","0","1","5","2","3","4","1","5","3","3","2","1","2","784086466967113730","管","388","","","","match","","","","","","","","","","","","","","key","f","16.646315789473622","774.8571180181065","431.99998615168766","f","true","match","img/diamond.png","菱形","菱形","ALT1_1","prac_ALT1_1","","","","","","","","","","","",""
"null","<span style='color:GreenYellow; font-size: 70px;'>正确! </span>","null","html-keyboard-response","28","242801","0.0-7.0-0.0-1.0-0.0-1.9","4","3","4","3","4","4","4","4","4","4","4","4","5","3","3","5","3","3","5","2","3","4","1","1","2","2","1","2","4","1","0","1","1","0","0","0","1","0","1","1","0","1","0","1","5","2","3","4","1","5","3","3","2","1","2","784086466967113730","管","388","","","","","","","","","","","","","","","","","","","","","","","","","","","","","","feedback_test","","","","","","","","","","","",""
"536","","f","psychophysics","29","244347","0.0-7.0-0.0-1.0-0.0-0.10","4","3","4","3","4","4","4","4","4","4","4","4","5","3","3","5","3","3","5","2","3","4","1","1","2","2","1","2","4","1","0","1","1","0","0","0","1","0","1","1","0","1","0","1","5","2","3","4","1","5","3","3","2","1","2","784086466967113730","管","388","","","","match","","","","","","","","","","","","","","key","f","16.65494505494512","774.8571180181065","431.99998615168766","f","true","match","img/diamond.png","菱形","菱形","ALT1_1","prac_ALT1_1","","","","","","","","","","","",""
"null","<span style='color:GreenYellow; font-size: 70px;'>正确! </span>","null","html-keyboard-response","30","244849","0.0-7.0-0.0-1.0-0.0-1.10","4","3","4","3","4","4","4","4","4","4","4","4","5","3","3","5","3","3","5","2","3","4","1","1","2","2","1","2","4","1","0","1","1","0","0","0","1","0","1","1","0","1","0","1","5","2","3","4","1","5","3","3","2","1","2","784086466967113730","管","388","","","","","","","","","","","","","","","","","","","","","","","","","","","","","","feedback_test","","","","","","","","","","","",""
"652","","f","psychophysics","31","246504","0.0-7.0-0.0-1.0-0.0-0.11","4","3","4","3","4","4","4","4","4","4","4","4","5","3","3","5","3","3","5","2","3","4","1","1","2","2","1","2","4","1","0","1","1","0","0","0","1","0","1","1","0","1","0","1","5","2","3","4","1","5","3","3","2","1","2","784086466967113730","管","388","","","","match","","","","","","","","","","","","","","key","f","16.655102040816445","774.8571180181065","431.99998615168766","f","true","match","img/trapezoid.png","梯形","梯形","ALT1_1","prac_ALT1_1","","","","","","","","","","","",""
"null","<span style='color:GreenYellow; font-size: 70px;'>正确! </span>","null","html-keyboard-response","32","247012","0.0-7.0-0.0-1.0-0.0-1.11","4","3","4","3","4","4","4","4","4","4","4","4","5","3","3","5","3","3","5","2","3","4","1","1","2","2","1","2","4","1","0","1","1","0","0","0","1","0","1","1","0","1","0","1","5","2","3","4","1","5","3","3","2","1","2","784086466967113730","管","388","","","","","","","","","","","","","","","","","","","","","","","","","","","","","","feedback_test","","","","","","","","","","","",""
"679","","j","psychophysics","33","248693","0.0-7.0-0.0-1.0-0.0-0.12","4","3","4","3","4","4","4","4","4","4","4","4","5","3","3","5","3","3","5","2","3","4","1","1","2","2","1","2","4","1","0","1","1","0","0","0","1","0","1","1","0","1","0","1","5","2","3","4","1","5","3","3","2","1","2","784086466967113730","管","388","","","","nonmatch","","","","","","","","","","","","","","key","j","16.654545454545335","774.8571180181065","431.99998615168766","j","true","nonmatch","img/pentagon.png","梯形","五边","ALT1_1","prac_ALT1_1","","","","","","","","","","","",""
"null","<span style='color:GreenYellow; font-size: 70px;'>正确! </span>","null","html-keyboard-response","34","249209","0.0-7.0-0.0-1.0-0.0-1.12","4","3","4","3","4","4","4","4","4","4","4","4","5","3","3","5","3","3","5","2","3","4","1","1","2","2","1","2","4","1","0","1","1","0","0","0","1","0","1","1","0","1","0","1","5","2","3","4","1","5","3","3","2","1","2","784086466967113730","管","388","","","","","","","","","","","","","","","","","","","","","","","","","","","","","","feedback_test","","","","","","","","","","","",""
"621","","f","psychophysics","35","250835","0.0-7.0-0.0-1.0-0.0-0.13","4","3","4","3","4","4","4","4","4","4","4","4","5","3","3","5","3","3","5","2","3","4","1","1","2","2","1","2","4","1","0","1","1","0","0","0","1","0","1","1","0","1","0","1","5","2","3","4","1","5","3","3","2","1","2","784086466967113730","管","388","","","","match","","","","","","","","","","","","","","key","f","16.595833333333456","774.8571180181065","431.99998615168766","f","true","match","img/trapezoid.png","梯形","梯形","ALT1_1","prac_ALT1_1","","","","","","","","","","","",""
"null","<span style='color:GreenYellow; font-size: 70px;'>正确! </span>","null","html-keyboard-response","36","251352","0.0-7.0-0.0-1.0-0.0-1.13","4","3","4","3","4","4","4","4","4","4","4","4","5","3","3","5","3","3","5","2","3","4","1","1","2","2","1","2","4","1","0","1","1","0","0","0","1","0","1","1","0","1","0","1","5","2","3","4","1","5","3","3","2","1","2","784086466967113730","管","388","","","","","","","","","","","","","","","","","","","","","","","","","","","","","","feedback_test","","","","","","","","","","","",""
"714","","j","psychophysics","37","253076","0.0-7.0-0.0-1.0-0.0-0.14","4","3","4","3","4","4","4","4","4","4","4","4","5","3","3","5","3","3","5","2","3","4","1","1","2","2","1","2","4","1","0","1","1","0","0","0","1","0","1","1","0","1","0","1","5","2","3","4","1","5","3","3","2","1","2","784086466967113730","管","388","","","","nonmatch","","","","","","","","","","","","","","key","j","16.652941176470645","774.8571180181065","431.99998615168766","j","true","nonmatch","img/ellipse.png","菱形","椭圆","ALT1_1","prac_ALT1_1","","","","","","","","","","","",""
"null","<span style='color:GreenYellow; font-size: 70px;'>正确! </span>","null","html-keyboard-response","38","253580","0.0-7.0-0.0-1.0-0.0-1.14","4","3","4","3","4","4","4","4","4","4","4","4","5","3","3","5","3","3","5","2","3","4","1","1","2","2","1","2","4","1","0","1","1","0","0","0","1","0","1","1","0","1","0","1","5","2","3","4","1","5","3","3","2","1","2","784086466967113730","管","388","","","","","","","","","","","","","","","","","","","","","","","","","","","","","","feedback_test","","","","","","","","","","","",""
"598","","j","psychophysics","39","255183","0.0-7.0-0.0-1.0-0.0-0.15","4","3","4","3","4","4","4","4","4","4","4","4","5","3","3","5","3","3","5","2","3","4","1","1","2","2","1","2","4","1","0","1","1","0","0","0","1","0","1","1","0","1","0","1","5","2","3","4","1","5","3","3","2","1","2","784086466967113730","管","388","","","","nonmatch","","","","","","","","","","","","","","key","j","16.654736842105386","774.8571180181065","431.99998615168766","j","true","nonmatch","img/diamond.png","五边","菱形","ALT1_1","prac_ALT1_1","","","","","","","","","","","",""
"null","<span style='color:GreenYellow; font-size: 70px;'>正确! </span>","null","html-keyboard-response","40","255691","0.0-7.0-0.0-1.0-0.0-1.15","4","3","4","3","4","4","4","4","4","4","4","4","5","3","3","5","3","3","5","2","3","4","1","1","2","2","1","2","4","1","0","1","1","0","0","0","1","0","1","1","0","1","0","1","5","2","3","4","1","5","3","3","2","1","2","784086466967113730","管","388","","","","","","","","","","","","","","","","","","","","","","","","","","","","","","feedback_test","","","","","","","","","","","",""
"585","","j","psychophysics","41","257280","0.0-7.0-0.0-1.0-0.0-0.16","4","3","4","3","4","4","4","4","4","4","4","4","5","3","3","5","3","3","5","2","3","4","1","1","2","2","1","2","4","1","0","1","1","0","0","0","1","0","1","1","0","1","0","1","5","2","3","4","1","5","3","3","2","1","2","784086466967113730","管","388","","","","nonmatch","","","","","","","","","","","","","","key","j","16.65319148936195","774.8571180181065","431.99998615168766","j","true","nonmatch","img/diamond.png","椭圆","菱形","ALT1_1","prac_ALT1_1","","","","","","","","","","","",""
"null","<span style='color:GreenYellow; font-size: 70px;'>正确! </span>","null","html-keyboard-response","42","257787","0.0-7.0-0.0-1.0-0.0-1.16","4","3","4","3","4","4","4","4","4","4","4","4","5","3","3","5","3","3","5","2","3","4","1","1","2","2","1","2","4","1","0","1","1","0","0","0","1","0","1","1","0","1","0","1","5","2","3","4","1","5","3","3","2","1","2","784086466967113730","管","388","","","","","","","","","","","","","","","","","","","","","","","","","","","","","","feedback_test","","","","","","","","","","","",""
"617","","j","psychophysics","43","259406","0.0-7.0-0.0-1.0-0.0-0.17","4","3","4","3","4","4","4","4","4","4","4","4","5","3","3","5","3","3","5","2","3","4","1","1","2","2","1","2","4","1","0","1","1","0","0","0","1","0","1","1","0","1","0","1","5","2","3","4","1","5","3","3","2","1","2","784086466967113730","管","388","","","","nonmatch","","","","","","","","","","","","","","key","j","16.648453608247664","774.8571180181065","431.99998615168766","j","true","nonmatch","img/trapezoid.png","五边","梯形","ALT1_1","prac_ALT1_1","","","","","","","","","","","",""
"null","<span style='color:GreenYellow; font-size: 70px;'>正确! </span>","null","html-keyboard-response","44","259915","0.0-7.0-0.0-1.0-0.0-1.17","4","3","4","3","4","4","4","4","4","4","4","4","5","3","3","5","3","3","5","2","3","4","1","1","2","2","1","2","4","1","0","1","1","0","0","0","1","0","1","1","0","1","0","1","5","2","3","4","1","5","3","3","2","1","2","784086466967113730","管","388","","","","","","","","","","","","","","","","","","","","","","","","","","","","","","feedback_test","","","","","","","","","","","",""
"528","","j","psychophysics","45","261446","0.0-7.0-0.0-1.0-0.0-0.18","4","3","4","3","4","4","4","4","4","4","4","4","5","3","3","5","3","3","5","2","3","4","1","1","2","2","1","2","4","1","0","1","1","0","0","0","1","0","1","1","0","1","0","1","5","2","3","4","1","5","3","3","2","1","2","784086466967113730","管","388","","","","nonmatch","","","","","","","","","","","","","","key","j","16.65714285714305","774.8571180181065","431.99998615168766","f","false","match","img/ellipse.png","椭圆","椭圆","ALT1_1","prac_ALT1_1","","","","","","","","","","","",""
"null","<span style='color:red; font-size: 70px;'>错误! </span>","null","html-keyboard-response","46","261950","0.0-7.0-0.0-1.0-0.0-1.18","4","3","4","3","4","4","4","4","4","4","4","4","5","3","3","5","3","3","5","2","3","4","1","1","2","2","1","2","4","1","0","1","1","0","0","0","1","0","1","1","0","1","0","1","5","2","3","4","1","5","3","3","2","1","2","784086466967113730","管","388","","","","","","","","","","","","","","","","","","","","","","","","","","","","","","feedback_test","","","","","","","","","","","",""
"590","","f","psychophysics","47","263542","0.0-7.0-0.0-1.0-0.0-0.19","4","3","4","3","4","4","4","4","4","4","4","4","5","3","3","5","3","3","5","2","3","4","1","1","2","2","1","2","4","1","0","1","1","0","0","0","1","0","1","1","0","1","0","1","5","2","3","4","1","5","3","3","2","1","2","784086466967113730","管","388","","","","match","","","","","","","","","","","","","","key","f","16.65052631578935","774.8571180181065","431.99998615168766","f","true","match","img/ellipse.png","椭圆","椭圆","ALT1_1","prac_ALT1_1","","","","","","","","","","","",""
"null","<span style='color:GreenYellow; font-size: 70px;'>正确! </span>","null","html-keyboard-response","48","264045","0.0-7.0-0.0-1.0-0.0-1.19","4","3","4","3","4","4","4","4","4","4","4","4","5","3","3","5","3","3","5","2","3","4","1","1","2","2","1","2","4","1","0","1","1","0","0","0","1","0","1","1","0","1","0","1","5","2","3","4","1","5","3","3","2","1","2","784086466967113730","管","388","","","","","","","","","","","","","","","","","","","","","","","","","","","","","","feedback_test","","","","","","","","","","","",""
"649","","j","psychophysics","49","265698","0.0-7.0-0.0-1.0-0.0-0.20","4","3","4","3","4","4","4","4","4","4","4","4","5","3","3","5","3","3","5","2","3","4","1","1","2","2","1","2","4","1","0","1","1","0","0","0","1","0","1","1","0","1","0","1","5","2","3","4","1","5","3","3","2","1","2","784086466967113730","管","388","","","","nonmatch","","","","","","","","","","","","","","key","j","16.656122448979474","774.8571180181065","431.99998615168766","j","true","nonmatch","img/pentagon.png","菱形","五边","ALT1_1","prac_ALT1_1","","","","","","","","","","","",""
"null","<span style='color:GreenYellow; font-size: 70px;'>正确! </span>","null","html-keyboard-response","50","266211","0.0-7.0-0.0-1.0-0.0-1.20","4","3","4","3","4","4","4","4","4","4","4","4","5","3","3","5","3","3","5","2","3","4","1","1","2","2","1","2","4","1","0","1","1","0","0","0","1","0","1","1","0","1","0","1","5","2","3","4","1","5","3","3","2","1","2","784086466967113730","管","388","","","","","","","","","","","","","","","","","","","","","","","","","","","","","","feedback_test","","","","","","","","","","","",""
"562","","f","psychophysics","51","267777","0.0-7.0-0.0-1.0-0.0-0.21","4","3","4","3","4","4","4","4","4","4","4","4","5","3","3","5","3","3","5","2","3","4","1","1","2","2","1","2","4","1","0","1","1","0","0","0","1","0","1","1","0","1","0","1","5","2","3","4","1","5","3","3","2","1","2","784086466967113730","管","388","","","","match","","","","","","","","","","","","","","key","f","16.655913978494624","774.8571180181065","431.99998615168766","f","true","match","img/ellipse.png","椭圆","椭圆","ALT1_1","prac_ALT1_1","","","","","","","","","","","",""
"null","<span style='color:GreenYellow; font-size: 70px;'>正确! </span>","null","html-keyboard-response","52","268282","0.0-7.0-0.0-1.0-0.0-1.21","4","3","4","3","4","4","4","4","4","4","4","4","5","3","3","5","3","3","5","2","3","4","1","1","2","2","1","2","4","1","0","1","1","0","0","0","1","0","1","1","0","1","0","1","5","2","3","4","1","5","3","3","2","1","2","784086466967113730","管","388","","","","","","","","","","","","","","","","","","","","","","","","","","","","","","feedback_test","","","","","","","","","","","",""
"618","","f","psychophysics","53","269909","0.0-7.0-0.0-1.0-0.0-0.22","4","3","4","3","4","4","4","4","4","4","4","4","5","3","3","5","3","3","5","2","3","4","1","1","2","2","1","2","4","1","0","1","1","0","0","0","1","0","1","1","0","1","0","1","5","2","3","4","1","5","3","3","2","1","2","784086466967113730","管","388","","","","match","","","","","","","","","","","","","","key","f","16.652083333333092","774.8571180181065","431.99998615168766","f","true","match","img/trapezoid.png","梯形","梯形","ALT1_1","prac_ALT1_1","","","","","","","","","","","",""
"null","<span style='color:GreenYellow; font-size: 70px;'>正确! </span>","null","html-keyboard-response","54","270426","0.0-7.0-0.0-1.0-0.0-1.22","4","3","4","3","4","4","4","4","4","4","4","4","5","3","3","5","3","3","5","2","3","4","1","1","2","2","1","2","4","1","0","1","1","0","0","0","1","0","1","1","0","1","0","1","5","2","3","4","1","5","3","3","2","1","2","784086466967113730","管","388","","","","","","","","","","","","","","","","","","","","","","","","","","","","","","feedback_test","","","","","","","","","","","",""
"718","","j","psychophysics","55","272146","0.0-7.0-0.0-1.0-0.0-0.23","4","3","4","3","4","4","4","4","4","4","4","4","5","3","3","5","3","3","5","2","3","4","1","1","2","2","1","2","4","1","0","1","1","0","0","0","1","0","1","1","0","1","0","1","5","2","3","4","1","5","3","3","2","1","2","784086466967113730","管","388","","","","nonmatch","","","","","","","","","","","","","","key","j","16.650485436893202","774.8571180181065","431.99998615168766","j","true","nonmatch","img/diamond.png","梯形","菱形","ALT1_1","prac_ALT1_1","","","","","","","","","","","",""
"null","<span style='color:GreenYellow; font-size: 70px;'>正确! </span>","null","html-keyboard-response","56","272660","0.0-7.0-0.0-1.0-0.0-1.23","4","3","4","3","4","4","4","4","4","4","4","4","5","3","3","5","3","3","5","2","3","4","1","1","2","2","1","2","4","1","0","1","1","0","0","0","1","0","1","1","0","1","0","1","5","2","3","4","1","5","3","3","2","1","2","784086466967113730","管","388","","","","","","","","","","","","","","","","","","","","","","","","","","","","","","feedback_test","","","","","","","","","","","",""
"637","","j","psychophysics","57","274305","0.0-7.0-0.0-1.0-0.0-0.24","4","3","4","3","4","4","4","4","4","4","4","4","5","3","3","5","3","3","5","2","3","4","1","1","2","2","1","2","4","1","0","1","1","0","0","0","1","0","1","1","0","1","0","1","5","2","3","4","1","5","3","3","2","1","2","784086466967113730","管","388","","","","nonmatch","","","","","","","","","","","","","","key","j","16.650515463917287","774.8571180181065","431.99998615168766","j","true","nonmatch","img/diamond.png","五边","菱形","ALT1_1","prac_ALT1_1","","","","","","","","","","","",""
"null","<span style='color:GreenYellow; font-size: 70px;'>正确! </span>","null","html-keyboard-response","58","274812","0.0-7.0-0.0-1.0-0.0-1.24","4","3","4","3","4","4","4","4","4","4","4","4","5","3","3","5","3","3","5","2","3","4","1","1","2","2","1","2","4","1","0","1","1","0","0","0","1","0","1","1","0","1","0","1","5","2","3","4","1","5","3","3","2","1","2","784086466967113730","管","388","","","","","","","","","","","","","","","","","","","","","","","","","","","","","","feedback_test","","","","","","","","","","","",""
"695","","f","psychophysics","59","276516","0.0-7.0-0.0-1.0-0.0-0.25","4","3","4","3","4","4","4","4","4","4","4","4","5","3","3","5","3","3","5","2","3","4","1","1","2","2","1","2","4","1","0","1","1","0","0","0","1","0","1","1","0","1","0","1","5","2","3","4","1","5","3","3","2","1","2","784086466967113730","管","388","","","","match","","","","","","","","","","","","","","key","f","16.6544554455449","774.8571180181065","431.99998615168766","f","true","match","img/pentagon.png","五边","五边","ALT1_1","prac_ALT1_1","","","","","","","","","","","",""
"null","<span style='color:GreenYellow; font-size: 70px;'>正确! </span>","null","html-keyboard-response","60","277023","0.0-7.0-0.0-1.0-0.0-1.25","4","3","4","3","4","4","4","4","4","4","4","4","5","3","3","5","3","3","5","2","3","4","1","1","2","2","1","2","4","1","0","1","1","0","0","0","1","0","1","1","0","1","0","1","5","2","3","4","1","5","3","3","2","1","2","784086466967113730","管","388","","","","","","","","","","","","","","","","","","","","","","","","","","","","","","feedback_test","","","","","","","","","","","",""
"566","","j","psychophysics","61","278591","0.0-7.0-0.0-1.0-0.0-0.26","4","3","4","3","4","4","4","4","4","4","4","4","5","3","3","5","3","3","5","2","3","4","1","1","2","2","1","2","4","1","0","1","1","0","0","0","1","0","1","1","0","1","0","1","5","2","3","4","1","5","3","3","2","1","2","784086466967113730","管","388","","","","nonmatch","","","","","","","","","","","","","","key","j","16.650537634408604","774.8571180181065","431.99998615168766","j","true","nonmatch","img/ellipse.png","梯形","椭圆","ALT1_1","prac_ALT1_1","","","","","","","","","","","",""
"null","<span style='color:GreenYellow; font-size: 70px;'>正确! </span>","null","html-keyboard-response","62","279093","0.0-7.0-0.0-1.0-0.0-1.26","4","3","4","3","4","4","4","4","4","4","4","4","5","3","3","5","3","3","5","2","3","4","1","1","2","2","1","2","4","1","0","1","1","0","0","0","1","0","1","1","0","1","0","1","5","2","3","4","1","5","3","3","2","1","2","784086466967113730","管","388","","","","","","","","","","","","","","","","","","","","","","","","","","","","","","feedback_test","","","","","","","","","","","",""
"571","","f","psychophysics","63","280673","0.0-7.0-0.0-1.0-0.0-0.27","4","3","4","3","4","4","4","4","4","4","4","4","5","3","3","5","3","3","5","2","3","4","1","1","2","2","1","2","4","1","0","1","1","0","0","0","1","0","1","1","0","1","0","1","5","2","3","4","1","5","3","3","2","1","2","784086466967113730","管","388","","","","match","","","","","","","","","","","","","","key","f","16.652127659574344","774.8571180181065","431.99998615168766","f","true","match","img/diamond.png","菱形","菱形","ALT1_1","prac_ALT1_1","","","","","","","","","","","",""
"null","<span style='color:GreenYellow; font-size: 70px;'>正确! </span>","null","html-keyboard-response","64","281180","0.0-7.0-0.0-1.0-0.0-1.27","4","3","4","3","4","4","4","4","4","4","4","4","5","3","3","5","3","3","5","2","3","4","1","1","2","2","1","2","4","1","0","1","1","0","0","0","1","0","1","1","0","1","0","1","5","2","3","4","1","5","3","3","2","1","2","784086466967113730","管","388","","","","","","","","","","","","","","","","","","","","","","","","","","","","","","feedback_test","","","","","","","","","","","",""
"511","","j","psychophysics","65","282698","0.0-7.0-0.0-1.0-0.0-0.28","4","3","4","3","4","4","4","4","4","4","4","4","5","3","3","5","3","3","5","2","3","4","1","1","2","2","1","2","4","1","0","1","1","0","0","0","1","0","1","1","0","1","0","1","5","2","3","4","1","5","3","3","2","1","2","784086466967113730","管","388","","","","nonmatch","","","","","","","","","","","","","","key","j","16.655555555555555","774.8571180181065","431.99998615168766","j","true","nonmatch","img/ellipse.png","菱形","椭圆","ALT1_1","prac_ALT1_1","","","","","","","","","","","",""
"null","<span style='color:GreenYellow; font-size: 70px;'>正确! </span>","null","html-keyboard-response","66","283203","0.0-7.0-0.0-1.0-0.0-1.28","4","3","4","3","4","4","4","4","4","4","4","4","5","3","3","5","3","3","5","2","3","4","1","1","2","2","1","2","4","1","0","1","1","0","0","0","1","0","1","1","0","1","0","1","5","2","3","4","1","5","3","3","2","1","2","784086466967113730","管","388","","","","","","","","","","","","","","","","","","","","","","","","","","","","","","feedback_test","","","","","","","","","","","",""
"713","","j","psychophysics","67","284923","0.0-7.0-0.0-1.0-0.0-0.29","4","3","4","3","4","4","4","4","4","4","4","4","5","3","3","5","3","3","5","2","3","4","1","1","2","2","1","2","4","1","0","1","1","0","0","0","1","0","1","1","0","1","0","1","5","2","3","4","1","5","3","3","2","1","2","784086466967113730","管","388","","","","nonmatch","","","","","","","","","","","","","","key","j","16.65294117647036","774.8571180181065","431.99998615168766","j","true","nonmatch","img/trapezoid.png","椭圆","梯形","ALT1_1","prac_ALT1_1","","","","","","","","","","","",""
"null","<span style='color:GreenYellow; font-size: 70px;'>正确! </span>","null","html-keyboard-response","68","285428","0.0-7.0-0.0-1.0-0.0-1.29","4","3","4","3","4","4","4","4","4","4","4","4","5","3","3","5","3","3","5","2","3","4","1","1","2","2","1","2","4","1","0","1","1","0","0","0","1","0","1","1","0","1","0","1","5","2","3","4","1","5","3","3","2","1","2","784086466967113730","管","388","","","","","","","","","","","","","","","","","","","","","","","","","","","","","","feedback_test","","","","","","","","","","","",""
"570","","f","psychophysics","69","287003","0.0-7.0-0.0-1.0-0.0-0.30","4","3","4","3","4","4","4","4","4","4","4","4","5","3","3","5","3","3","5","2","3","4","1","1","2","2","1","2","4","1","0","1","1","0","0","0","1","0","1","1","0","1","0","1","5","2","3","4","1","5","3","3","2","1","2","784086466967113730","管","388","","","","match","","","","","","","","","","","","","","key","f","16.656382978723528","774.8571180181065","431.99998615168766","f","true","match","img/trapezoid.png","梯形","梯形","ALT1_1","prac_ALT1_1","","","","","","","","","","","",""
"null","<span style='color:GreenYellow; font-size: 70px;'>正确! </span>","null","html-keyboard-response","70","287512","0.0-7.0-0.0-1.0-0.0-1.30","4","3","4","3","4","4","4","4","4","4","4","4","5","3","3","5","3","3","5","2","3","4","1","1","2","2","1","2","4","1","0","1","1","0","0","0","1","0","1","1","0","1","0","1","5","2","3","4","1","5","3","3","2","1","2","784086466967113730","管","388","","","","","","","","","","","","","","","","","","","","","","","","","","","","","","feedback_test","","","","","","","","","","","",""
"581","","j","psychophysics","71","289095","0.0-7.0-0.0-1.0-0.0-0.31","4","3","4","3","4","4","4","4","4","4","4","4","5","3","3","5","3","3","5","2","3","4","1","1","2","2","1","2","4","1","0","1","1","0","0","0","1","0","1","1","0","1","0","1","5","2","3","4","1","5","3","3","2","1","2","784086466967113730","管","388","","","","nonmatch","","","","","","","","","","","","","","key","j","16.654255319148938","774.8571180181065","431.99998615168766","j","true","nonmatch","img/pentagon.png","梯形","五边","ALT1_1","prac_ALT1_1","","","","","","","","","","","",""
"null","<span style='color:GreenYellow; font-size: 70px;'>正确! </span>","null","html-keyboard-response","72","289604","0.0-7.0-0.0-1.0-0.0-1.31","4","3","4","3","4","4","4","4","4","4","4","4","5","3","3","5","3","3","5","2","3","4","1","1","2","2","1","2","4","1","0","1","1","0","0","0","1","0","1","1","0","1","0","1","5","2","3","4","1","5","3","3","2","1","2","784086466967113730","管","388","","","","","","","","","","","","","","","","","","","","","","","","","","","","","","feedback_test","","","","","","","","","","","",""
"516","","j","psychophysics","73","291129","0.0-7.0-0.0-1.0-0.0-0.32","4","3","4","3","4","4","4","4","4","4","4","4","5","3","3","5","3","3","5","2","3","4","1","1","2","2","1","2","4","1","0","1","1","0","0","0","1","0","1","1","0","1","0","1","5","2","3","4","1","5","3","3","2","1","2","784086466967113730","管","388","","","","nonmatch","","","","","","","","","","","","","","key","j","16.656666666667054","774.8571180181065","431.99998615168766","j","true","nonmatch","img/pentagon.png","椭圆","五边","ALT1_1","prac_ALT1_1","","","","","","","","","","","",""
"null","<span style='color:GreenYellow; font-size: 70px;'>正确! </span>","null","html-keyboard-response","74","291632","0.0-7.0-0.0-1.0-0.0-1.32","4","3","4","3","4","4","4","4","4","4","4","4","5","3","3","5","3","3","5","2","3","4","1","1","2","2","1","2","4","1","0","1","1","0","0","0","1","0","1","1","0","1","0","1","5","2","3","4","1","5","3","3","2","1","2","784086466967113730","管","388","","","","","","","","","","","","","","","","","","","","","","","","","","","","","","feedback_test","","","","","","","","","","","",""
"549","","f","psychophysics","75","293183","0.0-7.0-0.0-1.0-0.0-0.33","4","3","4","3","4","4","4","4","4","4","4","4","5","3","3","5","3","3","5","2","3","4","1","1","2","2","1","2","4","1","0","1","1","0","0","0","1","0","1","1","0","1","0","1","5","2","3","4","1","5","3","3","2","1","2","784086466967113730","管","388","","","","match","","","","","","","","","","","","","","key","f","16.65543478260857","774.8571180181065","431.99998615168766","f","true","match","img/ellipse.png","椭圆","椭圆","ALT1_1","prac_ALT1_1","","","","","","","","","","","",""
"null","<span style='color:GreenYellow; font-size: 70px;'>正确! </span>","null","html-keyboard-response","76","293684","0.0-7.0-0.0-1.0-0.0-1.33","4","3","4","3","4","4","4","4","4","4","4","4","5","3","3","5","3","3","5","2","3","4","1","1","2","2","1","2","4","1","0","1","1","0","0","0","1","0","1","1","0","1","0","1","5","2","3","4","1","5","3","3","2","1","2","784086466967113730","管","388","","","","","","","","","","","","","","","","","","","","","","","","","","","","","","feedback_test","","","","","","","","","","","",""
"573","","f","psychophysics","77","295266","0.0-7.0-0.0-1.0-0.0-0.34","4","3","4","3","4","4","4","4","4","4","4","4","5","3","3","5","3","3","5","2","3","4","1","1","2","2","1","2","4","1","0","1","1","0","0","0","1","0","1","1","0","1","0","1","5","2","3","4","1","5","3","3","2","1","2","784086466967113730","管","388","","","","match","","","","","","","","","","","","","","key","f","16.65851063829812","774.8571180181065","431.99998615168766","f","true","match","img/diamond.png","菱形","菱形","ALT1_1","prac_ALT1_1","","","","","","","","","","","",""
"null","<span style='color:GreenYellow; font-size: 70px;'>正确! </span>","null","html-keyboard-response","78","295780","0.0-7.0-0.0-1.0-0.0-1.34","4","3","4","3","4","4","4","4","4","4","4","4","5","3","3","5","3","3","5","2","3","4","1","1","2","2","1","2","4","1","0","1","1","0","0","0","1","0","1","1","0","1","0","1","5","2","3","4","1","5","3","3","2","1","2","784086466967113730","管","388","","","","","","","","","","","","","","","","","","","","","","","","","","","","","","feedback_test","","","","","","","","","","","",""
"607","","j","psychophysics","79","297392","0.0-7.0-0.0-1.0-0.0-0.35","4","3","4","3","4","4","4","4","4","4","4","4","5","3","3","5","3","3","5","2","3","4","1","1","2","2","1","2","4","1","0","1","1","0","0","0","1","0","1","1","0","1","0","1","5","2","3","4","1","5","3","3","2","1","2","784086466967113730","管","388","","","","nonmatch","","","","","","","","","","","","","","key","j","16.651041666666668","774.8571180181065","431.99998615168766","j","true","nonmatch","img/ellipse.png","五边","椭圆","ALT1_1","prac_ALT1_1","","","","","","","","","","","",""
"null","<span style='color:GreenYellow; font-size: 70px;'>正确! </span>","null","html-keyboard-response","80","297900","0.0-7.0-0.0-1.0-0.0-1.35","4","3","4","3","4","4","4","4","4","4","4","4","5","3","3","5","3","3","5","2","3","4","1","1","2","2","1","2","4","1","0","1","1","0","0","0","1","0","1","1","0","1","0","1","5","2","3","4","1","5","3","3","2","1","2","784086466967113730","管","388","","","","","","","","","","","","","","","","","","","","","","","","","","","","","","feedback_test","","","","","","","","","","","",""
"551","","f","psychophysics","81","299458","0.0-7.0-0.0-1.0-0.0-0.36","4","3","4","3","4","4","4","4","4","4","4","4","5","3","3","5","3","3","5","2","3","4","1","1","2","2","1","2","4","1","0","1","1","0","0","0","1","0","1","1","0","1","0","1","5","2","3","4","1","5","3","3","2","1","2","784086466967113730","管","388","","","","match","","","","","","","","","","","","","","key","f","16.65806451612916","774.8571180181065","431.99998615168766","f","true","match","img/trapezoid.png","梯形","梯形","ALT1_1","prac_ALT1_1","","","","","","","","","","","",""
"null","<span style='color:GreenYellow; font-size: 70px;'>正确! </span>","null","html-keyboard-response","82","299961","0.0-7.0-0.0-1.0-0.0-1.36","4","3","4","3","4","4","4","4","4","4","4","4","5","3","3","5","3","3","5","2","3","4","1","1","2","2","1","2","4","1","0","1","1","0","0","0","1","0","1","1","0","1","0","1","5","2","3","4","1","5","3","3","2","1","2","784086466967113730","管","388","","","","","","","","","","","","","","","","","","","","","","","","","","","","","","feedback_test","","","","","","","","","","","",""
"525","","f","psychophysics","83","301496","0.0-7.0-0.0-1.0-0.0-0.37","4","3","4","3","4","4","4","4","4","4","4","4","5","3","3","5","3","3","5","2","3","4","1","1","2","2","1","2","4","1","0","1","1","0","0","0","1","0","1","1","0","1","0","1","5","2","3","4","1","5","3","3","2","1","2","784086466967113730","管","388","","","","match","","","","","","","","","","","","","","key","f","16.65274725274751","774.8571180181065","431.99998615168766","f","true","match","img/ellipse.png","椭圆","椭圆","ALT1_1","prac_ALT1_1","","","","","","","","","","","",""
"null","<span style='color:GreenYellow; font-size: 70px;'>正确! </span>","null","html-keyboard-response","84","302012","0.0-7.0-0.0-1.0-0.0-1.37","4","3","4","3","4","4","4","4","4","4","4","4","5","3","3","5","3","3","5","2","3","4","1","1","2","2","1","2","4","1","0","1","1","0","0","0","1","0","1","1","0","1","0","1","5","2","3","4","1","5","3","3","2","1","2","784086466967113730","管","388","","","","","","","","","","","","","","","","","","","","","","","","","","","","","","feedback_test","","","","","","","","","","","",""
"623","","f","psychophysics","85","303639","0.0-7.0-0.0-1.0-0.0-0.38","4","3","4","3","4","4","4","4","4","4","4","4","5","3","3","5","3","3","5","2","3","4","1","1","2","2","1","2","4","1","0","1","1","0","0","0","1","0","1","1","0","1","0","1","5","2","3","4","1","5","3","3","2","1","2","784086466967113730","管","388","","","","match","","","","","","","","","","","","","","key","f","16.65463917525773","774.8571180181065","431.99998615168766","f","true","match","img/pentagon.png","五边","五边","ALT1_1","prac_ALT1_1","","","","","","","","","","","",""
"null","<span style='color:GreenYellow; font-size: 70px;'>正确! </span>","null","html-keyboard-response","86","304142","0.0-7.0-0.0-1.0-0.0-1.38","4","3","4","3","4","4","4","4","4","4","4","4","5","3","3","5","3","3","5","2","3","4","1","1","2","2","1","2","4","1","0","1","1","0","0","0","1","0","1","1","0","1","0","1","5","2","3","4","1","5","3","3","2","1","2","784086466967113730","管","388","","","","","","","","","","","","","","","","","","","","","","","","","","","","","","feedback_test","","","","","","","","","","","",""
"642","","f","psychophysics","87","305794","0.0-7.0-0.0-1.0-0.0-0.39","4","3","4","3","4","4","4","4","4","4","4","4","5","3","3","5","3","3","5","2","3","4","1","1","2","2","1","2","4","1","0","1","1","0","0","0","1","0","1","1","0","1","0","1","5","2","3","4","1","5","3","3","2","1","2","784086466967113730","管","388","","","","match","","","","","","","","","","","","","","key","f","16.656122448980067","774.8571180181065","431.99998615168766","f","true","match","img/pentagon.png","五边","五边","ALT1_1","prac_ALT1_1","","","","","","","","","","","",""
"null","<span style='color:GreenYellow; font-size: 70px;'>正确! </span>","null","html-keyboard-response","88","306299","0.0-7.0-0.0-1.0-0.0-1.39","4","3","4","3","4","4","4","4","4","4","4","4","5","3","3","5","3","3","5","2","3","4","1","1","2","2","1","2","4","1","0","1","1","0","0","0","1","0","1","1","0","1","0","1","5","2","3","4","1","5","3","3","2","1","2","784086466967113730","管","388","","","","","","","","","","","","","","","","","","","","","","","","","","","","","","feedback_test","","","","","","","","","","","",""
"593","","j","psychophysics","89","307894","0.0-7.0-0.0-1.0-0.0-0.40","4","3","4","3","4","4","4","4","4","4","4","4","5","3","3","5","3","3","5","2","3","4","1","1","2","2","1","2","4","1","0","1","1","0","0","0","1","0","1","1","0","1","0","1","5","2","3","4","1","5","3","3","2","1","2","784086466967113730","管","388","","","","nonmatch","","","","","","","","","","","","","","key","j","16.65319148936133","774.8571180181065","431.99998615168766","j","true","nonmatch","img/trapezoid.png","五边","梯形","ALT1_1","prac_ALT1_1","","","","","","","","","","","",""
"null","<span style='color:GreenYellow; font-size: 70px;'>正确! </span>","null","html-keyboard-response","90","308399","0.0-7.0-0.0-1.0-0.0-1.40","4","3","4","3","4","4","4","4","4","4","4","4","5","3","3","5","3","3","5","2","3","4","1","1","2","2","1","2","4","1","0","1","1","0","0","0","1","0","1","1","0","1","0","1","5","2","3","4","1","5","3","3","2","1","2","784086466967113730","管","388","","","","","","","","","","","","","","","","","","","","","","","","","","","","","","feedback_test","","","","","","","","","","","",""
"761","","j","psychophysics","91","310162","0.0-7.0-0.0-1.0-0.0-0.41","4","3","4","3","4","4","4","4","4","4","4","4","5","3","3","5","3","3","5","2","3","4","1","1","2","2","1","2","4","1","0","1","1","0","0","0","1","0","1","1","0","1","0","1","5","2","3","4","1","5","3","3","2","1","2","784086466967113730","管","388","","","","nonmatch","","","","","","","","","","","","","","key","j","16.65288461538484","774.8571180181065","431.99998615168766","j","true","nonmatch","img/diamond.png","梯形","菱形","ALT1_1","prac_ALT1_1","","","","","","","","","","","",""
"null","<span style='color:GreenYellow; font-size: 70px;'>正确! </span>","null","html-keyboard-response","92","310671","0.0-7.0-0.0-1.0-0.0-1.41","4","3","4","3","4","4","4","4","4","4","4","4","5","3","3","5","3","3","5","2","3","4","1","1","2","2","1","2","4","1","0","1","1","0","0","0","1","0","1","1","0","1","0","1","5","2","3","4","1","5","3","3","2","1","2","784086466967113730","管","388","","","","","","","","","","","","","","","","","","","","","","","","","","","","","","feedback_test","","","","","","","","","","","",""
"588","","f","psychophysics","93","312267","0.0-7.0-0.0-1.0-0.0-0.42","4","3","4","3","4","4","4","4","4","4","4","4","5","3","3","5","3","3","5","2","3","4","1","1","2","2","1","2","4","1","0","1","1","0","0","0","1","0","1","1","0","1","0","1","5","2","3","4","1","5","3","3","2","1","2","784086466967113730","管","388","","","","match","","","","","","","","","","","","","","key","f","16.656842105263404","774.8571180181065","431.99998615168766","f","true","match","img/trapezoid.png","梯形","梯形","ALT1_1","prac_ALT1_1","","","","","","","","","","","",""
"null","<span style='color:GreenYellow; font-size: 70px;'>正确! </span>","null","html-keyboard-response","94","312770","0.0-7.0-0.0-1.0-0.0-1.42","4","3","4","3","4","4","4","4","4","4","4","4","5","3","3","5","3","3","5","2","3","4","1","1","2","2","1","2","4","1","0","1","1","0","0","0","1","0","1","1","0","1","0","1","5","2","3","4","1","5","3","3","2","1","2","784086466967113730","管","388","","","","","","","","","","","","","","","","","","","","","","","","","","","","","","feedback_test","","","","","","","","","","","",""
"719","","j","psychophysics","95","314496","0.0-7.0-0.0-1.0-0.0-0.43","4","3","4","3","4","4","4","4","4","4","4","4","5","3","3","5","3","3","5","2","3","4","1","1","2","2","1","2","4","1","0","1","1","0","0","0","1","0","1","1","0","1","0","1","5","2","3","4","1","5","3","3","2","1","2","784086466967113730","管","388","","","","nonmatch","","","","","","","","","","","","","","key","j","16.650485436893202","774.8571180181065","431.99998615168766","j","true","nonmatch","img/trapezoid.png","菱形","梯形","ALT1_1","prac_ALT1_1","","","","","","","","","","","",""
"null","<span style='color:GreenYellow; font-size: 70px;'>正确! </span>","null","html-keyboard-response","96","314999","0.0-7.0-0.0-1.0-0.0-1.43","4","3","4","3","4","4","4","4","4","4","4","4","5","3","3","5","3","3","5","2","3","4","1","1","2","2","1","2","4","1","0","1","1","0","0","0","1","0","1","1","0","1","0","1","5","2","3","4","1","5","3","3","2","1","2","784086466967113730","管","388","","","","","","","","","","","","","","","","","","","","","","","","","","","","","","feedback_test","","","","","","","","","","","",""
"807","","f","psychophysics","97","316815","0.0-7.0-0.0-1.0-0.0-0.44","4","3","4","3","4","4","4","4","4","4","4","4","5","3","3","5","3","3","5","2","3","4","1","1","2","2","1","2","4","1","0","1","1","0","0","0","1","0","1","1","0","1","0","1","5","2","3","4","1","5","3","3","2","1","2","784086466967113730","管","388","","","","match","","","","","","","","","","","","","","key","f","16.65555555555545","774.8571180181065","431.99998615168766","f","true","match","img/ellipse.png","椭圆","椭圆","ALT1_1","prac_ALT1_1","","","","","","","","","","","",""
"null","<span style='color:GreenYellow; font-size: 70px;'>正确! </span>","null","html-keyboard-response","98","317320","0.0-7.0-0.0-1.0-0.0-1.44","4","3","4","3","4","4","4","4","4","4","4","4","5","3","3","5","3","3","5","2","3","4","1","1","2","2","1","2","4","1","0","1","1","0","0","0","1","0","1","1","0","1","0","1","5","2","3","4","1","5","3","3","2","1","2","784086466967113730","管","388","","","","","","","","","","","","","","","","","","","","","","","","","","","","","","feedback_test","","","","","","","","","","","",""
"751","","f","psychophysics","99","319075","0.0-7.0-0.0-1.0-0.0-0.45","4","3","4","3","4","4","4","4","4","4","4","4","5","3","3","5","3","3","5","2","3","4","1","1","2","2","1","2","4","1","0","1","1","0","0","0","1","0","1","1","0","1","0","1","5","2","3","4","1","5","3","3","2","1","2","784086466967113730","管","388","","","","match","","","","","","","","","","","","","","key","f","16.65714285714286","774.8571180181065","431.99998615168766","f","true","match","img/diamond.png","菱形","菱形","ALT1_1","prac_ALT1_1","","","","","","","","","","","",""
"null","<span style='color:GreenYellow; font-size: 70px;'>正确! </span>","null","html-keyboard-response","100","319581","0.0-7.0-0.0-1.0-0.0-1.45","4","3","4","3","4","4","4","4","4","4","4","4","5","3","3","5","3","3","5","2","3","4","1","1","2","2","1","2","4","1","0","1","1","0","0","0","1","0","1","1","0","1","0","1","5","2","3","4","1","5","3","3","2","1","2","784086466967113730","管","388","","","","","","","","","","","","","","","","","","","","","","","","","","","","","","feedback_test","","","","","","","","","","","",""
"625","","j","psychophysics","101","321214","0.0-7.0-0.0-1.0-0.0-0.46","4","3","4","3","4","4","4","4","4","4","4","4","5","3","3","5","3","3","5","2","3","4","1","1","2","2","1","2","4","1","0","1","1","0","0","0","1","0","1","1","0","1","0","1","5","2","3","4","1","5","3","3","2","1","2","784086466967113730","管","388","","","","nonmatch","","","","","","","","","","","","","","key","j","16.65463917525773","774.8571180181065","431.99998615168766","j","true","nonmatch","img/diamond.png","椭圆","菱形","ALT1_1","prac_ALT1_1","","","","","","","","","","","",""
"null","<span style='color:GreenYellow; font-size: 70px;'>正确! </span>","null","html-keyboard-response","102","321732","0.0-7.0-0.0-1.0-0.0-1.46","4","3","4","3","4","4","4","4","4","4","4","4","5","3","3","5","3","3","5","2","3","4","1","1","2","2","1","2","4","1","0","1","1","0","0","0","1","0","1","1","0","1","0","1","5","2","3","4","1","5","3","3","2","1","2","784086466967113730","管","388","","","","","","","","","","","","","","","","","","","","","","","","","","","","","","feedback_test","","","","","","","","","","","",""
"703","","j","psychophysics","103","323440","0.0-7.0-0.0-1.0-0.0-0.47","4","3","4","3","4","4","4","4","4","4","4","4","5","3","3","5","3","3","5","2","3","4","1","1","2","2","1","2","4","1","0","1","1","0","0","0","1","0","1","1","0","1","0","1","5","2","3","4","1","5","3","3","2","1","2","784086466967113730","管","388","","","","nonmatch","","","","","","","","","","","","","","key","j","16.655882352940836","774.8571180181065","431.99998615168766","j","true","nonmatch","img/pentagon.png","菱形","五边","ALT1_1","prac_ALT1_1","","","","","","","","","","","",""
"null","<span style='color:GreenYellow; font-size: 70px;'>正确! </span>","null","html-keyboard-response","104","323943","0.0-7.0-0.0-1.0-0.0-1.47","4","3","4","3","4","4","4","4","4","4","4","4","5","3","3","5","3","3","5","2","3","4","1","1","2","2","1","2","4","1","0","1","1","0","0","0","1","0","1","1","0","1","0","1","5","2","3","4","1","5","3","3","2","1","2","784086466967113730","管","388","","","","","","","","","","","","","","","","","","","","","","","","","","","","","","feedback_test","","","","","","","","","","","",""
"41354","<style>.context{color:white; font-size: 35px; line-height:40px}</style>                            <div><p class='context'>您正确回答了94% 的试次。</p><p class='context'>您的平均反应时为620毫秒。</p><p class='context'>恭喜您完成练习。按空格键进入正式实验。</p><p class='footer' style='font-size: 35px; line-height:40px;'>请在进入正式实验之前将您的<span style='color: lightgreen;'>食指</span>放在电脑键盘的相应键位上进行按键。</p>","f","html-keyboard-response","105","365301","0.0-7.0-0.0-2.0","4","3","4","3","4","4","4","4","4","4","4","4","5","3","3","5","3","3","5","2","3","4","1","1","2","2","1","2","4","1","0","1","1","0","0","0","1","0","1","1","0","1","0","1","5","2","3","4","1","5","3","3","2","1","2","784086466967113730","管","388","","","","","","","","","","","","","","","","","","","","","","","","","","","","","","","","","","","","","","","","","",""
"9627","
    <p style='color: white; font-size: 22px'>请您将手指放在按键上，准备进入正式的匹配任务。</p>
    <p> <div style = ""color: green""><按空格键进入下一阶段的匹配任务></div></p>
    "," ","html-keyboard-response","106","374932","0.0-7.0-0.0-3.0","4","3","4","3","4","4","4","4","4","4","4","4","5","3","3","5","3","3","5","2","3","4","1","1","2","2","1","2","4","1","0","1","1","0","0","0","1","0","1","1","0","1","0","1","5","2","3","4","1","5","3","3","2","1","2","784086466967113730","管","388","","","","","","","","","","","","","","","","","","","","","","","","","","","","","","","","","","","","","","","","","",""
"520","","j","psychophysics","107","376461","0.0-7.0-0.0-4.0-0.0-0.0","4","3","4","3","4","4","4","4","4","4","4","4","5","3","3","5","3","3","5","2","3","4","1","1","2","2","1","2","4","1","0","1","1","0","0","0","1","0","1","1","0","1","0","1","5","2","3","4","1","5","3","3","2","1","2","784086466967113730","管","388","","","","nonmatch","","","","","","","","","","","","","","key","j","16.65054945054894","774.8571180181065","431.99998615168766","j","true","nonmatch","img/pentagon.png","椭圆","五边","ALT1","formal_ALT1_1","","","","","","","","","","","",""
"null","<span style='color:GreenYellow; font-size: 70px;'>正确! </span>","null","html-keyboard-response","108","376965","0.0-7.0-0.0-4.0-0.0-1.0","4","3","4","3","4","4","4","4","4","4","4","4","5","3","3","5","3","3","5","2","3","4","1","1","2","2","1","2","4","1","0","1","1","0","0","0","1","0","1","1","0","1","0","1","5","2","3","4","1","5","3","3","2","1","2","784086466967113730","管","388","","","","","","","","","","","","","","","","","","","","","","","","","","","","","","feedback_test","","","","","","","","","","","",""
"535","","j","psychophysics","109","378509","0.0-7.0-0.0-4.0-0.0-0.1","4","3","4","3","4","4","4","4","4","4","4","4","5","3","3","5","3","3","5","2","3","4","1","1","2","2","1","2","4","1","0","1","1","0","0","0","1","0","1","1","0","1","0","1","5","2","3","4","1","5","3","3","2","1","2","784086466967113730","管","388","","","","nonmatch","","","","","","","","","","","","","","key","j","16.656521739130056","774.8571180181065","431.99998615168766","j","true","nonmatch","img/trapezoid.png","椭圆","梯形","ALT1","formal_ALT1_1","","","","","","","","","","","",""
"null","<span style='color:GreenYellow; font-size: 70px;'>正确! </span>","null","html-keyboard-response","110","379012","0.0-7.0-0.0-4.0-0.0-1.1","4","3","4","3","4","4","4","4","4","4","4","4","5","3","3","5","3","3","5","2","3","4","1","1","2","2","1","2","4","1","0","1","1","0","0","0","1","0","1","1","0","1","0","1","5","2","3","4","1","5","3","3","2","1","2","784086466967113730","管","388","","","","","","","","","","","","","","","","","","","","","","","","","","","","","","feedback_test","","","","","","","","","","","",""
"665","","f","psychophysics","111","380685","0.0-7.0-0.0-4.0-0.0-0.2","4","3","4","3","4","4","4","4","4","4","4","4","5","3","3","5","3","3","5","2","3","4","1","1","2","2","1","2","4","1","0","1","1","0","0","0","1","0","1","1","0","1","0","1","5","2","3","4","1","5","3","3","2","1","2","784086466967113730","管","388","","","","match","","","","","","","","","","","","","","key","f","16.65353535353547","774.8571180181065","431.99998615168766","f","true","match","img/diamond.png","菱形","菱形","ALT1","formal_ALT1_1","","","","","","","","","","","",""
"null","<span style='color:GreenYellow; font-size: 70px;'>正确! </span>","null","html-keyboard-response","112","381191","0.0-7.0-0.0-4.0-0.0-1.2","4","3","4","3","4","4","4","4","4","4","4","4","5","3","3","5","3","3","5","2","3","4","1","1","2","2","1","2","4","1","0","1","1","0","0","0","1","0","1","1","0","1","0","1","5","2","3","4","1","5","3","3","2","1","2","784086466967113730","管","388","","","","","","","","","","","","","","","","","","","","","","","","","","","","","","feedback_test","","","","","","","","","","","",""
"637","","j","psychophysics","113","382838","0.0-7.0-0.0-4.0-0.0-0.3","4","3","4","3","4","4","4","4","4","4","4","4","5","3","3","5","3","3","5","2","3","4","1","1","2","2","1","2","4","1","0","1","1","0","0","0","1","0","1","1","0","1","0","1","5","2","3","4","1","5","3","3","2","1","2","784086466967113730","管","388","","","","nonmatch","","","","","","","","","","","","","","key","j","16.653061224489797","774.8571180181065","431.99998615168766","j","true","nonmatch","img/pentagon.png","梯形","五边","ALT1","formal_ALT1_1","","","","","","","","","","","",""
"null","<span style='color:GreenYellow; font-size: 70px;'>正确! </span>","null","html-keyboard-response","114","383355","0.0-7.0-0.0-4.0-0.0-1.3","4","3","4","3","4","4","4","4","4","4","4","4","5","3","3","5","3","3","5","2","3","4","1","1","2","2","1","2","4","1","0","1","1","0","0","0","1","0","1","1","0","1","0","1","5","2","3","4","1","5","3","3","2","1","2","784086466967113730","管","388","","","","","","","","","","","","","","","","","","","","","","","","","","","","","","feedback_test","","","","","","","","","","","",""
"549","","j","psychophysics","115","384908","0.0-7.0-0.0-4.0-0.0-0.4","4","3","4","3","4","4","4","4","4","4","4","4","5","3","3","5","3","3","5","2","3","4","1","1","2","2","1","2","4","1","0","1","1","0","0","0","1","0","1","1","0","1","0","1","5","2","3","4","1","5","3","3","2","1","2","784086466967113730","管","388","","","","nonmatch","","","","","","","","","","","","","","key","j","16.65543478260857","774.8571180181065","431.99998615168766","j","true","nonmatch","img/trapezoid.png","菱形","梯形","ALT1","formal_ALT1_1","","","","","","","","","","","",""
"null","<span style='color:GreenYellow; font-size: 70px;'>正确! </span>","null","html-keyboard-response","116","385424","0.0-7.0-0.0-4.0-0.0-1.4","4","3","4","3","4","4","4","4","4","4","4","4","5","3","3","5","3","3","5","2","3","4","1","1","2","2","1","2","4","1","0","1","1","0","0","0","1","0","1","1","0","1","0","1","5","2","3","4","1","5","3","3","2","1","2","784086466967113730","管","388","","","","","","","","","","","","","","","","","","","","","","","","","","","","","","feedback_test","","","","","","","","","","","",""
"605","","j","psychophysics","117","387038","0.0-7.0-0.0-4.0-0.0-0.5","4","3","4","3","4","4","4","4","4","4","4","4","5","3","3","5","3","3","5","2","3","4","1","1","2","2","1","2","4","1","0","1","1","0","0","0","1","0","1","1","0","1","0","1","5","2","3","4","1","5","3","3","2","1","2","784086466967113730","管","388","","","","nonmatch","","","","","","","","","","","","","","key","j","16.655208333333576","774.8571180181065","431.99998615168766","j","true","nonmatch","img/ellipse.png","五边","椭圆","ALT1","formal_ALT1_1","","","","","","","","","","","",""
"null","<span style='color:GreenYellow; font-size: 70px;'>正确! </span>","null","html-keyboard-response","118","387549","0.0-7.0-0.0-4.0-0.0-1.5","4","3","4","3","4","4","4","4","4","4","4","4","5","3","3","5","3","3","5","2","3","4","1","1","2","2","1","2","4","1","0","1","1","0","0","0","1","0","1","1","0","1","0","1","5","2","3","4","1","5","3","3","2","1","2","784086466967113730","管","388","","","","","","","","","","","","","","","","","","","","","","","","","","","","","","feedback_test","","","","","","","","","","","",""
"626","","f","psychophysics","119","389180","0.0-7.0-0.0-4.0-0.0-0.6","4","3","4","3","4","4","4","4","4","4","4","4","5","3","3","5","3","3","5","2","3","4","1","1","2","2","1","2","4","1","0","1","1","0","0","0","1","0","1","1","0","1","0","1","5","2","3","4","1","5","3","3","2","1","2","784086466967113730","管","388","","","","match","","","","","","","","","","","","","","key","f","16.65312500000012","774.8571180181065","431.99998615168766","f","true","match","img/pentagon.png","五边","五边","ALT1","formal_ALT1_1","","","","","","","","","","","",""
"null","<span style='color:GreenYellow; font-size: 70px;'>正确! </span>","null","html-keyboard-response","120","389682","0.0-7.0-0.0-4.0-0.0-1.6","4","3","4","3","4","4","4","4","4","4","4","4","5","3","3","5","3","3","5","2","3","4","1","1","2","2","1","2","4","1","0","1","1","0","0","0","1","0","1","1","0","1","0","1","5","2","3","4","1","5","3","3","2","1","2","784086466967113730","管","388","","","","","","","","","","","","","","","","","","","","","","","","","","","","","","feedback_test","","","","","","","","","","","",""
"565","","j","psychophysics","121","391257","0.0-7.0-0.0-4.0-0.0-0.7","4","3","4","3","4","4","4","4","4","4","4","4","5","3","3","5","3","3","5","2","3","4","1","1","2","2","1","2","4","1","0","1","1","0","0","0","1","0","1","1","0","1","0","1","5","2","3","4","1","5","3","3","2","1","2","784086466967113730","管","388","","","","nonmatch","","","","","","","","","","","","","","key","j","16.652688172043135","774.8571180181065","431.99998615168766","j","true","nonmatch","img/trapezoid.png","五边","梯形","ALT1","formal_ALT1_1","","","","","","","","","","","",""
"null","<span style='color:GreenYellow; font-size: 70px;'>正确! </span>","null","html-keyboard-response","122","391760","0.0-7.0-0.0-4.0-0.0-1.7","4","3","4","3","4","4","4","4","4","4","4","4","5","3","3","5","3","3","5","2","3","4","1","1","2","2","1","2","4","1","0","1","1","0","0","0","1","0","1","1","0","1","0","1","5","2","3","4","1","5","3","3","2","1","2","784086466967113730","管","388","","","","","","","","","","","","","","","","","","","","","","","","","","","","","","feedback_test","","","","","","","","","","","",""
"586","","f","psychophysics","123","393357","0.0-7.0-0.0-4.0-0.0-0.8","4","3","4","3","4","4","4","4","4","4","4","4","5","3","3","5","3","3","5","2","3","4","1","1","2","2","1","2","4","1","0","1","1","0","0","0","1","0","1","1","0","1","0","1","5","2","3","4","1","5","3","3","2","1","2","784086466967113730","管","388","","","","match","","","","","","","","","","","","","","key","f","16.585106382978722","774.8571180181065","431.99998615168766","f","true","match","img/ellipse.png","椭圆","椭圆","ALT1","formal_ALT1_1","","","","","","","","","","","",""
"null","<span style='color:GreenYellow; font-size: 70px;'>正确! </span>","null","html-keyboard-response","124","393873","0.0-7.0-0.0-4.0-0.0-1.8","4","3","4","3","4","4","4","4","4","4","4","4","5","3","3","5","3","3","5","2","3","4","1","1","2","2","1","2","4","1","0","1","1","0","0","0","1","0","1","1","0","1","0","1","5","2","3","4","1","5","3","3","2","1","2","784086466967113730","管","388","","","","","","","","","","","","","","","","","","","","","","","","","","","","","","feedback_test","","","","","","","","","","","",""
"479","","f","psychophysics","125","395354","0.0-7.0-0.0-4.0-0.0-0.9","4","3","4","3","4","4","4","4","4","4","4","4","5","3","3","5","3","3","5","2","3","4","1","1","2","2","1","2","4","1","0","1","1","0","0","0","1","0","1","1","0","1","0","1","5","2","3","4","1","5","3","3","2","1","2","784086466967113730","管","388","","","","match","","","","","","","","","","","","","","key","f","16.644318181818313","774.8571180181065","431.99998615168766","f","true","match","img/ellipse.png","椭圆","椭圆","ALT1","formal_ALT1_1","","","","","","","","","","","",""
"null","<span style='color:GreenYellow; font-size: 70px;'>正确! </span>","null","html-keyboard-response","126","395861","0.0-7.0-0.0-4.0-0.0-1.9","4","3","4","3","4","4","4","4","4","4","4","4","5","3","3","5","3","3","5","2","3","4","1","1","2","2","1","2","4","1","0","1","1","0","0","0","1","0","1","1","0","1","0","1","5","2","3","4","1","5","3","3","2","1","2","784086466967113730","管","388","","","","","","","","","","","","","","","","","","","","","","","","","","","","","","feedback_test","","","","","","","","","","","",""
"480","","j","psychophysics","127","397346","0.0-7.0-0.0-4.0-0.0-0.10","4","3","4","3","4","4","4","4","4","4","4","4","5","3","3","5","3","3","5","2","3","4","1","1","2","2","1","2","4","1","0","1","1","0","0","0","1","0","1","1","0","1","0","1","5","2","3","4","1","5","3","3","2","1","2","784086466967113730","管","388","","","","nonmatch","","","","","","","","","","","","","","key","j","16.65227272727299","774.8571180181065","431.99998615168766","j","true","nonmatch","img/ellipse.png","菱形","椭圆","ALT1","formal_ALT1_1","","","","","","","","","","","",""
"null","<span style='color:GreenYellow; font-size: 70px;'>正确! </span>","null","html-keyboard-response","128","397850","0.0-7.0-0.0-4.0-0.0-1.10","4","3","4","3","4","4","4","4","4","4","4","4","5","3","3","5","3","3","5","2","3","4","1","1","2","2","1","2","4","1","0","1","1","0","0","0","1","0","1","1","0","1","0","1","5","2","3","4","1","5","3","3","2","1","2","784086466967113730","管","388","","","","","","","","","","","","","","","","","","","","","","","","","","","","","","feedback_test","","","","","","","","","","","",""
"563","","f","psychophysics","129","399419","0.0-7.0-0.0-4.0-0.0-0.11","4","3","4","3","4","4","4","4","4","4","4","4","5","3","3","5","3","3","5","2","3","4","1","1","2","2","1","2","4","1","0","1","1","0","0","0","1","0","1","1","0","1","0","1","5","2","3","4","1","5","3","3","2","1","2","784086466967113730","管","388","","","","match","","","","","","","","","","","","","","key","f","16.655913978494624","774.8571180181065","431.99998615168766","f","true","match","img/trapezoid.png","梯形","梯形","ALT1","formal_ALT1_1","","","","","","","","","","","",""
"null","<span style='color:GreenYellow; font-size: 70px;'>正确! </span>","null","html-keyboard-response","130","399920","0.0-7.0-0.0-4.0-0.0-1.11","4","3","4","3","4","4","4","4","4","4","4","4","5","3","3","5","3","3","5","2","3","4","1","1","2","2","1","2","4","1","0","1","1","0","0","0","1","0","1","1","0","1","0","1","5","2","3","4","1","5","3","3","2","1","2","784086466967113730","管","388","","","","","","","","","","","","","","","","","","","","","","","","","","","","","","feedback_test","","","","","","","","","","","",""
"570","","f","psychophysics","131","401492","0.0-7.0-0.0-4.0-0.0-0.12","4","3","4","3","4","4","4","4","4","4","4","4","5","3","3","5","3","3","5","2","3","4","1","1","2","2","1","2","4","1","0","1","1","0","0","0","1","0","1","1","0","1","0","1","5","2","3","4","1","5","3","3","2","1","2","784086466967113730","管","388","","","","match","","","","","","","","","","","","","","key","f","16.590322580645413","774.8571180181065","431.99998615168766","f","true","match","img/pentagon.png","五边","五边","ALT1","formal_ALT1_1","","","","","","","","","","","",""
"null","<span style='color:GreenYellow; font-size: 70px;'>正确! </span>","null","html-keyboard-response","132","401997","0.0-7.0-0.0-4.0-0.0-1.12","4","3","4","3","4","4","4","4","4","4","4","4","5","3","3","5","3","3","5","2","3","4","1","1","2","2","1","2","4","1","0","1","1","0","0","0","1","0","1","1","0","1","0","1","5","2","3","4","1","5","3","3","2","1","2","784086466967113730","管","388","","","","","","","","","","","","","","","","","","","","","","","","","","","","","","feedback_test","","","","","","","","","","","",""
"554","","f","psychophysics","133","403557","0.0-7.0-0.0-4.0-0.0-0.13","4","3","4","3","4","4","4","4","4","4","4","4","5","3","3","5","3","3","5","2","3","4","1","1","2","2","1","2","4","1","0","1","1","0","0","0","1","0","1","1","0","1","0","1","5","2","3","4","1","5","3","3","2","1","2","784086466967113730","管","388","","","","match","","","","","","","","","","","","","","key","f","16.65483870967767","774.8571180181065","431.99998615168766","f","true","match","img/ellipse.png","椭圆","椭圆","ALT1","formal_ALT1_1","","","","","","","","","","","",""
"null","<span style='color:GreenYellow; font-size: 70px;'>正确! </span>","null","html-keyboard-response","134","404060","0.0-7.0-0.0-4.0-0.0-1.13","4","3","4","3","4","4","4","4","4","4","4","4","5","3","3","5","3","3","5","2","3","4","1","1","2","2","1","2","4","1","0","1","1","0","0","0","1","0","1","1","0","1","0","1","5","2","3","4","1","5","3","3","2","1","2","784086466967113730","管","388","","","","","","","","","","","","","","","","","","","","","","","","","","","","","","feedback_test","","","","","","","","","","","",""
"704","","f","psychophysics","135","405766","0.0-7.0-0.0-4.0-0.0-0.14","4","3","4","3","4","4","4","4","4","4","4","4","5","3","3","5","3","3","5","2","3","4","1","1","2","2","1","2","4","1","0","1","1","0","0","0","1","0","1","1","0","1","0","1","5","2","3","4","1","5","3","3","2","1","2","784086466967113730","管","388","","","","match","","","","","","","","","","","","","","key","f","16.654455445544325","774.8571180181065","431.99998615168766","f","true","match","img/diamond.png","菱形","菱形","ALT1","formal_ALT1_1","","","","","","","","","","","",""
"null","<span style='color:GreenYellow; font-size: 70px;'>正确! </span>","null","html-keyboard-response","136","406268","0.0-7.0-0.0-4.0-0.0-1.14","4","3","4","3","4","4","4","4","4","4","4","4","5","3","3","5","3","3","5","2","3","4","1","1","2","2","1","2","4","1","0","1","1","0","0","0","1","0","1","1","0","1","0","1","5","2","3","4","1","5","3","3","2","1","2","784086466967113730","管","388","","","","","","","","","","","","","","","","","","","","","","","","","","","","","","feedback_test","","","","","","","","","","","",""
"552","","f","psychophysics","137","407822","0.0-7.0-0.0-4.0-0.0-0.15","4","3","4","3","4","4","4","4","4","4","4","4","5","3","3","5","3","3","5","2","3","4","1","1","2","2","1","2","4","1","0","1","1","0","0","0","1","0","1","1","0","1","0","1","5","2","3","4","1","5","3","3","2","1","2","784086466967113730","管","388","","","","match","","","","","","","","","","","","","","key","f","16.654347826087083","774.8571180181065","431.99998615168766","f","true","match","img/pentagon.png","五边","五边","ALT1","formal_ALT1_1","","","","","","","","","","","",""
"null","<span style='color:GreenYellow; font-size: 70px;'>正确! </span>","null","html-keyboard-response","138","408328","0.0-7.0-0.0-4.0-0.0-1.15","4","3","4","3","4","4","4","4","4","4","4","4","5","3","3","5","3","3","5","2","3","4","1","1","2","2","1","2","4","1","0","1","1","0","0","0","1","0","1","1","0","1","0","1","5","2","3","4","1","5","3","3","2","1","2","784086466967113730","管","388","","","","","","","","","","","","","","","","","","","","","","","","","","","","","","feedback_test","","","","","","","","","","","",""
"607","","j","psychophysics","139","409938","0.0-7.0-0.0-4.0-0.0-0.16","4","3","4","3","4","4","4","4","4","4","4","4","5","3","3","5","3","3","5","2","3","4","1","1","2","2","1","2","4","1","0","1","1","0","0","0","1","0","1","1","0","1","0","1","5","2","3","4","1","5","3","3","2","1","2","784086466967113730","管","388","","","","nonmatch","","","","","","","","","","","","","","key","j","16.648958333333212","774.8571180181065","431.99998615168766","j","true","nonmatch","img/diamond.png","椭圆","菱形","ALT1","formal_ALT1_1","","","","","","","","","","","",""
"null","<span style='color:GreenYellow; font-size: 70px;'>正确! </span>","null","html-keyboard-response","140","410441","0.0-7.0-0.0-4.0-0.0-1.16","4","3","4","3","4","4","4","4","4","4","4","4","5","3","3","5","3","3","5","2","3","4","1","1","2","2","1","2","4","1","0","1","1","0","0","0","1","0","1","1","0","1","0","1","5","2","3","4","1","5","3","3","2","1","2","784086466967113730","管","388","","","","","","","","","","","","","","","","","","","","","","","","","","","","","","feedback_test","","","","","","","","","","","",""
"842","","f","psychophysics","141","412285","0.0-7.0-0.0-4.0-0.0-0.17","4","3","4","3","4","4","4","4","4","4","4","4","5","3","3","5","3","3","5","2","3","4","1","1","2","2","1","2","4","1","0","1","1","0","0","0","1","0","1","1","0","1","0","1","5","2","3","4","1","5","3","3","2","1","2","784086466967113730","管","388","","","","match","","","","","","","","","","","","","","key","f","16.655454545454333","774.8571180181065","431.99998615168766","f","true","match","img/trapezoid.png","梯形","梯形","ALT1","formal_ALT1_1","","","","","","","","","","","",""
"null","<span style='color:GreenYellow; font-size: 70px;'>正确! </span>","null","html-keyboard-response","142","412794","0.0-7.0-0.0-4.0-0.0-1.17","4","3","4","3","4","4","4","4","4","4","4","4","5","3","3","5","3","3","5","2","3","4","1","1","2","2","1","2","4","1","0","1","1","0","0","0","1","0","1","1","0","1","0","1","5","2","3","4","1","5","3","3","2","1","2","784086466967113730","管","388","","","","","","","","","","","","","","","","","","","","","","","","","","","","","","feedback_test","","","","","","","","","","","",""
"581","","j","psychophysics","143","414377","0.0-7.0-0.0-4.0-0.0-0.18","4","3","4","3","4","4","4","4","4","4","4","4","5","3","3","5","3","3","5","2","3","4","1","1","2","2","1","2","4","1","0","1","1","0","0","0","1","0","1","1","0","1","0","1","5","2","3","4","1","5","3","3","2","1","2","784086466967113730","管","388","","","","nonmatch","","","","","","","","","","","","","","key","j","16.651063829787358","774.8571180181065","431.99998615168766","j","true","nonmatch","img/diamond.png","梯形","菱形","ALT1","formal_ALT1_1","","","","","","","","","","","",""
"null","<span style='color:GreenYellow; font-size: 70px;'>正确! </span>","null","html-keyboard-response","144","414880","0.0-7.0-0.0-4.0-0.0-1.18","4","3","4","3","4","4","4","4","4","4","4","4","5","3","3","5","3","3","5","2","3","4","1","1","2","2","1","2","4","1","0","1","1","0","0","0","1","0","1","1","0","1","0","1","5","2","3","4","1","5","3","3","2","1","2","784086466967113730","管","388","","","","","","","","","","","","","","","","","","","","","","","","","","","","","","feedback_test","","","","","","","","","","","",""
"545","","f","psychophysics","145","416429","0.0-7.0-0.0-4.0-0.0-0.19","4","3","4","3","4","4","4","4","4","4","4","4","5","3","3","5","3","3","5","2","3","4","1","1","2","2","1","2","4","1","0","1","1","0","0","0","1","0","1","1","0","1","0","1","5","2","3","4","1","5","3","3","2","1","2","784086466967113730","管","388","","","","match","","","","","","","","","","","","","","key","f","16.654347826087083","774.8571180181065","431.99998615168766","f","true","match","img/trapezoid.png","梯形","梯形","ALT1","formal_ALT1_1","","","","","","","","","","","",""
"null","<span style='color:GreenYellow; font-size: 70px;'>正确! </span>","null","html-keyboard-response","146","416940","0.0-7.0-0.0-4.0-0.0-1.19","4","3","4","3","4","4","4","4","4","4","4","4","5","3","3","5","3","3","5","2","3","4","1","1","2","2","1","2","4","1","0","1","1","0","0","0","1","0","1","1","0","1","0","1","5","2","3","4","1","5","3","3","2","1","2","784086466967113730","管","388","","","","","","","","","","","","","","","","","","","","","","","","","","","","","","feedback_test","","","","","","","","","","","",""
"692","","j","psychophysics","147","418633","0.0-7.0-0.0-4.0-0.0-0.20","4","3","4","3","4","4","4","4","4","4","4","4","5","3","3","5","3","3","5","2","3","4","1","1","2","2","1","2","4","1","0","1","1","0","0","0","1","0","1","1","0","1","0","1","5","2","3","4","1","5","3","3","2","1","2","784086466967113730","管","388","","","","nonmatch","","","","","","","","","","","","","","key","j","16.58899999999965","774.8571180181065","431.99998615168766","j","true","nonmatch","img/pentagon.png","菱形","五边","ALT1","formal_ALT1_1","","","","","","","","","","","",""
"null","<span style='color:GreenYellow; font-size: 70px;'>正确! </span>","null","html-keyboard-response","148","419141","0.0-7.0-0.0-4.0-0.0-1.20","4","3","4","3","4","4","4","4","4","4","4","4","5","3","3","5","3","3","5","2","3","4","1","1","2","2","1","2","4","1","0","1","1","0","0","0","1","0","1","1","0","1","0","1","5","2","3","4","1","5","3","3","2","1","2","784086466967113730","管","388","","","","","","","","","","","","","","","","","","","","","","","","","","","","","","feedback_test","","","","","","","","","","","",""
"582","","f","psychophysics","149","420726","0.0-7.0-0.0-4.0-0.0-0.21","4","3","4","3","4","4","4","4","4","4","4","4","5","3","3","5","3","3","5","2","3","4","1","1","2","2","1","2","4","1","0","1","1","0","0","0","1","0","1","1","0","1","0","1","5","2","3","4","1","5","3","3","2","1","2","784086466967113730","管","388","","","","match","","","","","","","","","","","","","","key","f","16.651063829787358","774.8571180181065","431.99998615168766","f","true","match","img/diamond.png","菱形","菱形","ALT1","formal_ALT1_1","","","","","","","","","","","",""
"null","<span style='color:GreenYellow; font-size: 70px;'>正确! </span>","null","html-keyboard-response","150","421228","0.0-7.0-0.0-4.0-0.0-1.21","4","3","4","3","4","4","4","4","4","4","4","4","5","3","3","5","3","3","5","2","3","4","1","1","2","2","1","2","4","1","0","1","1","0","0","0","1","0","1","1","0","1","0","1","5","2","3","4","1","5","3","3","2","1","2","784086466967113730","管","388","","","","","","","","","","","","","","","","","","","","","","","","","","","","","","feedback_test","","","","","","","","","","","",""
"838","","j","psychophysics","151","423068","0.0-7.0-0.0-4.0-0.0-0.22","4","3","4","3","4","4","4","4","4","4","4","4","5","3","3","5","3","3","5","2","3","4","1","1","2","2","1","2","4","1","0","1","1","0","0","0","1","0","1","1","0","1","0","1","5","2","3","4","1","5","3","3","2","1","2","784086466967113730","管","388","","","","nonmatch","","","","","","","","","","","","","","key","j","16.65321100917442","774.8571180181065","431.99998615168766","j","true","nonmatch","img/diamond.png","五边","菱形","ALT1","formal_ALT1_1","","","","","","","","","","","",""
"null","<span style='color:GreenYellow; font-size: 70px;'>正确! </span>","null","html-keyboard-response","152","423586","0.0-7.0-0.0-4.0-0.0-1.22","4","3","4","3","4","4","4","4","4","4","4","4","5","3","3","5","3","3","5","2","3","4","1","1","2","2","1","2","4","1","0","1","1","0","0","0","1","0","1","1","0","1","0","1","5","2","3","4","1","5","3","3","2","1","2","784086466967113730","管","388","","","","","","","","","","","","","","","","","","","","","","","","","","","","","","feedback_test","","","","","","","","","","","",""
"563","","j","psychophysics","153","425156","0.0-7.0-0.0-4.0-0.0-0.23","4","3","4","3","4","4","4","4","4","4","4","4","5","3","3","5","3","3","5","2","3","4","1","1","2","2","1","2","4","1","0","1","1","0","0","0","1","0","1","1","0","1","0","1","5","2","3","4","1","5","3","3","2","1","2","784086466967113730","管","388","","","","nonmatch","","","","","","","","","","","","","","key","j","16.66021505376369","774.8571180181065","431.99998615168766","j","true","nonmatch","img/ellipse.png","梯形","椭圆","ALT1","formal_ALT1_1","","","","","","","","","","","",""
"null","<span style='color:GreenYellow; font-size: 70px;'>正确! </span>","null","html-keyboard-response","154","425673","0.0-7.0-0.0-4.0-0.0-1.23","4","3","4","3","4","4","4","4","4","4","4","4","5","3","3","5","3","3","5","2","3","4","1","1","2","2","1","2","4","1","0","1","1","0","0","0","1","0","1","1","0","1","0","1","5","2","3","4","1","5","3","3","2","1","2","784086466967113730","管","388","","","","","","","","","","","","","","","","","","","","","","","","","","","","","","feedback_test","","","","","","","","","","","",""
"539","","j","psychophysics","155","427222","0.0-7.0-0.0-4.0-0.0-0.24","4","3","4","3","4","4","4","4","4","4","4","4","5","3","3","5","3","3","5","2","3","4","1","1","2","2","1","2","4","1","0","1","1","0","0","0","1","0","1","1","0","1","0","1","5","2","3","4","1","5","3","3","2","1","2","784086466967113730","管","388","","","","nonmatch","","","","","","","","","","","","","","key","j","16.65652173913069","774.8571180181065","431.99998615168766","j","true","nonmatch","img/ellipse.png","五边","椭圆","ALT1","formal_ALT1_1","","","","","","","","","","","",""
"null","<span style='color:GreenYellow; font-size: 70px;'>正确! </span>","null","html-keyboard-response","156","427734","0.0-7.0-0.0-4.0-0.0-1.24","4","3","4","3","4","4","4","4","4","4","4","4","5","3","3","5","3","3","5","2","3","4","1","1","2","2","1","2","4","1","0","1","1","0","0","0","1","0","1","1","0","1","0","1","5","2","3","4","1","5","3","3","2","1","2","784086466967113730","管","388","","","","","","","","","","","","","","","","","","","","","","","","","","","","","","feedback_test","","","","","","","","","","","",""
"664","","f","psychophysics","157","429400","0.0-7.0-0.0-4.0-0.0-0.25","4","3","4","3","4","4","4","4","4","4","4","4","5","3","3","5","3","3","5","2","3","4","1","1","2","2","1","2","4","1","0","1","1","0","0","0","1","0","1","1","0","1","0","1","5","2","3","4","1","5","3","3","2","1","2","784086466967113730","管","388","","","","match","","","","","","","","","","","","","","key","f","16.652525252525017","774.8571180181065","431.99998615168766","f","true","match","img/ellipse.png","椭圆","椭圆","ALT1","formal_ALT1_1","","","","","","","","","","","",""
"null","<span style='color:GreenYellow; font-size: 70px;'>正确! </span>","null","html-keyboard-response","158","429901","0.0-7.0-0.0-4.0-0.0-1.25","4","3","4","3","4","4","4","4","4","4","4","4","5","3","3","5","3","3","5","2","3","4","1","1","2","2","1","2","4","1","0","1","1","0","0","0","1","0","1","1","0","1","0","1","5","2","3","4","1","5","3","3","2","1","2","784086466967113730","管","388","","","","","","","","","","","","","","","","","","","","","","","","","","","","","","feedback_test","","","","","","","","","","","",""
"662","","f","psychophysics","159","431573","0.0-7.0-0.0-4.0-0.0-0.26","4","3","4","3","4","4","4","4","4","4","4","4","5","3","3","5","3","3","5","2","3","4","1","1","2","2","1","2","4","1","0","1","1","0","0","0","1","0","1","1","0","1","0","1","5","2","3","4","1","5","3","3","2","1","2","784086466967113730","管","388","","","","match","","","","","","","","","","","","","","key","f","16.654545454545925","774.8571180181065","431.99998615168766","f","true","match","img/pentagon.png","五边","五边","ALT1","formal_ALT1_1","","","","","","","","","","","",""
"null","<span style='color:GreenYellow; font-size: 70px;'>正确! </span>","null","html-keyboard-response","160","432077","0.0-7.0-0.0-4.0-0.0-1.26","4","3","4","3","4","4","4","4","4","4","4","4","5","3","3","5","3","3","5","2","3","4","1","1","2","2","1","2","4","1","0","1","1","0","0","0","1","0","1","1","0","1","0","1","5","2","3","4","1","5","3","3","2","1","2","784086466967113730","管","388","","","","","","","","","","","","","","","","","","","","","","","","","","","","","","feedback_test","","","","","","","","","","","",""
"746","","j","psychophysics","161","433832","0.0-7.0-0.0-4.0-0.0-0.27","4","3","4","3","4","4","4","4","4","4","4","4","5","3","3","5","3","3","5","2","3","4","1","1","2","2","1","2","4","1","0","1","1","0","0","0","1","0","1","1","0","1","0","1","5","2","3","4","1","5","3","3","2","1","2","784086466967113730","管","388","","","","nonmatch","","","","","","","","","","","","","","key","j","16.64038461538439","774.8571180181065","431.99998615168766","j","true","nonmatch","img/trapezoid.png","菱形","梯形","ALT1","formal_ALT1_1","","","","","","","","","","","",""
"null","<span style='color:GreenYellow; font-size: 70px;'>正确! </span>","null","html-keyboard-response","162","434338","0.0-7.0-0.0-4.0-0.0-1.27","4","3","4","3","4","4","4","4","4","4","4","4","5","3","3","5","3","3","5","2","3","4","1","1","2","2","1","2","4","1","0","1","1","0","0","0","1","0","1","1","0","1","0","1","5","2","3","4","1","5","3","3","2","1","2","784086466967113730","管","388","","","","","","","","","","","","","","","","","","","","","","","","","","","","","","feedback_test","","","","","","","","","","","",""
"596","","f","psychophysics","163","435935","0.0-7.0-0.0-4.0-0.0-0.28","4","3","4","3","4","4","4","4","4","4","4","4","5","3","3","5","3","3","5","2","3","4","1","1","2","2","1","2","4","1","0","1","1","0","0","0","1","0","1","1","0","1","0","1","5","2","3","4","1","5","3","3","2","1","2","784086466967113730","管","388","","","","match","","","","","","","","","","","","","","key","f","16.655789473684088","774.8571180181065","431.99998615168766","f","true","match","img/ellipse.png","椭圆","椭圆","ALT1","formal_ALT1_1","","","","","","","","","","","",""
"null","<span style='color:GreenYellow; font-size: 70px;'>正确! </span>","null","html-keyboard-response","164","436443","0.0-7.0-0.0-4.0-0.0-1.28","4","3","4","3","4","4","4","4","4","4","4","4","5","3","3","5","3","3","5","2","3","4","1","1","2","2","1","2","4","1","0","1","1","0","0","0","1","0","1","1","0","1","0","1","5","2","3","4","1","5","3","3","2","1","2","784086466967113730","管","388","","","","","","","","","","","","","","","","","","","","","","","","","","","","","","feedback_test","","","","","","","","","","","",""
"573","","f","psychophysics","165","438026","0.0-7.0-0.0-4.0-0.0-0.29","4","3","4","3","4","4","4","4","4","4","4","4","5","3","3","5","3","3","5","2","3","4","1","1","2","2","1","2","4","1","0","1","1","0","0","0","1","0","1","1","0","1","0","1","5","2","3","4","1","5","3","3","2","1","2","784086466967113730","管","388","","","","match","","","","","","","","","","","","","","key","f","16.654255319148938","774.8571180181065","431.99998615168766","f","true","match","img/pentagon.png","五边","五边","ALT1","formal_ALT1_1","","","","","","","","","","","",""
"null","<span style='color:GreenYellow; font-size: 70px;'>正确! </span>","null","html-keyboard-response","166","438534","0.0-7.0-0.0-4.0-0.0-1.29","4","3","4","3","4","4","4","4","4","4","4","4","5","3","3","5","3","3","5","2","3","4","1","1","2","2","1","2","4","1","0","1","1","0","0","0","1","0","1","1","0","1","0","1","5","2","3","4","1","5","3","3","2","1","2","784086466967113730","管","388","","","","","","","","","","","","","","","","","","","","","","","","","","","","","","feedback_test","","","","","","","","","","","",""
"647","","j","psychophysics","167","440183","0.0-7.0-0.0-4.0-0.0-0.30","4","3","4","3","4","4","4","4","4","4","4","4","5","3","3","5","3","3","5","2","3","4","1","1","2","2","1","2","4","1","0","1","1","0","0","0","1","0","1","1","0","1","0","1","5","2","3","4","1","5","3","3","2","1","2","784086466967113730","管","388","","","","nonmatch","","","","","","","","","","","","","","key","j","16.65463917525773","774.8571180181065","431.99998615168766","j","true","nonmatch","img/diamond.png","五边","菱形","ALT1","formal_ALT1_1","","","","","","","","","","","",""
"null","<span style='color:GreenYellow; font-size: 70px;'>正确! </span>","null","html-keyboard-response","168","440687","0.0-7.0-0.0-4.0-0.0-1.30","4","3","4","3","4","4","4","4","4","4","4","4","5","3","3","5","3","3","5","2","3","4","1","1","2","2","1","2","4","1","0","1","1","0","0","0","1","0","1","1","0","1","0","1","5","2","3","4","1","5","3","3","2","1","2","784086466967113730","管","388","","","","","","","","","","","","","","","","","","","","","","","","","","","","","","feedback_test","","","","","","","","","","","",""
"557","","f","psychophysics","169","442246","0.0-7.0-0.0-4.0-0.0-0.31","4","3","4","3","4","4","4","4","4","4","4","4","5","3","3","5","3","3","5","2","3","4","1","1","2","2","1","2","4","1","0","1","1","0","0","0","1","0","1","1","0","1","0","1","5","2","3","4","1","5","3","3","2","1","2","784086466967113730","管","388","","","","match","","","","","","","","","","","","","","key","f","16.652173913043477","774.8571180181065","431.99998615168766","f","true","match","img/pentagon.png","五边","五边","ALT1","formal_ALT1_1","","","","","","","","","","","",""
"null","<span style='color:GreenYellow; font-size: 70px;'>正确! </span>","null","html-keyboard-response","170","442748","0.0-7.0-0.0-4.0-0.0-1.31","4","3","4","3","4","4","4","4","4","4","4","4","5","3","3","5","3","3","5","2","3","4","1","1","2","2","1","2","4","1","0","1","1","0","0","0","1","0","1","1","0","1","0","1","5","2","3","4","1","5","3","3","2","1","2","784086466967113730","管","388","","","","","","","","","","","","","","","","","","","","","","","","","","","","","","feedback_test","","","","","","","","","","","",""
"576","","j","psychophysics","171","444329","0.0-7.0-0.0-4.0-0.0-0.32","4","3","4","3","4","4","4","4","4","4","4","4","5","3","3","5","3","3","5","2","3","4","1","1","2","2","1","2","4","1","0","1","1","0","0","0","1","0","1","1","0","1","0","1","5","2","3","4","1","5","3","3","2","1","2","784086466967113730","管","388","","","","nonmatch","","","","","","","","","","","","","","key","j","16.651612903225555","774.8571180181065","431.99998615168766","j","true","nonmatch","img/pentagon.png","菱形","五边","ALT1","formal_ALT1_1","","","","","","","","","","","",""
"null","<span style='color:GreenYellow; font-size: 70px;'>正确! </span>","null","html-keyboard-response","172","444834","0.0-7.0-0.0-4.0-0.0-1.32","4","3","4","3","4","4","4","4","4","4","4","4","5","3","3","5","3","3","5","2","3","4","1","1","2","2","1","2","4","1","0","1","1","0","0","0","1","0","1","1","0","1","0","1","5","2","3","4","1","5","3","3","2","1","2","784086466967113730","管","388","","","","","","","","","","","","","","","","","","","","","","","","","","","","","","feedback_test","","","","","","","","","","","",""
"603","","j","psychophysics","173","446444","0.0-7.0-0.0-4.0-0.0-0.33","4","3","4","3","4","4","4","4","4","4","4","4","5","3","3","5","3","3","5","2","3","4","1","1","2","2","1","2","4","1","0","1","1","0","0","0","1","0","1","1","0","1","0","1","5","2","3","4","1","5","3","3","2","1","2","784086466967113730","管","388","","","","nonmatch","","","","","","","","","","","","","","key","j","16.654736842105386","774.8571180181065","431.99998615168766","j","true","nonmatch","img/diamond.png","椭圆","菱形","ALT1","formal_ALT1_1","","","","","","","","","","","",""
"null","<span style='color:GreenYellow; font-size: 70px;'>正确! </span>","null","html-keyboard-response","174","446946","0.0-7.0-0.0-4.0-0.0-1.33","4","3","4","3","4","4","4","4","4","4","4","4","5","3","3","5","3","3","5","2","3","4","1","1","2","2","1","2","4","1","0","1","1","0","0","0","1","0","1","1","0","1","0","1","5","2","3","4","1","5","3","3","2","1","2","784086466967113730","管","388","","","","","","","","","","","","","","","","","","","","","","","","","","","","","","feedback_test","","","","","","","","","","","",""
"580","","j","psychophysics","175","448532","0.0-7.0-0.0-4.0-0.0-0.34","4","3","4","3","4","4","4","4","4","4","4","4","5","3","3","5","3","3","5","2","3","4","1","1","2","2","1","2","4","1","0","1","1","0","0","0","1","0","1","1","0","1","0","1","5","2","3","4","1","5","3","3","2","1","2","784086466967113730","管","388","","","","nonmatch","","","","","","","","","","","","","","key","j","16.652127659574344","774.8571180181065","431.99998615168766","j","true","nonmatch","img/trapezoid.png","椭圆","梯形","ALT1","formal_ALT1_1","","","","","","","","","","","",""
"null","<span style='color:GreenYellow; font-size: 70px;'>正确! </span>","null","html-keyboard-response","176","449035","0.0-7.0-0.0-4.0-0.0-1.34","4","3","4","3","4","4","4","4","4","4","4","4","5","3","3","5","3","3","5","2","3","4","1","1","2","2","1","2","4","1","0","1","1","0","0","0","1","0","1","1","0","1","0","1","5","2","3","4","1","5","3","3","2","1","2","784086466967113730","管","388","","","","","","","","","","","","","","","","","","","","","","","","","","","","","","feedback_test","","","","","","","","","","","",""
