"rt","stimulus","response","trial_type","trial_index","time_elapsed","internal_node_id","ses_1","ses_2","ses_3","ses_4","ses_5","ses_6","ses_7","ses_8","ses_9","ses_10","coreself_1","coreself_2","coreself_3","coreself_4","coreself_5","coreself_6","coreself_7","coreself_8","coreself_9","coreself_10","SGPS_1","SGPS_2","SGPS_3","SGPS_4","SGPS_5","SGPS_6","SGPS_7","SGPS_8","SGPS_9","NPI1","NPI2","NPI3","NPI4","NPI5","NPI6","NPI7","NPI8","NPI9","NPI10","NPI11","NPI12","NPI13","NPI14","NPI15","hsns_1","hsns_2","hsns_3","hsns_4","hsns_5","trap1","hsns_6","hsns_7","hsns_8","hsns_9","hsns_10","subj_idx","friend_name","ParticipantID","value","success","user_agent","responses","item_order","radio_event_ids","radio_event_times","key_event_times","mouse_event_times","straightlining","zigzagging","honeypot","timeout","failed_images","failed_audio","failed_video","version_attrib","version_target","correct","IAT","screen_id","task_id","RT","condition","word","varname","summary","version_attrib2","version_target2","time_stamp","view_history","response_type","key_press","avg_frame_time","center_x","center_y","correct_response","identity","Image","question_order","correct_answer","trap1_item"
"5095","
   <p><div style = ""color: white;font-size:25px;"">您好，欢迎参加本次实验。</div> </p>
   <p><div style = ""color: white;font-size:25px;"">为充分保障您的权利，请确保您已经知晓并同意《参与实验同意书》以及《数据公开知情同意书》。</div></p>
   <p><div style = ""color: white;font-size:25px;"">如果您未见过上述内容，请咨询实验员。</div></p>
   <p><div style = ""color: white;font-size:25px;"">如果您选择继续实验，则表示您已经清楚两份知情同意书的内容并同意。</div></p>
   <p><div style = ""color: pink;font-size:30px;"">请确保您记得day0的实验编号，您将在本次实验输入该编号，若您忘记，请咨询实验员后作答。</div></p>
   <p><div style = ""color: lightblue;font-size:25px;"">请您尽可能认真地作答，我们将依据您在各问卷和按键任务中的作答质量发放报酬。</div></p>
   <p> <div style = ""color: green;font-size:25px;""><按空格键至下页></div> </p>
   "," ","html-keyboard-response","0","5101","0.0-0.0","3","4","4","4","4","4","3","4","4","4","5","4","5","4","5","4","4","5","4","5","1","2","2","1","1","2","1","4","1","1","0","0","0","0","0","0","0","0","1","1","0","0","0","0","5","1","2","1","2","4","3","4","","","","763058298605015041","刘","280","","","","","","","","","","","","","","","","","","","","","","","","","","","","","","","","","","","","","","","","","",""
"","","","call-function","1","5102","0.0-1.0-0.0","3","4","4","4","4","4","3","4","4","4","5","4","5","4","5","4","4","5","4","5","1","2","2","1","1","2","1","4","1","1","0","0","0","0","0","0","0","0","1","1","0","0","0","0","5","1","2","1","2","4","3","4","","","","763058298605015041","刘","280","","","","","","","","","","","","","","","","","","","","","","","","","","","","","","","","","","","","","","","","","",""
"41332","","{""friend_name"":""刘"",""ParticipantID"":""280""}","survey-html-form","2","46435","0.0-1.0-1.0","3","4","4","4","4","4","3","4","4","4","5","4","5","4","5","4","4","5","4","5","1","2","2","1","1","2","1","4","1","1","0","0","0","0","0","0","0","0","1","1","0","0","0","0","5","1","2","1","2","4","3","4","","","","763058298605015041","刘","280","","","","","","","","","","","","","","","","","","","","","","","","","","","","","","","","","","","","","","","","","",""
"","","","fullscreen","3","49182","0.0-2.0","3","4","4","4","4","4","3","4","4","4","5","4","5","4","5","4","4","5","4","5","1","2","2","1","1","2","1","4","1","1","0","0","0","0","0","0","0","0","1","1","0","0","0","0","5","1","2","1","2","4","3","4","","","","763058298605015041","刘","280","","true","{}","","","","","","","","","","","","","","","","","","","","","","","","","","","","","","","","","","","","","","",""
"21864.5","","{""Q01"":""3"",""Q02"":""4"",""Q03"":""4"",""Q04"":""4"",""Q05"":""4"",""Q06"":""4"",""Q07"":""3"",""Q08"":""4"",""Q09"":""4"",""Q10"":""4""}","survey-template","4","71052","0.0-3.0","3","4","4","4","4","4","3","4","4","4","5","4","5","4","5","4","4","5","4","5","1","2","2","1","1","2","1","4","1","1","0","0","0","0","0","0","0","0","1","1","0","0","0","0","5","1","2","1","2","4","3","4","","","","763058298605015041","刘","280","","","","{""Q01"":""3"",""Q02"":""4"",""Q03"":""4"",""Q04"":""4"",""Q05"":""4"",""Q06"":""4"",""Q07"":""3"",""Q08"":""4"",""Q09"":""4"",""Q10"":""4""}","[0,1,2,3,4,5,6,7,8,9]","[""Q01"",""Q02"",""Q03"",""Q04"",""Q05"",""Q06"",""Q07"",""Q07"",""Q08"",""Q09"",""Q10""]","[3195.300000011921,4888.0999999940395,6855.5,8473,10509.5,12206,15001.199999988079,15189.90000000596,17313.30000001192,20411.40000000596,21008.80000001192]","[]","[2623.699999988079,3195.300000011921,4888.0999999940395,6855.5,8473,10509.5,12206,13450.59999999404,15001.199999988079,15189.90000000596,17313.30000001192,20411.40000000596,21008.80000001192,21862.40000000596]","0.5","0.6666666666666666","0","","","","","","","","","","","","","","","","","","","","","","","","","","","","","",""
"18340.5","","{""Q01"":""5"",""Q02"":""4"",""Q03"":""5"",""Q04"":""4"",""Q05"":""5"",""Q06"":""4"",""Q07"":""4"",""Q08"":""5"",""Q09"":""4"",""Q10"":""5""}","survey-template","5","89400","0.0-4.0","3","4","4","4","4","4","3","4","4","4","5","4","5","4","5","4","4","5","4","5","1","2","2","1","1","2","1","4","1","1","0","0","0","0","0","0","0","0","1","1","0","0","0","0","5","1","2","1","2","4","3","4","","","","763058298605015041","刘","280","","","","{""Q01"":""5"",""Q02"":""4"",""Q03"":""5"",""Q04"":""4"",""Q05"":""5"",""Q06"":""4"",""Q07"":""4"",""Q08"":""5"",""Q09"":""4"",""Q10"":""5""}","[0,1,2,3,4,5,6,7,8,9]","[""Q01"",""Q02"",""Q03"",""Q04"",""Q05"",""Q06"",""Q07"",""Q08"",""Q09"",""Q10""]","[3039.5,4339.899999976158,5665.899999976158,7317.0999999940395,8850.299999982119,9869.299999982119,11601.199999988079,14719.5,15843,17323.59999999404]","[]","[3039.5,4339.899999976158,5665.899999976158,6647,7317.0999999940395,8850.299999982119,9869.299999982119,11601.199999988079,14719.5,15843,17323.59999999404,18338.79999998212]","0.4","0.2222222222222222","0","","","","","","","","","","","","","","","","","","","","","","","","","","","","","",""
"","","","preload","6","89931","0.0-5.0","3","4","4","4","4","4","3","4","4","4","5","4","5","4","5","4","4","5","4","5","1","2","2","1","1","2","1","4","1","1","0","0","0","0","0","0","0","0","1","1","0","0","0","0","5","1","2","1","2","4","3","4","","","","763058298605015041","刘","280","","true","","","","","","","","","","","false","[]","[]","[]","","","","","","","","","","","","","","","","","","","","","","","","","",""
"15378","
    <h3>词语分类任务</h3>
    <p>在接下来的任务中，你需要对一系列词语进行分类。</p>
    <p>请先熟悉这些词语，这有利于你完成接下来的任务。</p>
    <table align=""center"" border=1 cellpadding=3 cellspacing=0>
    <tr> <th>类别</th> <th>词语</th> </tr>
    <tr> <td>&emsp;积极&emsp;</td> <td>&emsp;能干、全能、全才、高效、精干、天才&emsp;</td> </tr>
    <tr> <td>&emsp;消极&emsp;</td> <td>&emsp;无能、低能、废物、拙笨、愚钝、蠢笨&emsp;</td> </tr>
    <tr> <td>&emsp;自我&emsp;</td> <td>&emsp;我、我的、自己、自己的、本人、本人的&emsp;</td> </tr>
    <tr> <td>&emsp;他人&emsp;</td> <td>&emsp;他、他的、别人、别人的、他人、他人的&emsp;</td> </tr>
    </table><br/>","0","html-button-response","7","105310","0.0-6.0-0.0-0.0","3","4","4","4","4","4","3","4","4","4","5","4","5","4","5","4","4","5","4","5","1","2","2","1","1","2","1","4","1","1","0","0","0","0","0","0","0","0","1","1","0","0","0","0","5","1","2","1","2","4","3","4","","","","763058298605015041","刘","280","","","","","","","","","","","","","","","","","1","2","","","","","","","","","","","","","","","","","","","","","","","",""
"10435","
    <div class=""tag-bottom"">
    <p> —— 任务1：对“他人”词和“自我”词分类 ——<p/>
    不同词语会出现在屏幕中央，类别标签将始终显示在屏幕上方<p/>   
    <span style=""color:#FFD866""><b>请根据上方标签的提示，尽可能正确并且快速地做出按键反应</b></span><p/>
    当按键错误时屏幕中会出现<span style=""color:red""> X </span>，需要按另一个键纠正才能继续<br/><p/>
    请把双手食指分别放在键盘的“E”键和“I”键上<p/>
    按<空格键>开始
    </p></div>"," ","html-keyboard-response","8","115750","0.0-6.0-0.0-1.0","3","4","4","4","4","4","3","4","4","4","5","4","5","4","5","4","4","5","4","5","1","2","2","1","1","2","1","4","1","1","0","0","0","0","0","0","0","0","1","1","0","0","0","0","5","1","2","1","2","4","3","4","","","","763058298605015041","刘","280","","","","","","","","","","","","","","","","","","","","","","","","","","","","","","","","","","","","","","","","","",""
"null","","null","html-keyboard-response","9","116003","0.0-6.0-0.0-2.0-0.0","3","4","4","4","4","4","3","4","4","4","5","4","5","4","5","4","4","5","4","5","1","2","2","1","1","2","1","4","1","1","0","0","0","0","0","0","0","0","1","1","0","0","0","0","5","1","2","1","2","4","3","4","","","","763058298605015041","刘","280","","","","","","","","","","","","","","","","","","","","","","","","","","","","","","","","","","","","","","","","","",""
"747","<p style=""color:rgb(150, 250, 100); font-size: 35px;"">我</p>","i","categorize-html","10","116758","0.0-6.0-0.0-2.0-1.0","3","4","4","4","4","4","3","4","4","4","5","4","5","4","5","4","4","5","4","5","1","2","2","1","1","2","1","4","1","1","0","0","0","0","0","0","0","0","1","1","0","0","0","0","5","1","2","1","2","4","3","4","","","","763058298605015041","刘","280","","","","","","","","","","","","","","","","","","","true","1","1","ability","747","self","我","","","","","","","","","","","","","","","","",""
"null","","null","html-keyboard-response","11","117011","0.0-6.0-0.0-2.0-0.1","3","4","4","4","4","4","3","4","4","4","5","4","5","4","5","4","4","5","4","5","1","2","2","1","1","2","1","4","1","1","0","0","0","0","0","0","0","0","1","1","0","0","0","0","5","1","2","1","2","4","3","4","","","","763058298605015041","刘","280","","","","","","","","","","","","","","","","","","","","","","","","","","","","","","","","","","","","","","","","","",""
"749","<p style=""color:rgb(150, 250, 100); font-size: 35px;"">本人的</p>","i","categorize-html","12","117765","0.0-6.0-0.0-2.0-1.1","3","4","4","4","4","4","3","4","4","4","5","4","5","4","5","4","4","5","4","5","1","2","2","1","1","2","1","4","1","1","0","0","0","0","0","0","0","0","1","1","0","0","0","0","5","1","2","1","2","4","3","4","","","","763058298605015041","刘","280","","","","","","","","","","","","","","","","","","","true","1","1","ability","749","self","本人的","","","","","","","","","","","","","","","","",""
"null","","null","html-keyboard-response","13","118017","0.0-6.0-0.0-2.0-0.2","3","4","4","4","4","4","3","4","4","4","5","4","5","4","5","4","4","5","4","5","1","2","2","1","1","2","1","4","1","1","0","0","0","0","0","0","0","0","1","1","0","0","0","0","5","1","2","1","2","4","3","4","","","","763058298605015041","刘","280","","","","","","","","","","","","","","","","","","","","","","","","","","","","","","","","","","","","","","","","","",""
"457","<p style=""color:rgb(150, 250, 100); font-size: 35px;"">他</p>","e","categorize-html","14","118477","0.0-6.0-0.0-2.0-1.2","3","4","4","4","4","4","3","4","4","4","5","4","5","4","5","4","4","5","4","5","1","2","2","1","1","2","1","4","1","1","0","0","0","0","0","0","0","0","1","1","0","0","0","0","5","1","2","1","2","4","3","4","","","","763058298605015041","刘","280","","","","","","","","","","","","","","","","","","","true","1","1","ability","457","other","他","","","","","","","","","","","","","","","","",""
"null","","null","html-keyboard-response","15","118728","0.0-6.0-0.0-2.0-0.3","3","4","4","4","4","4","3","4","4","4","5","4","5","4","5","4","4","5","4","5","1","2","2","1","1","2","1","4","1","1","0","0","0","0","0","0","0","0","1","1","0","0","0","0","5","1","2","1","2","4","3","4","","","","763058298605015041","刘","280","","","","","","","","","","","","","","","","","","","","","","","","","","","","","","","","","","","","","","","","","",""
"692","<p style=""color:rgb(150, 250, 100); font-size: 35px;"">别人的</p>","e","categorize-html","16","119428","0.0-6.0-0.0-2.0-1.3","3","4","4","4","4","4","3","4","4","4","5","4","5","4","5","4","4","5","4","5","1","2","2","1","1","2","1","4","1","1","0","0","0","0","0","0","0","0","1","1","0","0","0","0","5","1","2","1","2","4","3","4","","","","763058298605015041","刘","280","","","","","","","","","","","","","","","","","","","true","1","1","ability","692","other","别人的","","","","","","","","","","","","","","","","",""
"null","","null","html-keyboard-response","17","119680","0.0-6.0-0.0-2.0-0.4","3","4","4","4","4","4","3","4","4","4","5","4","5","4","5","4","4","5","4","5","1","2","2","1","1","2","1","4","1","1","0","0","0","0","0","0","0","0","1","1","0","0","0","0","5","1","2","1","2","4","3","4","","","","763058298605015041","刘","280","","","","","","","","","","","","","","","","","","","","","","","","","","","","","","","","","","","","","","","","","",""
"435","<p style=""color:rgb(150, 250, 100); font-size: 35px;"">别人</p>","e","categorize-html","18","120121","0.0-6.0-0.0-2.0-1.4","3","4","4","4","4","4","3","4","4","4","5","4","5","4","5","4","4","5","4","5","1","2","2","1","1","2","1","4","1","1","0","0","0","0","0","0","0","0","1","1","0","0","0","0","5","1","2","1","2","4","3","4","","","","763058298605015041","刘","280","","","","","","","","","","","","","","","","","","","true","1","1","ability","435","other","别人","","","","","","","","","","","","","","","","",""
"null","","null","html-keyboard-response","19","120374","0.0-6.0-0.0-2.0-0.5","3","4","4","4","4","4","3","4","4","4","5","4","5","4","5","4","4","5","4","5","1","2","2","1","1","2","1","4","1","1","0","0","0","0","0","0","0","0","1","1","0","0","0","0","5","1","2","1","2","4","3","4","","","","763058298605015041","刘","280","","","","","","","","","","","","","","","","","","","","","","","","","","","","","","","","","","","","","","","","","",""
"480","<p style=""color:rgb(150, 250, 100); font-size: 35px;"">他人的</p>","e","categorize-html","20","120859","0.0-6.0-0.0-2.0-1.5","3","4","4","4","4","4","3","4","4","4","5","4","5","4","5","4","4","5","4","5","1","2","2","1","1","2","1","4","1","1","0","0","0","0","0","0","0","0","1","1","0","0","0","0","5","1","2","1","2","4","3","4","","","","763058298605015041","刘","280","","","","","","","","","","","","","","","","","","","true","1","1","ability","480","other","他人的","","","","","","","","","","","","","","","","",""
"null","","null","html-keyboard-response","21","121112","0.0-6.0-0.0-2.0-0.6","3","4","4","4","4","4","3","4","4","4","5","4","5","4","5","4","4","5","4","5","1","2","2","1","1","2","1","4","1","1","0","0","0","0","0","0","0","0","1","1","0","0","0","0","5","1","2","1","2","4","3","4","","","","763058298605015041","刘","280","","","","","","","","","","","","","","","","","","","","","","","","","","","","","","","","","","","","","","","","","",""
"484","<p style=""color:rgb(150, 250, 100); font-size: 35px;"">我的</p>","i","categorize-html","22","121601","0.0-6.0-0.0-2.0-1.6","3","4","4","4","4","4","3","4","4","4","5","4","5","4","5","4","4","5","4","5","1","2","2","1","1","2","1","4","1","1","0","0","0","0","0","0","0","0","1","1","0","0","0","0","5","1","2","1","2","4","3","4","","","","763058298605015041","刘","280","","","","","","","","","","","","","","","","","","","true","1","1","ability","484","self","我的","","","","","","","","","","","","","","","","",""
"null","","null","html-keyboard-response","23","121853","0.0-6.0-0.0-2.0-0.7","3","4","4","4","4","4","3","4","4","4","5","4","5","4","5","4","4","5","4","5","1","2","2","1","1","2","1","4","1","1","0","0","0","0","0","0","0","0","1","1","0","0","0","0","5","1","2","1","2","4","3","4","","","","763058298605015041","刘","280","","","","","","","","","","","","","","","","","","","","","","","","","","","","","","","","","","","","","","","","","",""
"481","<p style=""color:rgb(150, 250, 100); font-size: 35px;"">自己</p>","i","categorize-html","24","122340","0.0-6.0-0.0-2.0-1.7","3","4","4","4","4","4","3","4","4","4","5","4","5","4","5","4","4","5","4","5","1","2","2","1","1","2","1","4","1","1","0","0","0","0","0","0","0","0","1","1","0","0","0","0","5","1","2","1","2","4","3","4","","","","763058298605015041","刘","280","","","","","","","","","","","","","","","","","","","true","1","1","ability","481","self","自己","","","","","","","","","","","","","","","","",""
"null","","null","html-keyboard-response","25","122592","0.0-6.0-0.0-2.0-0.8","3","4","4","4","4","4","3","4","4","4","5","4","5","4","5","4","4","5","4","5","1","2","2","1","1","2","1","4","1","1","0","0","0","0","0","0","0","0","1","1","0","0","0","0","5","1","2","1","2","4","3","4","","","","763058298605015041","刘","280","","","","","","","","","","","","","","","","","","","","","","","","","","","","","","","","","","","","","","","","","",""
"457","<p style=""color:rgb(150, 250, 100); font-size: 35px;"">他人</p>","e","categorize-html","26","123055","0.0-6.0-0.0-2.0-1.8","3","4","4","4","4","4","3","4","4","4","5","4","5","4","5","4","4","5","4","5","1","2","2","1","1","2","1","4","1","1","0","0","0","0","0","0","0","0","1","1","0","0","0","0","5","1","2","1","2","4","3","4","","","","763058298605015041","刘","280","","","","","","","","","","","","","","","","","","","true","1","1","ability","457","other","他人","","","","","","","","","","","","","","","","",""
"null","","null","html-keyboard-response","27","123306","0.0-6.0-0.0-2.0-0.9","3","4","4","4","4","4","3","4","4","4","5","4","5","4","5","4","4","5","4","5","1","2","2","1","1","2","1","4","1","1","0","0","0","0","0","0","0","0","1","1","0","0","0","0","5","1","2","1","2","4","3","4","","","","763058298605015041","刘","280","","","","","","","","","","","","","","","","","","","","","","","","","","","","","","","","","","","","","","","","","",""
"551","<p style=""color:rgb(150, 250, 100); font-size: 35px;"">自己的</p>","i","categorize-html","28","123862","0.0-6.0-0.0-2.0-1.9","3","4","4","4","4","4","3","4","4","4","5","4","5","4","5","4","4","5","4","5","1","2","2","1","1","2","1","4","1","1","0","0","0","0","0","0","0","0","1","1","0","0","0","0","5","1","2","1","2","4","3","4","","","","763058298605015041","刘","280","","","","","","","","","","","","","","","","","","","true","1","1","ability","551","self","自己的","","","","","","","","","","","","","","","","",""
"null","","null","html-keyboard-response","29","124115","0.0-6.0-0.0-2.0-0.10","3","4","4","4","4","4","3","4","4","4","5","4","5","4","5","4","4","5","4","5","1","2","2","1","1","2","1","4","1","1","0","0","0","0","0","0","0","0","1","1","0","0","0","0","5","1","2","1","2","4","3","4","","","","763058298605015041","刘","280","","","","","","","","","","","","","","","","","","","","","","","","","","","","","","","","","","","","","","","","","",""
"467","<p style=""color:rgb(150, 250, 100); font-size: 35px;"">他的</p>","e","categorize-html","30","124587","0.0-6.0-0.0-2.0-1.10","3","4","4","4","4","4","3","4","4","4","5","4","5","4","5","4","4","5","4","5","1","2","2","1","1","2","1","4","1","1","0","0","0","0","0","0","0","0","1","1","0","0","0","0","5","1","2","1","2","4","3","4","","","","763058298605015041","刘","280","","","","","","","","","","","","","","","","","","","true","1","1","ability","467","other","他的","","","","","","","","","","","","","","","","",""
"null","","null","html-keyboard-response","31","124839","0.0-6.0-0.0-2.0-0.11","3","4","4","4","4","4","3","4","4","4","5","4","5","4","5","4","4","5","4","5","1","2","2","1","1","2","1","4","1","1","0","0","0","0","0","0","0","0","1","1","0","0","0","0","5","1","2","1","2","4","3","4","","","","763058298605015041","刘","280","","","","","","","","","","","","","","","","","","","","","","","","","","","","","","","","","","","","","","","","","",""
"434","<p style=""color:rgb(150, 250, 100); font-size: 35px;"">本人</p>","i","categorize-html","32","125278","0.0-6.0-0.0-2.0-1.11","3","4","4","4","4","4","3","4","4","4","5","4","5","4","5","4","4","5","4","5","1","2","2","1","1","2","1","4","1","1","0","0","0","0","0","0","0","0","1","1","0","0","0","0","5","1","2","1","2","4","3","4","","","","763058298605015041","刘","280","","","","","","","","","","","","","","","","","","","true","1","1","ability","434","self","本人","","","","","","","","","","","","","","","","",""
"3538","
    <div class=""tag-bottom""><p>
    —— 任务2：对“积极”词和“消极”词分类 ——<p/>   
    <span style=""color:#78DCE8""><b>注意上方，类别标签和需要分类的词语都已经改变</b></span><p/>
    <span style=""color:#FFD866""><b>请根据上方标签的提示，尽可能正确并且快速地做出按键反应</b></span><p/>
    当按键错误时屏幕中会出现<span style=""color:red""> X </span>，需要按另一个键纠正才能继续<br/><p/>
    请把双手食指分别放在键盘的“E”键和“I”键上<p/>
    按<空格键>开始
    </p></div>"," ","html-keyboard-response","33","128818","0.0-6.0-0.0-3.0","3","4","4","4","4","4","3","4","4","4","5","4","5","4","5","4","4","5","4","5","1","2","2","1","1","2","1","4","1","1","0","0","0","0","0","0","0","0","1","1","0","0","0","0","5","1","2","1","2","4","3","4","","","","763058298605015041","刘","280","","","","","","","","","","","","","","","","","","","","","","","","","","","","","","","","","","","","","","","","","",""
"null","","null","html-keyboard-response","34","129069","0.0-6.0-0.0-4.0-0.0","3","4","4","4","4","4","3","4","4","4","5","4","5","4","5","4","4","5","4","5","1","2","2","1","1","2","1","4","1","1","0","0","0","0","0","0","0","0","1","1","0","0","0","0","5","1","2","1","2","4","3","4","","","","763058298605015041","刘","280","","","","","","","","","","","","","","","","","","","","","","","","","","","","","","","","","","","","","","","","","",""
"798","<p style=""color:white; font-size: 35px;"">高效</p>","e","categorize-html","35","129874","0.0-6.0-0.0-4.0-1.0","3","4","4","4","4","4","3","4","4","4","5","4","5","4","5","4","4","5","4","5","1","2","2","1","1","2","1","4","1","1","0","0","0","0","0","0","0","0","1","1","0","0","0","0","5","1","2","1","2","4","3","4","","","","763058298605015041","刘","280","","","","","","","","","","","","","","","","","","","true","2","2","ability","798","positive","高效","","","","","","","","","","","","","","","","",""
"null","","null","html-keyboard-response","36","130126","0.0-6.0-0.0-4.0-0.1","3","4","4","4","4","4","3","4","4","4","5","4","5","4","5","4","4","5","4","5","1","2","2","1","1","2","1","4","1","1","0","0","0","0","0","0","0","0","1","1","0","0","0","0","5","1","2","1","2","4","3","4","","","","763058298605015041","刘","280","","","","","","","","","","","","","","","","","","","","","","","","","","","","","","","","","","","","","","","","","",""
"477","<p style=""color:white; font-size: 35px;"">蠢笨</p>","i","categorize-html","37","130608","0.0-6.0-0.0-4.0-1.1","3","4","4","4","4","4","3","4","4","4","5","4","5","4","5","4","4","5","4","5","1","2","2","1","1","2","1","4","1","1","0","0","0","0","0","0","0","0","1","1","0","0","0","0","5","1","2","1","2","4","3","4","","","","763058298605015041","刘","280","","","","","","","","","","","","","","","","","","","true","2","2","ability","477","negative","蠢笨","","","","","","","","","","","","","","","","",""
"null","","null","html-keyboard-response","38","130860","0.0-6.0-0.0-4.0-0.2","3","4","4","4","4","4","3","4","4","4","5","4","5","4","5","4","4","5","4","5","1","2","2","1","1","2","1","4","1","1","0","0","0","0","0","0","0","0","1","1","0","0","0","0","5","1","2","1","2","4","3","4","","","","763058298605015041","刘","280","","","","","","","","","","","","","","","","","","","","","","","","","","","","","","","","","","","","","","","","","",""
"433","<p style=""color:white; font-size: 35px;"">全能</p>","e","categorize-html","39","131298","0.0-6.0-0.0-4.0-1.2","3","4","4","4","4","4","3","4","4","4","5","4","5","4","5","4","4","5","4","5","1","2","2","1","1","2","1","4","1","1","0","0","0","0","0","0","0","0","1","1","0","0","0","0","5","1","2","1","2","4","3","4","","","","763058298605015041","刘","280","","","","","","","","","","","","","","","","","","","true","2","2","ability","433","positive","全能","","","","","","","","","","","","","","","","",""
"null","","null","html-keyboard-response","40","131550","0.0-6.0-0.0-4.0-0.3","3","4","4","4","4","4","3","4","4","4","5","4","5","4","5","4","4","5","4","5","1","2","2","1","1","2","1","4","1","1","0","0","0","0","0","0","0","0","1","1","0","0","0","0","5","1","2","1","2","4","3","4","","","","763058298605015041","刘","280","","","","","","","","","","","","","","","","","","","","","","","","","","","","","","","","","","","","","","","","","",""
"492","<p style=""color:white; font-size: 35px;"">废物</p>","i","categorize-html","41","132044","0.0-6.0-0.0-4.0-1.3","3","4","4","4","4","4","3","4","4","4","5","4","5","4","5","4","4","5","4","5","1","2","2","1","1","2","1","4","1","1","0","0","0","0","0","0","0","0","1","1","0","0","0","0","5","1","2","1","2","4","3","4","","","","763058298605015041","刘","280","","","","","","","","","","","","","","","","","","","true","2","2","ability","492","negative","废物","","","","","","","","","","","","","","","","",""
"null","","null","html-keyboard-response","42","132296","0.0-6.0-0.0-4.0-0.4","3","4","4","4","4","4","3","4","4","4","5","4","5","4","5","4","4","5","4","5","1","2","2","1","1","2","1","4","1","1","0","0","0","0","0","0","0","0","1","1","0","0","0","0","5","1","2","1","2","4","3","4","","","","763058298605015041","刘","280","","","","","","","","","","","","","","","","","","","","","","","","","","","","","","","","","","","","","","","","","",""
"549","<p style=""color:white; font-size: 35px;"">低能</p>","i","categorize-html","43","132848","0.0-6.0-0.0-4.0-1.4","3","4","4","4","4","4","3","4","4","4","5","4","5","4","5","4","4","5","4","5","1","2","2","1","1","2","1","4","1","1","0","0","0","0","0","0","0","0","1","1","0","0","0","0","5","1","2","1","2","4","3","4","","","","763058298605015041","刘","280","","","","","","","","","","","","","","","","","","","true","2","2","ability","549","negative","低能","","","","","","","","","","","","","","","","",""
"null","","null","html-keyboard-response","44","133100","0.0-6.0-0.0-4.0-0.5","3","4","4","4","4","4","3","4","4","4","5","4","5","4","5","4","4","5","4","5","1","2","2","1","1","2","1","4","1","1","0","0","0","0","0","0","0","0","1","1","0","0","0","0","5","1","2","1","2","4","3","4","","","","763058298605015041","刘","280","","","","","","","","","","","","","","","","","","","","","","","","","","","","","","","","","","","","","","","","","",""
"447","<p style=""color:white; font-size: 35px;"">天才</p>","e","categorize-html","45","133549","0.0-6.0-0.0-4.0-1.5","3","4","4","4","4","4","3","4","4","4","5","4","5","4","5","4","4","5","4","5","1","2","2","1","1","2","1","4","1","1","0","0","0","0","0","0","0","0","1","1","0","0","0","0","5","1","2","1","2","4","3","4","","","","763058298605015041","刘","280","","","","","","","","","","","","","","","","","","","true","2","2","ability","447","positive","天才","","","","","","","","","","","","","","","","",""
"null","","null","html-keyboard-response","46","133802","0.0-6.0-0.0-4.0-0.6","3","4","4","4","4","4","3","4","4","4","5","4","5","4","5","4","4","5","4","5","1","2","2","1","1","2","1","4","1","1","0","0","0","0","0","0","0","0","1","1","0","0","0","0","5","1","2","1","2","4","3","4","","","","763058298605015041","刘","280","","","","","","","","","","","","","","","","","","","","","","","","","","","","","","","","","","","","","","","","","",""
"464","<p style=""color:white; font-size: 35px;"">精干</p>","e","categorize-html","47","134271","0.0-6.0-0.0-4.0-1.6","3","4","4","4","4","4","3","4","4","4","5","4","5","4","5","4","4","5","4","5","1","2","2","1","1","2","1","4","1","1","0","0","0","0","0","0","0","0","1","1","0","0","0","0","5","1","2","1","2","4","3","4","","","","763058298605015041","刘","280","","","","","","","","","","","","","","","","","","","true","2","2","ability","464","positive","精干","","","","","","","","","","","","","","","","",""
"null","","null","html-keyboard-response","48","134524","0.0-6.0-0.0-4.0-0.7","3","4","4","4","4","4","3","4","4","4","5","4","5","4","5","4","4","5","4","5","1","2","2","1","1","2","1","4","1","1","0","0","0","0","0","0","0","0","1","1","0","0","0","0","5","1","2","1","2","4","3","4","","","","763058298605015041","刘","280","","","","","","","","","","","","","","","","","","","","","","","","","","","","","","","","","","","","","","","","","",""
"454","<p style=""color:white; font-size: 35px;"">全才</p>","e","categorize-html","49","134982","0.0-6.0-0.0-4.0-1.7","3","4","4","4","4","4","3","4","4","4","5","4","5","4","5","4","4","5","4","5","1","2","2","1","1","2","1","4","1","1","0","0","0","0","0","0","0","0","1","1","0","0","0","0","5","1","2","1","2","4","3","4","","","","763058298605015041","刘","280","","","","","","","","","","","","","","","","","","","true","2","2","ability","454","positive","全才","","","","","","","","","","","","","","","","",""
"null","","null","html-keyboard-response","50","135235","0.0-6.0-0.0-4.0-0.8","3","4","4","4","4","4","3","4","4","4","5","4","5","4","5","4","4","5","4","5","1","2","2","1","1","2","1","4","1","1","0","0","0","0","0","0","0","0","1","1","0","0","0","0","5","1","2","1","2","4","3","4","","","","763058298605015041","刘","280","","","","","","","","","","","","","","","","","","","","","","","","","","","","","","","","","","","","","","","","","",""
"475","<p style=""color:white; font-size: 35px;"">无能</p>","i","categorize-html","51","135713","0.0-6.0-0.0-4.0-1.8","3","4","4","4","4","4","3","4","4","4","5","4","5","4","5","4","4","5","4","5","1","2","2","1","1","2","1","4","1","1","0","0","0","0","0","0","0","0","1","1","0","0","0","0","5","1","2","1","2","4","3","4","","","","763058298605015041","刘","280","","","","","","","","","","","","","","","","","","","true","2","2","ability","475","negative","无能","","","","","","","","","","","","","","","","",""
"null","","null","html-keyboard-response","52","135965","0.0-6.0-0.0-4.0-0.9","3","4","4","4","4","4","3","4","4","4","5","4","5","4","5","4","4","5","4","5","1","2","2","1","1","2","1","4","1","1","0","0","0","0","0","0","0","0","1","1","0","0","0","0","5","1","2","1","2","4","3","4","","","","763058298605015041","刘","280","","","","","","","","","","","","","","","","","","","","","","","","","","","","","","","","","","","","","","","","","",""
"490","<p style=""color:white; font-size: 35px;"">能干</p>","e","categorize-html","53","136456","0.0-6.0-0.0-4.0-1.9","3","4","4","4","4","4","3","4","4","4","5","4","5","4","5","4","4","5","4","5","1","2","2","1","1","2","1","4","1","1","0","0","0","0","0","0","0","0","1","1","0","0","0","0","5","1","2","1","2","4","3","4","","","","763058298605015041","刘","280","","","","","","","","","","","","","","","","","","","true","2","2","ability","490","positive","能干","","","","","","","","","","","","","","","","",""
"null","","null","html-keyboard-response","54","136708","0.0-6.0-0.0-4.0-0.10","3","4","4","4","4","4","3","4","4","4","5","4","5","4","5","4","4","5","4","5","1","2","2","1","1","2","1","4","1","1","0","0","0","0","0","0","0","0","1","1","0","0","0","0","5","1","2","1","2","4","3","4","","","","763058298605015041","刘","280","","","","","","","","","","","","","","","","","","","","","","","","","","","","","","","","","","","","","","","","","",""
"466","<p style=""color:white; font-size: 35px;"">拙笨</p>","e","categorize-html","55","138401","0.0-6.0-0.0-4.0-1.10","3","4","4","4","4","4","3","4","4","4","5","4","5","4","5","4","4","5","4","5","1","2","2","1","1","2","1","4","1","1","0","0","0","0","0","0","0","0","1","1","0","0","0","0","5","1","2","1","2","4","3","4","","","","763058298605015041","刘","280","","","","","","","","","","","","","","","","","","","false","2","2","ability","466","negative","拙笨","","","","","","","","","","","","","","","","",""
"null","","null","html-keyboard-response","56","138654","0.0-6.0-0.0-4.0-0.11","3","4","4","4","4","4","3","4","4","4","5","4","5","4","5","4","4","5","4","5","1","2","2","1","1","2","1","4","1","1","0","0","0","0","0","0","0","0","1","1","0","0","0","0","5","1","2","1","2","4","3","4","","","","763058298605015041","刘","280","","","","","","","","","","","","","","","","","","","","","","","","","","","","","","","","","","","","","","","","","",""
"693","<p style=""color:white; font-size: 35px;"">愚钝</p>","i","categorize-html","57","139351","0.0-6.0-0.0-4.0-1.11","3","4","4","4","4","4","3","4","4","4","5","4","5","4","5","4","4","5","4","5","1","2","2","1","1","2","1","4","1","1","0","0","0","0","0","0","0","0","1","1","0","0","0","0","5","1","2","1","2","4","3","4","","","","763058298605015041","刘","280","","","","","","","","","","","","","","","","","","","true","2","2","ability","693","negative","愚钝","","","","","","","","","","","","","","","","",""
"3236","
    <div class=""tag-bottom""><p>
    —— 任务3：对“他人/积极”词和“自我/消极”词分类 ——<p/>
    <span style=""color:#78DCE8""><b>注意上方，之前的四类词语将混合在一起交替呈现</b></span><p/>
    <span style=""color:#FFD866""><b>请根据上方标签的提示，尽可能正确并且快速地做出按键反应</b></span><p/>
    当按键错误时屏幕中会出现<span style=""color:red""> X </span>，需要按另一个键纠正才能继续<br/><p/>
    请把双手食指分别放在键盘的“E”键和“I”键上<p/>
    按<空格键>开始
    </p></div>"," ","html-keyboard-response","58","142588","0.0-6.0-0.0-5.0","3","4","4","4","4","4","3","4","4","4","5","4","5","4","5","4","4","5","4","5","1","2","2","1","1","2","1","4","1","1","0","0","0","0","0","0","0","0","1","1","0","0","0","0","5","1","2","1","2","4","3","4","","","","763058298605015041","刘","280","","","","","","","","","","","","","","","","","","","","","","","","","","","","","","","","","","","","","","","","","",""
"null","","null","html-keyboard-response","59","142841","0.0-6.0-0.0-6.0-0.0","3","4","4","4","4","4","3","4","4","4","5","4","5","4","5","4","4","5","4","5","1","2","2","1","1","2","1","4","1","1","0","0","0","0","0","0","0","0","1","1","0","0","0","0","5","1","2","1","2","4","3","4","","","","763058298605015041","刘","280","","","","","","","","","","","","","","","","","","","","","","","","","","","","","","","","","","","","","","","","","",""
"1582","<p style=""color:rgb(150, 250, 100); font-size: 35px;"">他的</p>","e","categorize-html","60","144426","0.0-6.0-0.0-6.0-1.0","3","4","4","4","4","4","3","4","4","4","5","4","5","4","5","4","4","5","4","5","1","2","2","1","1","2","1","4","1","1","0","0","0","0","0","0","0","0","1","1","0","0","0","0","5","1","2","1","2","4","3","4","","","","763058298605015041","刘","280","","","","","","","","","","","","","","","","","","","true","3","3","ability","1582","other","他的","","","","","","","","","","","","","","","","",""
"null","","null","html-keyboard-response","61","144677","0.0-6.0-0.0-6.0-0.1","3","4","4","4","4","4","3","4","4","4","5","4","5","4","5","4","4","5","4","5","1","2","2","1","1","2","1","4","1","1","0","0","0","0","0","0","0","0","1","1","0","0","0","0","5","1","2","1","2","4","3","4","","","","763058298605015041","刘","280","","","","","","","","","","","","","","","","","","","","","","","","","","","","","","","","","","","","","","","","","",""
"864","<p style=""color:white; font-size: 35px;"">废物</p>","i","categorize-html","62","145547","0.0-6.0-0.0-6.0-1.1","3","4","4","4","4","4","3","4","4","4","5","4","5","4","5","4","4","5","4","5","1","2","2","1","1","2","1","4","1","1","0","0","0","0","0","0","0","0","1","1","0","0","0","0","5","1","2","1","2","4","3","4","","","","763058298605015041","刘","280","","","","","","","","","","","","","","","","","","","true","3","3","ability","864","negative","废物","","","","","","","","","","","","","","","","",""
"null","","null","html-keyboard-response","63","145799","0.0-6.0-0.0-6.0-0.2","3","4","4","4","4","4","3","4","4","4","5","4","5","4","5","4","4","5","4","5","1","2","2","1","1","2","1","4","1","1","0","0","0","0","0","0","0","0","1","1","0","0","0","0","5","1","2","1","2","4","3","4","","","","763058298605015041","刘","280","","","","","","","","","","","","","","","","","","","","","","","","","","","","","","","","","","","","","","","","","",""
"710","<p style=""color:rgb(150, 250, 100); font-size: 35px;"">我的</p>","i","categorize-html","64","146514","0.0-6.0-0.0-6.0-1.2","3","4","4","4","4","4","3","4","4","4","5","4","5","4","5","4","4","5","4","5","1","2","2","1","1","2","1","4","1","1","0","0","0","0","0","0","0","0","1","1","0","0","0","0","5","1","2","1","2","4","3","4","","","","763058298605015041","刘","280","","","","","","","","","","","","","","","","","","","true","3","3","ability","710","self","我的","","","","","","","","","","","","","","","","",""
"null","","null","html-keyboard-response","65","146765","0.0-6.0-0.0-6.0-0.3","3","4","4","4","4","4","3","4","4","4","5","4","5","4","5","4","4","5","4","5","1","2","2","1","1","2","1","4","1","1","0","0","0","0","0","0","0","0","1","1","0","0","0","0","5","1","2","1","2","4","3","4","","","","763058298605015041","刘","280","","","","","","","","","","","","","","","","","","","","","","","","","","","","","","","","","","","","","","","","","",""
"746","<p style=""color:white; font-size: 35px;"">能干</p>","e","categorize-html","66","147516","0.0-6.0-0.0-6.0-1.3","3","4","4","4","4","4","3","4","4","4","5","4","5","4","5","4","4","5","4","5","1","2","2","1","1","2","1","4","1","1","0","0","0","0","0","0","0","0","1","1","0","0","0","0","5","1","2","1","2","4","3","4","","","","763058298605015041","刘","280","","","","","","","","","","","","","","","","","","","true","3","3","ability","746","positive","能干","","","","","","","","","","","","","","","","",""
"null","","null","html-keyboard-response","67","147768","0.0-6.0-0.0-6.0-0.4","3","4","4","4","4","4","3","4","4","4","5","4","5","4","5","4","4","5","4","5","1","2","2","1","1","2","1","4","1","1","0","0","0","0","0","0","0","0","1","1","0","0","0","0","5","1","2","1","2","4","3","4","","","","763058298605015041","刘","280","","","","","","","","","","","","","","","","","","","","","","","","","","","","","","","","","","","","","","","","","",""
"588","<p style=""color:rgb(150, 250, 100); font-size: 35px;"">我</p>","e","categorize-html","68","151620","0.0-6.0-0.0-6.0-1.4","3","4","4","4","4","4","3","4","4","4","5","4","5","4","5","4","4","5","4","5","1","2","2","1","1","2","1","4","1","1","0","0","0","0","0","0","0","0","1","1","0","0","0","0","5","1","2","1","2","4","3","4","","","","763058298605015041","刘","280","","","","","","","","","","","","","","","","","","","false","3","3","ability","1377.6363636363635","self","我","","","","","","","","","","","","","","","","",""
"null","","null","html-keyboard-response","69","151873","0.0-6.0-0.0-6.0-0.5","3","4","4","4","4","4","3","4","4","4","5","4","5","4","5","4","4","5","4","5","1","2","2","1","1","2","1","4","1","1","0","0","0","0","0","0","0","0","1","1","0","0","0","0","5","1","2","1","2","4","3","4","","","","763058298605015041","刘","280","","","","","","","","","","","","","","","","","","","","","","","","","","","","","","","","","","","","","","","","","",""
"851","<p style=""color:white; font-size: 35px;"">高效</p>","e","categorize-html","70","152730","0.0-6.0-0.0-6.0-1.5","3","4","4","4","4","4","3","4","4","4","5","4","5","4","5","4","4","5","4","5","1","2","2","1","1","2","1","4","1","1","0","0","0","0","0","0","0","0","1","1","0","0","0","0","5","1","2","1","2","4","3","4","","","","763058298605015041","刘","280","","","","","","","","","","","","","","","","","","","true","3","3","ability","851","positive","高效","","","","","","","","","","","","","","","","",""
"null","","null","html-keyboard-response","71","152982","0.0-6.0-0.0-6.0-0.6","3","4","4","4","4","4","3","4","4","4","5","4","5","4","5","4","4","5","4","5","1","2","2","1","1","2","1","4","1","1","0","0","0","0","0","0","0","0","1","1","0","0","0","0","5","1","2","1","2","4","3","4","","","","763058298605015041","刘","280","","","","","","","","","","","","","","","","","","","","","","","","","","","","","","","","","","","","","","","","","",""
"684","<p style=""color:rgb(150, 250, 100); font-size: 35px;"">别人的</p>","e","categorize-html","72","153672","0.0-6.0-0.0-6.0-1.6","3","4","4","4","4","4","3","4","4","4","5","4","5","4","5","4","4","5","4","5","1","2","2","1","1","2","1","4","1","1","0","0","0","0","0","0","0","0","1","1","0","0","0","0","5","1","2","1","2","4","3","4","","","","763058298605015041","刘","280","","","","","","","","","","","","","","","","","","","true","3","3","ability","684","other","别人的","","","","","","","","","","","","","","","","",""
"null","","null","html-keyboard-response","73","153924","0.0-6.0-0.0-6.0-0.7","3","4","4","4","4","4","3","4","4","4","5","4","5","4","5","4","4","5","4","5","1","2","2","1","1","2","1","4","1","1","0","0","0","0","0","0","0","0","1","1","0","0","0","0","5","1","2","1","2","4","3","4","","","","763058298605015041","刘","280","","","","","","","","","","","","","","","","","","","","","","","","","","","","","","","","","","","","","","","","","",""
"735","<p style=""color:white; font-size: 35px;"">低能</p>","i","categorize-html","74","154664","0.0-6.0-0.0-6.0-1.7","3","4","4","4","4","4","3","4","4","4","5","4","5","4","5","4","4","5","4","5","1","2","2","1","1","2","1","4","1","1","0","0","0","0","0","0","0","0","1","1","0","0","0","0","5","1","2","1","2","4","3","4","","","","763058298605015041","刘","280","","","","","","","","","","","","","","","","","","","true","3","3","ability","735","negative","低能","","","","","","","","","","","","","","","","",""
"null","","null","html-keyboard-response","75","154916","0.0-6.0-0.0-6.0-0.8","3","4","4","4","4","4","3","4","4","4","5","4","5","4","5","4","4","5","4","5","1","2","2","1","1","2","1","4","1","1","0","0","0","0","0","0","0","0","1","1","0","0","0","0","5","1","2","1","2","4","3","4","","","","763058298605015041","刘","280","","","","","","","","","","","","","","","","","","","","","","","","","","","","","","","","","","","","","","","","","",""
"812","<p style=""color:rgb(150, 250, 100); font-size: 35px;"">他</p>","e","categorize-html","76","155732","0.0-6.0-0.0-6.0-1.8","3","4","4","4","4","4","3","4","4","4","5","4","5","4","5","4","4","5","4","5","1","2","2","1","1","2","1","4","1","1","0","0","0","0","0","0","0","0","1","1","0","0","0","0","5","1","2","1","2","4","3","4","","","","763058298605015041","刘","280","","","","","","","","","","","","","","","","","","","true","3","3","ability","812","other","他","","","","","","","","","","","","","","","","",""
"null","","null","html-keyboard-response","77","155985","0.0-6.0-0.0-6.0-0.9","3","4","4","4","4","4","3","4","4","4","5","4","5","4","5","4","4","5","4","5","1","2","2","1","1","2","1","4","1","1","0","0","0","0","0","0","0","0","1","1","0","0","0","0","5","1","2","1","2","4","3","4","","","","763058298605015041","刘","280","","","","","","","","","","","","","","","","","","","","","","","","","","","","","","","","","","","","","","","","","",""
"1442","<p style=""color:white; font-size: 35px;"">无能</p>","i","categorize-html","78","157433","0.0-6.0-0.0-6.0-1.9","3","4","4","4","4","4","3","4","4","4","5","4","5","4","5","4","4","5","4","5","1","2","2","1","1","2","1","4","1","1","0","0","0","0","0","0","0","0","1","1","0","0","0","0","5","1","2","1","2","4","3","4","","","","763058298605015041","刘","280","","","","","","","","","","","","","","","","","","","true","3","3","ability","1442","negative","无能","","","","","","","","","","","","","","","","",""
"null","","null","html-keyboard-response","79","157686","0.0-6.0-0.0-6.0-0.10","3","4","4","4","4","4","3","4","4","4","5","4","5","4","5","4","4","5","4","5","1","2","2","1","1","2","1","4","1","1","0","0","0","0","0","0","0","0","1","1","0","0","0","0","5","1","2","1","2","4","3","4","","","","763058298605015041","刘","280","","","","","","","","","","","","","","","","","","","","","","","","","","","","","","","","","","","","","","","","","",""
"622","<p style=""color:rgb(150, 250, 100); font-size: 35px;"">自己的</p>","i","categorize-html","80","158313","0.0-6.0-0.0-6.0-1.10","3","4","4","4","4","4","3","4","4","4","5","4","5","4","5","4","4","5","4","5","1","2","2","1","1","2","1","4","1","1","0","0","0","0","0","0","0","0","1","1","0","0","0","0","5","1","2","1","2","4","3","4","","","","763058298605015041","刘","280","","","","","","","","","","","","","","","","","","","true","3","3","ability","622","self","自己的","","","","","","","","","","","","","","","","",""
"null","","null","html-keyboard-response","81","158565","0.0-6.0-0.0-6.0-0.11","3","4","4","4","4","4","3","4","4","4","5","4","5","4","5","4","4","5","4","5","1","2","2","1","1","2","1","4","1","1","0","0","0","0","0","0","0","0","1","1","0","0","0","0","5","1","2","1","2","4","3","4","","","","763058298605015041","刘","280","","","","","","","","","","","","","","","","","","","","","","","","","","","","","","","","","","","","","","","","","",""
"639","<p style=""color:white; font-size: 35px;"">天才</p>","e","categorize-html","82","159208","0.0-6.0-0.0-6.0-1.11","3","4","4","4","4","4","3","4","4","4","5","4","5","4","5","4","4","5","4","5","1","2","2","1","1","2","1","4","1","1","0","0","0","0","0","0","0","0","1","1","0","0","0","0","5","1","2","1","2","4","3","4","","","","763058298605015041","刘","280","","","","","","","","","","","","","","","","","","","true","3","3","ability","639","positive","天才","","","","","","","","","","","","","","","","",""
"null","","null","html-keyboard-response","83","159460","0.0-6.0-0.0-6.0-0.12","3","4","4","4","4","4","3","4","4","4","5","4","5","4","5","4","4","5","4","5","1","2","2","1","1","2","1","4","1","1","0","0","0","0","0","0","0","0","1","1","0","0","0","0","5","1","2","1","2","4","3","4","","","","763058298605015041","刘","280","","","","","","","","","","","","","","","","","","","","","","","","","","","","","","","","","","","","","","","","","",""
"655","<p style=""color:rgb(150, 250, 100); font-size: 35px;"">本人的</p>","i","categorize-html","84","160120","0.0-6.0-0.0-6.0-1.12","3","4","4","4","4","4","3","4","4","4","5","4","5","4","5","4","4","5","4","5","1","2","2","1","1","2","1","4","1","1","0","0","0","0","0","0","0","0","1","1","0","0","0","0","5","1","2","1","2","4","3","4","","","","763058298605015041","刘","280","","","","","","","","","","","","","","","","","","","true","3","3","ability","655","self","本人的","","","","","","","","","","","","","","","","",""
"null","","null","html-keyboard-response","85","160373","0.0-6.0-0.0-6.0-0.13","3","4","4","4","4","4","3","4","4","4","5","4","5","4","5","4","4","5","4","5","1","2","2","1","1","2","1","4","1","1","0","0","0","0","0","0","0","0","1","1","0","0","0","0","5","1","2","1","2","4","3","4","","","","763058298605015041","刘","280","","","","","","","","","","","","","","","","","","","","","","","","","","","","","","","","","","","","","","","","","",""
"756","<p style=""color:white; font-size: 35px;"">拙笨</p>","i","categorize-html","86","161135","0.0-6.0-0.0-6.0-1.13","3","4","4","4","4","4","3","4","4","4","5","4","5","4","5","4","4","5","4","5","1","2","2","1","1","2","1","4","1","1","0","0","0","0","0","0","0","0","1","1","0","0","0","0","5","1","2","1","2","4","3","4","","","","763058298605015041","刘","280","","","","","","","","","","","","","","","","","","","true","3","3","ability","756","negative","拙笨","","","","","","","","","","","","","","","","",""
"null","","null","html-keyboard-response","87","161388","0.0-6.0-0.0-6.0-0.14","3","4","4","4","4","4","3","4","4","4","5","4","5","4","5","4","4","5","4","5","1","2","2","1","1","2","1","4","1","1","0","0","0","0","0","0","0","0","1","1","0","0","0","0","5","1","2","1","2","4","3","4","","","","763058298605015041","刘","280","","","","","","","","","","","","","","","","","","","","","","","","","","","","","","","","","","","","","","","","","",""
"624","<p style=""color:rgb(150, 250, 100); font-size: 35px;"">别人</p>","e","categorize-html","88","162017","0.0-6.0-0.0-6.0-1.14","3","4","4","4","4","4","3","4","4","4","5","4","5","4","5","4","4","5","4","5","1","2","2","1","1","2","1","4","1","1","0","0","0","0","0","0","0","0","1","1","0","0","0","0","5","1","2","1","2","4","3","4","","","","763058298605015041","刘","280","","","","","","","","","","","","","","","","","","","true","3","3","ability","624","other","别人","","","","","","","","","","","","","","","","",""
"null","","null","html-keyboard-response","89","162269","0.0-6.0-0.0-6.0-0.15","3","4","4","4","4","4","3","4","4","4","5","4","5","4","5","4","4","5","4","5","1","2","2","1","1","2","1","4","1","1","0","0","0","0","0","0","0","0","1","1","0","0","0","0","5","1","2","1","2","4","3","4","","","","763058298605015041","刘","280","","","","","","","","","","","","","","","","","","","","","","","","","","","","","","","","","","","","","","","","","",""
"746","<p style=""color:white; font-size: 35px;"">全能</p>","e","categorize-html","90","163018","0.0-6.0-0.0-6.0-1.15","3","4","4","4","4","4","3","4","4","4","5","4","5","4","5","4","4","5","4","5","1","2","2","1","1","2","1","4","1","1","0","0","0","0","0","0","0","0","1","1","0","0","0","0","5","1","2","1","2","4","3","4","","","","763058298605015041","刘","280","","","","","","","","","","","","","","","","","","","true","3","3","ability","746","positive","全能","","","","","","","","","","","","","","","","",""
"null","","null","html-keyboard-response","91","163270","0.0-6.0-0.0-6.0-0.16","3","4","4","4","4","4","3","4","4","4","5","4","5","4","5","4","4","5","4","5","1","2","2","1","1","2","1","4","1","1","0","0","0","0","0","0","0","0","1","1","0","0","0","0","5","1","2","1","2","4","3","4","","","","763058298605015041","刘","280","","","","","","","","","","","","","","","","","","","","","","","","","","","","","","","","","","","","","","","","","",""
"550","<p style=""color:rgb(150, 250, 100); font-size: 35px;"">本人</p>","e","categorize-html","92","164406","0.0-6.0-0.0-6.0-1.16","3","4","4","4","4","4","3","4","4","4","5","4","5","4","5","4","4","5","4","5","1","2","2","1","1","2","1","4","1","1","0","0","0","0","0","0","0","0","1","1","0","0","0","0","5","1","2","1","2","4","3","4","","","","763058298605015041","刘","280","","","","","","","","","","","","","","","","","","","false","3","3","ability","1377.6363636363635","self","本人","","","","","","","","","","","","","","","","",""
"null","","null","html-keyboard-response","93","164657","0.0-6.0-0.0-6.0-0.17","3","4","4","4","4","4","3","4","4","4","5","4","5","4","5","4","4","5","4","5","1","2","2","1","1","2","1","4","1","1","0","0","0","0","0","0","0","0","1","1","0","0","0","0","5","1","2","1","2","4","3","4","","","","763058298605015041","刘","280","","","","","","","","","","","","","","","","","","","","","","","","","","","","","","","","","","","","","","","","","",""
"690","<p style=""color:white; font-size: 35px;"">蠢笨</p>","i","categorize-html","94","165353","0.0-6.0-0.0-6.0-1.17","3","4","4","4","4","4","3","4","4","4","5","4","5","4","5","4","4","5","4","5","1","2","2","1","1","2","1","4","1","1","0","0","0","0","0","0","0","0","1","1","0","0","0","0","5","1","2","1","2","4","3","4","","","","763058298605015041","刘","280","","","","","","","","","","","","","","","","","","","true","3","3","ability","690","negative","蠢笨","","","","","","","","","","","","","","","","",""
"null","","null","html-keyboard-response","95","165605","0.0-6.0-0.0-6.0-0.18","3","4","4","4","4","4","3","4","4","4","5","4","5","4","5","4","4","5","4","5","1","2","2","1","1","2","1","4","1","1","0","0","0","0","0","0","0","0","1","1","0","0","0","0","5","1","2","1","2","4","3","4","","","","763058298605015041","刘","280","","","","","","","","","","","","","","","","","","","","","","","","","","","","","","","","","","","","","","","","","",""
"684","<p style=""color:rgb(150, 250, 100); font-size: 35px;"">他人</p>","e","categorize-html","96","166294","0.0-6.0-0.0-6.0-1.18","3","4","4","4","4","4","3","4","4","4","5","4","5","4","5","4","4","5","4","5","1","2","2","1","1","2","1","4","1","1","0","0","0","0","0","0","0","0","1","1","0","0","0","0","5","1","2","1","2","4","3","4","","","","763058298605015041","刘","280","","","","","","","","","","","","","","","","","","","true","3","3","ability","684","other","他人","","","","","","","","","","","","","","","","",""
"null","","null","html-keyboard-response","97","166546","0.0-6.0-0.0-6.0-0.19","3","4","4","4","4","4","3","4","4","4","5","4","5","4","5","4","4","5","4","5","1","2","2","1","1","2","1","4","1","1","0","0","0","0","0","0","0","0","1","1","0","0","0","0","5","1","2","1","2","4","3","4","","","","763058298605015041","刘","280","","","","","","","","","","","","","","","","","","","","","","","","","","","","","","","","","","","","","","","","","",""
"967","<p style=""color:white; font-size: 35px;"">全才</p>","e","categorize-html","98","167519","0.0-6.0-0.0-6.0-1.19","3","4","4","4","4","4","3","4","4","4","5","4","5","4","5","4","4","5","4","5","1","2","2","1","1","2","1","4","1","1","0","0","0","0","0","0","0","0","1","1","0","0","0","0","5","1","2","1","2","4","3","4","","","","763058298605015041","刘","280","","","","","","","","","","","","","","","","","","","true","3","3","ability","967","positive","全才","","","","","","","","","","","","","","","","",""
"null","","null","html-keyboard-response","99","167772","0.0-6.0-0.0-6.0-0.20","3","4","4","4","4","4","3","4","4","4","5","4","5","4","5","4","4","5","4","5","1","2","2","1","1","2","1","4","1","1","0","0","0","0","0","0","0","0","1","1","0","0","0","0","5","1","2","1","2","4","3","4","","","","763058298605015041","刘","280","","","","","","","","","","","","","","","","","","","","","","","","","","","","","","","","","","","","","","","","","",""
"648","<p style=""color:rgb(150, 250, 100); font-size: 35px;"">自己</p>","i","categorize-html","100","168423","0.0-6.0-0.0-6.0-1.20","3","4","4","4","4","4","3","4","4","4","5","4","5","4","5","4","4","5","4","5","1","2","2","1","1","2","1","4","1","1","0","0","0","0","0","0","0","0","1","1","0","0","0","0","5","1","2","1","2","4","3","4","","","","763058298605015041","刘","280","","","","","","","","","","","","","","","","","","","true","3","3","ability","648","self","自己","","","","","","","","","","","","","","","","",""
"null","","null","html-keyboard-response","101","168675","0.0-6.0-0.0-6.0-0.21","3","4","4","4","4","4","3","4","4","4","5","4","5","4","5","4","4","5","4","5","1","2","2","1","1","2","1","4","1","1","0","0","0","0","0","0","0","0","1","1","0","0","0","0","5","1","2","1","2","4","3","4","","","","763058298605015041","刘","280","","","","","","","","","","","","","","","","","","","","","","","","","","","","","","","","","","","","","","","","","",""
"561","<p style=""color:white; font-size: 35px;"">愚钝</p>","i","categorize-html","102","169241","0.0-6.0-0.0-6.0-1.21","3","4","4","4","4","4","3","4","4","4","5","4","5","4","5","4","4","5","4","5","1","2","2","1","1","2","1","4","1","1","0","0","0","0","0","0","0","0","1","1","0","0","0","0","5","1","2","1","2","4","3","4","","","","763058298605015041","刘","280","","","","","","","","","","","","","","","","","","","true","3","3","ability","561","negative","愚钝","","","","","","","","","","","","","","","","",""
"null","","null","html-keyboard-response","103","169493","0.0-6.0-0.0-6.0-0.22","3","4","4","4","4","4","3","4","4","4","5","4","5","4","5","4","4","5","4","5","1","2","2","1","1","2","1","4","1","1","0","0","0","0","0","0","0","0","1","1","0","0","0","0","5","1","2","1","2","4","3","4","","","","763058298605015041","刘","280","","","","","","","","","","","","","","","","","","","","","","","","","","","","","","","","","","","","","","","","","",""
"594","<p style=""color:rgb(150, 250, 100); font-size: 35px;"">他人的</p>","e","categorize-html","104","170093","0.0-6.0-0.0-6.0-1.22","3","4","4","4","4","4","3","4","4","4","5","4","5","4","5","4","4","5","4","5","1","2","2","1","1","2","1","4","1","1","0","0","0","0","0","0","0","0","1","1","0","0","0","0","5","1","2","1","2","4","3","4","","","","763058298605015041","刘","280","","","","","","","","","","","","","","","","","","","true","3","3","ability","594","other","他人的","","","","","","","","","","","","","","","","",""
"null","","null","html-keyboard-response","105","170344","0.0-6.0-0.0-6.0-0.23","3","4","4","4","4","4","3","4","4","4","5","4","5","4","5","4","4","5","4","5","1","2","2","1","1","2","1","4","1","1","0","0","0","0","0","0","0","0","1","1","0","0","0","0","5","1","2","1","2","4","3","4","","","","763058298605015041","刘","280","","","","","","","","","","","","","","","","","","","","","","","","","","","","","","","","","","","","","","","","","",""
"496","<p style=""color:white; font-size: 35px;"">精干</p>","e","categorize-html","106","170844","0.0-6.0-0.0-6.0-1.23","3","4","4","4","4","4","3","4","4","4","5","4","5","4","5","4","4","5","4","5","1","2","2","1","1","2","1","4","1","1","0","0","0","0","0","0","0","0","1","1","0","0","0","0","5","1","2","1","2","4","3","4","","","","763058298605015041","刘","280","","","","","","","","","","","","","","","","","","","true","3","3","ability","496","positive","精干","","","","","","","","","","","","","","","","",""
"1743","
    <div class=""tag-bottom""><p>
    —— 任务4：对“他人/积极”词和“自我/消极”词分类 ——<p/>
    <span style=""color:#78DCE8""><b>与刚才的任务完全相同，请再次对这四类词语分类</b></span><p/>
    <span style=""color:#FFD866""><b>请根据上方标签的提示，尽可能正确并且快速地做出按键反应</b></span><p/>
    当按键错误时屏幕中会出现<span style=""color:red""> X </span>，需要按另一个键纠正才能继续<br/><p/>
    请把双手食指分别放在键盘的“E”键和“I”键上<p/>
    按<空格键>开始
    </p></div>"," ","html-keyboard-response","107","172589","0.0-6.0-0.0-7.0","3","4","4","4","4","4","3","4","4","4","5","4","5","4","5","4","4","5","4","5","1","2","2","1","1","2","1","4","1","1","0","0","0","0","0","0","0","0","1","1","0","0","0","0","5","1","2","1","2","4","3","4","","","","763058298605015041","刘","280","","","","","","","","","","","","","","","","","","","","","","","","","","","","","","","","","","","","","","","","","",""
"null","","null","html-keyboard-response","108","172841","0.0-6.0-0.0-8.0-0.0","3","4","4","4","4","4","3","4","4","4","5","4","5","4","5","4","4","5","4","5","1","2","2","1","1","2","1","4","1","1","0","0","0","0","0","0","0","0","1","1","0","0","0","0","5","1","2","1","2","4","3","4","","","","763058298605015041","刘","280","","","","","","","","","","","","","","","","","","","","","","","","","","","","","","","","","","","","","","","","","",""
"552","<p style=""color:rgb(150, 250, 100); font-size: 35px;"">他人</p>","e","categorize-html","109","173399","0.0-6.0-0.0-8.0-1.0","3","4","4","4","4","4","3","4","4","4","5","4","5","4","5","4","4","5","4","5","1","2","2","1","1","2","1","4","1","1","0","0","0","0","0","0","0","0","1","1","0","0","0","0","5","1","2","1","2","4","3","4","","","","763058298605015041","刘","280","","","","","","","","","","","","","","","","","","","true","4","4","ability","552","other","他人","","","","","","","","","","","","","","","","",""
"null","","null","html-keyboard-response","110","173653","0.0-6.0-0.0-8.0-0.1","3","4","4","4","4","4","3","4","4","4","5","4","5","4","5","4","4","5","4","5","1","2","2","1","1","2","1","4","1","1","0","0","0","0","0","0","0","0","1","1","0","0","0","0","5","1","2","1","2","4","3","4","","","","763058298605015041","刘","280","","","","","","","","","","","","","","","","","","","","","","","","","","","","","","","","","","","","","","","","","",""
"580","<p style=""color:white; font-size: 35px;"">精干</p>","e","categorize-html","111","174237","0.0-6.0-0.0-8.0-1.1","3","4","4","4","4","4","3","4","4","4","5","4","5","4","5","4","4","5","4","5","1","2","2","1","1","2","1","4","1","1","0","0","0","0","0","0","0","0","1","1","0","0","0","0","5","1","2","1","2","4","3","4","","","","763058298605015041","刘","280","","","","","","","","","","","","","","","","","","","true","4","4","ability","580","positive","精干","","","","","","","","","","","","","","","","",""
"null","","null","html-keyboard-response","112","174489","0.0-6.0-0.0-8.0-0.2","3","4","4","4","4","4","3","4","4","4","5","4","5","4","5","4","4","5","4","5","1","2","2","1","1","2","1","4","1","1","0","0","0","0","0","0","0","0","1","1","0","0","0","0","5","1","2","1","2","4","3","4","","","","763058298605015041","刘","280","","","","","","","","","","","","","","","","","","","","","","","","","","","","","","","","","","","","","","","","","",""
"666","<p style=""color:rgb(150, 250, 100); font-size: 35px;"">我的</p>","i","categorize-html","113","175160","0.0-6.0-0.0-8.0-1.2","3","4","4","4","4","4","3","4","4","4","5","4","5","4","5","4","4","5","4","5","1","2","2","1","1","2","1","4","1","1","0","0","0","0","0","0","0","0","1","1","0","0","0","0","5","1","2","1","2","4","3","4","","","","763058298605015041","刘","280","","","","","","","","","","","","","","","","","","","true","4","4","ability","666","self","我的","","","","","","","","","","","","","","","","",""
"null","","null","html-keyboard-response","114","175413","0.0-6.0-0.0-8.0-0.3","3","4","4","4","4","4","3","4","4","4","5","4","5","4","5","4","4","5","4","5","1","2","2","1","1","2","1","4","1","1","0","0","0","0","0","0","0","0","1","1","0","0","0","0","5","1","2","1","2","4","3","4","","","","763058298605015041","刘","280","","","","","","","","","","","","","","","","","","","","","","","","","","","","","","","","","","","","","","","","","",""
"1177","<p style=""color:white; font-size: 35px;"">无能</p>","i","categorize-html","115","176595","0.0-6.0-0.0-8.0-1.3","3","4","4","4","4","4","3","4","4","4","5","4","5","4","5","4","4","5","4","5","1","2","2","1","1","2","1","4","1","1","0","0","0","0","0","0","0","0","1","1","0","0","0","0","5","1","2","1","2","4","3","4","","","","763058298605015041","刘","280","","","","","","","","","","","","","","","","","","","true","4","4","ability","1177","negative","无能","","","","","","","","","","","","","","","","",""
"null","","null","html-keyboard-response","116","176848","0.0-6.0-0.0-8.0-0.4","3","4","4","4","4","4","3","4","4","4","5","4","5","4","5","4","4","5","4","5","1","2","2","1","1","2","1","4","1","1","0","0","0","0","0","0","0","0","1","1","0","0","0","0","5","1","2","1","2","4","3","4","","","","763058298605015041","刘","280","","","","","","","","","","","","","","","","","","","","","","","","","","","","","","","","","","","","","","","","","",""
"516","<p style=""color:rgb(150, 250, 100); font-size: 35px;"">我</p>","i","categorize-html","117","177369","0.0-6.0-0.0-8.0-1.4","3","4","4","4","4","4","3","4","4","4","5","4","5","4","5","4","4","5","4","5","1","2","2","1","1","2","1","4","1","1","0","0","0","0","0","0","0","0","1","1","0","0","0","0","5","1","2","1","2","4","3","4","","","","763058298605015041","刘","280","","","","","","","","","","","","","","","","","","","true","4","4","ability","516","self","我","","","","","","","","","","","","","","","","",""
"null","","null","html-keyboard-response","118","177622","0.0-6.0-0.0-8.0-0.5","3","4","4","4","4","4","3","4","4","4","5","4","5","4","5","4","4","5","4","5","1","2","2","1","1","2","1","4","1","1","0","0","0","0","0","0","0","0","1","1","0","0","0","0","5","1","2","1","2","4","3","4","","","","763058298605015041","刘","280","","","","","","","","","","","","","","","","","","","","","","","","","","","","","","","","","","","","","","","","","",""
"475","<p style=""color:white; font-size: 35px;"">拙笨</p>","e","categorize-html","119","178619","0.0-6.0-0.0-8.0-1.5","3","4","4","4","4","4","3","4","4","4","5","4","5","4","5","4","4","5","4","5","1","2","2","1","1","2","1","4","1","1","0","0","0","0","0","0","0","0","1","1","0","0","0","0","5","1","2","1","2","4","3","4","","","","763058298605015041","刘","280","","","","","","","","","","","","","","","","","","","false","4","4","ability","1262.4883720930234","negative","拙笨","","","","","","","","","","","","","","","","",""
"null","","null","html-keyboard-response","120","178871","0.0-6.0-0.0-8.0-0.6","3","4","4","4","4","4","3","4","4","4","5","4","5","4","5","4","4","5","4","5","1","2","2","1","1","2","1","4","1","1","0","0","0","0","0","0","0","0","1","1","0","0","0","0","5","1","2","1","2","4","3","4","","","","763058298605015041","刘","280","","","","","","","","","","","","","","","","","","","","","","","","","","","","","","","","","","","","","","","","","",""
"535","<p style=""color:rgb(150, 250, 100); font-size: 35px;"">他人的</p>","i","categorize-html","121","180342","0.0-6.0-0.0-8.0-1.6","3","4","4","4","4","4","3","4","4","4","5","4","5","4","5","4","4","5","4","5","1","2","2","1","1","2","1","4","1","1","0","0","0","0","0","0","0","0","1","1","0","0","0","0","5","1","2","1","2","4","3","4","","","","763058298605015041","刘","280","","","","","","","","","","","","","","","","","","","false","4","4","ability","1262.4883720930234","other","他人的","","","","","","","","","","","","","","","","",""
"null","","null","html-keyboard-response","122","180594","0.0-6.0-0.0-8.0-0.7","3","4","4","4","4","4","3","4","4","4","5","4","5","4","5","4","4","5","4","5","1","2","2","1","1","2","1","4","1","1","0","0","0","0","0","0","0","0","1","1","0","0","0","0","5","1","2","1","2","4","3","4","","","","763058298605015041","刘","280","","","","","","","","","","","","","","","","","","","","","","","","","","","","","","","","","","","","","","","","","",""
"608","<p style=""color:white; font-size: 35px;"">天才</p>","e","categorize-html","123","181207","0.0-6.0-0.0-8.0-1.7","3","4","4","4","4","4","3","4","4","4","5","4","5","4","5","4","4","5","4","5","1","2","2","1","1","2","1","4","1","1","0","0","0","0","0","0","0","0","1","1","0","0","0","0","5","1","2","1","2","4","3","4","","","","763058298605015041","刘","280","","","","","","","","","","","","","","","","","","","true","4","4","ability","608","positive","天才","","","","","","","","","","","","","","","","",""
"null","","null","html-keyboard-response","124","181459","0.0-6.0-0.0-8.0-0.8","3","4","4","4","4","4","3","4","4","4","5","4","5","4","5","4","4","5","4","5","1","2","2","1","1","2","1","4","1","1","0","0","0","0","0","0","0","0","1","1","0","0","0","0","5","1","2","1","2","4","3","4","","","","763058298605015041","刘","280","","","","","","","","","","","","","","","","","","","","","","","","","","","","","","","","","","","","","","","","","",""
"443","<p style=""color:rgb(150, 250, 100); font-size: 35px;"">别人</p>","e","categorize-html","125","181908","0.0-6.0-0.0-8.0-1.8","3","4","4","4","4","4","3","4","4","4","5","4","5","4","5","4","4","5","4","5","1","2","2","1","1","2","1","4","1","1","0","0","0","0","0","0","0","0","1","1","0","0","0","0","5","1","2","1","2","4","3","4","","","","763058298605015041","刘","280","","","","","","","","","","","","","","","","","","","true","4","4","ability","443","other","别人","","","","","","","","","","","","","","","","",""
"null","","null","html-keyboard-response","126","182161","0.0-6.0-0.0-8.0-0.9","3","4","4","4","4","4","3","4","4","4","5","4","5","4","5","4","4","5","4","5","1","2","2","1","1","2","1","4","1","1","0","0","0","0","0","0","0","0","1","1","0","0","0","0","5","1","2","1","2","4","3","4","","","","763058298605015041","刘","280","","","","","","","","","","","","","","","","","","","","","","","","","","","","","","","","","","","","","","","","","",""
"530","<p style=""color:white; font-size: 35px;"">精干</p>","e","categorize-html","127","182696","0.0-6.0-0.0-8.0-1.9","3","4","4","4","4","4","3","4","4","4","5","4","5","4","5","4","4","5","4","5","1","2","2","1","1","2","1","4","1","1","0","0","0","0","0","0","0","0","1","1","0","0","0","0","5","1","2","1","2","4","3","4","","","","763058298605015041","刘","280","","","","","","","","","","","","","","","","","","","true","4","4","ability","530","positive","精干","","","","","","","","","","","","","","","","",""
"null","","null","html-keyboard-response","128","182949","0.0-6.0-0.0-8.0-0.10","3","4","4","4","4","4","3","4","4","4","5","4","5","4","5","4","4","5","4","5","1","2","2","1","1","2","1","4","1","1","0","0","0","0","0","0","0","0","1","1","0","0","0","0","5","1","2","1","2","4","3","4","","","","763058298605015041","刘","280","","","","","","","","","","","","","","","","","","","","","","","","","","","","","","","","","","","","","","","","","",""
"368","<p style=""color:rgb(150, 250, 100); font-size: 35px;"">我的</p>","e","categorize-html","129","183857","0.0-6.0-0.0-8.0-1.10","3","4","4","4","4","4","3","4","4","4","5","4","5","4","5","4","4","5","4","5","1","2","2","1","1","2","1","4","1","1","0","0","0","0","0","0","0","0","1","1","0","0","0","0","5","1","2","1","2","4","3","4","","","","763058298605015041","刘","280","","","","","","","","","","","","","","","","","","","false","4","4","ability","1262.4883720930234","self","我的","","","","","","","","","","","","","","","","",""
"null","","null","html-keyboard-response","130","184120","0.0-6.0-0.0-8.0-0.11","3","4","4","4","4","4","3","4","4","4","5","4","5","4","5","4","4","5","4","5","1","2","2","1","1","2","1","4","1","1","0","0","0","0","0","0","0","0","1","1","0","0","0","0","5","1","2","1","2","4","3","4","","","","763058298605015041","刘","280","","","","","","","","","","","","","","","","","","","","","","","","","","","","","","","","","","","","","","","","","",""
"578","<p style=""color:white; font-size: 35px;"">低能</p>","i","categorize-html","131","184705","0.0-6.0-0.0-8.0-1.11","3","4","4","4","4","4","3","4","4","4","5","4","5","4","5","4","4","5","4","5","1","2","2","1","1","2","1","4","1","1","0","0","0","0","0","0","0","0","1","1","0","0","0","0","5","1","2","1","2","4","3","4","","","","763058298605015041","刘","280","","","","","","","","","","","","","","","","","","","true","4","4","ability","578","negative","低能","","","","","","","","","","","","","","","","",""
"null","","null","html-keyboard-response","132","184959","0.0-6.0-0.0-8.0-0.12","3","4","4","4","4","4","3","4","4","4","5","4","5","4","5","4","4","5","4","5","1","2","2","1","1","2","1","4","1","1","0","0","0","0","0","0","0","0","1","1","0","0","0","0","5","1","2","1","2","4","3","4","","","","763058298605015041","刘","280","","","","","","","","","","","","","","","","","","","","","","","","","","","","","","","","","","","","","","","","","",""
"537","<p style=""color:rgb(150, 250, 100); font-size: 35px;"">本人</p>","i","categorize-html","133","185501","0.0-6.0-0.0-8.0-1.12","3","4","4","4","4","4","3","4","4","4","5","4","5","4","5","4","4","5","4","5","1","2","2","1","1","2","1","4","1","1","0","0","0","0","0","0","0","0","1","1","0","0","0","0","5","1","2","1","2","4","3","4","","","","763058298605015041","刘","280","","","","","","","","","","","","","","","","","","","true","4","4","ability","537","self","本人","","","","","","","","","","","","","","","","",""
"null","","null","html-keyboard-response","134","185753","0.0-6.0-0.0-8.0-0.13","3","4","4","4","4","4","3","4","4","4","5","4","5","4","5","4","4","5","4","5","1","2","2","1","1","2","1","4","1","1","0","0","0","0","0","0","0","0","1","1","0","0","0","0","5","1","2","1","2","4","3","4","","","","763058298605015041","刘","280","","","","","","","","","","","","","","","","","","","","","","","","","","","","","","","","","","","","","","","","","",""
"546","<p style=""color:white; font-size: 35px;"">高效</p>","e","categorize-html","135","186304","0.0-6.0-0.0-8.0-1.13","3","4","4","4","4","4","3","4","4","4","5","4","5","4","5","4","4","5","4","5","1","2","2","1","1","2","1","4","1","1","0","0","0","0","0","0","0","0","1","1","0","0","0","0","5","1","2","1","2","4","3","4","","","","763058298605015041","刘","280","","","","","","","","","","","","","","","","","","","true","4","4","ability","546","positive","高效","","","","","","","","","","","","","","","","",""
"null","","null","html-keyboard-response","136","186557","0.0-6.0-0.0-8.0-0.14","3","4","4","4","4","4","3","4","4","4","5","4","5","4","5","4","4","5","4","5","1","2","2","1","1","2","1","4","1","1","0","0","0","0","0","0","0","0","1","1","0","0","0","0","5","1","2","1","2","4","3","4","","","","763058298605015041","刘","280","","","","","","","","","","","","","","","","","","","","","","","","","","","","","","","","","","","","","","","","","",""
"716","<p style=""color:rgb(150, 250, 100); font-size: 35px;"">他的</p>","e","categorize-html","137","187277","0.0-6.0-0.0-8.0-1.14","3","4","4","4","4","4","3","4","4","4","5","4","5","4","5","4","4","5","4","5","1","2","2","1","1","2","1","4","1","1","0","0","0","0","0","0","0","0","1","1","0","0","0","0","5","1","2","1","2","4","3","4","","","","763058298605015041","刘","280","","","","","","","","","","","","","","","","","","","true","4","4","ability","716","other","他的","","","","","","","","","","","","","","","","",""
"null","","null","html-keyboard-response","138","187529","0.0-6.0-0.0-8.0-0.15","3","4","4","4","4","4","3","4","4","4","5","4","5","4","5","4","4","5","4","5","1","2","2","1","1","2","1","4","1","1","0","0","0","0","0","0","0","0","1","1","0","0","0","0","5","1","2","1","2","4","3","4","","","","763058298605015041","刘","280","","","","","","","","","","","","","","","","","","","","","","","","","","","","","","","","","","","","","","","","","",""
"631","<p style=""color:white; font-size: 35px;"">愚钝</p>","i","categorize-html","139","188165","0.0-6.0-0.0-8.0-1.15","3","4","4","4","4","4","3","4","4","4","5","4","5","4","5","4","4","5","4","5","1","2","2","1","1","2","1","4","1","1","0","0","0","0","0","0","0","0","1","1","0","0","0","0","5","1","2","1","2","4","3","4","","","","763058298605015041","刘","280","","","","","","","","","","","","","","","","","","","true","4","4","ability","631","negative","愚钝","","","","","","","","","","","","","","","","",""
"null","","null","html-keyboard-response","140","188417","0.0-6.0-0.0-8.0-0.16","3","4","4","4","4","4","3","4","4","4","5","4","5","4","5","4","4","5","4","5","1","2","2","1","1","2","1","4","1","1","0","0","0","0","0","0","0","0","1","1","0","0","0","0","5","1","2","1","2","4","3","4","","","","763058298605015041","刘","280","","","","","","","","","","","","","","","","","","","","","","","","","","","","","","","","","","","","","","","","","",""
"388","<p style=""color:rgb(150, 250, 100); font-size: 35px;"">我</p>","i","categorize-html","141","188808","0.0-6.0-0.0-8.0-1.16","3","4","4","4","4","4","3","4","4","4","5","4","5","4","5","4","4","5","4","5","1","2","2","1","1","2","1","4","1","1","0","0","0","0","0","0","0","0","1","1","0","0","0","0","5","1","2","1","2","4","3","4","","","","763058298605015041","刘","280","","","","","","","","","","","","","","","","","","","true","4","4","ability","388","self","我","","","","","","","","","","","","","","","","",""
"null","","null","html-keyboard-response","142","189060","0.0-6.0-0.0-8.0-0.17","3","4","4","4","4","4","3","4","4","4","5","4","5","4","5","4","4","5","4","5","1","2","2","1","1","2","1","4","1","1","0","0","0","0","0","0","0","0","1","1","0","0","0","0","5","1","2","1","2","4","3","4","","","","763058298605015041","刘","280","","","","","","","","","","","","","","","","","","","","","","","","","","","","","","","","","","","","","","","","","",""
"562","<p style=""color:white; font-size: 35px;"">全能</p>","e","categorize-html","143","189629","0.0-6.0-0.0-8.0-1.17","3","4","4","4","4","4","3","4","4","4","5","4","5","4","5","4","4","5","4","5","1","2","2","1","1","2","1","4","1","1","0","0","0","0","0","0","0","0","1","1","0","0","0","0","5","1","2","1","2","4","3","4","","","","763058298605015041","刘","280","","","","","","","","","","","","","","","","","","","true","4","4","ability","562","positive","全能","","","","","","","","","","","","","","","","",""
"null","","null","html-keyboard-response","144","189881","0.0-6.0-0.0-8.0-0.18","3","4","4","4","4","4","3","4","4","4","5","4","5","4","5","4","4","5","4","5","1","2","2","1","1","2","1","4","1","1","0","0","0","0","0","0","0","0","1","1","0","0","0","0","5","1","2","1","2","4","3","4","","","","763058298605015041","刘","280","","","","","","","","","","","","","","","","","","","","","","","","","","","","","","","","","","","","","","","","","",""
"418","<p style=""color:rgb(150, 250, 100); font-size: 35px;"">他人的</p>","e","categorize-html","145","190304","0.0-6.0-0.0-8.0-1.18","3","4","4","4","4","4","3","4","4","4","5","4","5","4","5","4","4","5","4","5","1","2","2","1","1","2","1","4","1","1","0","0","0","0","0","0","0","0","1","1","0","0","0","0","5","1","2","1","2","4","3","4","","","","763058298605015041","刘","280","","","","","","","","","","","","","","","","","","","true","4","4","ability","418","other","他人的","","","","","","","","","","","","","","","","",""
"null","","null","html-keyboard-response","146","190556","0.0-6.0-0.0-8.0-0.19","3","4","4","4","4","4","3","4","4","4","5","4","5","4","5","4","4","5","4","5","1","2","2","1","1","2","1","4","1","1","0","0","0","0","0","0","0","0","1","1","0","0","0","0","5","1","2","1","2","4","3","4","","","","763058298605015041","刘","280","","","","","","","","","","","","","","","","","","","","","","","","","","","","","","","","","","","","","","","","","",""
"939","<p style=""color:white; font-size: 35px;"">蠢笨</p>","i","categorize-html","147","191501","0.0-6.0-0.0-8.0-1.19","3","4","4","4","4","4","3","4","4","4","5","4","5","4","5","4","4","5","4","5","1","2","2","1","1","2","1","4","1","1","0","0","0","0","0","0","0","0","1","1","0","0","0","0","5","1","2","1","2","4","3","4","","","","763058298605015041","刘","280","","","","","","","","","","","","","","","","","","","true","4","4","ability","939","negative","蠢笨","","","","","","","","","","","","","","","","",""
"null","","null","html-keyboard-response","148","191753","0.0-6.0-0.0-8.0-0.20","3","4","4","4","4","4","3","4","4","4","5","4","5","4","5","4","4","5","4","5","1","2","2","1","1","2","1","4","1","1","0","0","0","0","0","0","0","0","1","1","0","0","0","0","5","1","2","1","2","4","3","4","","","","763058298605015041","刘","280","","","","","","","","","","","","","","","","","","","","","","","","","","","","","","","","","","","","","","","","","",""
"428","<p style=""color:rgb(150, 250, 100); font-size: 35px;"">本人的</p>","i","categorize-html","149","192187","0.0-6.0-0.0-8.0-1.20","3","4","4","4","4","4","3","4","4","4","5","4","5","4","5","4","4","5","4","5","1","2","2","1","1","2","1","4","1","1","0","0","0","0","0","0","0","0","1","1","0","0","0","0","5","1","2","1","2","4","3","4","","","","763058298605015041","刘","280","","","","","","","","","","","","","","","","","","","true","4","4","ability","428","self","本人的","","","","","","","","","","","","","","","","",""
"null","","null","html-keyboard-response","150","192439","0.0-6.0-0.0-8.0-0.21","3","4","4","4","4","4","3","4","4","4","5","4","5","4","5","4","4","5","4","5","1","2","2","1","1","2","1","4","1","1","0","0","0","0","0","0","0","0","1","1","0","0","0","0","5","1","2","1","2","4","3","4","","","","763058298605015041","刘","280","","","","","","","","","","","","","","","","","","","","","","","","","","","","","","","","","","","","","","","","","",""
"567","<p style=""color:white; font-size: 35px;"">废物</p>","i","categorize-html","151","193010","0.0-6.0-0.0-8.0-1.21","3","4","4","4","4","4","3","4","4","4","5","4","5","4","5","4","4","5","4","5","1","2","2","1","1","2","1","4","1","1","0","0","0","0","0","0","0","0","1","1","0","0","0","0","5","1","2","1","2","4","3","4","","","","763058298605015041","刘","280","","","","","","","","","","","","","","","","","","","true","4","4","ability","567","negative","废物","","","","","","","","","","","","","","","","",""
"null","","null","html-keyboard-response","152","193262","0.0-6.0-0.0-8.0-0.22","3","4","4","4","4","4","3","4","4","4","5","4","5","4","5","4","4","5","4","5","1","2","2","1","1","2","1","4","1","1","0","0","0","0","0","0","0","0","1","1","0","0","0","0","5","1","2","1","2","4","3","4","","","","763058298605015041","刘","280","","","","","","","","","","","","","","","","","","","","","","","","","","","","","","","","","","","","","","","","","",""
"604","<p style=""color:rgb(150, 250, 100); font-size: 35px;"">他的</p>","e","categorize-html","153","193871","0.0-6.0-0.0-8.0-1.22","3","4","4","4","4","4","3","4","4","4","5","4","5","4","5","4","4","5","4","5","1","2","2","1","1","2","1","4","1","1","0","0","0","0","0","0","0","0","1","1","0","0","0","0","5","1","2","1","2","4","3","4","","","","763058298605015041","刘","280","","","","","","","","","","","","","","","","","","","true","4","4","ability","604","other","他的","","","","","","","","","","","","","","","","",""
"null","","null","html-keyboard-response","154","194123","0.0-6.0-0.0-8.0-0.23","3","4","4","4","4","4","3","4","4","4","5","4","5","4","5","4","4","5","4","5","1","2","2","1","1","2","1","4","1","1","0","0","0","0","0","0","0","0","1","1","0","0","0","0","5","1","2","1","2","4","3","4","","","","763058298605015041","刘","280","","","","","","","","","","","","","","","","","","","","","","","","","","","","","","","","","","","","","","","","","",""
"640","<p style=""color:white; font-size: 35px;"">能干</p>","e","categorize-html","155","194770","0.0-6.0-0.0-8.0-1.23","3","4","4","4","4","4","3","4","4","4","5","4","5","4","5","4","4","5","4","5","1","2","2","1","1","2","1","4","1","1","0","0","0","0","0","0","0","0","1","1","0","0","0","0","5","1","2","1","2","4","3","4","","","","763058298605015041","刘","280","","","","","","","","","","","","","","","","","","","true","4","4","ability","640","positive","能干","","","","","","","","","","","","","","","","",""
"null","","null","html-keyboard-response","156","195030","0.0-6.0-0.0-8.0-0.24","3","4","4","4","4","4","3","4","4","4","5","4","5","4","5","4","4","5","4","5","1","2","2","1","1","2","1","4","1","1","0","0","0","0","0","0","0","0","1","1","0","0","0","0","5","1","2","1","2","4","3","4","","","","763058298605015041","刘","280","","","","","","","","","","","","","","","","","","","","","","","","","","","","","","","","","","","","","","","","","",""
"539","<p style=""color:rgb(150, 250, 100); font-size: 35px;"">自己</p>","i","categorize-html","157","195574","0.0-6.0-0.0-8.0-1.24","3","4","4","4","4","4","3","4","4","4","5","4","5","4","5","4","4","5","4","5","1","2","2","1","1","2","1","4","1","1","0","0","0","0","0","0","0","0","1","1","0","0","0","0","5","1","2","1","2","4","3","4","","","","763058298605015041","刘","280","","","","","","","","","","","","","","","","","","","true","4","4","ability","539","self","自己","","","","","","","","","","","","","","","","",""
"null","","null","html-keyboard-response","158","195825","0.0-6.0-0.0-8.0-0.25","3","4","4","4","4","4","3","4","4","4","5","4","5","4","5","4","4","5","4","5","1","2","2","1","1","2","1","4","1","1","0","0","0","0","0","0","0","0","1","1","0","0","0","0","5","1","2","1","2","4","3","4","","","","763058298605015041","刘","280","","","","","","","","","","","","","","","","","","","","","","","","","","","","","","","","","","","","","","","","","",""
"1167","<p style=""color:white; font-size: 35px;"">高效</p>","e","categorize-html","159","196997","0.0-6.0-0.0-8.0-1.25","3","4","4","4","4","4","3","4","4","4","5","4","5","4","5","4","4","5","4","5","1","2","2","1","1","2","1","4","1","1","0","0","0","0","0","0","0","0","1","1","0","0","0","0","5","1","2","1","2","4","3","4","","","","763058298605015041","刘","280","","","","","","","","","","","","","","","","","","","true","4","4","ability","1167","positive","高效","","","","","","","","","","","","","","","","",""
"null","","null","html-keyboard-response","160","197249","0.0-6.0-0.0-8.0-0.26","3","4","4","4","4","4","3","4","4","4","5","4","5","4","5","4","4","5","4","5","1","2","2","1","1","2","1","4","1","1","0","0","0","0","0","0","0","0","1","1","0","0","0","0","5","1","2","1","2","4","3","4","","","","763058298605015041","刘","280","","","","","","","","","","","","","","","","","","","","","","","","","","","","","","","","","","","","","","","","","",""
"544","<p style=""color:rgb(150, 250, 100); font-size: 35px;"">他</p>","e","categorize-html","161","197799","0.0-6.0-0.0-8.0-1.26","3","4","4","4","4","4","3","4","4","4","5","4","5","4","5","4","4","5","4","5","1","2","2","1","1","2","1","4","1","1","0","0","0","0","0","0","0","0","1","1","0","0","0","0","5","1","2","1","2","4","3","4","","","","763058298605015041","刘","280","","","","","","","","","","","","","","","","","","","true","4","4","ability","544","other","他","","","","","","","","","","","","","","","","",""
"null","","null","html-keyboard-response","162","198051","0.0-6.0-0.0-8.0-0.27","3","4","4","4","4","4","3","4","4","4","5","4","5","4","5","4","4","5","4","5","1","2","2","1","1","2","1","4","1","1","0","0","0","0","0","0","0","0","1","1","0","0","0","0","5","1","2","1","2","4","3","4","","","","763058298605015041","刘","280","","","","","","","","","","","","","","","","","","","","","","","","","","","","","","","","","","","","","","","","","",""
"740","<p style=""color:white; font-size: 35px;"">无能</p>","i","categorize-html","163","198796","0.0-6.0-0.0-8.0-1.27","3","4","4","4","4","4","3","4","4","4","5","4","5","4","5","4","4","5","4","5","1","2","2","1","1","2","1","4","1","1","0","0","0","0","0","0","0","0","1","1","0","0","0","0","5","1","2","1","2","4","3","4","","","","763058298605015041","刘","280","","","","","","","","","","","","","","","","","","","true","4","4","ability","740","negative","无能","","","","","","","","","","","","","","","","",""
"null","","null","html-keyboard-response","164","199049","0.0-6.0-0.0-8.0-0.28","3","4","4","4","4","4","3","4","4","4","5","4","5","4","5","4","4","5","4","5","1","2","2","1","1","2","1","4","1","1","0","0","0","0","0","0","0","0","1","1","0","0","0","0","5","1","2","1","2","4","3","4","","","","763058298605015041","刘","280","","","","","","","","","","","","","","","","","","","","","","","","","","","","","","","","","","","","","","","","","",""
"475","<p style=""color:rgb(150, 250, 100); font-size: 35px;"">他</p>","i","categorize-html","165","199940","0.0-6.0-0.0-8.0-1.28","3","4","4","4","4","4","3","4","4","4","5","4","5","4","5","4","4","5","4","5","1","2","2","1","1","2","1","4","1","1","0","0","0","0","0","0","0","0","1","1","0","0","0","0","5","1","2","1","2","4","3","4","","","","763058298605015041","刘","280","","","","","","","","","","","","","","","","","","","false","4","4","ability","1262.4883720930234","other","他","","","","","","","","","","","","","","","","",""
"null","","null","html-keyboard-response","166","200192","0.0-6.0-0.0-8.0-0.29","3","4","4","4","4","4","3","4","4","4","5","4","5","4","5","4","4","5","4","5","1","2","2","1","1","2","1","4","1","1","0","0","0","0","0","0","0","0","1","1","0","0","0","0","5","1","2","1","2","4","3","4","","","","763058298605015041","刘","280","","","","","","","","","","","","","","","","","","","","","","","","","","","","","","","","","","","","","","","","","",""
"928","<p style=""color:white; font-size: 35px;"">能干</p>","e","categorize-html","167","201125","0.0-6.0-0.0-8.0-1.29","3","4","4","4","4","4","3","4","4","4","5","4","5","4","5","4","4","5","4","5","1","2","2","1","1","2","1","4","1","1","0","0","0","0","0","0","0","0","1","1","0","0","0","0","5","1","2","1","2","4","3","4","","","","763058298605015041","刘","280","","","","","","","","","","","","","","","","","","","true","4","4","ability","928","positive","能干","","","","","","","","","","","","","","","","",""
"null","","null","html-keyboard-response","168","201378","0.0-6.0-0.0-8.0-0.30","3","4","4","4","4","4","3","4","4","4","5","4","5","4","5","4","4","5","4","5","1","2","2","1","1","2","1","4","1","1","0","0","0","0","0","0","0","0","1","1","0","0","0","0","5","1","2","1","2","4","3","4","","","","763058298605015041","刘","280","","","","","","","","","","","","","","","","","","","","","","","","","","","","","","","","","","","","","","","","","",""
"679","<p style=""color:rgb(150, 250, 100); font-size: 35px;"">自己的</p>","i","categorize-html","169","202062","0.0-6.0-0.0-8.0-1.30","3","4","4","4","4","4","3","4","4","4","5","4","5","4","5","4","4","5","4","5","1","2","2","1","1","2","1","4","1","1","0","0","0","0","0","0","0","0","1","1","0","0","0","0","5","1","2","1","2","4","3","4","","","","763058298605015041","刘","280","","","","","","","","","","","","","","","","","","","true","4","4","ability","679","self","自己的","","","","","","","","","","","","","","","","",""
"null","","null","html-keyboard-response","170","202314","0.0-6.0-0.0-8.0-0.31","3","4","4","4","4","4","3","4","4","4","5","4","5","4","5","4","4","5","4","5","1","2","2","1","1","2","1","4","1","1","0","0","0","0","0","0","0","0","1","1","0","0","0","0","5","1","2","1","2","4","3","4","","","","763058298605015041","刘","280","","","","","","","","","","","","","","","","","","","","","","","","","","","","","","","","","","","","","","","","","",""
"779","<p style=""color:white; font-size: 35px;"">低能</p>","i","categorize-html","171","203097","0.0-6.0-0.0-8.0-1.31","3","4","4","4","4","4","3","4","4","4","5","4","5","4","5","4","4","5","4","5","1","2","2","1","1","2","1","4","1","1","0","0","0","0","0","0","0","0","1","1","0","0","0","0","5","1","2","1","2","4","3","4","","","","763058298605015041","刘","280","","","","","","","","","","","","","","","","","","","true","4","4","ability","779","negative","低能","","","","","","","","","","","","","","","","",""
"null","","null","html-keyboard-response","172","203349","0.0-6.0-0.0-8.0-0.32","3","4","4","4","4","4","3","4","4","4","5","4","5","4","5","4","4","5","4","5","1","2","2","1","1","2","1","4","1","1","0","0","0","0","0","0","0","0","1","1","0","0","0","0","5","1","2","1","2","4","3","4","","","","763058298605015041","刘","280","","","","","","","","","","","","","","","","","","","","","","","","","","","","","","","","","","","","","","","","","",""
"602","<p style=""color:rgb(150, 250, 100); font-size: 35px;"">别人的</p>","e","categorize-html","173","203956","0.0-6.0-0.0-8.0-1.32","3","4","4","4","4","4","3","4","4","4","5","4","5","4","5","4","4","5","4","5","1","2","2","1","1","2","1","4","1","1","0","0","0","0","0","0","0","0","1","1","0","0","0","0","5","1","2","1","2","4","3","4","","","","763058298605015041","刘","280","","","","","","","","","","","","","","","","","","","true","4","4","ability","602","other","别人的","","","","","","","","","","","","","","","","",""
"null","","null","html-keyboard-response","174","204208","0.0-6.0-0.0-8.0-0.33","3","4","4","4","4","4","3","4","4","4","5","4","5","4","5","4","4","5","4","5","1","2","2","1","1","2","1","4","1","1","0","0","0","0","0","0","0","0","1","1","0","0","0","0","5","1","2","1","2","4","3","4","","","","763058298605015041","刘","280","","","","","","","","","","","","","","","","","","","","","","","","","","","","","","","","","","","","","","","","","",""
"804","<p style=""color:white; font-size: 35px;"">拙笨</p>","i","categorize-html","175","205018","0.0-6.0-0.0-8.0-1.33","3","4","4","4","4","4","3","4","4","4","5","4","5","4","5","4","4","5","4","5","1","2","2","1","1","2","1","4","1","1","0","0","0","0","0","0","0","0","1","1","0","0","0","0","5","1","2","1","2","4","3","4","","","","763058298605015041","刘","280","","","","","","","","","","","","","","","","","","","true","4","4","ability","804","negative","拙笨","","","","","","","","","","","","","","","","",""
"null","","null","html-keyboard-response","176","205271","0.0-6.0-0.0-8.0-0.34","3","4","4","4","4","4","3","4","4","4","5","4","5","4","5","4","4","5","4","5","1","2","2","1","1","2","1","4","1","1","0","0","0","0","0","0","0","0","1","1","0","0","0","0","5","1","2","1","2","4","3","4","","","","763058298605015041","刘","280","","","","","","","","","","","","","","","","","","","","","","","","","","","","","","","","","","","","","","","","","",""
"587","<p style=""color:rgb(150, 250, 100); font-size: 35px;"">自己</p>","i","categorize-html","177","205863","0.0-6.0-0.0-8.0-1.34","3","4","4","4","4","4","3","4","4","4","5","4","5","4","5","4","4","5","4","5","1","2","2","1","1","2","1","4","1","1","0","0","0","0","0","0","0","0","1","1","0","0","0","0","5","1","2","1","2","4","3","4","","","","763058298605015041","刘","280","","","","","","","","","","","","","","","","","","","true","4","4","ability","587","self","自己","","","","","","","","","","","","","","","","",""
"null","","null","html-keyboard-response","178","206115","0.0-6.0-0.0-8.0-0.35","3","4","4","4","4","4","3","4","4","4","5","4","5","4","5","4","4","5","4","5","1","2","2","1","1","2","1","4","1","1","0","0","0","0","0","0","0","0","1","1","0","0","0","0","5","1","2","1","2","4","3","4","","","","763058298605015041","刘","280","","","","","","","","","","","","","","","","","","","","","","","","","","","","","","","","","","","","","","","","","",""
"571","<p style=""color:white; font-size: 35px;"">全能</p>","e","categorize-html","179","206691","0.0-6.0-0.0-8.0-1.35","3","4","4","4","4","4","3","4","4","4","5","4","5","4","5","4","4","5","4","5","1","2","2","1","1","2","1","4","1","1","0","0","0","0","0","0","0","0","1","1","0","0","0","0","5","1","2","1","2","4","3","4","","","","763058298605015041","刘","280","","","","","","","","","","","","","","","","","","","true","4","4","ability","571","positive","全能","","","","","","","","","","","","","","","","",""
"null","","null","html-keyboard-response","180","206944","0.0-6.0-0.0-8.0-0.36","3","4","4","4","4","4","3","4","4","4","5","4","5","4","5","4","4","5","4","5","1","2","2","1","1","2","1","4","1","1","0","0","0","0","0","0","0","0","1","1","0","0","0","0","5","1","2","1","2","4","3","4","","","","763058298605015041","刘","280","","","","","","","","","","","","","","","","","","","","","","","","","","","","","","","","","","","","","","","","","",""
"957","<p style=""color:rgb(150, 250, 100); font-size: 35px;"">他人</p>","e","categorize-html","181","207908","0.0-6.0-0.0-8.0-1.36","3","4","4","4","4","4","3","4","4","4","5","4","5","4","5","4","4","5","4","5","1","2","2","1","1","2","1","4","1","1","0","0","0","0","0","0","0","0","1","1","0","0","0","0","5","1","2","1","2","4","3","4","","","","763058298605015041","刘","280","","","","","","","","","","","","","","","","","","","true","4","4","ability","957","other","他人","","","","","","","","","","","","","","","","",""
"null","","null","html-keyboard-response","182","208160","0.0-6.0-0.0-8.0-0.37","3","4","4","4","4","4","3","4","4","4","5","4","5","4","5","4","4","5","4","5","1","2","2","1","1","2","1","4","1","1","0","0","0","0","0","0","0","0","1","1","0","0","0","0","5","1","2","1","2","4","3","4","","","","763058298605015041","刘","280","","","","","","","","","","","","","","","","","","","","","","","","","","","","","","","","","","","","","","","","","",""
"949","<p style=""color:white; font-size: 35px;"">天才</p>","e","categorize-html","183","209114","0.0-6.0-0.0-8.0-1.37","3","4","4","4","4","4","3","4","4","4","5","4","5","4","5","4","4","5","4","5","1","2","2","1","1","2","1","4","1","1","0","0","0","0","0","0","0","0","1","1","0","0","0","0","5","1","2","1","2","4","3","4","","","","763058298605015041","刘","280","","","","","","","","","","","","","","","","","","","true","4","4","ability","949","positive","天才","","","","","","","","","","","","","","","","",""
"null","","null","html-keyboard-response","184","209367","0.0-6.0-0.0-8.0-0.38","3","4","4","4","4","4","3","4","4","4","5","4","5","4","5","4","4","5","4","5","1","2","2","1","1","2","1","4","1","1","0","0","0","0","0","0","0","0","1","1","0","0","0","0","5","1","2","1","2","4","3","4","","","","763058298605015041","刘","280","","","","","","","","","","","","","","","","","","","","","","","","","","","","","","","","","","","","","","","","","",""
"665","<p style=""color:rgb(150, 250, 100); font-size: 35px;"">自己的</p>","i","categorize-html","185","210037","0.0-6.0-0.0-8.0-1.38","3","4","4","4","4","4","3","4","4","4","5","4","5","4","5","4","4","5","4","5","1","2","2","1","1","2","1","4","1","1","0","0","0","0","0","0","0","0","1","1","0","0","0","0","5","1","2","1","2","4","3","4","","","","763058298605015041","刘","280","","","","","","","","","","","","","","","","","","","true","4","4","ability","665","self","自己的","","","","","","","","","","","","","","","","",""
"null","","null","html-keyboard-response","186","210289","0.0-6.0-0.0-8.0-0.39","3","4","4","4","4","4","3","4","4","4","5","4","5","4","5","4","4","5","4","5","1","2","2","1","1","2","1","4","1","1","0","0","0","0","0","0","0","0","1","1","0","0","0","0","5","1","2","1","2","4","3","4","","","","763058298605015041","刘","280","","","","","","","","","","","","","","","","","","","","","","","","","","","","","","","","","","","","","","","","","",""
"600","<p style=""color:white; font-size: 35px;"">愚钝</p>","i","categorize-html","187","210896","0.0-6.0-0.0-8.0-1.39","3","4","4","4","4","4","3","4","4","4","5","4","5","4","5","4","4","5","4","5","1","2","2","1","1","2","1","4","1","1","0","0","0","0","0","0","0","0","1","1","0","0","0","0","5","1","2","1","2","4","3","4","","","","763058298605015041","刘","280","","","","","","","","","","","","","","","","","","","true","4","4","ability","600","negative","愚钝","","","","","","","","","","","","","","","","",""
"null","","null","html-keyboard-response","188","211147","0.0-6.0-0.0-8.0-0.40","3","4","4","4","4","4","3","4","4","4","5","4","5","4","5","4","4","5","4","5","1","2","2","1","1","2","1","4","1","1","0","0","0","0","0","0","0","0","1","1","0","0","0","0","5","1","2","1","2","4","3","4","","","","763058298605015041","刘","280","","","","","","","","","","","","","","","","","","","","","","","","","","","","","","","","","","","","","","","","","",""
"672","<p style=""color:rgb(150, 250, 100); font-size: 35px;"">别人</p>","e","categorize-html","189","211824","0.0-6.0-0.0-8.0-1.40","3","4","4","4","4","4","3","4","4","4","5","4","5","4","5","4","4","5","4","5","1","2","2","1","1","2","1","4","1","1","0","0","0","0","0","0","0","0","1","1","0","0","0","0","5","1","2","1","2","4","3","4","","","","763058298605015041","刘","280","","","","","","","","","","","","","","","","","","","true","4","4","ability","672","other","别人","","","","","","","","","","","","","","","","",""
"null","","null","html-keyboard-response","190","212077","0.0-6.0-0.0-8.0-0.41","3","4","4","4","4","4","3","4","4","4","5","4","5","4","5","4","4","5","4","5","1","2","2","1","1","2","1","4","1","1","0","0","0","0","0","0","0","0","1","1","0","0","0","0","5","1","2","1","2","4","3","4","","","","763058298605015041","刘","280","","","","","","","","","","","","","","","","","","","","","","","","","","","","","","","","","","","","","","","","","",""
"610","<p style=""color:white; font-size: 35px;"">废物</p>","i","categorize-html","191","212693","0.0-6.0-0.0-8.0-1.41","3","4","4","4","4","4","3","4","4","4","5","4","5","4","5","4","4","5","4","5","1","2","2","1","1","2","1","4","1","1","0","0","0","0","0","0","0","0","1","1","0","0","0","0","5","1","2","1","2","4","3","4","","","","763058298605015041","刘","280","","","","","","","","","","","","","","","","","","","true","4","4","ability","610","negative","废物","","","","","","","","","","","","","","","","",""
"null","","null","html-keyboard-response","192","212946","0.0-6.0-0.0-8.0-0.42","3","4","4","4","4","4","3","4","4","4","5","4","5","4","5","4","4","5","4","5","1","2","2","1","1","2","1","4","1","1","0","0","0","0","0","0","0","0","1","1","0","0","0","0","5","1","2","1","2","4","3","4","","","","763058298605015041","刘","280","","","","","","","","","","","","","","","","","","","","","","","","","","","","","","","","","","","","","","","","","",""
"830","<p style=""color:rgb(150, 250, 100); font-size: 35px;"">本人的</p>","i","categorize-html","193","213780","0.0-6.0-0.0-8.0-1.42","3","4","4","4","4","4","3","4","4","4","5","4","5","4","5","4","4","5","4","5","1","2","2","1","1","2","1","4","1","1","0","0","0","0","0","0","0","0","1","1","0","0","0","0","5","1","2","1","2","4","3","4","","","","763058298605015041","刘","280","","","","","","","","","","","","","","","","","","","true","4","4","ability","830","self","本人的","","","","","","","","","","","","","","","","",""
"null","","null","html-keyboard-response","194","214032","0.0-6.0-0.0-8.0-0.43","3","4","4","4","4","4","3","4","4","4","5","4","5","4","5","4","4","5","4","5","1","2","2","1","1","2","1","4","1","1","0","0","0","0","0","0","0","0","1","1","0","0","0","0","5","1","2","1","2","4","3","4","","","","763058298605015041","刘","280","","","","","","","","","","","","","","","","","","","","","","","","","","","","","","","","","","","","","","","","","",""
